,accx,accy,accz,gyrox,gyroy,gyroz,heart rate
24863,open,open,open,open,open,open,open
24864,0.48238468,-0.0898819,0.14528656,0.03186035,-0.008496094,-0.2177124,124.0
24865,0.38590765,-0.069244385,0.12008667,0.03186035,-0.008496094,-0.2177124,124.0
24866,0.38590765,-0.069244385,0.12008667,0.022302246,-0.0010620117,-0.010620117,124.0
24867,0.3064189,-0.055862427,0.09693527,0.022302246,-0.0010620117,-0.010620117,124.0
24868,0.3064189,-0.055862427,0.09693527,-0.02442627,0.007434082,0.007434082,124.0
24869,3.2204893,-1.8210831,-1.2213898,-0.02442627,0.007434082,0.007434082,124.0
24870,3.2204893,-1.8210831,-1.2213898,-0.14868164,0.03079834,0.0031860352,124.0
24871,2.506921,-1.3909836,-1.0847893,-0.14868164,0.03079834,0.0031860352,124.0
24872,2.506921,-1.3909836,-1.0847893,-0.15186767,0.050976563,0.040356446,124.0
24873,2.0268748,-1.174675,-0.9074211,-0.15186767,0.050976563,0.040356446,124.0
24874,2.0268748,-1.174675,-0.9074211,-0.081774905,0.03717041,0.06584473,124.0
24875,1.6904941,-1.0923538,-0.61372757,-0.081774905,0.03717041,0.06584473,124.0
24876,1.6904941,-1.0923538,-0.61372757,-0.045666505,0.023364259,0.059472658,124.0
24877,1.3795925,-0.97389984,-0.38878632,-0.045666505,0.023364259,0.059472658,124.0
24878,1.3795925,-0.97389984,-0.38878632,-0.15930176,0.029736329,0.0180542,124.0
24879,1.0464963,-0.7561188,-0.3556366,-0.15930176,0.029736329,0.0180542,124.0
24880,1.0464963,-0.7561188,-0.3556366,-0.16885987,0.038232423,0.027612304,124.0
24881,0.75078344,-0.5356827,-0.3904915,-0.16885987,0.038232423,0.027612304,124.0
24882,0.75078344,-0.5356827,-0.3904915,-0.08283692,0.029736329,0.046728518,124.0
24883,0.60234797,-0.43634796,-0.34249496,-0.08283692,0.029736329,0.046728518,124.0
24884,0.60234797,-0.43634796,-0.34249496,0.0063720704,0.0063720704,0.059472658,124.0
24885,0.56041837,-0.43669128,-0.23303986,0.0063720704,0.0063720704,0.059472658,124.0
24886,0.56041837,-0.43669128,-0.23303986,-0.028674318,0.0031860352,0.028674318,124.0
24887,0.4528635,-0.36976624,-0.19197464,-0.028674318,0.0031860352,0.028674318,124.0
24888,0.4528635,-0.36976624,-0.19197464,-0.060534667,0.0031860352,0.008496094,124.0
24889,0.4528635,-0.36976624,-0.19197464,-0.04885254,0.0,-0.0031860352,124.0
24890,0.3041731,-0.2538681,-0.21665192,-0.04885254,0.0,-0.0031860352,124.0
24891,0.22890979,-0.21356964,-0.17945099,-0.04885254,0.0,-0.0031860352,124.0
24892,0.22890979,-0.21356964,-0.17945099,-0.02442627,0.0010620117,0.020178223,124.0
24893,0.19777626,-0.19625854,-0.08675003,-0.02442627,0.0010620117,0.020178223,124.0
24894,0.19777626,-0.19625854,-0.08675003,-0.0063720704,-0.004248047,0.02442627,124.0
24895,0.15376544,-0.13548279,-0.04569626,-0.0063720704,-0.004248047,0.02442627,124.0
24896,0.15376544,-0.13548279,-0.04569626,-0.012744141,0.004248047,0.022302246,124.0
24897,0.12125456,-0.0705719,-0.08535004,-0.012744141,0.004248047,0.022302246,124.0
24898,0.12125456,-0.0705719,-0.08535004,-0.040356446,0.010620117,0.029736329,124.0
24899,0.07660568,-0.052978516,-0.10703659,-0.040356446,0.010620117,0.029736329,124.0
24900,0.07660568,-0.052978516,-0.10703659,0.0,0.007434082,0.058410645,124.0
24901,0.05349648,-0.06929016,-0.061496735,0.0,0.007434082,0.058410645,124.0
24902,0.05349648,-0.06929016,-0.061496735,0.0361084,-0.004248047,0.04885254,124.0
24903,0.0550164,-0.08251953,-0.029750824,0.0361084,-0.004248047,0.04885254,124.0
24904,0.0550164,-0.08251953,-0.029750824,0.020178223,-0.0031860352,0.04248047,124.0
24905,0.01507026,-0.077552795,-0.031490326,0.020178223,-0.0031860352,0.04248047,124.0
24906,0.01507026,-0.077552795,-0.031490326,0.021240234,-0.0021240234,0.033984374,124.0
24907,0.01507026,-0.077552795,-0.031490326,0.009558106,0.0063720704,0.04991455,124.0
24908,-0.044816375,-0.06726837,-0.026535034,0.009558106,0.0063720704,0.04991455,124.0
24909,-0.06300151,-0.06199646,0.006137848,0.009558106,0.0063720704,0.04991455,124.0
24910,-0.06300151,-0.06199646,0.006137848,0.028674318,0.0031860352,0.053100586,124.0
24911,-0.060655117,-0.07511139,0.049308777,0.028674318,0.0031860352,0.053100586,124.0
24912,-0.060655117,-0.07511139,0.049308777,0.04885254,-0.010620117,0.029736329,124.0
24913,-0.0172863,-0.042770386,0.084724426,0.04885254,-0.010620117,0.029736329,124.0
24914,-0.0172863,-0.042770386,0.084724426,0.083898924,-0.021240234,0.027612304,124.0
24915,0.031178296,0.01939392,0.045318604,0.083898924,-0.021240234,0.027612304,124.0
24916,0.031178296,0.01939392,0.045318604,0.12213135,-0.045666505,0.022302246,124.0
24917,0.04719603,0.06568146,0.0024871826,0.12213135,-0.045666505,0.022302246,124.0
24918,0.04719603,0.06568146,0.0024871826,0.24213867,-0.090270996,0.050976563,124.0
24919,0.04646045,0.15161896,0.039855957,0.24213867,-0.090270996,0.050976563,124.0
24920,0.04646045,0.15161896,0.039855957,0.43754885,-0.16354981,0.078588866,124.0
24921,-1.6075373E-4,0.26732635,0.107227325,0.43754885,-0.16354981,0.078588866,124.0
24922,-1.6075373E-4,0.26732635,0.107227325,0.5798584,-0.19222413,0.22089843,124.0
24923,-0.07484782,0.30245972,0.13878632,0.5798584,-0.19222413,0.22089843,124.0
24924,-0.07484782,0.30245972,0.13878632,0.23895264,-0.070092775,0.26337892,124.0
24925,-0.0020779371,0.21872711,0.21929169,0.23895264,-0.070092775,0.26337892,124.0
24926,-0.0020779371,0.21872711,0.21929169,0.038232423,-0.070092775,0.10195313,124.0
24927,-0.0035300255,0.059402466,0.35490036,0.038232423,-0.070092775,0.10195313,124.0
24928,-0.0035300255,0.059402466,0.35490036,0.035046387,-0.040356446,0.09239502,124.0
24929,-0.14601254,-0.034324646,0.39931107,0.035046387,-0.040356446,0.09239502,124.0
24930,-0.14601254,-0.034324646,0.39931107,0.09451904,-0.07752686,0.090270996,124.0
24931,-0.19039404,-0.029937744,0.2972679,0.09451904,-0.07752686,0.090270996,124.0
24932,-0.19039404,-0.029937744,0.2972679,0.06903076,-0.07965088,0.06690674,124.0
24933,-0.19039404,-0.029937744,0.2972679,0.047790527,-0.08496094,0.06584473,124.0
24934,-0.15135086,0.026138306,0.16330338,0.047790527,-0.08496094,0.06584473,124.0
24935,-0.055931807,0.0683136,0.015407562,0.047790527,-0.08496094,0.06584473,124.0
24936,-0.055931807,0.0683136,0.015407562,0.090270996,-0.09451904,0.04991455,124.0
24937,0.096013844,0.12491608,-0.19903946,0.090270996,-0.09451904,0.04991455,124.0
24938,0.096013844,0.12491608,-0.19903946,0.12956543,-0.08071289,0.022302246,124.0
24939,0.23103476,0.21652985,-0.40046692,0.12956543,-0.08071289,0.022302246,124.0
24940,0.23103476,0.21652985,-0.40046692,0.16779785,-0.08071289,-0.0063720704,124.0
24941,0.25575066,0.3214264,-0.43518066,0.16779785,-0.08071289,-0.0063720704,124.0
24942,0.25575066,0.3214264,-0.43518066,-0.009558106,0.0,-0.028674318,124.0
24943,0.11425626,0.29936218,-0.30897522,-0.009558106,0.0,-0.028674318,124.0
24944,0.11425626,0.29936218,-0.30897522,-0.17523193,0.05628662,-0.016992187,124.0
24945,-0.09342164,0.09112549,-0.13246918,-0.17523193,0.05628662,-0.016992187,124.0
24946,-0.09342164,0.09112549,-0.13246918,-0.12850343,0.07434082,-0.029736329,124.0
24947,-0.18160987,-0.13494873,0.04714966,-0.12850343,0.07434082,-0.029736329,124.0
24948,-0.18160987,-0.13494873,0.04714966,-0.10513916,0.083898924,-0.007434082,124.0
24949,-0.16567367,-0.22498322,0.25460052,-0.10513916,0.083898924,-0.007434082,124.0
24950,-0.16567367,-0.22498322,0.25460052,-0.0637207,0.050976563,-0.022302246,124.0
24951,-0.13936263,-0.20850372,0.47275925,-0.0637207,0.050976563,-0.022302246,124.0
24952,-0.13936263,-0.20850372,0.47275925,0.057348635,0.0010620117,0.0180542,124.0
24953,-0.042727888,-0.104408264,0.59197617,0.057348635,0.0010620117,0.0180542,124.0
24954,-0.042727888,-0.104408264,0.59197617,0.13275146,-0.046728518,0.045666505,124.0
24955,0.09434551,0.058891296,0.48852158,0.13275146,-0.046728518,0.045666505,124.0
24956,0.09434551,0.058891296,0.48852158,0.057348635,-0.057348635,0.040356446,124.0
24957,0.11677283,0.13127899,0.19727325,0.057348635,-0.057348635,0.040356446,124.0
24958,0.11677283,0.13127899,0.19727325,0.07965088,-0.087084964,0.052038576,124.0
24959,0.08544707,0.09308624,-0.096343994,0.07965088,-0.087084964,0.052038576,124.0
24960,0.08544707,0.09308624,-0.096343994,0.121069334,-0.09133301,0.05628662,124.0
24961,0.055552483,0.09414673,-0.26040268,0.121069334,-0.09133301,0.05628662,124.0
24962,0.055552483,0.09414673,-0.26040268,0.1178833,-0.07540283,0.0541626,124.0
24963,0.0035117865,0.12699127,-0.26792908,0.1178833,-0.07540283,0.0541626,124.0
24964,0.0035117865,0.12699127,-0.26792908,0.081774905,-0.040356446,0.04141846,124.0
24965,-0.060056806,0.08206177,-0.13371277,0.081774905,-0.040356446,0.04141846,124.0
24966,-0.060056806,0.08206177,-0.13371277,0.052038576,-0.0053100586,0.040356446,124.0
24967,-0.09937602,0.007896423,0.025978088,0.052038576,-0.0053100586,0.040356446,124.0
24968,-0.09937602,0.007896423,0.025978088,0.0,0.012744141,0.020178223,124.0
24969,-0.10057014,-0.029342651,0.095256805,0.0,0.012744141,0.020178223,124.0
24970,-0.10057014,-0.029342651,0.095256805,-0.016992187,0.03186035,0.011682129,124.0
24971,-0.06138873,-0.027793884,0.10077667,-0.016992187,0.03186035,0.011682129,124.0
24972,-0.06138873,-0.027793884,0.10077667,-0.0053100586,0.027612304,-0.0021240234,124.0
24973,-0.017946422,0.009162903,0.10269165,-0.0053100586,0.027612304,-0.0021240234,124.0
24974,-0.017946422,0.009162903,0.10269165,0.007434082,0.035046387,-0.0031860352,124.0
24975,0.0019392371,0.05381012,0.13428879,0.007434082,0.035046387,-0.0031860352,124.0
24976,0.0019392371,0.05381012,0.13428879,-0.010620117,0.025488282,-0.0031860352,124.0
24977,-0.0028431416,0.089019775,0.13840103,-0.010620117,0.025488282,-0.0031860352,124.0
24978,-0.0028431416,0.089019775,0.13840103,-0.0031860352,-0.008496094,-0.0063720704,124.0
24979,-0.045621693,0.091812134,0.061405182,-0.0031860352,-0.008496094,-0.0063720704,124.0
24980,-0.045621693,0.091812134,0.061405182,0.011682129,-0.039294433,-0.012744141,124.0
24981,-0.10926348,0.02923584,-0.010604858,0.011682129,-0.039294433,-0.012744141,124.0
24982,-0.10926348,0.02923584,-0.010604858,0.07115479,-0.04885254,-0.0180542,124.0
24983,-0.1652062,-0.029808044,-0.00749588,0.07115479,-0.04885254,-0.0180542,124.0
24984,-0.1652062,-0.029808044,-0.00749588,0.14337158,-0.087084964,-0.019116212,124.0
24985,-0.18403268,0.02091217,0.054965973,0.14337158,-0.087084964,-0.019116212,124.0
24986,-0.18403268,0.02091217,0.054965973,0.21134034,-0.12319336,-0.014868164,124.0
24987,-0.19557816,0.10725403,0.08877182,0.21134034,-0.12319336,-0.014868164,124.0
24988,-0.19557816,0.10725403,0.08877182,0.362146,-0.21240234,-0.0063720704,124.0
24989,-0.2382496,0.2609253,-0.009681702,0.362146,-0.21240234,-0.0063720704,124.0
24990,-0.2382496,0.2609253,-0.009681702,0.59260255,-0.3079834,-0.0063720704,124.0
24991,-0.27459627,0.41529846,-0.042339325,0.59260255,-0.3079834,-0.0063720704,124.0
24992,-0.27459627,0.41529846,-0.042339325,0.8889038,-0.3525879,-0.013806152,124.0
24993,-0.21972585,0.43969727,0.22820282,0.8889038,-0.3525879,-0.013806152,124.0
24994,-0.21972585,0.43969727,0.22820282,1.0556396,-0.41949463,-0.021240234,124.0
24995,0.08114076,0.4484024,0.54517365,1.0556396,-0.41949463,-0.021240234,124.0
24996,0.08114076,0.4484024,0.54517365,1.0216553,-0.4248047,0.0063720704,124.0
24997,0.58632374,0.6881027,0.69159317,1.0216553,-0.4248047,0.0063720704,124.0
24998,0.58632374,0.6881027,0.69159317,0.7508423,-0.2803711,-0.090270996,124.0
24999,0.9786903,0.997406,0.746048,0.7508423,-0.2803711,-0.090270996,124.0
25000,0.9786903,0.997406,0.746048,0.30479738,-0.115759276,-0.06903076,124.0
25001,1.0195733,1.209671,0.61724854,0.30479738,-0.115759276,-0.06903076,124.0
25002,1.0195733,1.209671,0.61724854,0.033984374,-0.0010620117,-0.16354981,124.0
25003,0.72102976,1.1801147,0.3463974,0.033984374,-0.0010620117,-0.16354981,124.0
25004,0.72102976,1.1801147,0.3463974,0.06796875,0.090270996,-0.16461182,124.0
25005,0.37858164,0.8275986,0.22311401,0.06796875,0.090270996,-0.16461182,124.0
25006,0.37858164,0.8275986,0.22311401,0.11151123,0.095581055,-0.17947999,124.0
25007,0.13106355,0.5026474,0.2152214,0.11151123,0.095581055,-0.17947999,124.0
25008,0.13106355,0.5026474,0.2152214,0.0361084,0.1263794,-0.2081543,124.0
25009,-0.08159935,0.24845886,0.19454193,0.0361084,0.1263794,-0.2081543,124.0
25010,-0.08159935,0.24845886,0.19454193,-0.03079834,0.1444336,-0.2357666,124.0
25011,-0.25163203,-0.0060195923,0.15896606,-0.03079834,0.1444336,-0.2357666,124.0
25012,-0.25163203,-0.0060195923,0.15896606,-0.059472658,0.12956543,-0.26444092,124.0
25013,-0.35899603,-0.19639587,0.056297302,-0.059472658,0.12956543,-0.26444092,124.0
25014,-0.35899603,-0.19639587,0.056297302,-0.035046387,0.087084964,-0.2793091,124.0
25015,-0.3171407,-0.23248291,-0.0846405,-0.035046387,0.087084964,-0.2793091,124.0
25016,-0.3171407,-0.23248291,-0.0846405,0.004248047,0.05522461,-0.29417726,124.0
25017,-0.06703043,-0.094703674,-0.1357193,0.004248047,0.05522461,-0.29417726,124.0
25018,-0.06703043,-0.094703674,-0.1357193,-0.0361084,0.053100586,-0.30479738,124.0
25019,0.25584832,0.075424194,-0.07878113,-0.0361084,0.053100586,-0.30479738,124.0
25020,0.25584832,0.075424194,-0.07878113,-0.060534667,0.047790527,-0.30373535,124.0
25021,0.43264496,0.20256042,-0.04207611,-0.060534667,0.047790527,-0.30373535,124.0
25022,0.43264496,0.20256042,-0.04207611,-0.0998291,0.046728518,-0.28461915,124.0
25023,0.3970315,0.24428558,-0.05311966,-0.0998291,0.046728518,-0.28461915,124.0
25024,0.3970315,0.24428558,-0.05311966,-0.07115479,0.038232423,-0.27612305,124.0
25025,0.29008615,0.23944855,-0.09689331,-0.07115479,0.038232423,-0.27612305,124.0
25026,0.29008615,0.23944855,-0.09689331,0.08814698,-0.025488282,-0.24320069,124.0
25027,0.25865585,0.16899872,-0.06688309,0.08814698,-0.025488282,-0.24320069,124.0
25028,0.25865585,0.16899872,-0.06688309,0.1178833,-0.050976563,-0.2538208,124.0
25029,0.2684237,-0.061775208,-0.087379456,0.1178833,-0.050976563,-0.2538208,124.0
25030,0.2684237,-0.061775208,-0.087379456,0.21240234,-0.10513916,-0.19116211,124.0
25031,0.27419943,-0.09072113,-0.09649277,0.21240234,-0.10513916,-0.19116211,124.0
25032,0.27419943,-0.09072113,-0.09649277,0.26762697,-0.09770508,-0.19647217,124.0
25033,0.5222526,0.21746063,-0.21698761,0.26762697,-0.09770508,-0.19647217,124.0
25034,0.5222526,0.21746063,-0.21698761,0.3451538,-0.12319336,-0.20921631,124.0
25035,0.52607846,0.36331177,-0.07357788,0.3451538,-0.12319336,-0.20921631,124.0
25036,0.52607846,0.36331177,-0.07357788,0.35152587,-0.0998291,-0.18691407,124.0
25037,0.35039163,0.48892975,0.41800308,0.35152587,-0.0998291,-0.18691407,124.0
25038,0.35039163,0.48892975,0.41800308,0.4364868,-0.06159668,-0.08814698,124.0
25039,0.2534212,0.45148468,0.4033699,0.4364868,-0.06159668,-0.08814698,124.0
25040,0.2534212,0.45148468,0.4033699,0.45135498,-0.07115479,-0.093457036,124.0
25041,0.19278824,0.5839386,0.119018555,0.45135498,-0.07115479,-0.093457036,124.0
25042,0.19278824,0.5839386,0.119018555,0.5628662,-0.13912354,-0.038232423,124.0
25043,0.16286099,0.31703186,-0.15335464,0.5628662,-0.13912354,-0.038232423,124.0
25044,0.16286099,0.31703186,-0.15335464,0.65207523,-0.17629395,0.007434082,124.0
25045,0.56643385,-1.0536652,-0.9149704,0.65207523,-0.17629395,0.007434082,124.0
25046,0.56643385,-1.0536652,-0.9149704,1.454956,-0.53950197,0.270813,124.0
25047,0.57233655,-0.2756958,-0.67899704,1.454956,-0.53950197,0.270813,124.0
25048,0.57233655,-0.2756958,-0.67899704,1.4931885,-0.6053467,0.31010744,124.0
25049,0.1358478,1.55056,-0.91409683,1.4931885,-0.6053467,0.31010744,124.0
25050,0.1358478,1.55056,-0.91409683,1.7236451,-0.9366943,0.19647217,124.0
25051,-0.28039646,2.0008392,-1.6980972,1.7236451,-0.9366943,0.19647217,124.0
25052,-0.28039646,2.0008392,-1.6980972,2.0284424,-1.173523,0.11469727,124.0
25053,-0.21958083,1.6929779,-1.7015686,2.0284424,-1.173523,0.11469727,124.0
25054,-0.21958083,1.6929779,-1.7015686,2.2907593,-1.3052124,0.015930176,124.0
25055,0.14874941,2.1207733,-0.4101181,2.2907593,-1.3052124,0.015930176,124.0
25056,0.14874941,2.1207733,-0.4101181,2.34386,-1.3498169,-0.15611573,124.0
25057,0.7894707,2.6527557,0.9952469,2.34386,-1.3498169,-0.15611573,124.0
25058,0.7894707,2.6527557,0.9952469,2.2344728,-1.2595459,-0.1996582,124.0
25059,1.5989838,3.1051636,1.5211487,2.2344728,-1.2595459,-0.1996582,124.0
25060,1.5989838,3.1051636,1.5211487,2.4829834,-1.2999023,-0.26762697,124.0
25061,1.5989838,3.1051636,1.5211487,2.4829834,-1.2999023,-0.26762697,0.0
25062,2.161499,3.606079,1.4856071,2.4829834,-1.2999023,-0.26762697,0.0
25063,2.161499,3.606079,1.4856071,2.802649,-1.3232666,-0.1444336,0.0
25064,2.5977173,2.7284775,2.7874374,2.802649,-1.3232666,-0.1444336,0.0
25065,2.5977173,2.7284775,2.7874374,2.986377,-0.9281983,0.10195313,0.0
25066,3.2414796,1.7245026,5.438896,2.986377,-0.9281983,0.10195313,0.0
25067,3.2414796,1.7245026,5.438896,0.17947999,-0.3419678,-0.13381349,0.0
25068,2.3576245,2.34095,3.273407,0.17947999,-0.3419678,-0.13381349,0.0
25069,2.3576245,2.34095,3.273407,0.26550293,-0.16461182,0.2824951,0.0
25070,0.45919514,1.890068,-1.944046,0.26550293,-0.16461182,0.2824951,0.0
25071,0.45919514,1.890068,-1.944046,0.75509036,-0.3791382,-0.029736329,0.0
25072,-0.01897192,1.3033295,-2.1795998,0.75509036,-0.3791382,-0.029736329,0.0
25073,-0.01897192,1.3033295,-2.1795998,0.61065674,-0.31010744,-0.046728518,0.0
25074,-0.25233603,1.2868652,-1.9340591,0.61065674,-0.31010744,-0.046728518,0.0
25075,-0.25233603,1.2868652,-1.9340591,0.16248779,-0.118945315,-0.1083252,0.0
25076,0.26295042,1.3606491,-1.4478683,0.16248779,-0.118945315,-0.1083252,0.0
25077,0.26295042,1.3606491,-1.4478683,-0.16036378,0.06584473,-0.14868164,0.0
25078,0.5343962,0.78398895,-1.2391815,-0.16036378,0.06584473,-0.14868164,0.0
25079,0.5343962,0.78398895,-1.2391815,0.15505372,0.027612304,-0.13912354,0.0
25080,0.50884056,0.1491394,-0.48934555,0.15505372,0.027612304,-0.13912354,0.0
25081,0.50884056,0.1491394,-0.48934555,0.62127686,-0.12213135,-0.1444336,0.0
25082,0.5428877,0.28819275,0.7523689,0.62127686,-0.12213135,-0.1444336,0.0
25083,0.5428877,0.28819275,0.7523689,0.1359375,0.0010620117,-0.07327881,0.0
25084,0.49677372,0.4717636,0.5182266,0.1359375,0.0010620117,-0.07327881,0.0
25085,0.49677372,0.4717636,0.5182266,0.033984374,0.026550293,-0.0361084,0.0
25086,0.50559807,0.74583435,-0.33835983,0.033984374,0.026550293,-0.0361084,0.0
25087,0.50559807,0.74583435,-0.33835983,-0.035046387,0.08283692,0.0637207,0.0
25088,0.32530355,0.73355865,-0.94924927,-0.035046387,0.08283692,0.0637207,0.0
25089,0.32530355,0.73355865,-0.94924927,0.19753419,0.026550293,0.1529297,0.0
25090,0.032215595,0.41004944,-0.65163803,0.19753419,0.026550293,0.1529297,0.0
25091,0.032215595,0.41004944,-0.65163803,0.17841797,0.0031860352,0.24001466,0.0
25092,-0.093832016,-0.07989502,0.0154418945,0.17841797,0.0031860352,0.24001466,0.0
25093,-0.093832016,-0.07989502,0.0154418945,-0.12850343,0.09770508,0.27293703,0.0
25094,-0.082108974,-0.23760986,0.19719315,-0.12850343,0.09770508,0.27293703,0.0
25095,-0.082108974,-0.23760986,0.19719315,-0.41206056,0.18372802,0.31966552,0.0
25096,-0.039258957,-0.2420044,-0.13809204,-0.41206056,0.18372802,0.31966552,0.0
25097,-0.039258957,-0.2420044,-0.13809204,-0.5501221,0.24957275,0.3440918,0.0
25098,-0.048069954,-0.35214996,-0.30743408,-0.5501221,0.24957275,0.3440918,0.0
25099,-0.048069954,-0.35214996,-0.30743408,-0.4609131,0.27293703,0.3971924,0.0
25100,-0.11722803,-0.49258423,0.011047363,-0.4609131,0.27293703,0.3971924,0.0
25101,-0.11722803,-0.49258423,0.011047363,-0.45029297,0.27506104,0.47471926,0.0
25102,-0.29556465,-0.5327301,0.17734528,-0.45029297,0.27506104,0.47471926,0.0
25103,-0.29556465,-0.5327301,0.17734528,-0.5979126,0.26337892,0.44498292,0.0
25104,-0.5843034,-0.78741455,-0.004436493,-0.5979126,0.26337892,0.44498292,0.0
25105,-0.5843034,-0.78741455,-0.004436493,-0.68924564,0.31966552,0.44073486,0.0
25106,-0.75939846,-1.1658478,0.0081214905,-0.68924564,0.31966552,0.44073486,0.0
25107,-0.75939846,-1.1658478,0.0081214905,-0.5649902,0.3345337,0.4609131,0.0
25108,-0.6176138,-1.1476593,0.23569489,-0.5649902,0.3345337,0.4609131,0.0
25109,-0.6176138,-1.1476593,0.23569489,-0.5872925,0.38551027,0.5331299,0.0
25110,-0.31306076,-0.88438416,0.20238876,-0.5872925,0.38551027,0.5331299,0.0
25111,-0.31306076,-0.88438416,0.20238876,-0.7327881,0.44498292,0.5851685,0.0
25112,-0.21976042,-0.8203354,-0.093559265,-0.7327881,0.44498292,0.5851685,0.0
25113,-0.21976042,-0.8203354,-0.093559265,-0.7688965,0.46728516,0.6265869,0.0
25114,-0.5210352,-0.97533417,-0.029987335,-0.7688965,0.46728516,0.6265869,0.0
25115,-0.5210352,-0.97533417,-0.029987335,-0.64782715,0.42374268,0.59897465,0.0
25116,-0.90650105,-1.2658997,0.45349884,-0.64782715,0.42374268,0.59897465,0.0
25117,-0.90650105,-1.2658997,0.45349884,-0.79969484,0.4364868,0.5586182,0.0
25118,-0.93748116,-1.5416412,0.90977097,-0.79969484,0.4364868,0.5586182,0.0
25119,-0.93748116,-1.5416412,0.90977097,-1.0301514,0.5055176,0.5363159,0.0
25120,-0.76324177,-1.4914398,0.98716736,-1.0301514,0.5055176,0.5363159,0.0
25121,-0.76324177,-1.4914398,0.98716736,-1.2521118,0.631897,0.5299439,0.0
25122,-0.649241,-1.3540039,0.5862045,-1.2521118,0.631897,0.5299439,0.0
25123,-0.649241,-1.3540039,0.5862045,-1.447522,0.7497803,0.5703003,0.0
25124,-0.6249471,-1.3691864,0.28473282,-1.447522,0.7497803,0.5703003,0.0
25125,-0.6249471,-1.3691864,0.28473282,-1.5515991,0.82730716,0.64995116,0.0
25126,-0.6928408,-1.491539,0.6208916,-1.5515991,0.82730716,0.64995116,0.0
25127,-0.6928408,-1.491539,0.6208916,-1.8553345,0.85385746,0.73809814,0.0
25128,-0.8583622,-1.9162903,0.95422363,-1.8553345,0.85385746,0.73809814,0.0
25129,-0.8583622,-1.9162903,0.95422363,-2.3937745,1.0365235,0.88040775,0.0
25130,-1.1582475,-2.5361328,0.69332504,-2.3937745,1.0365235,0.88040775,0.0
25131,-1.1582475,-2.5361328,0.69332504,-2.6072388,1.1639649,0.9866089,0.0
25132,-1.5443349,-2.7962646,0.17889023,-2.6072388,1.1639649,0.9866089,0.0
25133,-1.5443349,-2.7962646,0.17889023,-2.6603394,1.1947632,0.95793456,0.0
25134,-1.7734562,-2.593933,-0.5757103,-2.6603394,1.1947632,0.95793456,0.0
25135,-1.7734562,-2.593933,-0.5757103,-2.8440673,1.1098022,0.9526245,0.0
25136,-1.7882107,-2.3325958,-1.4931107,-2.8440673,1.1098022,0.9526245,0.0
25137,-1.7882107,-2.3325958,-1.4931107,-2.6975098,0.98236084,0.9632446,0.0
25138,-1.7618797,-2.220192,-2.1785126,-2.6975098,0.98236084,0.9632446,0.0
25139,-1.7618797,-2.220192,-2.1785126,-2.4946656,0.84536135,0.93563235,0.0
25140,-1.8894354,-2.3576126,-2.4437637,-2.4946656,0.84536135,0.93563235,0.0
25141,-1.8894354,-2.3576126,-2.4437637,-2.270581,0.7890747,0.9611206,0.0
25142,-2.0674443,-2.6661072,-2.1675873,-2.270581,0.7890747,0.9611206,0.0
25143,-2.0674443,-2.6661072,-2.1675873,-2.084729,0.69349366,0.9589966,0.0
25144,-2.060462,-2.916893,-1.5125351,-2.084729,0.69349366,0.9589966,0.0
25145,-2.060462,-2.916893,-1.5125351,-2.0560548,0.68287355,0.9547486,0.0
25146,-1.9045463,-2.978302,-1.0732613,-2.0560548,0.68287355,0.9547486,0.0
25147,-1.9045463,-2.978302,-1.0732613,-2.253589,0.7041138,1.0354614,0.0
25148,-1.7292767,-2.7645416,-1.2350998,-2.253589,0.7041138,1.0354614,0.0
25149,-1.7292767,-2.7645416,-1.2350998,-2.4298828,0.74871826,1.0407715,0.0
25150,-1.7283187,-2.2923584,-1.8639832,-2.4298828,0.74871826,1.0407715,0.0
25151,-1.7283187,-2.2923584,-1.8639832,-2.608301,0.62552494,1.0683838,0.0
25152,-2.1495006,-1.0553436,-3.3373184,-2.608301,0.62552494,1.0683838,0.0
25153,-2.1495006,-1.0553436,-3.3373184,-2.2344728,0.29099122,0.62340087,0.0
25154,-2.7721152,-1.1179657,-4.697075,-2.2344728,0.29099122,0.62340087,0.0
25155,-2.7721152,-1.1179657,-4.697075,-1.2223755,0.11469727,0.87403566,0.0
25156,-2.747807,-3.0497818,-3.7703438,-1.2223755,0.11469727,0.87403566,0.0
25157,-2.747807,-3.0497818,-3.7703438,-0.08283692,0.026550293,0.75296634,0.0
25158,-2.221439,-3.682869,-0.99829483,-0.08283692,0.026550293,0.75296634,0.0
25159,-2.221439,-3.682869,-0.99829483,0.039294433,-0.02442627,0.631897,0.0
25160,-1.587637,-2.68647,1.027317,0.039294433,-0.02442627,0.631897,0.0
25161,-1.587637,-2.68647,1.027317,-0.5564942,0.032922365,0.6117188,0.0
25162,-0.8105879,-1.5284729,1.0832901,-0.5564942,0.032922365,0.6117188,0.0
25163,-0.8105879,-1.5284729,1.0832901,-1.0227174,0.14974366,0.5171997,0.0
25164,-0.28732538,-0.9430542,0.012699127,-1.0227174,0.14974366,0.5171997,0.0
25165,-0.28732538,-0.9430542,0.012699127,-1.170337,0.13275146,0.5214478,0.0
25166,-0.28732538,-0.9430542,0.012699127,-1.170337,0.13275146,0.5214478,0.0
25167,-0.23849058,-0.6481705,-1.0263138,-1.170337,0.13275146,0.5214478,0.0
25168,-0.23849058,-0.6481705,-1.0263138,-1.0418335,-0.0180542,0.4704712,0.0
25169,-0.6240568,-0.39899445,-1.6763458,-1.0418335,-0.0180542,0.4704712,0.0
25170,-0.6240568,-0.39899445,-1.6763458,-0.8230591,-0.19222413,0.42799073,0.0
25171,-1.195364,-0.57455444,-1.9654312,-0.8230591,-0.19222413,0.42799073,0.0
25172,-1.195364,-0.57455444,-1.9654312,-0.18797608,-0.33984375,0.42799073,0.0
25173,-1.4349165,-0.93801117,-2.1327095,-0.18797608,-0.33984375,0.42799073,0.0
25174,-1.4349165,-0.93801117,-2.1327095,0.43861085,-0.28780517,0.3982544,0.0
25175,-1.1529255,-0.90467834,-1.389801,0.43861085,-0.28780517,0.3982544,0.0
25176,-1.1529255,-0.90467834,-1.389801,0.632959,-0.3175415,0.52038574,0.0
25177,-0.7604022,-0.5267792,0.3030281,0.632959,-0.3175415,0.52038574,0.0
25178,-0.7604022,-0.5267792,0.3030281,0.30267334,-0.21452637,0.42905274,0.0
25179,-0.5930872,-0.21769714,1.0589142,0.30267334,-0.21452637,0.42905274,0.0
25180,-0.5930872,-0.21769714,1.0589142,0.22089843,-0.20603028,0.3706421,0.0
25181,-0.32908392,-0.008560181,0.6291504,0.22089843,-0.20603028,0.3706421,0.0
25182,-0.32908392,-0.008560181,0.6291504,0.04991455,-0.18372802,0.38551027,0.0
25183,0.11689663,0.2291336,0.4103279,0.04991455,-0.18372802,0.38551027,0.0
25184,0.11689663,0.2291336,0.4103279,-0.13168946,-0.14655761,0.36427003,0.0
25185,0.25744534,0.3017044,0.7935829,-0.13168946,-0.14655761,0.36427003,0.0
25186,0.25744534,0.3017044,0.7935829,-0.09451904,-0.2177124,0.43754885,0.0
25187,-0.056568146,0.2223053,0.9327278,-0.09451904,-0.2177124,0.43754885,0.0
25188,-0.056568146,0.2223053,0.9327278,0.0063720704,-0.3706421,0.44604492,0.0
25189,-0.51078176,-0.025665283,0.60344696,0.0063720704,-0.3706421,0.44604492,0.0
25190,-0.51078176,-0.025665283,0.60344696,0.07115479,-0.5129517,0.5171997,0.0
25191,-0.7527294,-0.2387085,0.25762177,0.07115479,-0.5129517,0.5171997,0.0
25192,-0.7527294,-0.2387085,0.25762177,0.009558106,-0.6680054,0.50445557,0.0
25193,-0.61923695,-0.15008545,-0.098358154,0.009558106,-0.6680054,0.50445557,0.0
25194,-0.61923695,-0.15008545,-0.098358154,-0.13912354,-0.65207523,0.44710693,0.0
25195,-0.34039688,0.0059051514,-0.62293625,-0.13912354,-0.65207523,0.44710693,0.0
25196,-0.34039688,0.0059051514,-0.62293625,-0.13912354,-0.631897,0.3175415,0.0
25197,-0.18628216,-0.054977417,-0.97792816,-0.13912354,-0.631897,0.3175415,0.0
25198,-0.18628216,-0.054977417,-0.97792816,-0.16461182,-0.542688,0.28780517,0.0
25199,-0.2026267,-0.19926453,-0.72211456,-0.16461182,-0.542688,0.28780517,0.0
25200,-0.2026267,-0.19926453,-0.72211456,-0.1178833,-0.48427734,0.1996582,0.0
25201,-0.23026562,-0.06855011,-0.3560257,-0.1178833,-0.48427734,0.1996582,0.0
25202,-0.23026562,-0.06855011,-0.3560257,-0.3706421,-0.40993652,0.13062744,0.0
25203,-0.12947607,0.07350159,-0.46443558,-0.3706421,-0.40993652,0.13062744,0.0
25204,-0.12947607,0.07350159,-0.46443558,-0.5171997,-0.20603028,0.095581055,0.0
25205,-0.018180847,-0.17079926,-0.7986107,-0.5171997,-0.20603028,0.095581055,0.0
25206,-0.018180847,-0.17079926,-0.7986107,-0.2824951,-0.2166504,0.09133301,0.0
25207,-0.0069274902,-0.41696167,-0.72958755,-0.2824951,-0.2166504,0.09133301,0.0
25208,-0.0069274902,-0.41696167,-0.72958755,-0.04460449,-0.15717773,0.06584473,0.0
25209,-0.03618145,-0.32661438,-0.23634338,-0.04460449,-0.15717773,0.06584473,0.0
25210,-0.03618145,-0.32661438,-0.23634338,0.070092775,-0.10620117,0.015930176,0.0
25211,-0.03423071,-0.16636658,-0.0010032654,0.070092775,-0.10620117,0.015930176,0.0
25212,-0.03423071,-0.16636658,-0.0010032654,0.059472658,-0.0998291,0.028674318,0.0
25213,0.036604404,-0.007659912,-0.14498138,0.059472658,-0.0998291,0.028674318,0.0
25214,0.036604404,-0.007659912,-0.14498138,-0.0998291,-0.06903076,0.0053100586,0.0
25215,0.07663441,0.036712646,-0.23156357,-0.0998291,-0.06903076,0.0053100586,0.0
25216,0.07663441,0.036712646,-0.23156357,-0.118945315,-0.047790527,-0.019116212,0.0
25217,0.022855759,-0.08805847,-0.15008545,-0.118945315,-0.047790527,-0.019116212,0.0
25218,0.022855759,-0.08805847,-0.15008545,-0.06584473,-0.015930176,-0.0361084,0.0
25219,-0.002931118,-0.16751862,-0.09574127,-0.06584473,-0.015930176,-0.0361084,0.0
25220,-0.002931118,-0.16751862,-0.09574127,-0.0180542,0.021240234,-0.0541626,0.0
25221,0.057469845,-0.12352753,-0.12292099,-0.0180542,0.021240234,-0.0541626,0.0
25222,0.057469845,-0.12352753,-0.12292099,0.0021240234,0.059472658,-0.0637207,0.0
25223,0.11770439,-0.035560608,-0.16452408,0.0021240234,0.059472658,-0.0637207,0.0
25224,0.11770439,-0.035560608,-0.16452408,-0.046728518,0.09451904,-0.07327881,0.0
25225,0.10176849,-0.035240173,-0.18397522,-0.046728518,0.09451904,-0.07327881,0.0
25226,0.10176849,-0.035240173,-0.18397522,-0.060534667,0.1178833,-0.08814698,0.0
25227,0.030011177,-0.104644775,-0.17884445,-0.060534667,0.1178833,-0.08814698,0.0
25228,0.030011177,-0.104644775,-0.17884445,-0.07327881,0.14230958,-0.10513916,0.0
25229,-0.005800247,-0.15274048,-0.13208008,-0.07327881,0.14230958,-0.10513916,0.0
25230,-0.005800247,-0.15274048,-0.13208008,-0.0637207,0.1539917,-0.124255374,0.0
25231,0.02888012,-0.14577484,-0.080898285,-0.0637207,0.1539917,-0.124255374,0.0
25232,0.02888012,-0.14577484,-0.080898285,-0.07434082,0.1709839,-0.13699952,0.0
25233,0.06607294,-0.10246277,-0.11495209,-0.07434082,0.1709839,-0.13699952,0.0
25234,0.06607294,-0.10246277,-0.11495209,-0.09133301,0.17523193,-0.15080567,0.0
25235,0.06660366,-0.09411621,-0.20339966,-0.09133301,0.17523193,-0.15080567,0.0
25236,0.06660366,-0.09411621,-0.20339966,-0.046728518,0.16248779,-0.15717773,0.0
25237,0.038817406,-0.10926819,-0.21966553,-0.046728518,0.16248779,-0.15717773,0.0
25238,0.038817406,-0.10926819,-0.21966553,-0.004248047,0.14974366,-0.16992188,0.0
25239,0.012523651,-0.120651245,-0.12145996,-0.004248047,0.14974366,-0.16992188,0.0
25240,0.012523651,-0.120651245,-0.12145996,0.019116212,0.14549561,-0.16461182,0.0
25241,0.021908283,-0.10664368,0.018650055,0.019116212,0.14549561,-0.16461182,0.0
25242,0.021908283,-0.10664368,0.018650055,0.012744141,0.15717773,-0.16461182,0.0
25243,0.052804947,-0.092315674,0.042240143,0.012744141,0.15717773,-0.16461182,0.0
25244,0.052804947,-0.092315674,0.042240143,-0.016992187,0.15930176,-0.1720459,0.0
25245,0.07587433,-0.058441162,-0.07129669,-0.016992187,0.15930176,-0.1720459,0.0
25246,0.07587433,-0.058441162,-0.07129669,-0.022302246,0.15186767,-0.18479005,0.0
25247,0.10264301,-0.026565552,-0.17540741,-0.022302246,0.15186767,-0.18479005,0.0
25248,0.10264301,-0.026565552,-0.17540741,0.020178223,0.13912354,-0.18054199,0.0
25249,0.13741255,-0.02683258,-0.15093231,0.020178223,0.13912354,-0.18054199,0.0
25250,0.13741255,-0.02683258,-0.15093231,0.039294433,0.13168946,-0.16673584,0.0
25251,0.16686344,-0.008453369,-0.01776886,0.039294433,0.13168946,-0.16673584,0.0
25252,0.16686344,-0.008453369,-0.01776886,-0.012744141,0.13062744,-0.1529297,0.0
25253,0.14429379,4.119873E-4,0.053207397,-0.012744141,0.13062744,-0.1529297,0.0
25254,0.14429379,4.119873E-4,0.053207397,-0.10407715,0.12000733,-0.15186767,0.0
25255,0.09829664,-0.05949402,0.009094238,-0.10407715,0.12000733,-0.15186767,0.0
25256,0.09829664,-0.05949402,0.009094238,-0.17735596,0.11151123,-0.1359375,0.0
25257,0.07188702,-0.16419983,-0.052978516,-0.17735596,0.11151123,-0.1359375,0.0
25258,0.07188702,-0.16419983,-0.052978516,-0.15505372,0.12850343,-0.1083252,0.0
25259,0.059133053,-0.1745758,-0.10663986,-0.15505372,0.12850343,-0.1083252,0.0
25260,0.059133053,-0.1745758,-0.10663986,-0.13912354,0.10195313,-0.1178833,0.0
25261,0.048905373,-0.0949707,-0.1870346,-0.13912354,0.10195313,-0.1178833,0.0
25262,0.048905373,-0.0949707,-0.1870346,-0.1359375,0.05628662,-0.13699952,0.0
25263,0.058338165,-0.03530121,-0.26426697,-0.1359375,0.05628662,-0.13699952,0.0
25264,0.058338165,-0.03530121,-0.26426697,-0.12956543,-0.0021240234,-0.1709839,0.0
25265,0.10939026,-0.07862091,-0.23305511,-0.12956543,-0.0021240234,-0.1709839,0.0
25266,0.10939026,-0.07862091,-0.23305511,-0.057348635,-0.083898924,-0.1901001,0.0
25267,0.180933,-0.09522247,-0.035053253,-0.057348635,-0.083898924,-0.1901001,0.0
25268,0.180933,-0.09522247,-0.035053253,-0.057348635,-0.083898924,-0.1901001,0.0
25269,0.180933,-0.09522247,-0.035053253,-0.1529297,-0.15823975,-0.23895264,0.0
25270,0.21284962,0.0034942627,0.14516449,-0.1529297,-0.15823975,-0.23895264,0.0
25271,0.21284962,0.0034942627,0.14516449,-0.4800293,-0.19328614,-0.2793091,0.0
25272,0.23232841,-0.067726135,0.029338837,-0.4800293,-0.19328614,-0.2793091,0.0
25273,0.23232841,-0.067726135,0.029338837,-0.721106,-0.18797608,-0.21240234,0.0
25274,0.35871458,-0.2069397,-0.2995262,-0.721106,-0.18797608,-0.21240234,0.0
25275,0.35871458,-0.2069397,-0.2995262,-0.7497803,-0.2166504,-0.07965088,0.0
25276,0.5163665,-0.0025177002,-0.58296967,-0.7497803,-0.2166504,-0.07965088,0.0
25277,0.5163665,-0.0025177002,-0.58296967,-0.99085695,-0.25806886,0.12213135,0.0
25278,0.5187082,0.31591797,-0.87228394,-0.99085695,-0.25806886,0.12213135,0.0
25279,0.5187082,0.31591797,-0.87228394,-1.3838013,-0.33028564,0.3727661,0.0
25280,0.47907782,0.16255188,-1.1625099,-1.3838013,-0.33028564,0.3727661,0.0
25281,0.47907782,0.16255188,-1.1625099,-1.6981567,-0.26550293,0.49383545,0.0
25282,0.2963724,-0.40196228,-1.3331451,-1.6981567,-0.26550293,0.49383545,0.0
25283,0.2963724,-0.40196228,-1.3331451,-2.2206666,-0.2899292,0.540564,0.0
25284,-0.19279718,-0.9527893,-1.6014557,-2.2206666,-0.2899292,0.540564,0.0
25285,-0.19279718,-0.9527893,-1.6014557,-2.4999757,-0.42268068,0.46409914,0.0
25286,-0.71833706,-1.0753937,-2.0970345,-2.4999757,-0.42268068,0.46409914,0.0
25287,-0.71833706,-1.0753937,-2.0970345,-2.0263183,-0.67650145,0.51188964,0.0
25288,-0.9120722,-0.57250977,-2.5440598,-2.0263183,-0.67650145,0.51188964,0.0
25289,-0.9120722,-0.57250977,-2.5440598,-1.7013428,-0.90908206,0.6138428,0.0
25290,-0.6770086,-0.08565521,-2.856186,-1.7013428,-0.90908206,0.6138428,0.0
25291,-0.6770086,-0.08565521,-2.856186,-1.5972656,-1.1066163,0.74447024,0.0
25292,-0.38192654,-0.46694183,-3.1671524,-1.5972656,-1.1066163,0.74447024,0.0
25293,-0.38192654,-0.46694183,-3.1671524,-1.0503296,-1.3413209,0.91014403,0.0
25294,-0.24708176,-1.1161957,-3.1154213,-1.0503296,-1.3413209,0.91014403,0.0
25295,-0.24708176,-1.1161957,-3.1154213,-0.8782837,-1.5643433,1.085376,0.0
25296,-0.2664032,-1.2672272,-2.5959244,-0.8782837,-1.5643433,1.085376,0.0
25297,-0.2664032,-1.2672272,-2.5959244,-0.48109132,-1.7969239,1.175647,0.0
25298,-0.18149376,-0.7832489,-1.9083557,-0.48109132,-1.7969239,1.175647,0.0
25299,-0.18149376,-0.7832489,-1.9083557,0.06903076,-1.9848999,1.2234375,0.0
25300,0.30998087,0.20755005,-1.0451813,0.06903076,-1.9848999,1.2234375,0.0
25301,0.30998087,0.20755005,-1.0451813,0.41418457,-2.16969,1.2871583,0.0
25302,0.85435677,0.8029175,-0.28977203,0.41418457,-2.16969,1.2871583,0.0
25303,0.85435677,0.8029175,-0.28977203,1.1044922,-2.3353639,1.4124756,0.0
25304,0.97138834,0.5380173,0.2237587,1.1044922,-2.3353639,1.4124756,0.0
25305,0.97138834,0.5380173,0.2237587,1.537793,-2.4638672,1.6546143,0.0
25306,0.6843128,0.09161377,0.6628189,1.537793,-2.4638672,1.6546143,0.0
25307,0.6843128,0.09161377,0.6628189,1.540979,-2.5307739,1.8617066,0.0
25308,0.2374649,0.6782608,1.2914963,1.540979,-2.5307739,1.8617066,0.0
25309,0.2374649,0.6782608,1.2914963,0.901648,-2.35979,1.8542725,0.0
25310,-0.52266216,1.8540726,2.2949753,0.901648,-2.35979,1.8542725,0.0
25311,-0.52266216,1.8540726,2.2949753,0.078588866,-1.7661256,1.453894,0.0
25312,-1.484231,2.0016556,3.3740768,0.078588866,-1.7661256,1.453894,0.0
25313,-1.484231,2.0016556,3.3740768,-0.56392825,-1.3264526,1.0503296,0.0
25314,-2.3519235,1.8052979,3.2989693,-0.56392825,-1.3264526,1.0503296,0.0
25315,-2.3519235,1.8052979,3.2989693,-1.6843506,-0.59897465,0.5787964,0.0
25316,-3.150179,2.234047,2.0839882,-1.6843506,-0.59897465,0.5787964,0.0
25317,-3.150179,2.234047,2.0839882,-2.618921,0.012744141,0.23364258,0.0
25318,-3.2776012,1.5558777,1.0270042,-2.618921,0.012744141,0.23364258,0.0
25319,-3.2776012,1.5558777,1.0270042,-2.6412232,0.25063476,-0.020178223,0.0
25320,-2.2503157,-0.46987152,-0.3197174,-2.6412232,0.25063476,-0.020178223,0.0
25321,-2.2503157,-0.46987152,-0.3197174,-2.2992554,0.8294312,-0.14018555,0.0
25322,-1.4793911,-2.217926,-1.997509,-2.2992554,0.8294312,-0.14018555,0.0
25323,-1.4793911,-2.217926,-1.997509,-1.7533814,1.3784913,0.08920898,0.0
25324,-1.5955372,-3.1687164,-2.8432236,-1.7533814,1.3784913,0.08920898,0.0
25325,-1.5955372,-3.1687164,-2.8432236,-1.1321045,1.8659546,0.14868164,0.0
25326,-1.5602798,-2.9385834,-2.9405708,-1.1321045,1.8659546,0.14868164,0.0
25327,-1.5602798,-2.9385834,-2.9405708,-0.7349121,2.1272094,0.22196046,0.0
25328,-1.6533136,-1.6560135,-3.2599983,-0.7349121,2.1272094,0.22196046,0.0
25329,-1.6533136,-1.6560135,-3.2599983,-0.33028564,2.4819214,0.15717773,0.0
25330,-2.375471,-0.4128723,-3.4541893,-0.33028564,2.4819214,0.15717773,0.0
25331,-2.375471,-0.4128723,-3.4541893,0.29417726,2.6624634,0.2538208,0.0
25332,-3.0445423,0.20173645,-2.8729362,0.29417726,2.6624634,0.2538208,0.0
25333,-3.0445423,0.20173645,-2.8729362,0.95581055,2.5020998,0.36320803,0.0
25334,-3.291481,0.7774353,-2.1235924,0.95581055,2.5020998,0.36320803,0.0
25335,-3.291481,0.7774353,-2.1235924,1.2754761,2.1261475,0.36108398,0.0
25336,-3.4279604,1.3864288,-1.7192345,1.2754761,2.1261475,0.36108398,0.0
25337,-3.4279604,1.3864288,-1.7192345,1.2903442,1.7756836,0.34727785,0.0
25338,-3.5916119,1.2831573,-1.4846039,1.2903442,1.7756836,0.34727785,0.0
25339,-3.5916119,1.2831573,-1.4846039,1.2266235,1.3912354,0.4895874,0.0
25340,-3.52219,0.5901642,-1.4222183,1.2266235,1.3912354,0.4895874,0.0
25341,-3.52219,0.5901642,-1.4222183,1.3763672,0.9791748,0.6446411,0.0
25342,-2.8459625,0.0677948,-1.4727592,1.3763672,0.9791748,0.6446411,0.0
25343,-2.8459625,0.0677948,-1.4727592,1.7077149,0.77951664,0.8708496,0.0
25344,-1.8539677,-0.056648254,-0.24509048,1.7077149,0.77951664,0.8708496,0.0
25345,-1.8539677,-0.056648254,-0.24509048,2.4128907,0.9855469,1.2234375,0.0
25346,-1.416132,-0.07330322,2.0522194,2.4128907,0.9855469,1.2234375,0.0
25347,-1.416132,-0.07330322,2.0522194,2.6964478,0.39188233,1.4634522,0.0
25348,-1.262434,-0.013793945,2.4659805,2.6964478,0.39188233,1.4634522,0.0
25349,-1.262434,-0.013793945,2.4659805,2.7484863,0.15930176,1.5186768,0.0
25350,-0.8999748,0.5766907,1.2846603,2.7484863,0.15930176,1.5186768,0.0
25351,-0.8999748,0.5766907,1.2846603,2.7506104,-0.08920898,1.5866455,0.0
25352,-0.57151794,1.2848511,1.0565987,2.7506104,-0.08920898,1.5866455,0.0
25353,-0.57151794,1.2848511,1.0565987,2.6412232,-0.5692383,1.621692,0.0
25354,-0.18587685,1.447815,2.1133804,2.6412232,-0.5692383,1.621692,0.0
25355,-0.18587685,1.447815,2.1133804,2.6401613,-1.0248413,1.5186768,0.0
25356,0.20209312,1.3748932,3.0572205,2.6401613,-1.0248413,1.5186768,0.0
25357,0.20209312,1.3748932,3.0572205,2.6029909,-1.3009644,1.4889405,0.0
25358,0.21152878,1.3099136,3.1862335,2.6029909,-1.3009644,1.4889405,0.0
25359,0.21152878,1.3099136,3.1862335,2.8323853,-1.6578003,1.5038086,0.0
25360,0.017648697,1.3833008,3.1882439,2.8323853,-1.6578003,1.5038086,0.0
25361,0.017648697,1.3833008,3.1882439,3.539685,-2.3396118,1.5770874,0.0
25362,0.08478546,2.1634064,3.448349,3.539685,-2.3396118,1.5770874,0.0
25363,0.08478546,2.1634064,3.448349,2.2206666,-2.1367676,1.4082276,0.0
25364,0.40071487,2.7140884,3.6190796,2.2206666,-2.1367676,1.4082276,0.0
25365,0.40071487,2.7140884,3.6190796,1.3402588,-2.1877441,1.5282348,0.0
25366,0.6255646,2.3611984,3.2068481,1.3402588,-2.1877441,1.5282348,0.0
25367,0.6255646,2.3611984,3.2068481,1.5951416,-2.6348512,1.6036377,0.0
25368,0.8415413,2.1936264,2.7607307,1.5951416,-2.6348512,1.6036377,0.0
25369,0.8415413,2.1936264,2.7607307,1.7332032,-2.8483155,1.718335,0.0
25370,1.1001606,2.357727,3.0747337,1.7332032,-2.8483155,1.718335,0.0
25371,1.1001606,2.357727,3.0747337,1.5919555,-2.913098,1.803296,0.0
25372,1.1472797,2.3513565,3.811386,1.5919555,-2.913098,1.803296,0.0
25373,1.1472797,2.3513565,3.811386,1.4092896,-3.0086792,1.910559,0.0
25374,1.0717049,2.3227234,4.02993,1.4092896,-3.0086792,1.910559,0.0
25375,1.0717049,2.3227234,4.02993,0.93350834,-3.0054932,1.8457764,0.0
25376,1.1559734,2.6514435,3.5196342,0.93350834,-3.0054932,1.8457764,0.0
25377,1.1559734,2.6514435,3.5196342,0.6149048,-3.0808961,1.6673584,0.0
25378,1.599144,2.951622,2.867855,0.6149048,-3.0808961,1.6673584,0.0
25379,1.599144,2.951622,2.867855,0.26868898,-2.9088502,1.621692,0.0
25380,2.2926826,2.9078903,2.815319,0.26868898,-2.9088502,1.621692,0.0
25381,2.2926826,2.9078903,2.815319,0.033984374,-2.71875,1.351941,0.0
25382,2.594058,2.7977982,3.345333,0.033984374,-2.71875,1.351941,0.0
25383,2.594058,2.7977982,3.345333,-0.38551027,-2.536084,1.0343994,0.0
25384,2.208828,2.2915344,3.9317589,-0.38551027,-2.536084,1.0343994,0.0
25385,2.208828,2.2915344,3.9317589,-0.7083618,-2.2302246,0.8963379,0.0
25386,1.6384497,1.565834,4.0939064,-0.7083618,-2.2302246,0.8963379,0.0
25387,1.6384497,1.565834,4.0939064,-0.540564,-2.2142944,0.71579593,0.0
25388,1.5526915,0.6225662,3.3571053,-0.540564,-2.2142944,0.71579593,0.0
25389,1.5526915,0.6225662,3.3571053,-0.82836914,-2.170752,1.09281,0.0
25390,1.8278217,-0.43740845,2.1091232,-0.82836914,-2.170752,1.09281,0.0
25391,1.8278217,-0.43740845,2.1091232,-0.8878418,-2.3215578,1.0163453,0.0
25392,2.069851,-1.4924088,1.5972595,-0.8878418,-2.3215578,1.0163453,0.0
25393,2.069851,-1.4924088,1.5972595,-1.2574219,-2.1877441,1.2160034,0.0
25394,2.2652922,-2.7324371,1.9524155,-1.2574219,-2.1877441,1.2160034,0.0
25395,2.2652922,-2.7324371,1.9524155,-1.0864381,-1.9764038,1.179895,0.0
25396,2.1981344,-3.291275,1.9515839,-1.0864381,-1.9764038,1.179895,0.0
25397,2.1981344,-3.291275,1.9515839,-1.0237793,-1.9360474,1.3944215,0.0
25398,1.8999996,-2.6916656,0.83431244,-1.0237793,-1.9360474,1.3944215,0.0
25399,1.8999996,-2.6916656,0.83431244,-0.83049315,-2.1027832,1.6025757,0.0
25400,1.5847092,-1.3942108,-0.83784866,-0.83049315,-2.1027832,1.6025757,0.0
25401,1.5847092,-1.3942108,-0.83784866,-0.6053467,-2.2514648,1.8425903,0.0
25402,1.4059515,-0.1940918,-1.8418007,-0.6053467,-2.2514648,1.8425903,0.0
25403,1.4059515,-0.1940918,-1.8418007,-0.057348635,-2.3810303,1.9137452,0.0
25404,1.3060846,0.58026123,-1.7391396,-0.057348635,-2.3810303,1.9137452,0.0
25405,1.3060846,0.58026123,-1.7391396,0.06478272,-2.3013794,1.9339234,0.0
25406,1.0636425,0.40171814,-0.86605835,0.06478272,-2.3013794,1.9339234,0.0
25407,1.0636425,0.40171814,-0.86605835,-0.3536499,-1.983838,2.0188844,0.0
25408,0.6232166,-0.5847168,0.20869064,-0.3536499,-1.983838,2.0188844,0.0
25409,0.6232166,-0.5847168,0.20869064,-0.6605713,-1.6609863,1.9657837,0.0
25410,0.22937202,-1.036438,0.6209297,-0.6605713,-1.6609863,1.9657837,0.0
25411,0.22937202,-1.036438,0.6209297,-0.9876709,-1.5526612,1.7714356,0.0
25412,0.29430103,-0.95680237,0.04177475,-0.9876709,-1.5526612,1.7714356,0.0
25413,0.29430103,-0.95680237,0.04177475,-1.5123047,-1.3211426,1.6907227,0.0
25414,0.8150549,-0.97463226,-0.75699615,-1.5123047,-1.3211426,1.6907227,0.0
25415,0.8150549,-0.97463226,-0.75699615,-1.9615357,-1.3243287,1.273352,0.0
25416,1.4794359,-1.712677,-1.1173172,-1.9615357,-1.3243287,1.273352,0.0
25417,1.4794359,-1.712677,-1.1173172,-1.8468384,-1.1852051,1.3285767,0.0
25418,1.985795,-2.170807,-1.0041428,-1.8468384,-1.1852051,1.3285767,0.0
25419,1.985795,-2.170807,-1.0041428,-1.2383057,-1.3285767,0.98129886,0.0
25420,2.2265754,-1.3051605,-0.8446121,-1.2383057,-1.3285767,0.98129886,0.0
25421,2.2265754,-1.3051605,-0.8446121,-1.2457398,-1.3158325,0.9685547,0.0
25422,2.2265754,-1.3051605,-0.8446121,-1.2457398,-1.3158325,0.9685547,89.0
25423,2.717442,-0.046195984,-0.8516159,-1.2457398,-1.3158325,0.9685547,89.0
25424,2.717442,-0.046195984,-0.8516159,-1.4570801,-1.4517701,0.7062378,89.0
25425,2.6248083,0.43927002,-1.1086731,-1.4570801,-1.4517701,0.7062378,89.0
25426,2.6248083,0.43927002,-1.1086731,-2.0284424,-1.3073364,0.6149048,89.0
25427,1.4117241,-0.2243805,-1.4314575,-2.0284424,-1.3073364,0.6149048,89.0
25428,1.4117241,-0.2243805,-1.4314575,-2.1240234,-1.3168945,0.5915405,89.0
25429,0.3004365,-1.1111298,-1.4509277,-2.1240234,-1.3168945,0.5915405,89.0
25430,0.3004365,-1.1111298,-1.4509277,-1.7034668,-1.3275146,0.56817627,89.0
25431,-0.0065989494,-1.2894287,-0.9856415,-1.7034668,-1.3275146,0.56817627,89.0
25432,-0.0065989494,-1.2894287,-0.9856415,-1.4347779,-1.4963745,0.5671143,89.0
25433,0.32230854,-0.31630707,-0.5858307,-1.4347779,-1.4963745,0.5671143,89.0
25434,0.32230854,-0.31630707,-0.5858307,-1.4570801,-1.7140869,0.6669434,89.0
25435,0.675889,0.50826263,-0.8479004,-1.4570801,-1.7140869,0.6669434,89.0
25436,0.675889,0.50826263,-0.8479004,-1.2839721,-1.7926759,1.1172364,89.0
25437,0.5788951,-0.54345703,-1.6739998,-1.2839721,-1.7926759,1.1172364,89.0
25438,0.5788951,-0.54345703,-1.6739998,-0.8644776,-1.8648926,0.998291,89.0
25439,0.23594332,-2.1782227,-2.2739906,-0.8644776,-1.8648926,0.998291,89.0
25440,0.23594332,-2.1782227,-2.2739906,-0.28461915,-2.0103881,0.9303223,89.0
25441,-0.03092289,-2.4265137,-2.0344658,-0.28461915,-2.0103881,0.9303223,89.0
25442,-0.03092289,-2.4265137,-2.0344658,-0.06265869,-1.9222412,0.9165161,89.0
25443,-0.20150852,-1.4176941,-1.2353249,-0.06265869,-1.9222412,0.9165161,89.0
25444,-0.20150852,-1.4176941,-1.2353249,-0.15505372,-1.811792,0.83049315,89.0
25445,-0.22076511,-0.07563019,-0.8065567,-0.15505372,-1.811792,0.83049315,89.0
25446,-0.22076511,-0.07563019,-0.8065567,-0.63826907,-1.724707,0.7614624,89.0
25447,0.108226776,1.005661,-1.1335258,-0.63826907,-1.724707,0.7614624,89.0
25448,0.108226776,1.005661,-1.1335258,-1.4751343,-1.6195679,0.5150757,89.0
25449,0.43853474,0.67456055,-1.7051582,-1.4751343,-1.6195679,0.5150757,89.0
25450,0.43853474,0.67456055,-1.7051582,-1.9296753,-1.4581422,0.4333008,89.0
25451,0.21838188,-1.4709625,-2.115406,-1.9296753,-1.4581422,0.4333008,89.0
25452,0.21838188,-1.4709625,-2.115406,-0.7986328,-1.2627319,-0.6860596,89.0
25453,0.08996391,-2.6861954,-1.9439125,-0.7986328,-1.2627319,-0.6860596,89.0
25454,0.08996391,-2.6861954,-1.9439125,-0.9600586,-1.3954834,-0.25594482,89.0
25455,0.7488632,-1.7976837,-1.3253822,-0.9600586,-1.3954834,-0.25594482,89.0
25456,0.7488632,-1.7976837,-1.3253822,0.0541626,-1.4103516,-0.16567384,89.0
25457,1.2987976,-0.5215759,-1.0876389,0.0541626,-1.4103516,-0.16567384,89.0
25458,1.2987976,-0.5215759,-1.0876389,0.30373535,-1.6025757,-0.17947999,89.0
25459,1.349402,0.2094574,-1.0508385,0.30373535,-1.6025757,-0.17947999,89.0
25460,1.349402,0.2094574,-1.0508385,0.2081543,-1.5802735,-0.23895264,89.0
25461,1.2594776,-0.27327728,-0.76189804,0.2081543,-1.5802735,-0.23895264,89.0
25462,1.2594776,-0.27327728,-0.76189804,0.5533081,-1.4390259,-0.1359375,89.0
25463,0.8572769,-1.0938263,-0.25484085,0.5533081,-1.4390259,-0.1359375,89.0
25464,0.8572769,-1.0938263,-0.25484085,1.0662597,-1.2945923,-0.17523193,89.0
25465,0.65282583,-0.754303,0.06243515,1.0662597,-1.2945923,-0.17523193,89.0
25466,0.65282583,-0.754303,0.06243515,0.8666016,-1.3296387,-0.08496094,89.0
25467,0.7834425,0.0680542,-0.30976868,0.8666016,-1.3296387,-0.08496094,89.0
25468,0.7834425,0.0680542,-0.30976868,0.54587406,-1.0991821,-0.13381349,89.0
25469,0.89963007,-0.04299164,-0.81707764,0.54587406,-1.0991821,-0.13381349,89.0
25470,0.89963007,-0.04299164,-0.81707764,0.7062378,-0.96218264,-0.13168946,89.0
25471,1.1997457,-0.57206726,-0.74874115,0.7062378,-0.96218264,-0.13168946,89.0
25472,1.1997457,-0.57206726,-0.74874115,0.49171144,-0.89102787,0.007434082,89.0
25473,1.5214908,-0.26893616,-0.3095894,0.49171144,-0.89102787,0.007434082,89.0
25474,1.5214908,-0.26893616,-0.3095894,0.26337892,-0.62552494,0.118945315,89.0
25475,1.4478445,0.65262604,0.14538193,0.26337892,-0.62552494,0.118945315,89.0
25476,1.4478445,0.65262604,0.14538193,-0.047790527,-0.4067505,0.19541016,89.0
25477,1.0250115,0.96674347,0.36629486,-0.047790527,-0.4067505,0.19541016,89.0
25478,1.0250115,0.96674347,0.36629486,-0.21346436,-0.21240234,0.20072022,89.0
25479,0.56675005,0.37122345,0.3726654,-0.21346436,-0.21240234,0.20072022,89.0
25480,0.56675005,0.37122345,0.3726654,-0.45666504,-0.098767094,0.2081543,89.0
25481,0.3554263,-0.46429443,0.1457138,-0.45666504,-0.098767094,0.2081543,89.0
25482,0.3554263,-0.46429443,0.1457138,-0.51932377,0.0021240234,0.18266602,89.0
25483,0.23108172,-0.90883636,-0.17681122,-0.51932377,0.0021240234,0.18266602,89.0
25484,0.23108172,-0.90883636,-0.17681122,-0.44604492,0.053100586,0.06690674,89.0
25485,-0.11774683,-0.87181854,-0.3905716,-0.44604492,0.053100586,0.06690674,89.0
25486,-0.11774683,-0.87181854,-0.3905716,-0.44604492,0.07434082,-0.16036378,89.0
25487,-0.5400715,-0.5411453,-0.43325806,-0.44604492,0.07434082,-0.16036378,89.0
25488,-0.5400715,-0.5411453,-0.43325806,-0.33665773,0.04991455,-0.36320803,89.0
25489,-0.58193517,0.0795517,-0.22362137,-0.33665773,0.04991455,-0.36320803,89.0
25490,-0.58193517,0.0795517,-0.22362137,-0.2803711,-0.04141846,-0.5171997,89.0
25491,-0.16123915,0.8938446,0.12382507,-0.2803711,-0.04141846,-0.5171997,89.0
25492,-0.16123915,0.8938446,0.12382507,-0.3154175,-0.15080567,-0.56392825,89.0
25493,0.34864545,1.2583008,0.31036377,-0.3154175,-0.15080567,-0.56392825,89.0
25494,0.34864545,1.2583008,0.31036377,-0.2262085,-0.32285157,-0.43754885,89.0
25495,0.64236856,0.99910736,0.22123718,-0.2262085,-0.32285157,-0.43754885,89.0
25496,0.64236856,0.99910736,0.22123718,-0.10513916,-0.50233155,-0.32072756,89.0
25497,0.8010775,0.65045166,-0.18864822,-0.10513916,-0.50233155,-0.32072756,89.0
25498,0.8010775,0.65045166,-0.18864822,-0.1731079,-0.53525394,-0.16461182,89.0
25499,0.9226979,0.18721771,-0.8288231,-0.1731079,-0.53525394,-0.16461182,89.0
25500,0.9226979,0.18721771,-0.8288231,-0.19328614,-0.41418457,0.012744141,89.0
25501,0.87407136,-0.34136963,-1.144371,-0.19328614,-0.41418457,0.012744141,89.0
25502,0.87407136,-0.34136963,-1.144371,-0.3525879,-0.18585205,0.028674318,89.0
25503,0.6775774,-0.5059128,-1.1827469,-0.3525879,-0.18585205,0.028674318,89.0
25504,0.6775774,-0.5059128,-1.1827469,-0.7508423,-0.021240234,0.07752686,89.0
25505,0.58222306,-0.5651169,-1.1741905,-0.7508423,-0.021240234,0.07752686,89.0
25506,0.58222306,-0.5651169,-1.1741905,-0.78164065,0.093457036,0.14230958,89.0
25507,0.7762643,-0.6263504,-0.8171501,-0.78164065,0.093457036,0.14230958,89.0
25508,0.7762643,-0.6263504,-0.8171501,-0.75509036,0.22514649,0.13699952,89.0
25509,0.9209016,-0.47894287,-0.35879898,-0.75509036,0.22514649,0.13699952,89.0
25510,0.9209016,-0.47894287,-0.35879898,-0.7954468,0.24320069,0.16248779,89.0
25511,0.5376246,-0.4473343,-0.18773651,-0.7954468,0.24320069,0.16248779,89.0
25512,0.5376246,-0.4473343,-0.18773651,-0.68074954,0.16567384,0.14761963,89.0
25513,-0.1409697,-0.46990967,-0.22680283,-0.68074954,0.16567384,0.14761963,89.0
25514,-0.1409697,-0.46990967,-0.22680283,-0.45454103,0.011682129,0.09664307,89.0
25515,-0.5375438,-0.26737976,-0.36714935,-0.45454103,0.011682129,0.09664307,89.0
25516,-0.5375438,-0.26737976,-0.36714935,-0.24638672,-0.13275146,0.04248047,89.0
25517,-0.4942196,-0.0904541,-0.6723175,-0.24638672,-0.13275146,0.04248047,89.0
25518,-0.4942196,-0.0904541,-0.6723175,-0.2548828,-0.14868164,0.05522461,89.0
25519,-0.3170432,-0.016021729,-0.84747314,-0.2548828,-0.14868164,0.05522461,89.0
25520,-0.3170432,-0.016021729,-0.84747314,-0.34090576,-0.05522461,0.081774905,89.0
25521,-0.30436695,0.18387604,-0.7791519,-0.34090576,-0.05522461,0.081774905,89.0
25522,-0.30436695,0.18387604,-0.7791519,-0.39613038,-0.07540283,0.07540283,89.0
25523,-0.4332397,0.10606384,-0.6788864,-0.39613038,-0.07540283,0.07540283,89.0
25524,-0.4332397,0.10606384,-0.6788864,-0.29630128,-0.16673584,0.06159668,89.0
25525,-0.4332397,0.10606384,-0.6788864,-0.29630128,-0.16673584,0.06159668,90.0
25526,-0.30384278,-0.2875824,-0.4196968,-0.29630128,-0.16673584,0.06159668,90.0
25527,-0.30384278,-0.2875824,-0.4196968,-0.13381349,-0.22302246,0.095581055,90.0
25528,0.23973823,-0.32188416,-0.11497116,-0.13381349,-0.22302246,0.095581055,90.0
25529,0.23973823,-0.32188416,-0.11497116,0.013806152,-0.22939454,0.13912354,90.0
25530,0.3856504,-0.016235352,-0.13919067,0.013806152,-0.22939454,0.13912354,90.0
25531,0.3856504,-0.016235352,-0.13919067,0.06478272,-0.2262085,0.20709229,90.0
25532,-0.16245139,0.14511871,-0.21724701,0.06478272,-0.2262085,0.20709229,90.0
25533,-0.16245139,0.14511871,-0.21724701,0.020178223,-0.14868164,0.19647217,90.0
25534,-0.51517844,0.10248566,-0.23128128,0.020178223,-0.14868164,0.19647217,90.0
25535,-0.51517844,0.10248566,-0.23128128,0.081774905,-0.18479005,0.23895264,90.0
25536,-0.28980386,-0.065963745,-0.18359756,0.081774905,-0.18479005,0.23895264,90.0
25537,-0.28980386,-0.065963745,-0.18359756,0.27506104,-0.16248779,0.2984253,90.0
25538,0.06071067,-0.25811768,0.15568542,0.27506104,-0.16248779,0.2984253,90.0
25539,0.06071067,-0.25811768,0.15568542,0.32391357,-0.09664307,0.27506104,90.0
25540,0.049886942,-0.41801453,0.33361816,0.32391357,-0.09664307,0.27506104,90.0
25541,0.049886942,-0.41801453,0.33361816,0.38975832,-0.121069334,0.23895264,90.0
25542,-0.23780036,-0.447937,0.24580002,0.38975832,-0.121069334,0.23895264,90.0
25543,-0.23780036,-0.447937,0.24580002,0.49489745,-0.04991455,0.21877442,90.0
25544,-0.42496932,-0.20368958,0.24166107,0.49489745,-0.04991455,0.21877442,90.0
25545,-0.42496932,-0.20368958,0.24166107,0.5543701,0.027612304,0.19541016,90.0
25546,-0.43681383,0.03844452,0.33535767,0.5543701,0.027612304,0.19541016,90.0
25547,-0.43681383,0.03844452,0.33535767,0.5171997,0.23151855,0.1720459,90.0
25548,-0.39451945,0.14656067,0.4298935,0.5171997,0.23151855,0.1720459,90.0
25549,-0.39451945,0.14656067,0.4298935,0.49489745,0.35577393,0.15505372,90.0
25550,-0.4627713,0.17694092,0.47499466,0.49489745,0.35577393,0.15505372,90.0
25551,-0.4627713,0.17694092,0.47499466,0.5777344,0.45454103,0.19753419,90.0
25552,-0.5297997,0.25115967,0.50411606,0.5777344,0.45454103,0.19753419,90.0
25553,-0.5297997,0.25115967,0.50411606,0.5957886,0.4598511,0.20603028,90.0
25554,-0.598974,0.305336,0.8019371,0.5957886,0.4598511,0.20603028,90.0
25555,-0.598974,0.305336,0.8019371,0.362146,0.56180423,0.27506104,90.0
25556,-0.54663515,0.25399017,0.798275,0.362146,0.56180423,0.27506104,90.0
25557,-0.54663515,0.25399017,0.798275,0.25700685,0.58198243,0.29205322,90.0
25558,-0.5836339,0.3360672,0.8698921,0.25700685,0.58198243,0.29205322,90.0
25559,-0.5836339,0.3360672,0.8698921,0.29948732,0.6000366,0.3462158,90.0
25560,-0.64897513,0.31567383,0.799881,0.29948732,0.6000366,0.3462158,90.0
25561,-0.64897513,0.31567383,0.799881,0.32391357,0.54375,0.33984375,90.0
25562,-0.8818631,-0.16073608,0.9787369,0.32391357,0.54375,0.33984375,90.0
25563,-0.8818631,-0.16073608,0.9787369,0.29630128,0.44816896,0.28780517,90.0
25564,-0.7831149,-0.27962494,1.000679,0.29630128,0.44816896,0.28780517,90.0
25565,-0.7831149,-0.27962494,1.000679,0.29311523,0.4343628,0.2527588,90.0
25566,-0.6529932,-0.15327454,0.9651413,0.29311523,0.4343628,0.2527588,90.0
25567,-0.6529932,-0.15327454,0.9651413,0.23258057,0.36108398,0.17629395,90.0
25568,-0.68101263,-0.045188904,0.6920471,0.23258057,0.36108398,0.17629395,90.0
25569,-0.68101263,-0.045188904,0.6920471,0.23364258,0.35895997,0.124255374,90.0
25570,-0.80680966,-0.14840698,0.5939064,0.23364258,0.35895997,0.124255374,90.0
25571,-0.80680966,-0.14840698,0.5939064,0.3154175,0.21134034,0.022302246,90.0
25572,-0.62223005,-0.0539093,0.62932587,0.3154175,0.21134034,0.022302246,90.0
25573,-0.62223005,-0.0539093,0.62932587,0.3090454,0.18903808,0.021240234,90.0
25574,-0.45040846,0.31195068,0.6584892,0.3090454,0.18903808,0.021240234,90.0
25575,-0.45040846,0.31195068,0.6584892,0.37595215,0.083898924,-0.027612304,90.0
25576,-0.3704219,0.2649002,0.5888138,0.37595215,0.083898924,-0.027612304,90.0
25577,-0.3704219,0.2649002,0.5888138,0.36851808,0.058410645,-0.04248047,90.0
25578,-0.23891568,0.20471954,0.6749573,0.36851808,0.058410645,-0.04248047,90.0
25579,-0.23891568,0.20471954,0.6749573,0.21346436,0.052038576,-0.098767094,90.0
25580,-0.22711897,0.25914764,0.5221176,0.21346436,0.052038576,-0.098767094,90.0
25581,-0.22711897,0.25914764,0.5221176,0.18797608,0.033984374,-0.1274414,90.0
25582,-0.3624568,0.23976898,0.25525665,0.18797608,0.033984374,-0.1274414,90.0
25583,-0.3624568,0.23976898,0.25525665,0.23682861,-0.011682129,-0.16779785,90.0
25584,-0.3489256,0.11392212,0.31188202,0.23682861,-0.011682129,-0.16779785,90.0
25585,-0.3489256,0.11392212,0.31188202,0.31329346,-0.12956543,-0.18266602,90.0
25586,-0.13105679,0.14360046,0.6587677,0.31329346,-0.12956543,-0.18266602,90.0
25587,-0.13105679,0.14360046,0.6587677,0.3536499,-0.19434814,-0.16036378,90.0
25588,0.056946754,0.24838257,0.80142975,0.3536499,-0.19434814,-0.16036378,90.0
25589,0.056946754,0.24838257,0.80142975,0.362146,-0.24532472,-0.13381349,90.0
25590,-0.030028343,0.54109955,0.37600708,0.362146,-0.24532472,-0.13381349,90.0
25591,-0.030028343,0.54109955,0.37600708,0.30479738,-0.28355715,-0.0998291,90.0
25592,-0.059227943,0.463562,0.24355316,0.30479738,-0.28355715,-0.0998291,90.0
25593,-0.059227943,0.463562,0.24355316,0.2984253,-0.3069214,-0.095581055,90.0
25594,-0.016022682,0.16041565,0.29484177,0.2984253,-0.3069214,-0.095581055,90.0
25595,-0.016022682,0.16041565,0.29484177,0.30161133,-0.29630128,-0.0722168,90.0
25596,0.1390009,0.044128418,0.39665222,0.30161133,-0.29630128,-0.0722168,90.0
25597,0.1390009,0.044128418,0.39665222,0.26656494,-0.29523927,-0.06478272,90.0
25598,0.09782171,0.17803955,0.2639389,0.26656494,-0.29523927,-0.06478272,90.0
25599,0.09782171,0.17803955,0.2639389,0.22302246,-0.26337892,-0.08283692,90.0
25600,-0.023354053,0.1813736,0.17120743,0.22302246,-0.26337892,-0.08283692,90.0
25601,-0.023354053,0.1813736,0.17120743,0.21452637,-0.2548828,-0.13062744,90.0
25602,0.08066988,0.0341568,0.32263565,0.21452637,-0.2548828,-0.13062744,90.0
25603,0.08066988,0.0341568,0.32263565,0.20496826,-0.2262085,-0.13168946,90.0
25604,0.25922585,0.014564514,0.34226227,0.20496826,-0.2262085,-0.13168946,90.0
25605,0.25922585,0.014564514,0.34226227,0.15080567,-0.20603028,-0.15505372,90.0
25606,0.26891613,0.17058563,0.08844757,0.15080567,-0.20603028,-0.15505372,90.0
25607,0.26891613,0.17058563,0.08844757,0.13912354,-0.21558838,-0.16248779,90.0
25608,0.3018272,0.18617249,0.047210693,0.13912354,-0.21558838,-0.16248779,90.0
25609,0.3018272,0.18617249,0.047210693,0.18903808,-0.2166504,-0.1731079,90.0
25610,0.43646908,0.11785889,0.3207283,0.18903808,-0.2166504,-0.1731079,90.0
25611,0.43646908,0.11785889,0.3207283,0.17523193,-0.18585205,-0.16354981,90.0
25612,0.49799109,0.113098145,0.34892654,0.17523193,-0.18585205,-0.16354981,90.0
25613,0.49799109,0.113098145,0.34892654,0.08071289,-0.16461182,-0.16248779,90.0
25614,0.35604668,-0.37242126,0.048965454,0.08071289,-0.16461182,-0.16248779,90.0
25615,0.35604668,-0.37242126,0.048965454,0.0722168,-0.09133301,-0.09664307,90.0
25616,-0.8411026,-0.56412506,0.62786865,0.0722168,-0.09133301,-0.09664307,90.0
25617,-0.8411026,-0.56412506,0.62786865,-0.09239502,0.32816163,0.11363526,90.0
25618,-1.5568786,0.34522247,0.92603683,-0.09239502,0.32816163,0.11363526,90.0
25619,-1.5568786,0.34522247,0.92603683,-0.118945315,0.26550293,0.0021240234,90.0
25620,-1.2062082,0.51995087,0.5712738,-0.118945315,0.26550293,0.0021240234,90.0
25621,-1.2062082,0.51995087,0.5712738,0.08071289,0.50233155,0.012744141,90.0
25622,-0.5713997,0.23503113,0.566185,0.08071289,0.50233155,0.012744141,90.0
25623,-0.5713997,0.23503113,0.566185,0.19116211,0.11257324,-0.18903808,90.0
25624,0.593637,0.010437012,0.4606018,0.19116211,0.11257324,-0.18903808,90.0
25625,0.593637,0.010437012,0.4606018,0.26337892,0.270813,-0.16461182,90.0
25626,2.0705762,-0.29818726,0.45770264,0.26337892,0.270813,-0.16461182,90.0
25627,2.0705762,-0.29818726,0.45770264,0.4895874,0.16567384,-0.16992188,90.0
25628,2.8498936,-0.13218689,0.5418968,0.4895874,0.16567384,-0.16992188,90.0
25629,2.8498936,-0.13218689,0.5418968,0.58198243,0.45560303,0.13912354,90.0
25630,2.3402176,0.075164795,0.72029495,0.58198243,0.45560303,0.13912354,90.0
25631,2.3402176,0.075164795,0.72029495,0.72854006,0.362146,0.30267334,90.0
25632,1.0737243,-0.14772034,0.72597885,0.72854006,0.362146,0.30267334,90.0
25633,1.0737243,-0.14772034,0.72597885,0.6510132,0.4333008,0.54906005,90.0
25634,-0.038835526,-0.80612946,0.25995636,0.6510132,0.4333008,0.54906005,90.0
25635,-0.038835526,-0.80612946,0.25995636,0.901648,0.31860352,0.7975708,90.0
25636,-0.40693521,-1.1905594,-0.1886673,0.901648,0.31860352,0.7975708,90.0
25637,-0.40693521,-1.1905594,-0.1886673,1.4560181,0.36427003,0.97386473,90.0
25638,-0.554137,-0.29684448,0.12541199,1.4560181,0.36427003,0.97386473,90.0
25639,-0.554137,-0.29684448,0.12541199,1.9562256,0.39082032,1.0110352,90.0
25640,-1.1415272,1.3319931,0.43958664,1.9562256,0.39082032,1.0110352,90.0
25641,-1.1415272,1.3319931,0.43958664,2.2461548,0.29948732,1.0269654,90.0
25642,-1.7771866,1.9888382,0.20165634,2.2461548,0.29948732,1.0269654,90.0
25643,-1.7771866,1.9888382,0.20165634,2.3778443,0.2516968,1.1299804,90.0
25644,-1.7771866,1.9888382,0.20165634,2.3778443,0.2516968,1.1299804,90.0
25645,-1.8251796,1.5706177,0.3385086,2.3778443,0.2516968,1.1299804,90.0
25646,-1.8251796,1.5706177,0.3385086,2.7601686,0.27612305,1.263794,90.0
25647,-1.3493648,1.6177063,1.2596359,2.7601686,0.27612305,1.263794,90.0
25648,-1.3493648,1.6177063,1.2596359,3.2178955,0.36533204,1.2499878,90.0
25649,-0.85335636,3.4701767,1.9865913,3.2178955,0.36533204,1.2499878,90.0
25650,-0.85335636,3.4701767,1.9865913,2.0008302,0.2782471,0.97280276,90.0
25651,-0.8565011,5.5552444,1.8917618,2.0008302,0.2782471,0.97280276,90.0
25652,-0.8565011,5.5552444,1.8917618,0.9759888,0.67650145,0.6796875,90.0
25653,-1.0991778,4.3875656,1.4930496,0.9759888,0.67650145,0.6796875,90.0
25654,-1.0991778,4.3875656,1.4930496,1.2223755,0.65207523,0.90695804,90.0
25655,-0.92842674,1.4043045,1.2831726,1.2223755,0.65207523,0.90695804,90.0
25656,-0.92842674,1.4043045,1.2831726,1.4177856,0.51082766,0.77739257,90.0
25657,-0.5531292,0.4578781,1.1452484,1.4177856,0.51082766,0.77739257,90.0
25658,-0.5531292,0.4578781,1.1452484,0.815625,0.51932377,0.62552494,90.0
25659,-0.48984194,1.7115173,0.7880516,0.815625,0.51932377,0.62552494,90.0
25660,-0.48984194,1.7115173,0.7880516,0.2527588,0.5511841,0.2081543,90.0
25661,-0.6071811,2.6647873,0.5255852,0.2527588,0.5511841,0.2081543,90.0
25662,-0.6071811,2.6647873,0.5255852,-0.12213135,0.62340087,0.09451904,90.0
25663,-0.5831814,1.8662567,0.62578964,-0.12213135,0.62340087,0.09451904,90.0
25664,-0.5831814,1.8662567,0.62578964,-0.21240234,0.64570314,-0.025488282,90.0
25665,-0.7368698,0.78697205,0.79595566,-0.21240234,0.64570314,-0.025488282,90.0
25666,-0.7368698,0.78697205,0.79595566,-0.32072756,0.67225343,-0.27718505,90.0
25667,-1.1150942,0.38506317,0.68096924,-0.32072756,0.67225343,-0.27718505,90.0
25668,-1.1150942,0.38506317,0.68096924,-0.6202149,0.6244629,-0.45878908,90.0
25669,-1.3661966,0.23452759,0.22047043,-0.6202149,0.6244629,-0.45878908,90.0
25670,-1.3661966,0.23452759,0.22047043,-0.8050049,0.53100586,-0.65207523,90.0
25671,-1.29701,-0.20367432,-0.2068634,-0.8050049,0.53100586,-0.65207523,90.0
25672,-1.29701,-0.20367432,-0.2068634,-0.94412845,0.43967286,-0.73703617,90.0
25673,-1.1373882,-0.7052765,-0.4002571,-0.94412845,0.43967286,-0.73703617,90.0
25674,-1.1373882,-0.7052765,-0.4002571,-1.1618408,0.33134767,-0.86341554,90.0
25675,-1.1265488,-0.77877045,-0.48082733,-1.1618408,0.33134767,-0.86341554,90.0
25676,-1.1265488,-0.77877045,-0.48082733,-1.3232666,0.1901001,-1.0418335,90.0
25677,-1.1320376,-0.5770798,-0.45409393,-1.3232666,0.1901001,-1.0418335,90.0
25678,-1.1320376,-0.5770798,-0.45409393,-1.4092896,-0.0021240234,-1.2351197,90.0
25679,-0.9974632,-0.32487488,-0.4361496,-1.4092896,-0.0021240234,-1.2351197,90.0
25680,-0.9974632,-0.32487488,-0.4361496,-1.5292969,-0.19116211,-1.5027466,90.0
25681,-0.76878357,-0.25413513,-0.3536682,-1.5292969,-0.19116211,-1.5027466,90.0
25682,-0.76878357,-0.25413513,-0.3536682,-1.622754,-0.18903808,-1.7055908,90.0
25683,-0.40421104,-0.83187103,-0.08121109,-1.622754,-0.18903808,-1.7055908,90.0
25684,-0.40421104,-0.83187103,-0.08121109,-1.4039795,-0.19222413,-1.716211,90.0
25685,0.030500412,-1.9498291,0.19207382,-1.4039795,-0.19222413,-1.716211,90.0
25686,0.030500412,-1.9498291,0.19207382,-1.0567017,-0.16567384,-1.6620483,90.0
25687,0.3391466,-2.7436905,0.1960907,-1.0567017,-0.16567384,-1.6620483,90.0
25688,0.3391466,-2.7436905,0.1960907,-0.81881106,-0.20709229,-1.5770874,90.0
25689,0.6588297,-2.853653,-0.08008957,-0.81881106,-0.20709229,-1.5770874,90.0
25690,0.6588297,-2.853653,-0.08008957,-0.54693604,-0.11469727,-1.532483,90.0
25691,1.0479989,-2.635765,-0.3393631,-0.54693604,-0.11469727,-1.532483,90.0
25692,1.0479989,-2.635765,-0.3393631,-0.2166504,-0.09451904,-1.3838013,90.0
25693,1.333663,-2.3722458,-0.5161438,-0.2166504,-0.09451904,-1.3838013,90.0
25694,1.333663,-2.3722458,-0.5161438,-0.040356446,-0.16992188,-1.1437867,90.0
25695,1.3582025,-2.4262009,-0.6665764,-0.040356446,-0.16992188,-1.1437867,90.0
25696,1.3582025,-2.4262009,-0.6665764,-0.032922365,-0.22833252,-0.73703617,90.0
25697,1.0394306,-2.5606995,-0.56245804,-0.032922365,-0.22833252,-0.73703617,90.0
25698,1.0394306,-2.5606995,-0.56245804,-0.11469727,-0.24957275,-0.4056885,90.0
25699,0.55525064,-1.9996338,-0.13911438,-0.11469727,-0.24957275,-0.4056885,90.0
25700,0.55525064,-1.9996338,-0.13911438,-0.26337892,-0.2442627,-0.20603028,90.0
25701,0.2026596,-0.8603058,0.2674942,-0.26337892,-0.2442627,-0.20603028,90.0
25702,0.2026596,-0.8603058,0.2674942,-0.3971924,-0.16992188,-0.033984374,90.0
25703,0.09143686,0.13482666,0.33121872,-0.3971924,-0.16992188,-0.033984374,90.0
25704,0.09143686,0.13482666,0.33121872,-0.3175415,-0.06796875,0.14230958,90.0
25705,0.22114754,0.64621735,0.014656067,-0.3175415,-0.06796875,0.14230958,90.0
25706,0.22114754,0.64621735,0.014656067,-0.17947999,0.04141846,0.24851075,90.0
25707,0.32784605,0.7673187,-0.44869995,-0.17947999,0.04141846,0.24851075,90.0
25708,0.32784605,0.7673187,-0.44869995,-0.16673584,0.16354981,0.30267334,90.0
25709,0.27986717,0.6202469,-0.73906326,-0.16673584,0.16354981,0.30267334,90.0
25710,0.27986717,0.6202469,-0.73906326,-0.059472658,0.20390625,0.3812622,90.0
25711,0.28881073,0.41905975,-0.7001877,-0.059472658,0.20390625,0.3812622,90.0
25712,0.28881073,0.41905975,-0.7001877,0.10195313,0.24107666,0.43117675,90.0
25713,0.418231,0.28764343,-0.45612335,0.10195313,0.24107666,0.43117675,90.0
25714,0.418231,0.28764343,-0.45612335,0.18903808,0.271875,0.4725952,90.0
25715,0.5360131,0.20761108,-0.26390076,0.18903808,0.271875,0.4725952,90.0
25716,0.5360131,0.20761108,-0.26390076,0.17629395,0.29417726,0.47896728,90.0
25717,0.5637226,0.14821625,-0.22460938,0.17629395,0.29417726,0.47896728,90.0
25718,0.5637226,0.14821625,-0.22460938,0.14124756,0.271875,0.4619751,90.0
25719,0.51395416,0.03338623,-0.23190689,0.14124756,0.271875,0.4619751,90.0
25720,0.51395416,0.03338623,-0.23190689,0.047790527,0.23151855,0.47471926,90.0
25721,0.433331,-0.049819946,-0.17064667,0.047790527,0.23151855,0.47471926,90.0
25722,0.433331,-0.049819946,-0.17064667,0.007434082,0.20284425,0.4609131,90.0
25723,0.32627916,0.015945435,-0.040756226,0.007434082,0.20284425,0.4609131,90.0
25724,0.32627916,0.015945435,-0.040756226,0.028674318,0.1444336,0.44816896,90.0
25725,0.1672244,0.21948242,0.06344986,0.028674318,0.1444336,0.44816896,90.0
25726,0.1672244,0.21948242,0.06344986,0.035046387,0.0998291,0.4439209,90.0
25727,-0.017428875,0.44085693,0.0767746,0.035046387,0.0998291,0.4439209,90.0
25728,-0.017428875,0.44085693,0.0767746,0.078588866,0.04460449,0.4354248,90.0
25729,-0.14579105,0.56033325,-0.0024490356,0.078588866,0.04460449,0.4354248,90.0
25730,-0.14579105,0.56033325,-0.0024490356,0.09451904,-0.012744141,0.42692873,90.0
25731,-0.2250433,0.47938538,-0.059906006,0.09451904,-0.012744141,0.42692873,90.0
25732,-0.2250433,0.47938538,-0.059906006,0.12319336,-0.050976563,0.45135498,90.0
25733,-0.3210988,0.28851318,0.0115737915,0.12319336,-0.050976563,0.45135498,90.0
25734,-0.3210988,0.28851318,0.0115737915,0.15080567,-0.09770508,0.45135498,90.0
25735,-0.43810463,0.18048096,0.100875854,0.15080567,-0.09770508,0.45135498,90.0
25736,-0.43810463,0.18048096,0.100875854,0.16567384,-0.13487549,0.44710693,90.0
25737,-0.49635792,0.1769638,0.108680725,0.16567384,-0.13487549,0.44710693,90.0
25738,-0.49635792,0.1769638,0.108680725,0.18160401,-0.1539917,0.43011475,90.0
25739,-0.48900557,0.2111206,0.029594421,0.18160401,-0.1539917,0.43011475,90.0
25740,-0.48900557,0.2111206,0.029594421,0.16354981,-0.1731079,0.4067505,90.0
25741,-0.5092583,0.1949234,-0.084480286,0.16354981,-0.1731079,0.4067505,90.0
25742,-0.5092583,0.1949234,-0.084480286,0.1529297,-0.20178223,0.4078125,90.0
25743,-0.5092583,0.1949234,-0.084480286,0.1529297,-0.20178223,0.4078125,90.0
25744,-0.5724454,0.050865173,-0.08201218,0.1529297,-0.20178223,0.4078125,90.0
25745,-0.5724454,0.050865173,-0.08201218,0.18797608,-0.19116211,0.42799073,90.0
25746,-0.62002945,-0.11187744,-0.026473999,0.18797608,-0.19116211,0.42799073,90.0
25747,-0.62002945,-0.11187744,-0.026473999,0.2347046,-0.21346436,0.46516114,90.0
25748,-0.6940584,-0.25094604,-0.17111969,0.2347046,-0.21346436,0.46516114,90.0
25749,-0.6940584,-0.25094604,-0.17111969,0.32072756,-0.27612305,0.5363159,90.0
25750,-0.8723974,-0.47847748,-0.3949051,0.32072756,-0.27612305,0.5363159,90.0
25751,-0.8723974,-0.47847748,-0.3949051,0.46516114,-0.36745605,0.68287355,90.0
25752,-1.063189,-0.5907669,-0.3520584,0.46516114,-0.36745605,0.68287355,90.0
25753,-1.063189,-0.5907669,-0.3520584,0.5915405,-0.38444826,0.87615967,90.0
25754,-1.3299456,-0.58943176,0.2373352,0.5915405,-0.38444826,0.87615967,90.0
25755,-1.3299456,-0.58943176,0.2373352,0.7582764,-0.3440918,1.1204224,90.0
25756,-1.7839513,-0.46749878,1.0480804,0.7582764,-0.3440918,1.1204224,90.0
25757,-1.7839513,-0.46749878,1.0480804,0.9759888,-0.38444826,1.3232666,90.0
25758,-2.0805426,0.10910797,1.5251961,0.9759888,-0.38444826,1.3232666,90.0
25759,-2.0805426,0.10910797,1.5251961,1.1278565,-0.33240968,1.4592041,90.0
25760,-1.9099417,1.068016,1.5943031,1.1278565,-0.33240968,1.4592041,90.0
25761,-1.9099417,1.068016,1.5943031,1.1193603,-0.2516968,1.539917,90.0
25762,-1.5358515,1.9898529,1.1794815,1.1193603,-0.2516968,1.539917,90.0
25763,-1.5358515,1.9898529,1.1794815,1.0736939,-0.23258057,1.4602661,90.0
25764,-1.207283,2.4091263,0.42969513,1.0736939,-0.23258057,1.4602661,90.0
25765,-1.207283,2.4091263,0.42969513,1.1278565,-0.3706421,1.350879,90.0
25766,-0.7804384,2.4208298,-0.042999268,1.1278565,-0.3706421,1.350879,90.0
25767,-0.7804384,2.4208298,-0.042999268,1.1820191,-0.43967286,1.1321045,90.0
25768,-0.2423563,2.6730194,-0.11158371,1.1820191,-0.43967286,1.1321045,90.0
25769,-0.2423563,2.6730194,-0.11158371,1.0673218,-0.5384399,0.80819094,90.0
25770,0.1354723,2.958603,-0.2731781,1.0673218,-0.5384399,0.80819094,90.0
25771,0.1354723,2.958603,-0.2731781,1.0864381,-0.7742066,0.50870365,90.0
25772,0.48743057,2.9078827,-0.4792366,1.0864381,-0.7742066,0.50870365,90.0
25773,0.48743057,2.9078827,-0.4792366,0.9366943,-0.9717407,0.1274414,90.0
25774,1.1574612,2.704834,-0.2531662,0.9366943,-0.9717407,0.1274414,90.0
25775,1.1574612,2.704834,-0.2531662,0.7497803,-1.0694458,-0.26762697,90.0
25776,1.8585739,2.3393402,-0.031002045,0.7497803,-1.0694458,-0.26762697,90.0
25777,1.8585739,2.3393402,-0.031002045,0.32709962,-1.26698,-0.58198243,90.0
25778,2.1783752,1.7714462,-0.549839,0.32709962,-1.26698,-0.58198243,90.0
25779,2.1783752,1.7714462,-0.549839,-0.47790527,-1.6142578,-0.9526245,90.0
25780,2.494165,1.3191833,-1.2403984,-0.47790527,-1.6142578,-0.9526245,90.0
25781,2.494165,1.3191833,-1.2403984,-1.3020264,-1.9498535,-1.4209718,90.0
25782,3.4210157,0.64121246,-0.18514252,-1.3020264,-1.9498535,-1.4209718,90.0
25783,3.4210157,0.64121246,-0.18514252,-0.12319336,-1.7289551,-1.2924683,90.0
25784,4.7907557,-0.07334137,2.737568,-0.12319336,-1.7289551,-1.2924683,90.0
25785,4.7907557,-0.07334137,2.737568,-1.988086,-1.5611572,-1.4889405,90.0
25786,5.464697,-1.606636,4.122158,-1.988086,-1.5611572,-1.4889405,90.0
25787,5.464697,-1.606636,4.122158,-3.1255004,-0.53737795,-1.0428956,90.0
25788,4.5897264,-3.5769806,1.529377,-3.1255004,-0.53737795,-1.0428956,90.0
25789,4.5897264,-3.5769806,1.529377,-2.073047,-1.1289185,-1.3168945,90.0
25790,2.4218788,-3.403885,-2.1056366,-2.073047,-1.1289185,-1.3168945,90.0
25791,2.4218788,-3.403885,-2.1056366,-2.9067261,-1.354065,-1.0067872,90.0
25792,0.25126052,-1.9055634,-3.0581818,-2.9067261,-1.354065,-1.0067872,90.0
25793,0.25126052,-1.9055634,-3.0581818,-3.9071412,-1.175647,-0.87191164,90.0
25794,-1.251848,-2.3118286,-2.4152374,-3.9071412,-1.175647,-0.87191164,90.0
25795,-1.251848,-2.3118286,-2.4152374,-3.3177247,-0.66481936,-0.7497803,90.0
25796,-1.3401871,-4.841751,-2.2831154,-3.3177247,-0.66481936,-0.7497803,90.0
25797,-1.3401871,-4.841751,-2.2831154,-1.7703736,-0.9791748,-0.47578126,90.0
25798,0.12299204,-4.999878,-2.303032,-1.7703736,-0.9791748,-0.47578126,90.0
25799,0.12299204,-4.999878,-2.303032,-1.2021973,-0.9547486,-0.45454103,90.0
25800,1.5139089,-2.168007,-1.5906792,-1.2021973,-0.9547486,-0.45454103,90.0
25801,1.5139089,-2.168007,-1.5906792,-1.173523,-0.7349121,-0.4258667,90.0
25802,2.597443,-1.5830536,-1.2044754,-1.173523,-0.7349121,-0.4258667,90.0
25803,2.597443,-1.5830536,-1.2044754,-0.07115479,-0.047790527,-0.17629395,90.0
25804,4.5219607,-2.5087357,-0.39173126,-0.07115479,-0.047790527,-0.17629395,90.0
25805,4.5219607,-2.5087357,-0.39173126,0.74659425,-0.1985962,0.07965088,90.0
25806,3.7674465,-1.2329636,0.885334,0.74659425,-0.1985962,0.07965088,90.0
25807,3.7674465,-1.2329636,0.885334,0.37701416,-0.29205322,0.124255374,90.0
25808,-0.018928438,0.77014923,0.67035294,0.37701416,-0.29205322,0.124255374,90.0
25809,-0.018928438,0.77014923,0.67035294,0.45666504,-0.18691407,0.15823975,90.0
25810,-2.3099427,1.4769135,-0.5327492,0.45666504,-0.18691407,0.15823975,90.0
25811,-2.3099427,1.4769135,-0.5327492,0.4704712,-0.24744873,0.118945315,90.0
25812,-2.1518116,1.1181183,-1.1665916,0.4704712,-0.24744873,0.118945315,90.0
25813,-2.1518116,1.1181183,-1.1665916,0.40037844,-0.15823975,0.08283692,90.0
25814,-0.7228043,0.46353912,-0.7654648,0.40037844,-0.15823975,0.08283692,90.0
25815,-0.7228043,0.46353912,-0.7654648,0.16779785,-0.0063720704,0.045666505,90.0
25816,0.3169104,-0.058746338,-0.06660843,0.16779785,-0.0063720704,0.045666505,90.0
25817,0.3169104,-0.058746338,-0.06660843,-0.1274414,0.13381349,0.03186035,90.0
25818,0.39359176,-0.20822144,0.36328888,-0.1274414,0.13381349,0.03186035,90.0
25819,0.39359176,-0.20822144,0.36328888,-0.26125488,0.17523193,0.010620117,90.0
25820,0.026824117,-0.099243164,0.34949493,-0.26125488,0.17523193,0.010620117,90.0
25821,0.026824117,-0.099243164,0.34949493,-0.15186767,0.15186767,-0.0637207,90.0
25822,-0.3441291,-0.29055023,-0.16696167,-0.15186767,0.15186767,-0.0637207,90.0
25823,-0.3441291,-0.29055023,-0.16696167,-0.07327881,0.11151123,-0.04885254,90.0
25824,-0.46091127,-0.60113525,-0.615551,-0.07327881,0.11151123,-0.04885254,90.0
25825,-0.46091127,-0.60113525,-0.615551,0.09664307,0.11682129,-0.095581055,90.0
25826,-0.27436876,-0.42240906,-0.5584564,0.09664307,0.11682129,-0.095581055,90.0
25827,-0.27436876,-0.42240906,-0.5584564,0.27718505,0.14124756,-0.12531738,90.0
25828,-0.12370646,0.054992676,-0.3780632,0.27718505,0.14124756,-0.12531738,90.0
25829,-0.12370646,0.054992676,-0.3780632,0.35577393,0.16461182,-0.11469727,90.0
25830,-0.11799586,0.37501526,-0.2855072,0.35577393,0.16461182,-0.11469727,90.0
25831,-0.11799586,0.37501526,-0.2855072,0.18797608,0.14868164,-0.16142578,90.0
25832,-0.08890343,0.47280884,-0.06093979,0.18797608,0.14868164,-0.16142578,90.0
25833,-0.08890343,0.47280884,-0.06093979,0.17947999,0.14974366,-0.1444336,90.0
25834,0.11981964,0.53782654,0.2788353,0.17947999,0.14974366,-0.1444336,90.0
25835,0.11981964,0.53782654,0.2788353,0.2442627,0.08071289,-0.15717773,90.0
25836,0.24566042,0.81074524,0.2935791,0.2442627,0.08071289,-0.15717773,90.0
25837,0.24566042,0.81074524,0.2935791,0.15717773,0.124255374,-0.083898924,90.0
25838,0.044843793,0.9427872,-0.041431427,0.15717773,0.124255374,-0.083898924,90.0
25839,0.044843793,0.9427872,-0.041431427,0.10301514,0.12850343,-0.035046387,90.0
25840,-0.09441054,0.7239685,-0.20366669,0.10301514,0.12850343,-0.035046387,90.0
25841,-0.09441054,0.7239685,-0.20366669,0.06690674,0.15186767,-0.012744141,90.0
25842,0.07437396,0.4249115,-0.12466431,0.06690674,0.15186767,-0.012744141,90.0
25843,0.07437396,0.4249115,-0.12466431,-0.012744141,0.16354981,-0.0021240234,90.0
25844,0.24690151,0.15816498,0.0033950806,-0.012744141,0.16354981,-0.0021240234,90.0
25845,0.24690151,0.15816498,0.0033950806,-0.16779785,0.22833252,0.013806152,90.0
25846,0.26773608,-0.18136597,0.17975235,-0.16779785,0.22833252,0.013806152,90.0
25847,0.26773608,-0.18136597,0.17975235,-0.124255374,0.2357666,0.008496094,90.0
25848,0.27250183,-0.37548828,0.35778046,-0.124255374,0.2357666,0.008496094,90.0
25849,0.27250183,-0.37548828,0.35778046,-0.012744141,0.1720459,-0.015930176,90.0
25850,0.2970053,-0.29866028,0.42125702,-0.012744141,0.1720459,-0.015930176,90.0
25851,0.2970053,-0.29866028,0.42125702,0.03717041,0.13806152,-0.038232423,90.0
25852,0.31546068,-0.079689026,0.33257675,0.03717041,0.13806152,-0.038232423,90.0
25853,0.31546068,-0.079689026,0.33257675,0.05522461,0.11363526,-0.098767094,90.0
25854,0.24193156,0.079437256,0.16397476,0.05522461,0.11363526,-0.098767094,90.0
25855,0.24193156,0.079437256,0.16397476,0.058410645,0.0637207,-0.13912354,90.0
25856,0.16406524,0.1677475,-0.070957184,0.058410645,0.0637207,-0.13912354,90.0
25857,0.16406524,0.1677475,-0.070957184,0.025488282,0.07434082,-0.20390625,90.0
25858,0.083791256,0.103759766,-0.35066223,0.025488282,0.07434082,-0.20390625,90.0
25859,0.083791256,0.103759766,-0.35066223,-0.124255374,0.08602295,-0.19116211,90.0
25860,0.024943113,-0.10256195,-0.39461517,-0.124255374,0.08602295,-0.19116211,90.0
25861,0.024943113,-0.10256195,-0.39461517,-0.13912354,0.06796875,-0.23364258,90.0
25862,0.15656334,-0.07633972,-0.17556763,-0.13912354,0.06796875,-0.23364258,90.0
25863,0.15656334,-0.07633972,-0.17556763,-0.17735596,0.0361084,-0.28568116,90.0
25864,0.15656334,-0.07633972,-0.17556763,-0.17735596,0.0361084,-0.28568116,91.0
25865,0.39715004,0.05079651,-0.010242462,-0.17735596,0.0361084,-0.28568116,91.0
25866,0.39715004,0.05079651,-0.010242462,-0.16885987,0.004248047,-0.33240968,91.0
25867,0.55159456,0.0074691772,-0.0057754517,-0.16885987,0.004248047,-0.33240968,91.0
25868,0.55159456,0.0074691772,-0.0057754517,-0.1720459,0.007434082,-0.4248047,91.0
25869,0.54820925,-0.14164734,-0.16576385,-0.1720459,0.007434082,-0.4248047,91.0
25870,0.54820925,-0.14164734,-0.16576385,-0.23045655,0.007434082,-0.49383545,91.0
25871,0.42784965,-0.13098145,-0.4507904,-0.23045655,0.007434082,-0.49383545,91.0
25872,0.42784965,-0.13098145,-0.4507904,-0.2081543,0.047790527,-0.48109132,91.0
25873,0.20297307,0.27490997,-0.7159195,-0.2081543,0.047790527,-0.48109132,91.0
25874,0.20297307,0.27490997,-0.7159195,-0.15930176,0.09451904,-0.47684327,91.0
25875,-0.11192575,0.6472702,-0.8430252,-0.15930176,0.09451904,-0.47684327,91.0
25876,-0.11192575,0.6472702,-0.8430252,-0.17629395,0.15611573,-0.39613038,91.0
25877,-0.23340046,0.6396179,-0.7736969,-0.17629395,0.15611573,-0.39613038,91.0
25878,-0.23340046,0.6396179,-0.7736969,-0.1709839,0.22302246,-0.30479738,91.0
25879,0.107420266,0.55114746,-0.53255844,-0.1709839,0.22302246,-0.30479738,91.0
25880,0.107420266,0.55114746,-0.53255844,-0.19116211,0.32178956,-0.11469727,91.0
25881,0.5749865,0.46107483,-0.2289772,-0.19116211,0.32178956,-0.11469727,91.0
25882,0.5749865,0.46107483,-0.2289772,-0.2262085,0.44073486,0.07752686,91.0
25883,0.6872964,0.1967926,0.054527283,-0.2262085,0.44073486,0.07752686,91.0
25884,0.6872964,0.1967926,0.054527283,-0.26019287,0.5671143,0.26550293,91.0
25885,0.4614948,-0.39508057,0.2715416,-0.26019287,0.5671143,0.26550293,91.0
25886,0.4614948,-0.39508057,0.2715416,-0.1709839,0.5766724,0.36427003,91.0
25887,0.26942778,-1.2042999,0.39400482,-0.1709839,0.5766724,0.36427003,91.0
25888,0.26942778,-1.2042999,0.39400482,0.18691407,0.632959,0.452417,91.0
25889,0.35588646,-1.5425034,0.5308647,0.18691407,0.632959,0.452417,91.0
25890,0.35588646,-1.5425034,0.5308647,0.48215333,0.6414551,0.4619751,91.0
25891,0.55043185,-1.140358,0.7788429,0.48215333,0.6414551,0.4619751,91.0
25892,0.55043185,-1.140358,0.7788429,0.7147339,0.7147339,0.5161377,91.0
25893,0.49697393,-0.80927277,0.95931625,0.7147339,0.7147339,0.5161377,91.0
25894,0.49697393,-0.80927277,0.95931625,1.0981201,0.7327881,0.5150757,91.0
25895,0.034786165,-0.69932556,1.1015816,1.0981201,0.7327881,0.5150757,91.0
25896,0.034786165,-0.69932556,1.1015816,1.3614991,0.5522461,0.6117188,91.0
25897,-0.65090644,-0.5406647,1.5304337,1.3614991,0.5522461,0.6117188,91.0
25898,-0.65090644,-0.5406647,1.5304337,1.5664673,0.46622315,0.6786255,91.0
25899,-1.3137062,-0.0042495728,1.908062,1.5664673,0.46622315,0.6786255,91.0
25900,-1.3137062,-0.0042495728,1.908062,1.535669,0.31010744,0.69349366,91.0
25901,-1.8740972,1.2110901,1.4823914,1.535669,0.31010744,0.69349366,91.0
25902,-1.8740972,1.2110901,1.4823914,1.3816773,0.22833252,0.45878908,91.0
25903,-2.2470074,2.2003174,0.37491608,1.3816773,0.22833252,0.45878908,91.0
25904,-2.2470074,2.2003174,0.37491608,1.4326538,0.0722168,0.32922363,91.0
25905,-2.354564,2.4013367,-0.36252975,1.4326538,0.0722168,0.32922363,91.0
25906,-2.354564,2.4013367,-0.36252975,1.5930176,-0.22939454,0.19541016,91.0
25907,-2.1212487,2.3456573,-0.11143494,1.5930176,-0.22939454,0.19541016,91.0
25908,-2.1212487,2.3456573,-0.11143494,1.539917,-0.45560303,0.17947999,91.0
25909,-1.4935932,1.9506531,0.6859474,1.539917,-0.45560303,0.17947999,91.0
25910,-1.4935932,1.9506531,0.6859474,1.3699951,-0.59897465,0.26975098,91.0
25911,-0.85667896,1.2702484,1.3447418,1.3699951,-0.59897465,0.26975098,91.0
25912,-0.85667896,1.2702484,1.3447418,1.0057251,-0.6775635,0.2824951,91.0
25913,-0.49643922,0.7744293,1.5718613,1.0057251,-0.6775635,0.2824951,91.0
25914,-0.49643922,0.7744293,1.5718613,0.70092773,-0.7582764,0.23789063,91.0
25915,-0.35026407,0.3470688,1.5333176,0.70092773,-0.7582764,0.23789063,91.0
25916,-0.35026407,0.3470688,1.5333176,0.5607422,-0.7858887,0.2899292,91.0
25917,-0.3632679,0.25737,1.4848671,0.5607422,-0.7858887,0.2899292,91.0
25918,-0.3632679,0.25737,1.4848671,0.33134767,-0.8814697,0.452417,91.0
25919,-0.3537612,0.91815186,1.3465958,0.33134767,-0.8814697,0.452417,91.0
25920,-0.3537612,0.91815186,1.3465958,0.03079834,-0.8464233,0.3164795,91.0
25921,-0.09223747,1.6542358,1.0213318,0.03079834,-0.8464233,0.3164795,91.0
25922,-0.09223747,1.6542358,1.0213318,-0.07965088,-0.814563,0.15186767,91.0
25923,0.36994767,1.6352539,0.2774887,-0.07965088,-0.814563,0.15186767,91.0
25924,0.36994767,1.6352539,0.2774887,-0.1529297,-0.87615967,0.0361084,91.0
25925,0.8745227,1.0887222,-0.7157669,-0.1529297,-0.87615967,0.0361084,91.0
25926,0.8745227,1.0887222,-0.7157669,-0.30161133,-0.88996583,-0.087084964,91.0
25927,1.4150114,-0.041862488,-1.0384674,-0.30161133,-0.88996583,-0.087084964,91.0
25928,1.4150114,-0.041862488,-1.0384674,-0.16779785,-0.7104859,-0.12213135,91.0
25929,1.7637842,-1.1438904,-0.52828217,-0.16779785,-0.7104859,-0.12213135,91.0
25930,1.7637842,-1.1438904,-0.52828217,0.050976563,-0.6149048,-0.2548828,91.0
25931,1.6362959,-1.0745239,-0.060699463,0.050976563,-0.6149048,-0.2548828,91.0
25932,1.6362959,-1.0745239,-0.060699463,-0.16461182,-0.35152587,-0.37382814,91.0
25933,1.1848423,-0.088378906,-0.30469894,-0.16461182,-0.35152587,-0.37382814,91.0
25934,1.1848423,-0.088378906,-0.30469894,-0.47578126,-0.08496094,-0.40462646,91.0
25935,0.692222,0.93634033,-1.1753159,-0.47578126,-0.08496094,-0.40462646,91.0
25936,0.692222,0.93634033,-1.1753159,-0.8358032,0.17947999,-0.34090576,91.0
25937,0.3777156,1.2923431,-1.9702721,-0.8358032,0.17947999,-0.34090576,91.0
25938,0.3777156,1.2923431,-1.9702721,-1.0248413,0.4056885,-0.29205322,91.0
25939,0.26207232,0.81980896,-2.1644135,-1.0248413,0.4056885,-0.29205322,91.0
25940,0.26207232,0.81980896,-2.1644135,-0.8517334,0.5671143,-0.21240234,91.0
25941,0.26069546,0.019104004,-1.7232323,-0.8517334,0.5671143,-0.21240234,91.0
25942,0.26069546,0.019104004,-1.7232323,-0.5809204,0.72854006,-0.13381349,91.0
25943,0.25457686,-0.47581482,-1.0281448,-0.5809204,0.72854006,-0.13381349,91.0
25944,0.25457686,-0.47581482,-1.0281448,-0.81243896,0.8379273,-0.16248779,91.0
25945,0.2051996,-0.8281479,-0.3871765,-0.81243896,0.8379273,-0.16248779,91.0
25946,0.2051996,-0.8281479,-0.3871765,-1.1013062,1.0322754,-0.19647217,91.0
25947,0.050255835,-1.4899902,0.19828033,-1.1013062,1.0322754,-0.19647217,91.0
25948,0.050255835,-1.4899902,0.19828033,-1.1406006,1.3158325,-0.18691407,91.0
25949,-0.31381142,-2.0789032,0.48532104,-1.1406006,1.3158325,-0.18691407,91.0
25950,-0.31381142,-2.0789032,0.48532104,-0.9430664,1.4613281,-0.1709839,91.0
25951,-0.7222527,-1.976532,0.14788818,-0.9430664,1.4613281,-0.1709839,91.0
25952,-0.7222527,-1.976532,0.14788818,-0.9345703,1.5176147,-0.14868164,91.0
25953,-0.9467231,-1.270546,-0.62913895,-0.9345703,1.5176147,-0.14868164,91.0
25954,-0.9467231,-1.270546,-0.62913895,-1.0131592,1.4836304,-0.18585205,91.0
25955,-0.9308405,-0.5579605,-1.3729286,-1.0131592,1.4836304,-0.18585205,91.0
25956,-0.9308405,-0.5579605,-1.3729286,-1.1321045,1.4613281,-0.26125488,91.0
25957,-0.9308405,-0.5579605,-1.3729286,-1.1321045,1.4613281,-0.26125488,92.0
25958,-0.7530587,-0.38459778,-1.6762695,-1.1321045,1.4613281,-0.26125488,92.0
25959,-0.7530587,-0.38459778,-1.6762695,-1.0503296,1.5664673,-0.32072756,92.0
25960,-0.64005685,-0.94818115,-1.3614769,-1.0503296,1.5664673,-0.32072756,92.0
25961,-0.64005685,-0.94818115,-1.3614769,-0.7508423,1.7024049,-0.3090454,92.0
25962,-0.8509736,-1.6845474,-0.7508545,-0.7508423,1.7024049,-0.3090454,92.0
25963,-0.8509736,-1.6845474,-0.7508545,-0.5278198,1.7087768,-0.22408448,92.0
25964,-1.4279346,-1.6817322,-0.22098541,-0.5278198,1.7087768,-0.22408448,92.0
25965,-1.4279346,-1.6817322,-0.22098541,-0.44923097,1.6970948,-0.14655761,92.0
25966,-2.0389051,-0.87358093,0.40995407,-0.44923097,1.6970948,-0.14655761,92.0
25967,-2.0389051,-0.87358093,0.40995407,-0.46834716,1.8606446,-0.20709229,92.0
25968,-2.3338585,0.10391998,1.4114723,-0.46834716,1.8606446,-0.20709229,92.0
25969,-2.3338585,0.10391998,1.4114723,-0.12213135,2.1197755,-0.50233155,92.0
25970,-2.3295503,0.61094666,2.193348,-0.12213135,2.1197755,-0.50233155,92.0
25971,-2.3295503,0.61094666,2.193348,-0.31010744,2.5902467,-0.7582764,92.0
25972,-2.2412038,0.2012024,1.7820587,-0.31010744,2.5902467,-0.7582764,92.0
25973,-2.2412038,0.2012024,1.7820587,-0.48746338,2.8440673,-0.9228882,92.0
25974,-2.2749825,-1.3109589,0.33415604,-0.48746338,2.8440673,-0.9228882,92.0
25975,-2.2749825,-1.3109589,0.33415604,-0.30267334,2.974695,-0.8028809,92.0
25976,-2.30264,-2.2604752,-0.92503357,-0.30267334,2.974695,-0.8028809,92.0
25977,-2.30264,-2.2604752,-0.92503357,0.098767094,2.986377,-0.85385746,92.0
25978,-2.064097,-1.3886414,-1.4068985,0.098767094,2.986377,-0.85385746,92.0
25979,-2.064097,-1.3886414,-1.4068985,0.09239502,3.0692139,-1.0142212,92.0
25980,-1.6713824,-0.046920776,-1.3132133,0.09239502,3.0692139,-1.0142212,92.0
25981,-1.6713824,-0.046920776,-1.3132133,0.1178833,3.164795,-1.1448487,92.0
25982,-1.508358,0.5869522,-0.9363022,0.1178833,3.164795,-1.1448487,92.0
25983,-1.508358,0.5869522,-0.9363022,0.21558838,3.1626709,-1.1915772,92.0
25984,-1.6804533,0.5460663,-0.6337967,0.21558838,3.1626709,-1.1915772,92.0
25985,-1.6804533,0.5460663,-0.6337967,0.23895264,3.1010742,-1.3317627,92.0
25986,-2.0914326,0.48673248,-0.66548157,0.23895264,3.1010742,-1.3317627,92.0
25987,-2.0914326,0.48673248,-0.66548157,0.22196046,3.0639038,-1.4581422,92.0
25988,-2.3160782,0.30204773,-0.82606125,0.22196046,3.0639038,-1.4581422,92.0
25989,-2.3160782,0.30204773,-0.82606125,0.23258057,3.0437257,-1.540979,92.0
25990,-1.926691,-0.54113007,-0.3344345,0.23258057,3.0437257,-1.540979,92.0
25991,-1.926691,-0.54113007,-0.3344345,0.24744873,2.9906251,-1.6811646,92.0
25992,-1.1724072,-1.3592453,1.1870193,0.24744873,2.9906251,-1.6811646,92.0
25993,-1.1724072,-1.3592453,1.1870193,0.19328614,2.710254,-1.8319702,92.0
25994,-0.5541973,-1.1275787,2.7082558,0.19328614,2.710254,-1.8319702,92.0
25995,-0.5541973,-1.1275787,2.7082558,0.13275146,2.3958986,-1.9392334,92.0
25996,-0.27319145,-0.04509735,3.2062378,0.13275146,2.3958986,-1.9392334,92.0
25997,-0.27319145,-0.04509735,3.2062378,0.54906005,2.1420777,-1.8192261,92.0
25998,-0.17034721,0.9823303,2.7511597,0.54906005,2.1420777,-1.8192261,92.0
25999,-0.17034721,0.9823303,2.7511597,0.9781128,1.7640015,-1.7820557,92.0
26000,0.073524475,1.5633087,1.8732529,0.9781128,1.7640015,-1.7820557,92.0
26001,0.073524475,1.5633087,1.8732529,0.9483765,1.5462891,-1.6535523,92.0
26002,0.54641724,1.8614273,0.94114304,0.9483765,1.5462891,-1.6535523,92.0
26003,0.54641724,1.8614273,0.94114304,0.86341554,1.3264526,-1.6248779,92.0
26004,0.90789795,1.924118,0.10474396,0.86341554,1.3264526,-1.6248779,92.0
26005,0.90789795,1.924118,0.10474396,0.8867798,1.0917481,-1.6365601,92.0
26006,0.9220333,1.4637451,-0.34704208,0.8867798,1.0917481,-1.6365601,92.0
26007,0.9220333,1.4637451,-0.34704208,0.85598147,0.95368654,-1.628064,92.0
26008,0.6745653,0.676384,-0.36554718,0.85598147,0.95368654,-1.628064,92.0
26009,0.6745653,0.676384,-0.36554718,0.8581055,0.8464233,-1.5643433,92.0
26010,0.4190712,0.05430603,-0.14635849,0.8581055,0.8464233,-1.5643433,92.0
26011,0.4190712,0.05430603,-0.14635849,0.85385746,0.8050049,-1.4995606,92.0
26012,0.33077717,0.13082123,-0.020065308,0.85385746,0.8050049,-1.4995606,92.0
26013,0.33077717,0.13082123,-0.020065308,0.6796875,0.77314454,-1.4910644,92.0
26014,0.44936275,0.79330444,-0.14439774,0.6796875,0.77314454,-1.4910644,92.0
26015,0.44936275,0.79330444,-0.14439774,0.5055176,0.82836914,-1.4974365,92.0
26016,0.64641666,1.0596161,-0.05778122,0.5055176,0.82836914,-1.4974365,92.0
26017,0.64641666,1.0596161,-0.05778122,0.56605226,0.94625247,-1.3848633,92.0
26018,0.66605854,0.7799454,0.46915436,0.56605226,0.94625247,-1.3848633,92.0
26019,0.66605854,0.7799454,0.46915436,0.6690674,0.99298096,-1.2776002,92.0
26020,0.44430923,0.6942291,0.8787079,0.6690674,0.99298096,-1.2776002,92.0
26021,0.44430923,0.6942291,0.8787079,0.57561034,1.1098022,-1.3083985,92.0
26022,0.2325716,0.73734283,0.7492676,0.57561034,1.1098022,-1.3083985,92.0
26023,0.2325716,0.73734283,0.7492676,0.38657227,1.2276856,-1.3317627,92.0
26024,0.1942234,0.55602264,0.23784256,0.38657227,1.2276856,-1.3317627,92.0
26025,0.1942234,0.55602264,0.23784256,0.17841797,1.2117554,-1.3487549,92.0
26026,0.19167042,0.31243134,-0.26284027,0.17841797,1.2117554,-1.3487549,92.0
26027,0.19167042,0.31243134,-0.26284027,0.04885254,1.1140503,-1.3530029,92.0
26028,0.13979912,0.09513855,-0.3457451,0.04885254,1.1140503,-1.3530029,92.0
26029,0.13979912,0.09513855,-0.3457451,0.0053100586,1.1076783,-1.364685,92.0
26030,0.13803577,-0.26789856,0.14759827,0.0053100586,1.1076783,-1.364685,92.0
26031,0.13803577,-0.26789856,0.14759827,-0.059472658,1.174585,-1.3806152,92.0
26032,0.10703468,-0.62866974,0.6359978,-0.059472658,1.174585,-1.3806152,92.0
26033,0.10703468,-0.62866974,0.6359978,-0.30161133,1.1852051,-1.4634522,92.0
26034,-0.025248528,-0.8166733,0.5355568,-0.30161133,1.1852051,-1.4634522,92.0
26035,-0.025248528,-0.8166733,0.5355568,-0.4258667,1.2170655,-1.539917,92.0
26036,-0.23706913,-0.98721313,0.16893768,-0.4258667,1.2170655,-1.539917,92.0
26037,-0.23706913,-0.98721313,0.16893768,-0.4322388,1.183081,-1.4220337,92.0
26038,-0.54343987,-0.91600037,-0.1608963,-0.4322388,1.183081,-1.4220337,92.0
26039,-0.54343987,-0.91600037,-0.1608963,-0.46728516,1.1193603,-1.4326538,92.0
26040,-0.7737169,-0.59980774,-0.39679718,-0.46728516,1.1193603,-1.4326538,92.0
26041,-0.7737169,-0.59980774,-0.39679718,-0.5097656,1.1522827,-1.3869873,92.0
26042,-0.7532635,-0.43247986,-0.4088211,-0.5097656,1.1522827,-1.3869873,92.0
26043,-0.7532635,-0.43247986,-0.4088211,-0.5256958,1.1575928,-1.3275146,92.0
26044,-0.62427807,-0.36025238,-0.43975067,-0.5256958,1.1575928,-1.3275146,92.0
26045,-0.62427807,-0.36025238,-0.43975067,-0.5543701,1.1469727,-1.2436157,92.0
26046,-0.54891014,-0.17320251,-0.6809273,-0.5543701,1.1469727,-1.2436157,92.0
26047,-0.54891014,-0.17320251,-0.6809273,-0.59047854,1.1639649,-1.1225464,92.0
26048,-0.49495125,0.022583008,-0.92401505,-0.59047854,1.1639649,-1.1225464,92.0
26049,-0.49495125,0.022583008,-0.92401505,-0.5214478,1.179895,-0.9802368,92.0
26050,-0.30586052,0.043907166,-1.0022469,-0.5214478,1.179895,-0.9802368,92.0
26051,-0.30586052,0.043907166,-1.0022469,-0.36108398,1.178833,-0.90908206,92.0
26052,0.13274097,-0.0011749268,-1.0109901,-0.36108398,1.178833,-0.90908206,92.0
26053,0.13274097,-0.0011749268,-1.0109901,-0.26975098,1.1289185,-0.94731444,92.0
26054,0.76522636,-0.0677948,-1.0252571,-0.26975098,1.1289185,-0.94731444,92.0
26055,0.76522636,-0.0677948,-1.0252571,-0.36533204,1.1151123,-1.1066163,92.0
26056,1.4234114,-0.5164032,-1.1153107,-0.36533204,1.1151123,-1.1066163,92.0
26057,1.4234114,-0.5164032,-1.1153107,-0.5522461,1.178833,-1.2075074,92.0
26058,1.7886925,-1.404274,-1.0167236,-0.5522461,1.178833,-1.2075074,92.0
26059,1.7886925,-1.404274,-1.0167236,-0.64782715,1.2552979,-1.2436157,92.0
26060,1.6666474,-2.1414032,-0.5375519,-0.64782715,1.2552979,-1.2436157,92.0
26061,1.6666474,-2.1414032,-0.5375519,-0.7519043,1.2244996,-1.3264526,92.0
26062,1.2278614,-2.3398666,-0.34205246,-0.7519043,1.2244996,-1.3264526,92.0
26063,1.2278614,-2.3398666,-0.34205246,-0.8666016,1.1480347,-1.3997315,92.0
26064,1.2278614,-2.3398666,-0.34205246,-0.8666016,1.1480347,-1.3997315,92.0
26065,0.7787857,-2.3218842,-0.7345085,-0.8666016,1.1480347,-1.3997315,92.0
26066,0.7787857,-2.3218842,-0.7345085,-1.0694458,1.080066,-1.3848633,92.0
26067,0.41419077,-2.3408585,-1.1852493,-1.0694458,1.080066,-1.3848633,92.0
26068,0.41419077,-2.3408585,-1.1852493,-1.1990112,1.0567017,-1.364685,92.0
26069,0.03092575,-2.4219437,-1.2095985,-1.1990112,1.0567017,-1.364685,92.0
26070,0.03092575,-2.4219437,-1.2095985,-1.1119263,1.1490967,-1.1236085,92.0
26071,-0.5459995,-2.3172455,-0.83533096,-1.1119263,1.1490967,-1.1236085,92.0
26072,-0.5459995,-2.3172455,-0.83533096,-1.2478638,1.1331666,-0.9388184,92.0
26073,-0.76796436,-1.8366699,-0.73363495,-1.2478638,1.1331666,-0.9388184,92.0
26074,-0.76796436,-1.8366699,-0.73363495,-1.3774292,1.1809571,-0.8889038,92.0
26075,-1.398881,-0.5578613,-0.7692108,-1.3774292,1.1809571,-0.8889038,92.0
26076,-1.398881,-0.5578613,-0.7692108,-1.5229248,1.5431031,-0.79119873,92.0
26077,-1.2623787,-0.3131714,-0.8888092,-1.5229248,1.5431031,-0.79119873,92.0
26078,-1.2623787,-0.3131714,-0.8888092,-1.3689331,1.5919555,-0.70942384,92.0
26079,-1.7092075,-0.7720337,-1.1095085,-1.3689331,1.5919555,-0.70942384,92.0
26080,-1.7092075,-0.7720337,-1.1095085,-0.6425171,1.4528321,-0.3334717,92.0
26081,-1.6826248,-0.9469757,-1.0702019,-0.6425171,1.4528321,-0.3334717,92.0
26082,-1.6826248,-0.9469757,-1.0702019,-0.3440918,1.4029175,-0.22727051,92.0
26083,-1.9569035,-0.8903961,-1.1362152,-0.3440918,1.4029175,-0.22727051,92.0
26084,-1.9569035,-0.8903961,-1.1362152,0.06903076,1.5165528,0.20709229,92.0
26085,-1.8021193,-0.36950684,-0.7120857,0.06903076,1.5165528,0.20709229,92.0
26086,-1.8021193,-0.36950684,-0.7120857,0.542688,1.8850708,0.10620117,92.0
26087,-2.1739588,2.9296494,1.3599701,0.542688,1.8850708,0.10620117,92.0
26088,-2.1739588,2.9296494,1.3599701,0.8729736,1.8627685,-0.7519043,92.0
26089,-1.5697212,4.1852493,1.5543327,0.8729736,1.8627685,-0.7519043,92.0
26090,-1.5697212,4.1852493,1.5543327,1.0397094,1.9721558,-0.8729736,92.0
26091,1.0845671,3.1510773,0.702816,1.0397094,1.9721558,-0.8729736,92.0
26092,1.0845671,3.1510773,0.702816,1.26698,2.6539674,0.046728518,92.0
26093,1.0755396,0.41181183,0.42876816,1.26698,2.6539674,0.046728518,92.0
26094,1.0755396,0.41181183,0.42876816,1.7979859,2.250403,-0.31223145,92.0
26095,-0.5271168,-1.0931473,1.5600548,1.7979859,2.250403,-0.31223145,92.0
26096,-0.5271168,-1.0931473,1.5600548,-0.025488282,2.8323853,-1.2298096,92.0
26097,-0.32589245,0.08517456,2.068428,-0.025488282,2.8323853,-1.2298096,92.0
26098,-0.32589245,0.08517456,2.068428,-0.03079834,3.1371827,-1.545227,92.0
26099,0.9239292,0.6609421,1.5523758,-0.03079834,3.1371827,-1.545227,92.0
26100,0.9239292,0.6609421,1.5523758,2.0167603,3.1998413,-1.4974365,92.0
26101,0.8758745,0.030158997,0.5826225,2.0167603,3.1998413,-1.4974365,92.0
26102,0.8758745,0.030158997,0.5826225,2.4925416,2.981067,-1.4655762,92.0
26103,0.39818478,-0.8318176,-0.88162994,2.4925416,2.981067,-1.4655762,92.0
26104,0.39818478,-0.8318176,-0.88162994,2.2684572,2.445813,-1.634436,92.0
26105,-0.14144993,-0.8330078,-0.8476753,2.2684572,2.445813,-1.634436,92.0
26106,-0.14144993,-0.8330078,-0.8476753,1.806482,2.35448,-1.717273,92.0
26107,-0.4239874,-0.5642319,-0.015117645,1.806482,2.35448,-1.717273,92.0
26108,-0.4239874,-0.5642319,-0.015117645,2.0093262,1.9179932,-1.363623,92.0
26109,-0.18967819,0.08340454,-0.39523697,2.0093262,1.9179932,-1.363623,92.0
26110,-0.18967819,0.08340454,-0.39523697,1.0715698,1.4783204,-0.8857178,92.0
26111,0.53091145,1.4147644,-2.140297,1.0715698,1.4783204,-0.8857178,92.0
26112,0.53091145,1.4147644,-2.140297,0.06903076,1.2043213,-0.10513916,92.0
26113,0.71602535,2.260498,-3.5721283,0.06903076,1.2043213,-0.10513916,92.0
26114,0.71602535,2.260498,-3.5721283,-0.44498292,0.58304447,0.5479981,92.0
26115,-1.2419748,3.0008698,-4.1022835,-0.44498292,0.58304447,0.5479981,92.0
26116,-1.2419748,3.0008698,-4.1022835,-0.9281983,-0.47684327,0.79332274,92.0
26117,-1.9703617,2.9085083,-3.3911629,-0.9281983,-0.47684327,0.79332274,92.0
26118,-1.9703617,2.9085083,-3.3911629,-0.99722904,-0.7827026,0.8687256,92.0
26119,-3.3377028,4.1206512,-2.4935455,-0.99722904,-0.7827026,0.8687256,92.0
26120,-3.3377028,4.1206512,-2.4935455,-1.2914063,-1.537793,0.58198243,92.0
26121,-2.6813679,3.6736374,-1.9188728,-1.2914063,-1.537793,0.58198243,92.0
26122,-2.6813679,3.6736374,-1.9188728,-1.2372437,-1.7024049,0.3525879,92.0
26123,-1.6295433,2.6507034,-0.427166,-1.2372437,-1.7024049,0.3525879,92.0
26124,-1.6295433,2.6507034,-0.427166,-0.6042847,-1.8171021,0.118945315,92.0
26125,-0.5325413,0.10858154,2.50745,-0.6042847,-1.8171021,0.118945315,92.0
26126,-0.5325413,0.10858154,2.50745,0.635083,-1.9286133,-0.03079834,92.0
26127,0.4240036,-1.5184479,5.4951057,0.635083,-1.9286133,-0.03079834,92.0
26128,0.4240036,-1.5184479,5.4951057,1.8521484,-2.1314576,-0.37807617,92.0
26129,1.2916927,-0.23348999,6.185585,1.8521484,-2.1314576,-0.37807617,92.0
26130,1.2916927,-0.23348999,6.185585,1.3922974,-2.1038454,-1.0535157,92.0
26131,2.7642746,3.0148392,3.6105652,1.3922974,-2.1038454,-1.0535157,92.0
26132,2.7642746,3.0148392,3.6105652,-0.41949463,-1.6376221,-1.9126831,92.0
26133,3.3230047,2.6875076,2.288208,-0.41949463,-1.6376221,-1.9126831,92.0
26134,3.3230047,2.6875076,2.288208,-0.62977296,-1.3296387,-2.0496826,92.0
26135,4.5280085,1.1911087,1.3251343,-0.62977296,-1.3296387,-2.0496826,92.0
26136,4.5280085,1.1911087,1.3251343,0.47896728,-1.081128,-2.5488281,92.0
26137,5.048603,-0.3416214,1.7272453,0.47896728,-1.081128,-2.5488281,92.0
26138,5.048603,-0.3416214,1.7272453,1.8001099,-1.3816773,-2.4160767,92.0
26139,5.6241117,-0.7194519,3.2939148,1.8001099,-1.3816773,-2.4160767,92.0
26140,5.6241117,-0.7194519,3.2939148,0.8294312,-1.2871583,-2.7474244,92.0
26141,5.6653657,-1.4211578,3.6701508,0.8294312,-1.2871583,-2.7474244,92.0
26142,5.6653657,-1.4211578,3.6701508,0.26762697,-0.7975708,-2.5445802,92.0
26143,6.8730764,-5.6963043,5.677223,0.26762697,-0.7975708,-2.5445802,92.0
26144,6.8730764,-5.6963043,5.677223,0.37701416,-0.3164795,-1.5271729,92.0
26145,6.5657463,-7.446457,5.104229,0.37701416,-0.3164795,-1.5271729,92.0
26146,6.5657463,-7.446457,5.104229,0.14761963,-0.50870365,-0.61065674,92.0
26147,2.6142426,0.6666641,-0.4622078,0.14761963,-0.50870365,-0.61065674,92.0
26148,2.6142426,0.6666641,-0.4622078,-0.7540283,-0.38763428,-0.42374268,92.0
26149,0.9653077,3.2147217,-1.8296051,-0.7540283,-0.38763428,-0.42374268,92.0
26150,0.9653077,3.2147217,-1.8296051,-0.56392825,-0.34833986,-0.4895874,92.0
26151,-0.6588818,5.1085815,-3.2222443,-0.56392825,-0.34833986,-0.4895874,92.0
26152,-0.6588818,5.1085815,-3.2222443,0.095581055,-0.25913087,-0.6637573,92.0
26153,-0.42876554,3.3312378,-2.7923355,0.095581055,-0.25913087,-0.6637573,92.0
26154,-0.42876554,3.3312378,-2.7923355,0.8209351,-0.23258057,-0.727478,92.0
26155,0.7714895,0.45243835,-0.950325,0.8209351,-0.23258057,-0.727478,92.0
26156,0.7714895,0.45243835,-0.950325,1.0301514,-0.14974366,-0.5872925,92.0
26157,0.80554605,0.17734528,-0.32450867,1.0301514,-0.14974366,-0.5872925,92.0
26158,0.80554605,0.17734528,-0.32450867,0.7625244,-0.12000733,-0.52250975,92.0
26159,0.442203,0.41454315,-0.08851242,0.7625244,-0.12000733,-0.52250975,92.0
26160,0.442203,0.41454315,-0.08851242,0.39400634,-0.13062744,-0.55543214,92.0
26161,0.22617447,0.86447906,-0.40856552,0.39400634,-0.13062744,-0.55543214,92.0
26162,0.22617447,0.86447906,-0.40856552,0.25594482,-0.047790527,-0.5586182,92.0
26163,1.2848947,0.22483826,-1.1634483,0.25594482,-0.047790527,-0.5586182,92.0
26164,1.2848947,0.22483826,-1.1634483,0.2899292,-0.21240234,-0.44179687,92.0
26165,1.464842,-0.03364563,-1.3237877,0.2899292,-0.21240234,-0.44179687,92.0
26166,1.464842,-0.03364563,-1.3237877,0.25063476,-0.2516968,-0.38444826,92.0
26167,1.4342637,-0.15562439,-1.472435,0.25063476,-0.2516968,-0.38444826,92.0
26168,1.4342637,-0.15562439,-1.472435,0.38338622,-0.31010744,-0.32391357,92.0
26169,0.8191029,-0.20536041,-0.5692711,0.38338622,-0.31010744,-0.32391357,92.0
26170,0.8191029,-0.20536041,-0.5692711,0.4704712,-0.23258057,-0.28674316,92.0
26171,0.27996492,-0.47065735,0.66942596,0.4704712,-0.23258057,-0.28674316,92.0
26172,0.27996492,-0.47065735,0.66942596,0.4354248,-0.121069334,-0.26656494,92.0
26173,-0.10538596,-0.5937271,1.3703651,0.4354248,-0.121069334,-0.26656494,92.0
26174,-0.10538596,-0.5937271,1.3703651,0.08496094,-0.033984374,-0.20709229,92.0
26175,-0.22503144,-0.21379852,1.2022133,0.08496094,-0.033984374,-0.20709229,92.0
26176,-0.22503144,-0.21379852,1.2022133,-0.14974366,0.043542482,-0.19647217,92.0
26177,0.113248765,0.5053787,0.5423393,-0.14974366,0.043542482,-0.19647217,92.0
26178,0.113248765,0.5053787,0.5423393,-0.24744873,0.081774905,-0.2262085,92.0
26179,0.4776107,1.1390305,-0.088638306,-0.24744873,0.081774905,-0.2262085,92.0
26180,0.4776107,1.1390305,-0.088638306,-0.13275146,0.08920898,-0.18585205,92.0
26181,0.3829797,0.871109,-0.051734924,-0.13275146,0.08920898,-0.18585205,92.0
26182,0.3829797,0.871109,-0.051734924,-0.08602295,0.07646485,-0.14124756,92.0
26183,0.25410104,0.36393738,0.16487122,-0.08602295,0.07646485,-0.14124756,92.0
26184,0.25410104,0.36393738,0.16487122,-0.03186035,0.038232423,-0.03717041,92.0
26185,0.16382772,0.20796967,0.15574646,-0.03186035,0.038232423,-0.03717041,92.0
26186,0.16382772,0.20796967,0.15574646,-0.046728518,0.012744141,-0.0063720704,92.0
26187,0.06649917,0.2942276,-0.050842285,-0.046728518,0.012744141,-0.0063720704,92.0
26188,0.06649917,0.2942276,-0.050842285,0.04141846,-0.0031860352,0.019116212,92.0
26189,-0.024986684,0.13015747,-0.20215988,0.04141846,-0.0031860352,0.019116212,92.0
26190,-0.024986684,0.13015747,-0.20215988,0.06265869,-0.014868164,0.04885254,92.0
26191,-0.1306827,0.02406311,-0.32938004,0.06265869,-0.014868164,0.04885254,92.0
26192,-0.1306827,0.02406311,-0.32938004,0.083898924,-0.033984374,0.027612304,92.0
26193,-0.1306827,0.02406311,-0.32938004,0.083898924,-0.033984374,0.027612304,92.0
26194,-0.2972952,0.012557983,-0.3470955,0.083898924,-0.033984374,0.027612304,92.0
26195,-0.2972952,0.012557983,-0.3470955,0.15080567,-0.02442627,0.05522461,92.0
26196,-0.32958424,-0.1796112,-0.17203522,0.15080567,-0.02442627,0.05522461,92.0
26197,-0.32958424,-0.1796112,-0.17203522,0.18903808,-0.019116212,0.026550293,92.0
26198,-0.08457804,-0.31191254,0.064777374,0.18903808,-0.019116212,0.026550293,92.0
26199,-0.08457804,-0.31191254,0.064777374,0.06584473,0.04460449,0.0021240234,92.0
26200,0.26694453,-0.27244568,0.05382538,0.06584473,0.04460449,0.0021240234,92.0
26201,0.26694453,-0.27244568,0.05382538,-0.13168946,0.05522461,0.008496094,92.0
26202,0.44675875,-0.1847763,-0.022201538,-0.13168946,0.05522461,0.008496094,92.0
26203,0.44675875,-0.1847763,-0.022201538,-0.26337892,0.1263794,0.008496094,92.0
26204,0.29858136,-0.026039124,0.025196075,-0.26337892,0.1263794,0.008496094,92.0
26205,0.29858136,-0.026039124,0.025196075,-0.34833986,0.17841797,0.021240234,92.0
26206,-0.0118429065,0.15717316,-0.02817154,-0.34833986,0.17841797,0.021240234,92.0
26207,-0.0118429065,0.15717316,-0.02817154,-0.41949463,0.20284425,0.070092775,92.0
26208,-0.15986496,0.11463928,-0.13347244,-0.41949463,0.20284425,0.070092775,92.0
26209,-0.15986496,0.11463928,-0.13347244,-0.3355957,0.20921631,0.13381349,92.0
26210,-0.22247207,0.009544373,-0.2132721,-0.3355957,0.20921631,0.13381349,92.0
26211,-0.22247207,0.009544373,-0.2132721,-0.1274414,0.1444336,0.14655761,92.0
26212,-0.12558508,-0.53323364,-0.9129486,-0.1274414,0.1444336,0.14655761,92.0
26213,-0.12558508,-0.53323364,-0.9129486,-0.08920898,-0.0541626,0.3802002,92.0
26214,0.29247624,-0.7302246,-1.4835472,-0.08920898,-0.0541626,0.3802002,92.0
26215,0.29247624,-0.7302246,-1.4835472,0.24213867,-0.07327881,0.271875,92.0
26216,0.45649076,-0.1827774,-0.8243027,0.24213867,-0.07327881,0.271875,92.0
26217,0.45649076,-0.1827774,-0.8243027,0.24957275,-0.07752686,0.32497558,92.0
26218,0.22885227,0.06554413,-0.10615921,0.24957275,-0.07752686,0.32497558,92.0
26219,0.22885227,0.06554413,-0.10615921,-0.03079834,-0.013806152,0.32497558,92.0
26220,-0.07392502,0.14916229,0.28271484,-0.03079834,-0.013806152,0.32497558,92.0
26221,-0.07392502,0.14916229,0.28271484,-0.08071289,0.04460449,0.30161133,92.0
26222,-0.4992401,-0.2094574,0.47013092,-0.08071289,0.04460449,0.30161133,92.0
26223,-0.4992401,-0.2094574,0.47013092,-0.16461182,-0.026550293,0.27506104,92.0
26224,-0.49143308,-0.78312683,0.42020798,-0.16461182,-0.026550293,0.27506104,92.0
26225,-0.49143308,-0.78312683,0.42020798,-0.12213135,-0.025488282,0.3069214,92.0
26226,-0.22172314,-0.45127106,0.63772964,-0.12213135,-0.025488282,0.3069214,92.0
26227,-0.22172314,-0.45127106,0.63772964,-0.27718505,-0.0361084,0.14868164,92.0
26228,-0.52459526,0.14421082,0.6520195,-0.27718505,-0.0361084,0.14868164,92.0
26229,-0.52459526,0.14421082,0.6520195,-0.32178956,0.012744141,0.17523193,92.0
26230,-0.66340184,0.22341156,0.5219574,-0.32178956,0.012744141,0.17523193,92.0
26231,-0.66340184,0.22341156,0.5219574,-0.17629395,0.0,0.16248779,92.0
26232,-0.2547449,0.08543396,0.6889038,-0.17629395,0.0,0.16248779,92.0
26233,-0.2547449,0.08543396,0.6889038,-0.20178223,-0.093457036,0.15186767,92.0
26234,-0.058349133,-0.12326813,0.80363846,-0.20178223,-0.093457036,0.15186767,92.0
26235,-0.058349133,-0.12326813,0.80363846,-0.1996582,-0.14868164,0.13381349,92.0
26236,-0.06956749,-0.4022293,0.59461975,-0.1996582,-0.14868164,0.13381349,92.0
26237,-0.06956749,-0.4022293,0.59461975,-0.27293703,-0.26975098,0.1444336,92.0
26238,0.14794709,-0.6738205,0.054588318,-0.27293703,-0.26975098,0.1444336,92.0
26239,0.14794709,-0.6738205,0.054588318,-0.3069214,-0.20496826,0.12531738,92.0
26240,0.4192366,-0.8966522,-0.45478058,-0.3069214,-0.20496826,0.12531738,92.0
26241,0.4192366,-0.8966522,-0.45478058,-0.08283692,-0.093457036,0.098767094,92.0
26242,0.47054553,-1.1447525,-0.6611252,-0.08283692,-0.093457036,0.098767094,92.0
26243,0.47054553,-1.1447525,-0.6611252,0.19753419,-0.033984374,0.18054199,92.0
26244,0.3991903,-1.3677292,-0.6401787,0.19753419,-0.033984374,0.18054199,92.0
26245,0.3991903,-1.3677292,-0.6401787,0.43967286,0.11257324,0.4333008,92.0
26246,0.2579875,-1.3278198,-0.5492897,0.43967286,0.11257324,0.4333008,92.0
26247,0.2579875,-1.3278198,-0.5492897,0.3079834,0.3706421,0.8623535,92.0
26248,0.03995937,-0.5178528,-0.703949,0.3079834,0.3706421,0.8623535,92.0
26249,0.03995937,-0.5178528,-0.703949,0.16779785,0.47365722,0.9388184,92.0
26250,-0.114638925,0.8908005,-1.2139397,0.16779785,0.47365722,0.9388184,92.0
26251,-0.114638925,0.8908005,-1.2139397,-0.17523193,0.3812622,0.8071289,92.0
26252,-0.23642546,1.6236877,-1.4983635,-0.17523193,0.3812622,0.8071289,92.0
26253,-0.23642546,1.6236877,-1.4983635,-0.39400634,0.36320803,0.6467652,92.0
26254,-0.5758958,1.3507843,-1.089611,-0.39400634,0.36320803,0.6467652,92.0
26255,-0.5758958,1.3507843,-1.089611,-0.44604492,0.3334717,0.35152587,92.0
26256,-1.2157825,0.67598724,-0.20001984,-0.44604492,0.3334717,0.35152587,92.0
26257,-1.2157825,0.67598724,-0.20001984,-0.4959595,0.32285157,0.12000733,92.0
26258,-1.741315,-0.022903442,0.58107376,-0.4959595,0.32285157,0.12000733,92.0
26259,-1.741315,-0.022903442,0.58107376,-0.38338622,0.40993652,-0.14868164,92.0
26260,-1.8826028,-0.442688,0.91861725,-0.38338622,0.40993652,-0.14868164,92.0
26261,-1.8826028,-0.442688,0.91861725,-0.28568116,0.44498292,-0.23045655,92.0
26262,-1.8132356,-0.6193924,0.92733765,-0.28568116,0.44498292,-0.23045655,92.0
26263,-1.8132356,-0.6193924,0.92733765,-0.23682861,0.41524658,-0.25913087,92.0
26264,-1.7872828,-0.53404236,0.8134384,-0.23682861,0.41524658,-0.25913087,92.0
26265,-1.7872828,-0.53404236,0.8134384,-0.2803711,0.44923097,-0.18903808,92.0
26266,-1.8128097,-0.24188995,0.54166794,-0.2803711,0.44923097,-0.18903808,92.0
26267,-1.8128097,-0.24188995,0.54166794,-0.3812622,0.5278198,-0.08496094,92.0
26268,-1.7654943,-0.034248352,0.09465027,-0.3812622,0.5278198,-0.08496094,92.0
26269,-1.7654943,-0.034248352,0.09465027,-0.40356445,0.5246338,-0.052038576,92.0
26270,-1.5191948,-0.07954407,-0.20154953,-0.40356445,0.5246338,-0.052038576,92.0
26271,-1.5191948,-0.07954407,-0.20154953,-0.3727661,0.43011475,-0.08602295,92.0
26272,-1.0678949,-0.2270813,-0.29466248,-0.3727661,0.43011475,-0.08602295,92.0
26273,-1.0678949,-0.2270813,-0.29466248,-0.45454103,0.34940186,-0.15717773,92.0
26274,-0.6680367,-0.36344147,-0.4639778,-0.45454103,0.34940186,-0.15717773,92.0
26275,-0.6680367,-0.36344147,-0.4639778,-0.50233155,0.2527588,-0.23151855,92.0
26276,-0.41309142,-0.56555176,-0.57927704,-0.50233155,0.2527588,-0.23151855,92.0
26277,-0.41309142,-0.56555176,-0.57927704,-0.32178956,0.14761963,-0.2357666,92.0
26278,-0.11515331,-0.7387543,-0.37940216,-0.32178956,0.14761963,-0.2357666,92.0
26279,-0.11515331,-0.7387543,-0.37940216,-0.19328614,0.10301514,-0.20709229,92.0
26280,0.14829493,-0.69233704,-0.15333939,-0.19328614,0.10301514,-0.20709229,92.0
26281,0.14829493,-0.69233704,-0.15333939,-0.16354981,0.0722168,-0.14974366,92.0
26282,0.26554775,-0.50097656,-0.1690979,-0.16354981,0.0722168,-0.14974366,92.0
26283,0.26554775,-0.50097656,-0.1690979,-0.11363526,0.0063720704,-0.11151123,92.0
26284,0.29852223,-0.3119278,-0.21035004,-0.11363526,0.0063720704,-0.11151123,92.0
26285,0.29852223,-0.3119278,-0.21035004,0.050976563,-0.04141846,-0.09239502,92.0
26286,0.31049728,-0.1355362,-0.111579895,0.050976563,-0.04141846,-0.09239502,92.0
26287,0.31049728,-0.1355362,-0.111579895,0.115759276,-0.033984374,-0.057348635,92.0
26288,0.2491548,0.09689331,-0.032405853,0.115759276,-0.033984374,-0.057348635,92.0
26289,0.2491548,0.09689331,-0.032405853,0.0021240234,-0.015930176,-0.08283692,92.0
26290,0.113105536,0.20951843,-0.17871857,0.0021240234,-0.015930176,-0.08283692,92.0
26291,0.113105536,0.20951843,-0.17871857,-0.16992188,-0.0541626,-0.090270996,92.0
26292,0.07249117,0.020965576,-0.3607025,-0.16992188,-0.0541626,-0.090270996,92.0
26293,0.07249117,0.020965576,-0.3607025,-0.16354981,-0.09239502,-0.08496094,92.0
26294,0.18114972,-0.30065918,-0.33251953,-0.16354981,-0.09239502,-0.08496094,92.0
26295,0.18114972,-0.30065918,-0.33251953,-0.050976563,-0.107263185,-0.035046387,92.0
26296,0.33813262,-0.4831543,-0.11323547,-0.050976563,-0.107263185,-0.035046387,92.0
26297,0.33813262,-0.4831543,-0.11323547,0.039294433,-0.115759276,-0.023364259,92.0
26298,0.45842123,-0.41027832,0.06789398,0.039294433,-0.115759276,-0.023364259,92.0
26299,0.45842123,-0.41027832,0.06789398,0.025488282,-0.115759276,-0.011682129,92.0
26300,0.49991584,-0.24350739,0.12786102,0.025488282,-0.115759276,-0.011682129,92.0
26301,0.49991584,-0.24350739,0.12786102,-0.0180542,-0.093457036,-0.0031860352,92.0
26302,0.42625117,-0.1720581,0.21321106,-0.0180542,-0.093457036,-0.0031860352,92.0
26303,0.42625117,-0.1720581,0.21321106,0.02442627,-0.05522461,0.03079834,92.0
26304,0.29285645,-0.13417053,0.34168625,0.02442627,-0.05522461,0.03079834,92.0
26305,0.29285645,-0.13417053,0.34168625,0.08602295,-0.029736329,0.046728518,92.0
26306,0.19568658,-0.014167786,0.34928894,0.08602295,-0.029736329,0.046728518,92.0
26307,0.19568658,-0.014167786,0.34928894,0.027612304,-0.023364259,0.06690674,92.0
26308,0.13246489,0.15631866,0.21781158,0.027612304,-0.023364259,0.06690674,92.0
26309,0.13246489,0.15631866,0.21781158,-0.052038576,-0.038232423,0.06265869,92.0
26310,0.0920558,0.26786804,0.05558777,-0.052038576,-0.038232423,0.06265869,92.0
26311,0.0920558,0.26786804,0.05558777,-0.08496094,-0.052038576,0.020178223,92.0
26312,0.08505821,0.22814178,-0.0025405884,-0.08496094,-0.052038576,0.020178223,92.0
26313,0.08505821,0.22814178,-0.0025405884,-0.08496094,-0.05628662,-0.019116212,92.0
26314,0.11377406,0.08836365,0.056682587,-0.08496094,-0.05628662,-0.019116212,92.0
26315,0.11377406,0.08836365,0.056682587,-0.040356446,-0.007434082,-0.029736329,92.0
26316,0.11877799,-0.047668457,0.12602234,-0.040356446,-0.007434082,-0.029736329,92.0
26317,0.11877799,-0.047668457,0.12602234,-0.015930176,0.02442627,-0.028674318,92.0
26318,0.11877799,-0.047668457,0.12602234,-0.015930176,0.02442627,-0.028674318,93.0
26319,0.051772833,-0.15379333,0.07702637,-0.015930176,0.02442627,-0.028674318,93.0
26320,0.051772833,-0.15379333,0.07702637,-0.02442627,0.022302246,-0.012744141,93.0
26321,-0.010034323,-0.20108795,-0.051330566,-0.02442627,0.022302246,-0.012744141,93.0
26322,-0.010034323,-0.20108795,-0.051330566,-0.035046387,0.021240234,-0.0053100586,93.0
26323,0.01990223,-0.19873047,-0.16487122,-0.035046387,0.021240234,-0.0053100586,93.0
26324,0.01990223,-0.19873047,-0.16487122,-0.06584473,0.04141846,-0.0031860352,93.0
26325,0.10229874,-0.1929779,-0.23869324,-0.06584473,0.04141846,-0.0031860352,93.0
26326,0.10229874,-0.1929779,-0.23869324,-0.0361084,0.04141846,0.008496094,93.0
26327,0.14441228,-0.15494537,-0.2841797,-0.0361084,0.04141846,0.008496094,93.0
26328,0.14441228,-0.15494537,-0.2841797,0.010620117,0.021240234,0.023364259,93.0
26329,0.101540565,-0.0055236816,-0.30094147,0.010620117,0.021240234,0.023364259,93.0
26330,0.101540565,-0.0055236816,-0.30094147,0.0031860352,0.009558106,0.027612304,93.0
26331,0.019513845,0.18612671,-0.27859497,0.0031860352,0.009558106,0.027612304,93.0
26332,0.019513845,0.18612671,-0.27859497,-0.019116212,0.007434082,0.007434082,93.0
26333,-0.029628277,0.25559998,-0.22437668,-0.019116212,0.007434082,0.007434082,93.0
26334,-0.029628277,0.25559998,-0.22437668,-0.016992187,-0.02442627,-0.016992187,93.0
26335,-0.0046596527,0.1697998,-0.13838959,-0.016992187,-0.02442627,-0.016992187,93.0
26336,-0.0046596527,0.1697998,-0.13838959,0.040356446,-0.057348635,-0.05522461,93.0
26337,0.08821559,0.027954102,-0.012348175,0.040356446,-0.057348635,-0.05522461,93.0
26338,0.08821559,0.027954102,-0.012348175,0.10407715,-0.08602295,-0.1359375,93.0
26339,0.12302613,-0.13230896,0.13775253,0.10407715,-0.08602295,-0.1359375,93.0
26340,0.12302613,-0.13230896,0.13775253,0.15717773,-0.083898924,-0.19541016,93.0
26341,-0.052360296,-0.27020264,0.21951675,0.15717773,-0.083898924,-0.19541016,93.0
26342,-0.052360296,-0.27020264,0.21951675,0.20072022,-0.04460449,-0.115759276,93.0
26343,-0.3581481,-0.22738647,0.13582993,0.20072022,-0.04460449,-0.115759276,93.0
26344,-0.3581481,-0.22738647,0.13582993,0.11469727,0.026550293,0.0031860352,93.0
26345,-0.49490476,-0.022155762,-0.055397034,0.11469727,0.026550293,0.0031860352,93.0
26346,-0.49490476,-0.022155762,-0.055397034,-0.16461182,0.0998291,0.08920898,93.0
26347,-0.362159,0.13127136,-0.18206406,-0.16461182,0.0998291,0.08920898,93.0
26348,-0.362159,0.13127136,-0.18206406,-0.33665773,0.15823975,0.15823975,93.0
26349,-0.08759117,0.15528107,-0.19736099,-0.33665773,0.15823975,0.15823975,93.0
26350,-0.08759117,0.15528107,-0.19736099,-0.3993164,0.18479005,0.18691407,93.0
26351,0.16861105,0.1164093,-0.19805145,-0.3993164,0.18479005,0.18691407,93.0
26352,0.16861105,0.1164093,-0.19805145,-0.40462646,0.14549561,0.17523193,93.0
26353,0.24150515,0.09492493,-0.2128601,-0.40462646,0.14549561,0.17523193,93.0
26354,0.24150515,0.09492493,-0.2128601,-0.3164795,0.043542482,0.14230958,93.0
26355,0.1607089,0.10549164,-0.09088135,-0.3164795,0.043542482,0.14230958,93.0
26356,0.1607089,0.10549164,-0.09088135,-0.1263794,-0.039294433,0.115759276,93.0
26357,0.0890286,0.1481781,0.247509,-0.1263794,-0.039294433,0.115759276,93.0
26358,0.0890286,0.1481781,0.247509,0.0637207,-0.08496094,0.07965088,93.0
26359,0.06909895,0.24227905,0.53123474,0.0637207,-0.08496094,0.07965088,93.0
26360,0.06909895,0.24227905,0.53123474,0.090270996,-0.070092775,0.023364259,93.0
26361,0.06011319,0.25256348,0.5362091,0.090270996,-0.070092775,0.023364259,93.0
26362,0.06011319,0.25256348,0.5362091,0.04460449,-0.021240234,-0.053100586,93.0
26363,0.033356667,0.078826904,0.2929573,0.04460449,-0.021240234,-0.053100586,93.0
26364,0.033356667,0.078826904,0.2929573,-0.012744141,-0.0021240234,-0.078588866,93.0
26365,-0.035411835,-0.19168854,-0.066539764,-0.012744141,-0.0021240234,-0.078588866,93.0
26366,-0.035411835,-0.19168854,-0.066539764,-0.023364259,0.008496094,-0.09239502,93.0
26367,-0.11515808,-0.3952484,-0.33893967,-0.023364259,0.008496094,-0.09239502,93.0
26368,-0.11515808,-0.3952484,-0.33893967,0.010620117,0.004248047,-0.07434082,93.0
26369,-0.16711426,-0.47109985,-0.45754242,0.010620117,0.004248047,-0.07434082,93.0
26370,-0.16711426,-0.47109985,-0.45754242,-0.0031860352,0.0,-0.043542482,93.0
26371,-0.19958496,-0.46079254,-0.4551468,-0.0031860352,0.0,-0.043542482,93.0
26372,-0.19958496,-0.46079254,-0.4551468,-0.021240234,-0.013806152,-0.028674318,93.0
26373,-0.18907452,-0.40411377,-0.33622742,-0.021240234,-0.013806152,-0.028674318,93.0
26374,-0.18907452,-0.40411377,-0.33622742,-0.02442627,-0.02442627,-0.007434082,93.0
26375,-0.1344626,-0.2912445,-0.14236832,-0.02442627,-0.02442627,-0.007434082,93.0
26376,-0.1344626,-0.2912445,-0.14236832,-0.038232423,-0.016992187,0.019116212,93.0
26377,-0.07697916,-0.13381958,0.0060272217,-0.038232423,-0.016992187,0.019116212,93.0
26378,-0.07697916,-0.13381958,0.0060272217,-0.0541626,-0.02442627,0.026550293,93.0
26379,-0.029197931,-0.006248474,0.09637451,-0.0541626,-0.02442627,0.026550293,93.0
26380,-0.029197931,-0.006248474,0.09637451,-0.025488282,-0.027612304,0.009558106,93.0
26381,0.044549227,0.073532104,0.165699,-0.025488282,-0.027612304,0.009558106,93.0
26382,0.044549227,0.073532104,0.165699,-0.035046387,-0.013806152,0.0021240234,93.0
26383,0.10761213,0.13245392,0.16900635,-0.035046387,-0.013806152,0.0021240234,93.0
26384,0.10761213,0.13245392,0.16900635,-0.0541626,-0.008496094,-0.004248047,93.0
26385,0.09846759,0.15312195,0.09473801,-0.0541626,-0.008496094,-0.004248047,93.0
26386,0.09846759,0.15312195,0.09473801,-0.050976563,-0.007434082,-0.02442627,93.0
26387,0.02363491,0.114479065,0.039245605,-0.050976563,-0.007434082,-0.02442627,93.0
26388,0.02363491,0.114479065,0.039245605,-0.016992187,-0.015930176,-0.023364259,93.0
26389,-0.025598764,0.03488159,0.03214264,-0.016992187,-0.015930176,-0.023364259,93.0
26390,-0.025598764,0.03488159,0.03214264,0.007434082,-0.014868164,-0.022302246,93.0
26391,-0.020979404,-0.047042847,4.081726E-4,0.007434082,-0.014868164,-0.022302246,93.0
26392,-0.020979404,-0.047042847,4.081726E-4,0.0053100586,-0.019116212,-0.03186035,93.0
26393,-0.017113209,-0.08139038,-0.031570435,0.0053100586,-0.019116212,-0.03186035,93.0
26394,-0.017113209,-0.08139038,-0.031570435,0.015930176,-0.023364259,-0.026550293,93.0
26395,-0.041644573,-0.07849121,-0.011314392,0.015930176,-0.023364259,-0.026550293,93.0
26396,-0.041644573,-0.07849121,-0.011314392,0.011682129,-0.0180542,-0.008496094,93.0
26397,-0.03331566,-0.05506134,-0.0050735474,0.011682129,-0.0180542,-0.008496094,93.0
26398,-0.03331566,-0.05506134,-0.0050735474,-0.021240234,-0.008496094,-0.0021240234,93.0
26399,-0.006449938,-0.034729004,-0.06442261,-0.021240234,-0.008496094,-0.0021240234,93.0
26400,-0.006449938,-0.034729004,-0.06442261,-0.028674318,-0.013806152,0.012744141,93.0
26401,0.004373789,-0.05521393,-0.12446594,-0.028674318,-0.013806152,0.012744141,93.0
