,accx,accy,accz,gyrox,gyroy,gyroz,heart rate
27416,open,open,open,open,open,open,open
27417,-0.08178711,-0.18495178,0.30156708,-0.015930176,-0.06584473,0.057348635,137.0
27418,-0.08178711,-0.18495178,0.30156708,-0.03717041,0.028674318,-0.10620117,137.0
27419,-0.06534386,-0.14810944,0.23919296,-0.03717041,0.028674318,-0.10620117,137.0
27420,-0.06534386,-0.14810944,0.23919296,-0.033984374,-0.023364259,-0.011682129,137.0
27421,0.093403816,2.310196,-0.1776886,-0.033984374,-0.023364259,-0.011682129,137.0
27422,0.093403816,2.310196,-0.1776886,-0.008496094,-0.029736329,-0.014868164,137.0
27423,0.04032421,1.8864594,-0.18610764,-0.008496094,-0.029736329,-0.014868164,137.0
27424,0.04032421,1.8864594,-0.18610764,-0.012744141,-0.0180542,-0.013806152,137.0
27425,0.059078217,1.5359726,-0.110580444,-0.012744141,-0.0180542,-0.013806152,137.0
27426,0.059078217,1.5359726,-0.110580444,-0.009558106,0.0031860352,-0.012744141,137.0
27427,0.08173561,1.228775,-0.05014801,-0.009558106,0.0031860352,-0.012744141,137.0
27428,0.08173561,1.228775,-0.05014801,-0.013806152,0.004248047,-0.014868164,137.0
27429,0.0807085,0.9371109,-0.019290924,-0.013806152,0.004248047,-0.014868164,137.0
27430,0.0807085,0.9371109,-0.019290924,0.0180542,-0.0031860352,-0.015930176,137.0
27431,0.0652504,0.6995392,-0.0057029724,0.0180542,-0.0031860352,-0.015930176,137.0
27432,0.0652504,0.6995392,-0.0057029724,0.050976563,0.010620117,-0.023364259,137.0
27433,0.04906273,0.59371185,-0.011325836,0.050976563,0.010620117,-0.023364259,137.0
27434,0.04906273,0.59371185,-0.011325836,0.025488282,0.007434082,-0.019116212,137.0
27435,0.028470993,0.50894165,-0.049137115,0.025488282,0.007434082,-0.019116212,137.0
27436,0.028470993,0.50894165,-0.049137115,0.004248047,0.0053100586,-0.023364259,137.0
27437,0.024949074,0.35176086,-0.088638306,0.004248047,0.0053100586,-0.023364259,137.0
27438,0.024949074,0.35176086,-0.088638306,0.011682129,0.020178223,-0.03186035,137.0
27439,0.009217262,0.21569824,-0.07413101,0.011682129,0.020178223,-0.03186035,137.0
27440,0.009217262,0.21569824,-0.07413101,0.014868164,0.016992187,-0.019116212,137.0
27441,-0.019469261,0.18419647,-0.02532196,0.014868164,0.016992187,-0.019116212,137.0
27442,-0.019469261,0.18419647,-0.02532196,0.023364259,0.0010620117,-0.010620117,137.0
27443,-0.019469261,0.18419647,-0.02532196,0.032922365,0.0021240234,-0.0021240234,137.0
27444,-0.050047874,0.2011795,-0.007549286,0.032922365,0.0021240234,-0.0021240234,137.0
27445,-0.060118675,0.15421295,-0.02450943,0.032922365,0.0021240234,-0.0021240234,137.0
27446,-0.060118675,0.15421295,-0.02450943,0.03079834,0.008496094,-0.0031860352,137.0
27447,-0.036668777,0.09282684,-0.025844574,0.03079834,0.008496094,-0.0031860352,137.0
27448,-0.036668777,0.09282684,-0.025844574,0.008496094,0.012744141,-0.004248047,137.0
27449,-0.008315086,0.079818726,0.020389557,0.008496094,0.012744141,-0.004248047,137.0
27450,-0.008315086,0.079818726,0.020389557,0.02442627,0.0053100586,0.0053100586,137.0
27451,-0.008315086,0.079818726,0.020389557,0.07327881,0.0063720704,0.007434082,137.0
27452,0.006336212,0.046958923,0.059524536,0.07327881,0.0063720704,0.007434082,137.0
27453,-0.005429268,0.009681702,0.05041504,0.07327881,0.0063720704,0.007434082,137.0
27454,-0.005429268,0.009681702,0.05041504,0.07540283,-0.0010620117,0.013806152,137.0
27455,-0.027585983,0.019256592,0.0476532,0.07540283,-0.0010620117,0.013806152,137.0
27456,-0.027585983,0.019256592,0.0476532,0.09770508,0.008496094,0.023364259,137.0
27457,-0.009934425,0.068847656,0.117836,0.09770508,0.008496094,0.023364259,137.0
27458,-0.009934425,0.068847656,0.117836,0.21452637,0.014868164,0.008496094,137.0
27459,0.004565239,0.097206116,0.16197968,0.21452637,0.014868164,0.008496094,137.0
27460,0.004565239,0.097206116,0.16197968,0.24744873,0.015930176,0.010620117,137.0
27461,0.0020895004,0.23336792,0.18035507,0.24744873,0.015930176,0.010620117,137.0
27462,0.0020895004,0.23336792,0.18035507,0.26125488,0.008496094,0.03717041,137.0
27463,-0.016638756,0.22878265,0.15359497,0.26125488,0.008496094,0.03717041,137.0
27464,-0.016638756,0.22878265,0.15359497,0.271875,0.015930176,0.043542482,137.0
27465,-0.009392738,0.33668518,0.10438156,0.271875,0.015930176,0.043542482,137.0
27466,-0.009392738,0.33668518,0.10438156,0.21877442,0.020178223,0.047790527,137.0
27467,-0.007977486,0.35882568,0.087509155,0.21877442,0.020178223,0.047790527,137.0
27468,-0.007977486,0.35882568,0.087509155,0.1996582,0.019116212,0.022302246,137.0
27469,-0.06103325,0.4603653,-0.10511398,0.1996582,0.019116212,0.022302246,137.0
27470,-0.06103325,0.4603653,-0.10511398,-0.0361084,-0.004248047,-0.0053100586,137.0
27471,-0.056492805,0.352211,-0.17123795,-0.0361084,-0.004248047,-0.0053100586,137.0
27472,-0.056492805,0.352211,-0.17123795,-0.09664307,-0.008496094,-0.0180542,137.0
27473,-0.0030679703,0.059028625,-0.23884583,-0.09664307,-0.008496094,-0.0180542,137.0
27474,-0.0030679703,0.059028625,-0.23884583,-0.17947999,-0.021240234,-0.04460449,137.0
27475,0.0134391785,-0.053581238,-0.17757797,-0.17947999,-0.021240234,-0.04460449,137.0
27476,0.0134391785,-0.053581238,-0.17757797,-0.1996582,-0.022302246,-0.046728518,137.0
27477,0.0134391785,-0.053581238,-0.17757797,-0.17629395,-0.0180542,-0.07115479,137.0
27478,0.06712341,-0.26403046,0.011100769,-0.17629395,-0.0180542,-0.07115479,137.0
27479,0.06779766,-0.23677063,0.02532196,-0.17629395,-0.0180542,-0.07115479,137.0
27480,0.06779766,-0.23677063,0.02532196,-0.15823975,-0.0021240234,-0.06478272,137.0
27481,0.013246536,-0.118141174,-0.0056610107,-0.15823975,-0.0021240234,-0.06478272,137.0
27482,0.013246536,-0.118141174,-0.0056610107,-0.20921631,-0.025488282,-0.057348635,137.0
27483,-0.020799637,-0.10884094,0.0075798035,-0.20921631,-0.025488282,-0.057348635,137.0
27484,-0.020799637,-0.10884094,0.0075798035,-0.20496826,-0.0541626,-0.06584473,137.0
27485,0.018211365,-0.14732361,-0.11199951,-0.20496826,-0.0541626,-0.06584473,137.0
27486,0.018211365,-0.14732361,-0.11199951,-0.2262085,-0.10407715,-0.13381349,137.0
27487,0.096185684,-0.09562683,-0.2245369,-0.2262085,-0.10407715,-0.13381349,137.0
27488,0.096185684,-0.09562683,-0.2245369,-0.12850343,-0.10089111,-0.20496826,137.0
27489,0.1810131,0.09565735,-0.4350624,-0.12850343,-0.10089111,-0.20496826,137.0
27490,0.1810131,0.09565735,-0.4350624,-0.20284425,-0.17629395,-0.19647217,137.0
27491,0.25340462,0.27140045,-0.47449112,-0.20284425,-0.17629395,-0.19647217,137.0
27492,0.25340462,0.27140045,-0.47449112,-0.37489015,-0.22514649,-0.38657227,137.0
27493,0.35677624,0.18811798,-0.21261215,-0.37489015,-0.22514649,-0.38657227,137.0
27494,0.35677624,0.18811798,-0.21261215,0.03717041,-0.24744873,-0.32709962,137.0
27495,0.32975674,0.19626617,-0.0729332,0.03717041,-0.24744873,-0.32709962,137.0
27496,0.32975674,0.19626617,-0.0729332,-0.11044922,-0.18585205,-0.20603028,137.0
27497,0.36027718,0.20397186,0.060173035,-0.11044922,-0.18585205,-0.20603028,137.0
27498,0.36027718,0.20397186,0.060173035,-0.43011475,-0.14655761,-0.25700685,137.0
27499,0.3900528,-0.22669983,0.22431183,-0.43011475,-0.14655761,-0.25700685,137.0
27500,0.3900528,-0.22669983,0.22431183,-0.08920898,-0.06584473,-0.118945315,137.0
27501,0.29417133,-0.75118256,0.5230789,-0.08920898,-0.06584473,-0.118945315,137.0
27502,0.29417133,-0.75118256,0.5230789,0.057348635,0.04460449,-0.09239502,137.0
27503,0.22605991,-0.6839676,0.49518585,0.057348635,0.04460449,-0.09239502,137.0
27504,0.22605991,-0.6839676,0.49518585,0.083898924,0.07965088,-0.124255374,137.0
27505,0.14049149,-0.48426056,0.4727249,0.083898924,0.07965088,-0.124255374,137.0
27506,0.14049149,-0.48426056,0.4727249,0.1263794,0.15717773,-0.115759276,137.0
27507,0.01352787,-0.10014343,0.40583038,0.1263794,0.15717773,-0.115759276,137.0
27508,0.01352787,-0.10014343,0.40583038,0.06159668,0.20496826,-0.05628662,137.0
27509,-0.08680916,-0.035827637,0.3004074,0.06159668,0.20496826,-0.05628662,137.0
27510,-0.08680916,-0.035827637,0.3004074,0.121069334,0.21346436,-0.035046387,137.0
27511,-0.07077789,-0.11885071,0.19662476,0.121069334,0.21346436,-0.035046387,137.0
27512,-0.07077789,-0.11885071,0.19662476,0.12319336,0.23151855,-0.040356446,137.0
27513,-0.07275963,-0.16778564,0.04333496,0.12319336,0.23151855,-0.040356446,137.0
27514,-0.07275963,-0.16778564,0.04333496,0.060534667,0.2899292,0.0,137.0
27515,-0.13488007,-0.06491852,-0.10555267,0.060534667,0.2899292,0.0,137.0
27516,-0.13488007,-0.06491852,-0.10555267,-0.1444336,0.3695801,0.038232423,137.0
27517,-0.2729063,-0.11026001,-0.16591263,-0.1444336,0.3695801,0.038232423,137.0
27518,-0.2729063,-0.11026001,-0.16591263,-0.06265869,0.41737062,0.11363526,137.0
27519,-0.2958641,-0.13014221,-0.15786362,-0.06265869,0.41737062,0.11363526,137.0
27520,-0.2958641,-0.13014221,-0.15786362,-0.021240234,0.4078125,0.11151123,137.0
27521,-0.4925022,-0.09047699,-0.19530869,-0.021240234,0.4078125,0.11151123,137.0
27522,-0.4925022,-0.09047699,-0.19530869,-0.0053100586,0.35046387,0.12850343,137.0
27523,-0.4770832,-0.02041626,-0.23047638,-0.0053100586,0.35046387,0.12850343,137.0
27524,-0.4770832,-0.02041626,-0.23047638,0.023364259,0.3355957,0.13062744,137.0
27525,-0.47136402,0.031188965,-0.2807312,0.023364259,0.3355957,0.13062744,137.0
27526,-0.47136402,0.031188965,-0.2807312,0.14124756,0.32285157,0.11682129,137.0
27527,-0.36094093,0.03025055,-0.25374603,0.14124756,0.32285157,0.11682129,137.0
27528,-0.36094093,0.03025055,-0.25374603,0.18372802,0.31116945,0.043542482,137.0
27529,-0.30546474,0.13552856,-0.1699028,0.18372802,0.31116945,0.043542482,137.0
27530,-0.30546474,0.13552856,-0.1699028,0.13062744,0.2888672,0.025488282,137.0
27531,-0.2863884,0.2501068,-0.09722519,0.13062744,0.2888672,0.025488282,137.0
27532,-0.2863884,0.2501068,-0.09722519,0.115759276,0.27399904,-0.009558106,137.0
27533,-0.23969364,0.22242737,-0.13154984,0.115759276,0.27399904,-0.009558106,137.0
27534,-0.23969364,0.22242737,-0.13154984,0.10620117,0.27506104,-0.023364259,137.0
27535,-0.25661087,0.20084381,-0.27798462,0.10620117,0.27506104,-0.023364259,137.0
27536,-0.25661087,0.20084381,-0.27798462,0.07646485,0.270813,-0.013806152,137.0
27537,-0.32060814,0.21863556,-0.46348953,0.07646485,0.270813,-0.013806152,137.0
27538,-0.32060814,0.21863556,-0.46348953,0.02442627,0.25700685,-0.009558106,137.0
27539,-0.32832432,0.13204956,-0.66651917,0.02442627,0.25700685,-0.009558106,137.0
27540,-0.32832432,0.13204956,-0.66651917,-0.050976563,0.23045655,-0.13912354,137.0
27541,-0.36610222,0.14748383,-0.8108139,-0.050976563,0.23045655,-0.13912354,137.0
27542,-0.36610222,0.14748383,-0.8108139,0.011682129,0.13168946,-0.27293703,137.0
27543,-0.40289116,0.3972702,-0.81482697,0.011682129,0.13168946,-0.27293703,137.0
27544,-0.40289116,0.3972702,-0.81482697,0.008496094,-0.043542482,-0.29630128,137.0
27545,-0.30480766,0.46720886,-0.7600517,0.008496094,-0.043542482,-0.29630128,137.0
27546,-0.30480766,0.46720886,-0.7600517,-0.04248047,-0.24107666,-0.35895997,137.0
27547,-0.11066723,0.09598541,-0.6544533,-0.04248047,-0.24107666,-0.35895997,137.0
27548,-0.11066723,0.09598541,-0.6544533,0.04141846,-0.3791382,-0.5235718,137.0
27549,0.06426239,-0.25038147,-0.3832054,0.04141846,-0.3791382,-0.5235718,137.0
27550,0.06426239,-0.25038147,-0.3832054,0.090270996,-0.57561034,-0.6223389,137.0
27551,0.26290894,-0.20072174,0.042030334,0.090270996,-0.57561034,-0.6223389,137.0
27552,0.26290894,-0.20072174,0.042030334,0.0,-0.76358646,-0.6085327,137.0
27553,0.5222168,0.06417847,0.44961548,0.0,-0.76358646,-0.6085327,137.0
27554,0.5222168,0.06417847,0.44961548,-0.0637207,-0.8750977,-0.5076416,137.0
27555,0.76701736,0.08266449,0.72408295,-0.0637207,-0.8750977,-0.5076416,137.0
27556,0.76701736,0.08266449,0.72408295,-0.26550293,-0.9260742,-0.4322388,137.0
27557,0.8965721,-0.3097229,0.8215256,-0.26550293,-0.9260742,-0.4322388,137.0
27558,0.8965721,-0.3097229,0.8215256,-0.29205322,-0.8666016,-0.44816896,137.0
27559,0.8434057,-0.5621567,0.7675247,-0.29205322,-0.8666016,-0.44816896,137.0
27560,0.8434057,-0.5621567,0.7675247,-0.39294434,-0.79013675,-0.4428589,137.0
27561,0.6657162,-0.39714813,0.6184616,-0.39294434,-0.79013675,-0.4428589,137.0
27562,0.6657162,-0.39714813,0.6184616,-0.5129517,-0.7540283,-0.38338622,137.0
27563,0.5260792,-0.11898804,0.4674492,-0.5129517,-0.7540283,-0.38338622,137.0
27564,0.5260792,-0.11898804,0.4674492,-0.53525394,-0.73809814,-0.28674316,137.0
27565,0.4919691,-0.16287994,0.38178253,-0.53525394,-0.73809814,-0.28674316,137.0
27566,0.4919691,-0.16287994,0.38178253,-0.60322267,-0.73809814,-0.2803711,137.0
27567,0.4432459,-0.5269699,0.38864136,-0.60322267,-0.73809814,-0.2803711,137.0
27568,0.4432459,-0.5269699,0.38864136,-0.5734863,-0.82836914,-0.25700685,137.0
27569,0.4503975,-0.7493744,0.35141754,-0.5734863,-0.82836914,-0.25700685,137.0
27570,0.4503975,-0.7493744,0.35141754,-0.45772704,-0.83686525,-0.28355715,137.0
27571,0.72574806,-0.51052094,0.31254578,-0.45772704,-0.83686525,-0.28355715,137.0
27572,0.72574806,-0.51052094,0.31254578,-0.7678345,-0.28568116,0.039294433,137.0
27573,0.87386036,-0.35702515,0.55841064,-0.7678345,-0.28568116,0.039294433,137.0
27574,0.87386036,-0.35702515,0.55841064,-0.58623046,-0.098767094,0.21877442,137.0
27575,0.6051674,-0.5163803,0.987854,-0.58623046,-0.098767094,0.21877442,137.0
27576,0.6051674,-0.5163803,0.987854,-0.61065674,-0.12531738,0.32709962,137.0
27577,0.32518578,-0.8161926,1.0375099,-0.61065674,-0.12531738,0.32709962,137.0
27578,0.32518578,-0.8161926,1.0375099,-0.34940186,-0.19541016,0.24001466,137.0
27579,0.115849495,-0.9274292,0.48382568,-0.34940186,-0.19541016,0.24001466,137.0
27580,0.115849495,-0.9274292,0.48382568,-0.083898924,-0.2548828,0.22833252,137.0
27581,-0.08057499,-0.4924469,-0.36912918,-0.083898924,-0.2548828,0.22833252,137.0
27582,-0.08057499,-0.4924469,-0.36912918,-0.24107666,-0.3334717,0.22833252,137.0
27583,-0.11228752,0.11379242,-1.0581589,-0.24107666,-0.3334717,0.22833252,137.0
27584,-0.11228752,0.11379242,-1.0581589,-0.89102787,-0.2527588,0.23045655,137.0
27585,0.06445408,0.4472885,-1.1754723,-0.89102787,-0.2527588,0.23045655,137.0
27586,0.06445408,0.4472885,-1.1754723,-1.2850342,-0.17416993,0.11363526,137.0
27587,0.19650936,0.36292267,-1.0094223,-1.2850342,-0.17416993,0.11363526,137.0
27588,0.19650936,0.36292267,-1.0094223,-1.7555054,-0.270813,-0.0637207,137.0
27589,0.2204647,0.10671997,-0.8882637,-1.7555054,-0.270813,-0.0637207,137.0
27590,0.2204647,0.10671997,-0.8882637,-2.3895264,-0.4694092,-0.3175415,137.0
27591,0.29756355,-0.24129486,-0.8529587,-2.3895264,-0.4694092,-0.3175415,137.0
27592,0.29756355,-0.24129486,-0.8529587,-2.5849366,-0.90695804,-0.49171144,137.0
27593,0.41794586,-0.8165207,-1.0876923,-2.5849366,-0.90695804,-0.49171144,137.0
27594,0.41794586,-0.8165207,-1.0876923,-1.903125,-1.3710572,-0.42692873,137.0
27595,0.44240093,-1.5471268,-1.5592155,-1.903125,-1.3710572,-0.42692873,137.0
27596,0.44240093,-1.5471268,-1.5592155,-0.6446411,-1.6981567,-0.6595093,137.0
27597,1.2836084,-1.634819,-1.8765106,-0.6446411,-1.6981567,-0.6595093,137.0
27598,1.2836084,-1.634819,-1.8765106,-0.5787964,-0.9855469,-0.92713624,137.0
27599,2.6105418,-0.3323288,-1.063076,-0.5787964,-0.9855469,-0.92713624,137.0
27600,2.6105418,-0.3323288,-1.063076,-0.8581055,0.046728518,-0.27293703,137.0
27601,2.0696106,0.16771698,0.25465393,-0.8581055,0.046728518,-0.27293703,137.0
27602,2.0696106,0.16771698,0.25465393,-1.1236085,-0.47790527,-0.3717041,137.0
27603,0.57873535,-0.40825653,0.19226074,-1.1236085,-0.47790527,-0.3717041,137.0
27604,0.57873535,-0.40825653,0.19226074,-1.2457398,-0.7540283,-0.40250245,137.0
27605,0.144629,-0.3292389,-0.6572647,-1.2457398,-0.7540283,-0.40250245,137.0
27606,0.144629,-0.3292389,-0.6572647,-1.2308716,-0.63826907,-0.16036378,137.0
27607,0.19149685,-0.066711426,-1.0605164,-1.2308716,-0.63826907,-0.16036378,137.0
27608,0.19149685,-0.066711426,-1.0605164,-1.5112427,-0.8623535,-0.271875,137.0
27609,0.15943527,-0.20465088,-1.3432846,-1.5112427,-0.8623535,-0.271875,137.0
27610,0.15943527,-0.20465088,-1.3432846,-1.5048707,-1.0301514,-0.35683593,137.0
27611,7.662773E-4,-0.8725586,-1.7686119,-1.5048707,-1.0301514,-0.35683593,137.0
27612,7.662773E-4,-0.8725586,-1.7686119,-1.350879,-1.2521118,-0.37807617,137.0
27613,0.08307171,-1.3697357,-1.7777557,-1.350879,-1.2521118,-0.37807617,137.0
27614,0.08307171,-1.3697357,-1.7777557,-1.2191895,-1.0790039,-0.58198243,137.0
27615,0.4713769,-1.4344254,-1.3244514,-1.2191895,-1.0790039,-0.58198243,137.0
27616,0.4713769,-1.4344254,-1.3244514,-0.7508423,-0.8995239,-0.5649902,137.0
27617,0.6388936,-1.1645355,-0.9116707,-0.7508423,-0.8995239,-0.5649902,137.0
27618,0.6388936,-1.1645355,-0.9116707,-0.68074954,-0.8581055,-0.5522461,137.0
27619,-0.009319305,-0.2511444,-0.9735489,-0.68074954,-0.8581055,-0.5522461,137.0
27620,-0.009319305,-0.2511444,-0.9735489,-0.7678345,-1.2776002,-0.66269535,137.0
27621,-0.9527559,0.39951324,-1.7372742,-0.7678345,-1.2776002,-0.66269535,137.0
27622,-0.9527559,0.39951324,-1.7372742,-0.3536499,-1.4602661,-0.9324463,137.0
27623,-0.87123775,-0.60787964,-2.3746567,-0.3536499,-1.4602661,-0.9324463,137.0
27624,-0.87123775,-0.60787964,-2.3746567,0.5607422,-1.264856,-1.355127,137.0
27625,0.351655,-2.4153748,-2.2044525,0.5607422,-1.264856,-1.355127,137.0
27626,0.351655,-2.4153748,-2.2044525,1.9116211,-1.0705079,-2.257837,137.0
27627,1.8927007,-2.8201141,-1.4158478,1.9116211,-1.0705079,-2.257837,137.0
27628,1.8927007,-2.8201141,-1.4158478,3.1424928,-0.7072998,-3.2497559,137.0
27629,2.3723392,-0.75109863,-0.7535629,3.1424928,-0.7072998,-3.2497559,137.0
27630,2.3723392,-0.75109863,-0.7535629,3.8285522,-0.28355715,-3.3931274,137.0
27631,2.062007,1.5674286,0.33916855,3.8285522,-0.28355715,-3.3931274,137.0
27632,2.062007,1.5674286,0.33916855,4.629309,-0.6053467,-3.61615,137.0
27633,2.2190027,3.6018677,2.2288284,4.629309,-0.6053467,-3.61615,137.0
27634,2.2190027,3.6018677,2.2288284,4.364868,-0.6510132,-3.1021364,137.0
27635,4.3372746,5.6636124,5.5777283,4.364868,-0.6510132,-3.1021364,137.0
27636,4.3372746,5.6636124,5.5777283,2.8164551,-0.25594482,-2.337488,137.0
27637,5.1770344,6.5836487,6.4977875,2.8164551,-0.25594482,-2.337488,137.0
27638,5.1770344,6.5836487,6.4977875,-0.61702883,0.61915284,0.17523193,137.0
27639,3.3467546,6.0288467,3.5258026,-0.61702883,0.61915284,0.17523193,137.0
27640,3.3467546,6.0288467,3.5258026,-0.817749,-0.38975832,-0.07965088,137.0
27641,1.4256215,3.5824661,0.6678238,-0.817749,-0.38975832,-0.07965088,137.0
27642,1.4256215,3.5824661,0.6678238,-0.817749,-0.38975832,-0.07965088,0.0
27643,1.4256215,3.5824661,0.6678238,-1.3721192,-0.6180908,0.4428589,0.0
27644,0.13458896,-0.23068237,-1.3067551,-1.3721192,-0.6180908,0.4428589,0.0
27645,0.13458896,-0.23068237,-1.3067551,-0.85385746,-0.3791382,0.40462646,0.0
27646,-0.12479949,-3.3399277,-2.462471,-0.85385746,-0.3791382,0.40462646,0.0
27647,-0.12479949,-3.3399277,-2.462471,0.081774905,0.095581055,0.095581055,0.0
27648,0.26165944,-3.7655487,-2.295452,0.081774905,0.095581055,0.095581055,0.0
27649,0.26165944,-3.7655487,-2.295452,0.6924316,0.60322267,-0.22302246,0.0
27650,0.41419816,-2.0164795,-0.9020958,0.6924316,0.60322267,-0.22302246,0.0
27651,0.41419816,-2.0164795,-0.9020958,0.7508423,0.6966797,-0.30054933,0.0
27652,0.22997916,0.10954285,0.7281151,0.7508423,0.6966797,-0.30054933,0.0
27653,0.22997916,0.10954285,0.7281151,0.46409914,0.36002198,-0.10195313,0.0
27654,0.076512635,1.4376984,1.5361786,0.46409914,0.36002198,-0.10195313,0.0
27655,0.076512635,1.4376984,1.5361786,-0.026550293,0.15080567,0.1720459,0.0
27656,-0.028853357,1.2905273,1.2868423,-0.026550293,0.15080567,0.1720459,0.0
27657,-0.028853357,1.2905273,1.2868423,-0.3345337,-0.0361084,0.30479738,0.0
27658,-0.06567299,-0.3294525,0.25161743,-0.3345337,-0.0361084,0.30479738,0.0
27659,-0.06567299,-0.3294525,0.25161743,-0.06478272,0.08602295,0.23045655,0.0
27660,-0.017491996,-1.463562,-0.43104553,-0.06478272,0.08602295,0.23045655,0.0
27661,-0.017491996,-1.463562,-0.43104553,0.057348635,0.1359375,0.18585205,0.0
27662,0.0155107975,-1.082283,-0.48985672,0.057348635,0.1359375,0.18585205,0.0
27663,0.0155107975,-1.082283,-0.48985672,-0.03079834,0.18160401,0.21452637,0.0
27664,-0.06356794,-0.44290924,-0.25715637,-0.03079834,0.18160401,0.21452637,0.0
27665,-0.06356794,-0.44290924,-0.25715637,0.04991455,0.3525879,0.1539917,0.0
27666,-0.2609862,-0.15463257,0.35578918,0.04991455,0.3525879,0.1539917,0.0
27667,-0.2609862,-0.15463257,0.35578918,-0.24001466,0.1083252,0.16142578,0.0
27668,-0.31994617,-0.015647888,0.61185455,-0.24001466,0.1083252,0.16142578,0.0
27669,-0.31994617,-0.015647888,0.61185455,-0.43861085,-0.025488282,0.23364258,0.0
27670,-0.24103993,-0.25668335,0.020095825,-0.43861085,-0.025488282,0.23364258,0.0
27671,-0.24103993,-0.25668335,0.020095825,-0.37489015,0.0180542,0.18797608,0.0
27672,-0.17626703,-0.7476578,-0.52586746,-0.37489015,0.0180542,0.18797608,0.0
27673,-0.17626703,-0.7476578,-0.52586746,-0.10301514,0.14761963,-0.04460449,0.0
27674,-0.07358199,-0.72974396,-0.41792297,-0.10301514,0.14761963,-0.04460449,0.0
27675,-0.07358199,-0.72974396,-0.41792297,-0.08602295,0.021240234,-0.0063720704,0.0
27676,0.048714936,-0.30410767,-0.15236664,-0.08602295,0.021240234,-0.0063720704,0.0
27677,0.048714936,-0.30410767,-0.15236664,-0.03186035,0.1901001,0.022302246,0.0
27678,0.0031809807,0.016601562,0.20726776,-0.03186035,0.1901001,0.022302246,0.0
27679,0.0031809807,0.016601562,0.20726776,-0.06796875,0.23258057,0.012744141,0.0
27680,-0.15568274,0.21303558,0.3987732,-0.06796875,0.23258057,0.012744141,0.0
27681,-0.15568274,0.21303558,0.3987732,-0.3079834,-0.0541626,0.047790527,0.0
27682,-0.10160917,0.07135773,0.19924164,-0.3079834,-0.0541626,0.047790527,0.0
27683,-0.10160917,0.07135773,0.19924164,-0.20072022,0.3154175,0.007434082,0.0
27684,-0.08617014,-0.15072632,0.14081573,-0.20072022,0.3154175,0.007434082,0.0
27685,-0.08617014,-0.15072632,0.14081573,-0.2516968,-0.011682129,0.081774905,0.0
27686,-0.30262756,-0.13657379,0.0136528015,-0.2516968,-0.011682129,0.081774905,0.0
27687,-0.30262756,-0.13657379,0.0136528015,-0.20390625,0.1709839,0.08602295,0.0
27688,-0.42359614,-0.1577301,-0.12619019,-0.20390625,0.1709839,0.08602295,0.0
27689,-0.42359614,-0.1577301,-0.12619019,0.020178223,0.052038576,0.03186035,0.0
27690,-0.3156836,0.038330078,0.2096672,0.020178223,0.052038576,0.03186035,0.0
27691,-0.3156836,0.038330078,0.2096672,-0.17523193,-0.012744141,0.043542482,0.0
27692,-0.09672415,0.42198944,0.44224548,-0.17523193,-0.012744141,0.043542482,0.0
27693,-0.09672415,0.42198944,0.44224548,-0.5957886,0.016992187,0.14230958,0.0
27694,-0.013866186,0.29841614,0.03727722,-0.5957886,0.016992187,0.14230958,0.0
27695,-0.013866186,0.29841614,0.03727722,-0.540564,0.10513916,0.2548828,0.0
27696,-0.27292156,-0.2413559,-0.44984055,-0.540564,0.10513916,0.2548828,0.0
27697,-0.27292156,-0.2413559,-0.44984055,-0.24107666,0.22514649,0.19541016,0.0
27698,-0.63103247,-0.33797455,-0.15163422,-0.24107666,0.22514649,0.19541016,0.0
27699,-0.63103247,-0.33797455,-0.15163422,-0.12531738,0.17841797,0.16992188,0.0
27700,-0.815971,0.13959503,0.49939346,-0.12531738,0.17841797,0.16992188,0.0
27701,-0.815971,0.13959503,0.49939346,-0.60959476,-0.040356446,0.18372802,0.0
27702,-0.75015235,0.3244934,0.5782623,-0.60959476,-0.040356446,0.18372802,0.0
27703,-0.75015235,0.3244934,0.5782623,-0.62552494,-0.14549561,0.23682861,0.0
27704,-0.60045147,0.040916443,0.24088287,-0.62552494,-0.14549561,0.23682861,0.0
27705,-0.60045147,0.040916443,0.24088287,-0.5979126,-0.24957275,0.21877442,0.0
27706,-0.46378398,-0.11603546,0.0010681152,-0.5979126,-0.24957275,0.21877442,0.0
27707,-0.46378398,-0.11603546,0.0010681152,-0.56817627,-0.34940186,0.22514649,0.0
27708,-0.27185726,0.15621948,-0.074207306,-0.56817627,-0.34940186,0.22514649,0.0
27709,-0.27185726,0.15621948,-0.074207306,-0.9239502,-0.47471926,0.33134767,0.0
27710,-0.059831858,0.22393799,-0.3512268,-0.9239502,-0.47471926,0.33134767,0.0
27711,-0.059831858,0.22393799,-0.3512268,-1.1225464,-0.44498292,0.46516114,0.0
27712,0.047178507,-0.3889923,-0.8612671,-1.1225464,-0.44498292,0.46516114,0.0
27713,0.047178507,-0.3889923,-0.8612671,-0.7890747,-0.3069214,0.41949463,0.0
27714,0.20536971,-1.0882797,-1.15448,-0.7890747,-0.3069214,0.41949463,0.0
27715,0.20536971,-1.0882797,-1.15448,-0.32072756,-0.011682129,0.3706421,0.0
27716,0.5091443,-1.1249466,-1.0435066,-0.32072756,-0.011682129,0.3706421,0.0
27717,0.5091443,-1.1249466,-1.0435066,0.10513916,0.32603762,0.46834716,0.0
27718,0.03904152,-0.1556015,-0.4651146,0.10513916,0.32603762,0.46834716,0.0
27719,0.03904152,-0.1556015,-0.4651146,0.004248047,0.21877442,0.4885254,0.0
27720,-0.87775135,0.64352417,0.29847717,0.004248047,0.21877442,0.4885254,0.0
27721,-0.87775135,0.64352417,0.29847717,-0.46834716,-0.1359375,0.43967286,0.0
27722,-1.0229409,0.5042114,0.6322861,-0.46834716,-0.1359375,0.43967286,0.0
27723,-1.0229409,0.5042114,0.6322861,-0.6701294,-0.29099122,0.45878908,0.0
27724,-0.6835382,0.34975433,0.53643036,-0.6701294,-0.29099122,0.45878908,0.0
27725,-0.6835382,0.34975433,0.53643036,-1.1023682,-0.47471926,0.5140137,0.0
27726,-0.35057807,0.27500916,0.10209274,-1.1023682,-0.47471926,0.5140137,0.0
27727,-0.35057807,0.27500916,0.10209274,-1.6482422,-0.7147339,0.58410645,0.0
27728,0.07612944,-0.11148834,-0.530365,-1.6482422,-0.7147339,0.58410645,0.0
27729,0.07612944,-0.11148834,-0.530365,-1.6662964,-0.4598511,0.7083618,0.0
27730,0.4379909,-0.4612503,-0.96823883,-1.6662964,-0.4598511,0.7083618,0.0
27731,0.4379909,-0.4612503,-0.96823883,-1.7332032,-0.27506104,0.9388184,0.0
27732,0.48191142,-0.7196121,-1.2560005,-1.7332032,-0.27506104,0.9388184,0.0
27733,0.48191142,-0.7196121,-1.2560005,-1.5600952,-0.0637207,1.1650269,0.0
27734,0.2227118,-0.7737961,-1.4909439,-1.5600952,-0.0637207,1.1650269,0.0
27735,0.2227118,-0.7737961,-1.4909439,-1.4390259,0.28568116,1.1406006,0.0
27736,-0.24161816,-0.5394974,-1.6245079,-1.4390259,0.28568116,1.1406006,0.0
27737,-0.24161816,-0.5394974,-1.6245079,-1.4347779,0.44710693,1.2043213,0.0
27738,-0.49450302,-0.29943085,-1.686409,-1.4347779,0.44710693,1.2043213,0.0
27739,-0.49450302,-0.29943085,-1.686409,-0.8814697,0.89208984,1.3137085,0.0
27740,-0.7476165,-0.12557983,-1.4167404,-0.8814697,0.89208984,1.3137085,0.0
27741,-0.7476165,-0.12557983,-1.4167404,-2.1378295,0.7434082,1.5144287,0.0
27742,-0.962229,-0.31949615,-1.1506653,-2.1378295,0.7434082,1.5144287,0.0
27743,-0.962229,-0.31949615,-1.1506653,-2.712378,0.8294312,1.5802735,0.0
27744,-0.88863087,-0.65491486,-1.4971428,-2.712378,0.8294312,1.5802735,0.0
27745,-0.88863087,-0.65491486,-1.4971428,-3.0118654,0.86978763,1.544165,0.0
27746,-0.75255513,-0.8036194,-1.9503365,-3.0118654,0.86978763,1.544165,0.0
27747,-0.75255513,-0.8036194,-1.9503365,-3.173291,0.9197022,1.8521484,0.0
27748,-0.68433166,-1.4902725,-2.5924835,-3.173291,0.9197022,1.8521484,0.0
27749,-0.68433166,-1.4902725,-2.5924835,-2.707068,1.1501588,2.061365,0.0
27750,-0.69073915,-2.8226013,-3.3741226,-2.707068,1.1501588,2.061365,0.0
27751,-0.69073915,-2.8226013,-3.3741226,-0.98448485,1.537793,2.1218994,0.0
27752,-0.96128273,-2.8328629,-3.3450127,-0.98448485,1.537793,2.1218994,0.0
27753,-0.96128273,-2.8328629,-3.3450127,0.6690674,1.7002808,2.4266968,0.0
27754,-1.9770827,-1.255722,-2.1553307,0.6690674,1.7002808,2.4266968,0.0
27755,-1.9770827,-1.255722,-2.1553307,1.7310791,1.173523,2.5998046,0.0
27756,-2.7961683,-0.56972504,-1.3537674,1.7310791,1.173523,2.5998046,0.0
27757,-2.7961683,-0.56972504,-1.3537674,3.3347168,-0.29630128,3.4101198,0.0
27758,-2.3523402,-0.6995926,-0.33819962,3.3347168,-0.29630128,3.4101198,0.0
27759,-2.3523402,-0.6995926,-0.33819962,4.423279,-1.4358399,1.9859619,0.0
27760,-1.5611448,1.9901276,2.0019379,4.423279,-1.4358399,1.9859619,0.0
27761,-1.5611448,1.9901276,2.0019379,2.975757,-0.21027832,1.0875,0.0
27762,-1.4142113,4.4161453,3.7322884,2.975757,-0.21027832,1.0875,0.0
27763,-1.4142113,4.4161453,3.7322884,2.0348146,-0.2538208,1.8192261,0.0
27764,-1.7882905,2.4820404,3.860817,2.0348146,-0.2538208,1.8192261,0.0
27765,-1.7882905,2.4820404,3.860817,2.7909667,-0.5522461,1.717273,0.0
27766,-2.0164113,-0.18424225,3.5091476,2.7909667,-0.5522461,1.717273,0.0
27767,-2.0164113,-0.18424225,3.5091476,2.5052857,-0.63720703,1.6758546,0.0
27768,-1.1579533,-1.378334,2.9055634,2.5052857,-0.63720703,1.6758546,0.0
27769,-1.1579533,-1.378334,2.9055634,2.0677369,-1.0131592,1.9902099,0.0
27770,-0.20789337,-1.4620438,1.9962273,2.0677369,-1.0131592,1.9902099,0.0
27771,-0.20789337,-1.4620438,1.9962273,2.0677369,-1.0131592,1.9902099,0.0
27772,-0.20789337,-1.4620438,1.9962273,1.5760254,-1.0152832,2.167566,0.0
27773,-0.20789337,-1.4620438,1.9962273,1.3487549,-0.6786255,1.7491333,0.0
27774,-0.36383677,-0.423172,1.4678192,1.3487549,-0.6786255,1.7491333,0.0
27775,-1.5299244,1.7901993,2.1247406,1.3487549,-0.6786255,1.7491333,0.0
27776,-1.5299244,1.7901993,2.1247406,1.9434814,-0.814563,1.1554688,0.0
27777,-1.5299244,1.7901993,2.1247406,3.8529785,-1.632312,1.5792115,0.0
27778,-1.5299244,1.7901993,2.1247406,5.530957,-1.9615357,0.98129886,0.0
27779,-1.5173359,0.51758575,1.7014542,5.530957,-1.9615357,0.98129886,0.0
27780,-1.3304462,8.057396,1.3987122,5.530957,-1.9615357,0.98129886,0.0
27781,-1.3304462,8.057396,1.3987122,6.328528,-1.899939,0.36745605,0.0
27782,-1.3304462,8.057396,1.3987122,6.0078006,-1.4984986,0.6775635,0.0
27783,-1.3304462,8.057396,1.3987122,4.5422244,-1.2595459,0.73597413,0.0
27784,-1.2345228,7.737213,2.9711418,4.5422244,-1.2595459,0.73597413,0.0
27785,-1.2345228,7.737213,2.9711418,3.982544,-1.0067872,0.6510132,0.0
27786,-0.76507187,4.74543,3.1410027,3.982544,-1.0067872,0.6510132,0.0
27787,-0.76507187,4.74543,3.1410027,4.425403,-0.51826173,0.6180908,0.0
27788,-0.24944782,2.2917404,2.8525467,4.425403,-0.51826173,0.6180908,0.0
27789,-0.24944782,2.2917404,2.8525467,4.970215,-0.25806886,0.4970215,0.0
27790,0.78696537,1.7192688,3.0404968,4.970215,-0.25806886,0.4970215,0.0
27791,0.78696537,1.7192688,3.0404968,3.446228,-0.19328614,1.4751343,0.0
27792,1.6060858,2.4506378,2.6913834,3.446228,-0.19328614,1.4751343,0.0
27793,1.6060858,2.4506378,2.6913834,3.5842896,0.86978763,1.3200806,0.0
27794,1.5885305,3.864624,1.9533501,3.5842896,0.86978763,1.3200806,0.0
27795,1.5885305,3.864624,1.9533501,2.439441,1.4655762,0.47790527,0.0
27796,0.7319088,5.092293,1.3505707,2.439441,1.4655762,0.47790527,0.0
27797,0.7319088,5.092293,1.3505707,1.8309082,1.8755127,0.91120607,0.0
27798,-1.048213,5.2239685,0.39788818,1.8309082,1.8755127,0.91120607,0.0
27799,-1.048213,5.2239685,0.39788818,1.0864381,1.4294678,0.6796875,0.0
27800,-2.5810394,5.225113,-0.61406326,1.0864381,1.4294678,0.6796875,0.0
27801,-2.5810394,5.225113,-0.61406326,-0.0053100586,1.0407715,0.6223389,0.0
27802,-3.1867313,4.8738785,-1.5729637,-0.0053100586,1.0407715,0.6223389,0.0
27803,-3.1867313,4.8738785,-1.5729637,-0.83686525,0.88040775,0.41843262,0.0
27804,-3.0918283,1.0248337,-2.2026215,-0.83686525,0.88040775,0.41843262,0.0
27805,-3.0918283,1.0248337,-2.2026215,0.44816896,2.241907,1.3073364,0.0
27806,-3.092823,-4.642914,-1.1262703,0.44816896,2.241907,1.3073364,0.0
27807,-3.092823,-4.642914,-1.1262703,2.1314576,1.8606446,1.6684204,0.0
27808,-3.0633335,-5.4807663,1.187397,2.1314576,1.8606446,1.6684204,0.0
27809,-3.0633335,-5.4807663,1.187397,2.0592408,0.6818115,0.8028809,0.0
27810,-2.0981398,-1.135994,2.43256,2.0592408,0.6818115,0.8028809,0.0
27811,-2.0981398,-1.135994,2.43256,1.1342286,0.24213867,0.5766724,0.0
27812,6.9458046,3.0594406,8.029144,1.1342286,0.24213867,0.5766724,0.0
27813,6.9458046,3.0594406,8.029144,0.44816896,0.16354981,0.5936646,0.0
27814,6.585062,4.501114,5.4987183,0.44816896,0.16354981,0.5936646,0.0
27815,6.585062,4.501114,5.4987183,-0.27399904,0.5299439,0.59897465,0.0
27816,6.6689897,2.3593369,3.2735596,-0.27399904,0.5299439,0.59897465,0.0
27817,6.6689897,2.3593369,3.2735596,-0.6595093,1.179895,1.0089111,0.0
27818,6.9855947,0.12206268,1.9282341,-0.6595093,1.179895,1.0089111,0.0
27819,6.9855947,0.12206268,1.9282341,-0.5894165,1.9530395,1.2797241,0.0
27820,7.123498,-0.4629593,1.7915726,-0.5894165,1.9530395,1.2797241,0.0
27821,7.123498,-0.4629593,1.7915726,-0.4885254,2.433069,1.9806519,0.0
27822,6.19289,-0.09093475,1.665268,-0.4885254,2.433069,1.9806519,0.0
27823,6.19289,-0.09093475,1.665268,-0.7593384,2.8918579,3.070276,0.0
27824,3.835172,0.24659729,0.829052,-0.7593384,2.8918579,3.070276,0.0
27825,3.835172,0.24659729,0.829052,-0.9685547,2.9417725,4.067505,0.0
27826,1.3672708,-0.5305176,0.15796661,-0.9685547,2.9417725,4.067505,0.0
27827,1.3672708,-0.5305176,0.15796661,-0.9855469,2.4787354,4.4073486,0.0
27828,-0.13828778,-1.9934464,0.10736847,-0.9855469,2.4787354,4.4073486,0.0
27829,-0.13828778,-1.9934464,0.10736847,-1.9615357,1.992334,4.15459,0.0
27830,-1.3754374,-2.5926971,-0.06650925,-1.9615357,1.992334,4.15459,0.0
27831,-1.3754374,-2.5926971,-0.06650925,-2.703882,1.7310791,3.5545533,0.0
27832,-3.0609336,-1.7337418,-0.78757095,-2.703882,1.7310791,3.5545533,0.0
27833,-3.0609336,-1.7337418,-0.78757095,-2.998059,1.2521118,3.1435547,0.0
27834,-4.7082195,-0.03996277,-1.4397278,-2.998059,1.2521118,3.1435547,0.0
27835,-4.7082195,-0.03996277,-1.4397278,-3.2019653,0.814563,2.8408813,0.0
27836,-1.785924,2.6173096,-8.162731,-3.2019653,0.814563,2.8408813,0.0
27837,-1.785924,2.6173096,-8.162731,-3.3092287,0.42268068,2.3789062,0.0
27838,-2.1803017,2.1215057,-14.227146,-3.3092287,0.42268068,2.3789062,0.0
27839,-2.1803017,2.1215057,-14.227146,-2.6518433,0.31010744,1.4358399,0.0
27840,-1.8859038,0.99707794,-10.80938,-2.6518433,0.31010744,1.4358399,0.0
27841,-1.8859038,0.99707794,-10.80938,-2.0305665,0.32391357,0.25913087,0.0
27842,-1.6333814,0.2980652,-7.381954,-2.0305665,0.32391357,0.25913087,0.0
27843,-1.6333814,0.2980652,-7.381954,-0.9430664,0.15717773,-0.56180423,0.0
27844,-1.7117953,0.061950684,-4.4780617,-0.9430664,0.15717773,-0.56180423,0.0
27845,-1.7117953,0.061950684,-4.4780617,0.3695801,0.13381349,-0.7582764,0.0
27846,-1.9226103,-0.08314514,-2.78693,0.3695801,0.13381349,-0.7582764,0.0
27847,-1.9226103,-0.08314514,-2.78693,0.75615233,0.3525879,-0.61278075,0.0
27848,-1.9810324,-0.5631714,-2.1285095,0.75615233,0.3525879,-0.61278075,0.0
27849,-1.9810324,-0.5631714,-2.1285095,0.34833986,1.0651978,-0.22727051,0.0
27850,-2.087524,-1.7909546,-1.4754372,0.34833986,1.0651978,-0.22727051,0.0
27851,-2.087524,-1.7909546,-1.4754372,-0.7742066,1.3137085,-0.52250975,0.0
27852,-2.2063837,-4.1848145,-0.41769028,-0.7742066,1.3137085,-0.52250975,0.0
27853,-2.2063837,-4.1848145,-0.41769028,0.20178223,0.7593384,-0.33984375,0.0
27854,-1.696516,-6.177925,0.15727997,0.20178223,0.7593384,-0.33984375,0.0
27855,-1.696516,-6.177925,0.15727997,1.3784913,0.42374268,0.2081543,0.0
27856,-0.713768,-6.0456696,-0.3804779,1.3784913,0.42374268,0.2081543,0.0
27857,-0.713768,-6.0456696,-0.3804779,1.083252,0.6860596,0.8963379,0.0
27858,-0.07462788,-4.518997,-1.2722931,1.083252,0.6860596,0.8963379,0.0
27859,-0.07462788,-4.518997,-1.2722931,-0.31010744,1.0365235,1.1214844,0.0
27860,0.17596626,-3.4442902,-1.1976204,-0.31010744,1.0365235,1.1214844,0.0
27861,0.17596626,-3.4442902,-1.1976204,-0.84748536,0.7986328,0.9791748,0.0
27862,0.4325695,-3.2921982,-0.30007553,-0.84748536,0.7986328,0.9791748,0.0
27863,0.4325695,-3.2921982,-0.30007553,-0.22089843,-0.07327881,1.0981201,0.0
27864,0.7000103,-2.8798904,0.05583954,-0.22089843,-0.07327881,1.0981201,0.0
27865,0.7000103,-2.8798904,0.05583954,0.09451904,-1.0375855,0.8846558,0.0
27866,0.96804047,-1.5990448,-0.62672424,0.09451904,-1.0375855,0.8846558,0.0
27867,0.96804047,-1.5990448,-0.62672424,-0.16673584,-1.3944215,0.44710693,0.0
27868,1.2142029,0.07003021,-1.3389168,-0.16673584,-1.3944215,0.44710693,0.0
27869,1.2142029,0.07003021,-1.3389168,-0.6202149,-1.628064,0.23895264,0.0
27870,1.4335451,1.2532272,-1.5461731,-0.6202149,-1.628064,0.23895264,0.0
27871,1.4335451,1.2532272,-1.5461731,-0.80394286,-1.7852417,0.3334717,0.0
27872,1.5528784,1.6127243,-2.0432243,-0.80394286,-1.7852417,0.3334717,0.0
27873,1.5528784,1.6127243,-2.0432243,-0.56392825,-1.3699951,0.7614624,0.0
27874,1.1060352,1.4391785,-2.4895477,-0.56392825,-1.3699951,0.7614624,0.0
27875,1.1060352,1.4391785,-2.4895477,-0.16248779,-0.7051758,1.0598878,0.0
27876,0.24438667,0.7584839,-1.6152725,-0.16248779,-0.7051758,1.0598878,0.0
27877,0.24438667,0.7584839,-1.6152725,0.043542482,-0.56817627,1.1087402,0.0
27878,-0.33298206,-0.07600403,-0.050834656,0.043542482,-0.56817627,1.1087402,0.0
27879,-0.33298206,-0.07600403,-0.050834656,0.6903076,-0.9122681,1.0651978,0.0
27880,-0.635746,-0.1593399,0.59093475,0.6903076,-0.9122681,1.0651978,0.0
27881,-0.635746,-0.1593399,0.59093475,1.2531738,-1.1841431,0.96218264,0.0
27882,-0.83421946,0.6001663,0.14907837,1.2531738,-1.1841431,0.96218264,0.0
27883,-0.83421946,0.6001663,0.14907837,1.4984986,-1.0726318,0.91014403,0.0
27884,-0.71108913,1.1227188,-0.34921646,1.4984986,-1.0726318,0.91014403,0.0
27885,-0.71108913,1.1227188,-0.34921646,1.4984986,-1.0726318,0.91014403,0.0
27886,-0.71108913,1.1227188,-0.34921646,1.2871583,-0.6223389,0.8931519,0.0
27887,-0.26336575,0.61359406,-0.3275528,1.2871583,-0.6223389,0.8931519,0.0
27888,-0.26336575,0.61359406,-0.3275528,1.3625611,-0.4439209,0.77102053,0.0
27889,0.112903595,0.06969452,-0.13777542,1.3625611,-0.4439209,0.77102053,0.0
27890,0.112903595,0.06969452,-0.13777542,1.4252198,-0.544812,0.41206056,0.0
27891,0.48869944,0.26981354,-0.13507462,1.4252198,-0.544812,0.41206056,0.0
27892,0.48869944,0.26981354,-0.13507462,1.2425537,-0.37595215,0.24107666,0.0
27893,1.5674973,-0.054397583,-0.11689758,1.2425537,-0.37595215,0.24107666,0.0
27894,1.5674973,-0.054397583,-0.11689758,1.1289185,0.29736328,0.1359375,0.0
27895,2.619257,-0.7803955,0.3135147,1.1289185,0.29736328,0.1359375,0.0
27896,2.619257,-0.7803955,0.3135147,0.8814697,0.7455322,-0.09239502,0.0
27897,2.177534,-0.5149765,0.92245483,0.8814697,0.7455322,-0.09239502,0.0
27898,2.177534,-0.5149765,0.92245483,0.7168579,0.2548828,-0.3334717,0.0
27899,1.2323961,-0.05066681,1.1575317,0.7168579,0.2548828,-0.3334717,0.0
27900,1.2323961,-0.05066681,1.1575317,0.51082766,-0.16142578,-0.40037844,0.0
27901,0.9050455,0.15945435,0.89040375,0.51082766,-0.16142578,-0.40037844,0.0
27902,0.9050455,0.15945435,0.89040375,0.21983643,-0.4885254,-0.74659425,0.0
27903,0.6528325,0.6427002,0.16023636,0.21983643,-0.4885254,-0.74659425,0.0
27904,0.6528325,0.6427002,0.16023636,-0.1178833,-0.5033936,-0.8400513,0.0
27905,0.16953182,0.9363861,-0.8118973,-0.1178833,-0.5033936,-0.8400513,0.0
27906,0.16953182,0.9363861,-0.8118973,-0.040356446,-0.4333008,-0.7614624,0.0
27907,-0.45436478,0.79151917,-1.4655685,-0.040356446,-0.4333008,-0.7614624,0.0
27908,-0.45436478,0.79151917,-1.4655685,0.08814698,-0.2984253,-0.4354248,0.0
27909,-0.9481721,0.6225815,-1.3273506,0.08814698,-0.2984253,-0.4354248,0.0
27910,-0.9481721,0.6225815,-1.3273506,-0.118945315,-0.35471192,-0.26975098,0.0
27911,-1.0780444,0.53170776,-0.74308014,-0.118945315,-0.35471192,-0.26975098,0.0
27912,-1.0780444,0.53170776,-0.74308014,-0.6573853,-0.271875,0.045666505,0.0
27913,-1.0375576,0.2598648,-0.15892792,-0.6573853,-0.271875,0.045666505,0.0
27914,-1.0375576,0.2598648,-0.15892792,-1.1129884,-0.2793091,-0.1274414,0.0
27915,-0.72873974,-0.21269989,0.3777275,-1.1129884,-0.2793091,-0.1274414,0.0
27916,-0.72873974,-0.21269989,0.3777275,-0.83686525,-0.48533937,-0.26019287,0.0
27917,-0.24024296,-0.5907135,0.7189903,-0.83686525,-0.48533937,-0.26019287,0.0
27918,-0.24024296,-0.5907135,0.7189903,-0.6064087,-0.59472656,-0.26125488,0.0
27919,-0.030939102,-0.51755524,0.69086456,-0.6064087,-0.59472656,-0.26125488,0.0
27920,-0.030939102,-0.51755524,0.69086456,-0.53525394,-0.47684327,-0.46409914,0.0
27921,-0.16486359,-0.05193329,0.16122437,-0.53525394,-0.47684327,-0.46409914,0.0
27922,-0.16486359,-0.05193329,0.16122437,-0.48109132,-0.5331299,-0.38975832,0.0
27923,-0.36432505,0.47530365,-0.61129,-0.48109132,-0.5331299,-0.38975832,0.0
27924,-0.36432505,0.47530365,-0.61129,-1.7608155,-0.40356445,-0.4056885,0.0
27925,0.5047312,1.1194305,-0.62477493,-1.7608155,-0.40356445,-0.4056885,0.0
27926,0.5047312,1.1194305,-0.62477493,-2.996997,0.90695804,-1.0322754,0.0
27927,2.1342783,1.5649643,0.23727798,-2.996997,0.90695804,-1.0322754,0.0
27928,2.1342783,1.5649643,0.23727798,-1.9317993,1.4528321,-1.0057251,0.0
27929,2.243702,1.6799393,0.32741928,-1.9317993,1.4528321,-1.0057251,0.0
27930,2.243702,1.6799393,0.32741928,-1.8956909,1.2170655,-0.9494385,0.0
27931,1.0139923,2.8020325,-0.6378708,-1.8956909,1.2170655,-0.9494385,0.0
27932,1.0139923,2.8020325,-0.6378708,-4.833215,1.174585,-1.4103516,0.0
27933,0.37357187,2.8437958,-0.77505493,-4.833215,1.174585,-1.4103516,0.0
27934,0.37357187,2.8437958,-0.77505493,-5.5564456,0.86766356,-1.3402588,0.0
27935,0.60656023,-2.787674,0.017810822,-5.5564456,0.86766356,-1.3402588,0.0
27936,0.60656023,-2.787674,0.017810822,-0.30373535,0.77951664,0.4343628,0.0
27937,0.054059505,-6.3807755,0.69981766,-0.30373535,0.77951664,0.4343628,0.0
27938,0.054059505,-6.3807755,0.69981766,0.19434814,0.542688,-0.46622315,0.0
27939,-0.9101219,-2.2694016,0.9608307,0.19434814,0.542688,-0.46622315,0.0
27940,-0.9101219,-2.2694016,0.9608307,0.24957275,0.40250245,-0.46516114,0.0
27941,-0.9591279,2.3284225,1.0650139,0.24957275,0.40250245,-0.46516114,0.0
27942,-0.9591279,2.3284225,1.0650139,-0.41737062,0.04141846,-0.2824951,0.0
27943,-1.1158986,3.7079315,0.48013687,-0.41737062,0.04141846,-0.2824951,0.0
27944,-1.1158986,3.7079315,0.48013687,-1.5590333,-0.5766724,-0.36002198,0.0
27945,-1.0791688,3.191002,-0.79561615,-1.5590333,-0.5766724,-0.36002198,0.0
27946,-1.0791688,3.191002,-0.79561615,-1.9806519,-0.55968016,-0.23258057,0.0
27947,-0.09369421,0.9410324,-1.352375,-1.9806519,-0.55968016,-0.23258057,0.0
27948,-0.09369421,0.9410324,-1.352375,-1.897815,-0.4067505,-0.043542482,0.0
27949,0.7122884,-0.89253235,-1.2499428,-1.897815,-0.4067505,-0.043542482,0.0
27950,0.7122884,-0.89253235,-1.2499428,-1.8542725,-0.1720459,-0.039294433,0.0
27951,0.14284134,0.9252472,-1.0647736,-1.8542725,-0.1720459,-0.039294433,0.0
27952,0.14284134,0.9252472,-1.0647736,-2.909912,-0.35046387,0.5979126,0.0
27953,-0.51350975,4.664879,-0.8112564,-2.909912,-0.35046387,0.5979126,0.0
27954,-0.51350975,4.664879,-0.8112564,-4.796045,-0.4609131,1.4071655,0.0
27955,0.1350298,4.1397324,-0.9423866,-4.796045,-0.4609131,1.4071655,0.0
27956,0.1350298,4.1397324,-0.9423866,-4.878882,-0.35046387,2.0390625,0.0
27957,0.79436445,-2.594902,-1.5749168,-4.878882,-0.35046387,2.0390625,0.0
27958,0.79436445,-2.594902,-1.5749168,-3.8986452,-0.22196046,1.3455689,0.0
27959,0.65336275,-6.9661026,-2.1793404,-3.8986452,-0.22196046,1.3455689,0.0
27960,0.65336275,-6.9661026,-2.1793404,-2.538208,-0.010620117,1.3795532,0.0
27961,0.0040626526,-4.555954,-1.6148605,-2.538208,-0.010620117,1.3795532,0.0
27962,0.0040626526,-4.555954,-1.6148605,-2.1909301,0.8028809,1.2542359,0.0
27963,-0.33960867,-1.9726181,0.027873993,-2.1909301,0.8028809,1.2542359,0.0
27964,-0.33960867,-1.9726181,0.027873993,-1.9997681,0.72854006,0.6531372,0.0
27965,0.17745876,-1.0913773,1.0695648,-1.9997681,0.72854006,0.6531372,0.0
27966,0.17745876,-1.0913773,1.0695648,-1.0641358,0.5894165,0.3727661,0.0
27967,0.7792964,0.86396027,1.1328506,-1.0641358,0.5894165,0.3727661,0.0
27968,0.7792964,0.86396027,1.1328506,-0.8315552,0.5851685,0.5671143,0.0
27969,0.9885373,2.3838654,0.85630417,-0.8315552,0.5851685,0.5671143,0.0
27970,0.9885373,2.3838654,0.85630417,-1.3179566,0.7582764,0.8400513,0.0
27971,0.9627781,1.569603,1.0747414,-1.3179566,0.7582764,0.8400513,0.0
27972,0.9627781,1.569603,1.0747414,-0.026550293,0.65632325,0.98873293,0.0
27973,0.5383253,0.0143585205,1.3554955,-0.026550293,0.65632325,0.98873293,0.0
27974,0.5383253,0.0143585205,1.3554955,-0.17947999,0.3154175,0.8878418,0.0
27975,-0.053653717,-0.9058075,0.7481308,-0.17947999,0.3154175,0.8878418,0.0
27976,-0.053653717,-0.9058075,0.7481308,0.050976563,0.0541626,0.6403931,0.0
27977,-0.26631165,-0.69374084,0.37020874,0.050976563,0.0541626,0.6403931,0.0
27978,-0.26631165,-0.69374084,0.37020874,0.015930176,-0.24532472,0.55543214,0.0
27979,-0.18416739,-0.3057251,0.23260498,0.015930176,-0.24532472,0.55543214,0.0
27980,-0.18416739,-0.3057251,0.23260498,0.033984374,-0.38232422,0.5076416,0.0
27981,-0.20468235,0.06263733,-0.41410065,0.033984374,-0.38232422,0.5076416,0.0
27982,-0.20468235,0.06263733,-0.41410065,0.08814698,-0.46834716,0.22727051,0.0
27983,-0.25366306,0.13006592,-0.42930222,0.08814698,-0.46834716,0.22727051,0.0
27984,-0.25366306,0.13006592,-0.42930222,0.033984374,-0.55968016,0.18585205,0.0
27985,-0.3235116,0.49132538,-0.071567535,0.033984374,-0.55968016,0.18585205,0.0
27986,-0.3235116,0.49132538,-0.071567535,0.06265869,-0.8379273,0.10195313,0.0
27987,-0.25949287,0.4123001,-0.15871811,0.06265869,-0.8379273,0.10195313,0.0
27988,-0.25949287,0.4123001,-0.15871811,0.05522461,-0.8527954,0.07646485,0.0
27989,0.0450058,0.3113098,-0.90000916,0.05522461,-0.8527954,0.07646485,0.0
27990,0.0450058,0.3113098,-0.90000916,-0.03186035,-0.62977296,0.008496094,0.0
27991,0.049810886,0.32154846,-0.8496475,-0.03186035,-0.62977296,0.008496094,0.0
27992,0.049810886,0.32154846,-0.8496475,0.029736329,-0.56605226,0.019116212,0.0
27993,-0.18727541,0.45436096,-0.59394073,0.029736329,-0.56605226,0.019116212,0.0
27994,-0.18727541,0.45436096,-0.59394073,0.029736329,-0.56605226,0.019116212,0.0
27995,-0.18727541,0.45436096,-0.59394073,0.14974366,-0.66481936,-0.0021240234,0.0
27996,-0.27584553,0.25578308,-0.46133423,0.14974366,-0.66481936,-0.0021240234,0.0
27997,-0.27584553,0.25578308,-0.46133423,0.16885987,-0.6414551,-0.057348635,0.0
27998,0.011952877,0.29252625,-0.1706047,0.16885987,-0.6414551,-0.057348635,0.0
27999,0.011952877,0.29252625,-0.1706047,-0.026550293,-0.61278075,0.0361084,0.0
28000,0.07744551,0.3949356,-0.084934235,-0.026550293,-0.61278075,0.0361084,0.0
28001,0.07744551,0.3949356,-0.084934235,-0.02442627,-0.61278075,0.09451904,0.0
28002,-0.043634415,0.23823547,0.097896576,-0.02442627,-0.61278075,0.09451904,0.0
28003,-0.043634415,0.23823547,0.097896576,0.081774905,-0.7317261,0.1263794,0.0
28004,-0.16168976,0.078575134,0.17747498,0.081774905,-0.7317261,0.1263794,0.0
28005,-0.16168976,0.078575134,0.17747498,0.107263185,-0.8092529,0.1274414,0.0
28006,-0.3880067,0.10734558,0.6360855,0.107263185,-0.8092529,0.1274414,0.0
28007,-0.3880067,0.10734558,0.6360855,0.033984374,-1.1342286,0.124255374,0.0
28008,-0.45732927,0.015991211,0.5007973,0.033984374,-1.1342286,0.124255374,0.0
28009,-0.45732927,0.015991211,0.5007973,0.07434082,-1.1979493,0.08071289,0.0
28010,-0.4096136,-0.18916321,-0.19387054,0.07434082,-1.1979493,0.08071289,0.0
28011,-0.4096136,-0.18916321,-0.19387054,0.08496094,-1.1586548,0.04248047,0.0
28012,-0.319561,-0.11816406,-0.41176224,0.08496094,-1.1586548,0.04248047,0.0
28013,-0.319561,-0.11816406,-0.41176224,0.08283692,-1.0864381,0.04885254,0.0
28014,-0.16634178,0.032714844,-0.67046356,0.08283692,-1.0864381,0.04885254,0.0
28015,-0.16634178,0.032714844,-0.67046356,0.10089111,-0.94625247,0.07327881,0.0
28016,-0.1908617,0.042503357,-0.41348267,0.10089111,-0.94625247,0.07327881,0.0
28017,-0.1908617,0.042503357,-0.41348267,0.14018555,-0.9324463,0.083898924,0.0
28018,-0.3065958,0.06312561,0.23328781,0.14018555,-0.9324463,0.083898924,0.0
28019,-0.3065958,0.06312561,0.23328781,0.08814698,-1.0875,0.11044922,0.0
28020,-0.40052557,0.293396,0.69727707,0.08814698,-1.0875,0.11044922,0.0
28021,-0.40052557,0.293396,0.69727707,-0.14018555,-1.1926392,0.14868164,0.0
28022,-0.42480278,0.2090683,0.30042267,-0.14018555,-1.1926392,0.14868164,0.0
28023,-0.42480278,0.2090683,0.30042267,-0.07646485,-1.2818482,0.16142578,0.0
28024,-0.3979354,-0.017204285,-0.08369827,-0.07646485,-1.2818482,0.16142578,0.0
28025,-0.3979354,-0.017204285,-0.08369827,0.04991455,-1.2383057,0.15717773,0.0
28026,-0.3313732,-0.26667023,-0.84934235,0.04991455,-1.2383057,0.15717773,0.0
28027,-0.3313732,-0.26667023,-0.84934235,0.13699952,-0.99085695,0.115759276,0.0
28028,-0.3659773,-0.17164612,-0.7394104,0.13699952,-0.99085695,0.115759276,0.0
28029,-0.3659773,-0.17164612,-0.7394104,0.21027832,-0.90802,0.118945315,0.0
28030,-0.35813808,-0.0758667,-0.3869133,0.21027832,-0.90802,0.118945315,0.0
28031,-0.35813808,-0.0758667,-0.3869133,0.23364258,-0.80181885,0.090270996,0.0
28032,-0.2702999,-0.005264282,0.064468384,0.23364258,-0.80181885,0.090270996,0.0
28033,-0.2702999,-0.005264282,0.064468384,0.26550293,-0.7338501,0.10089111,0.0
28034,-0.18824911,0.12496185,0.3700676,0.26550293,-0.7338501,0.10089111,0.0
28035,-0.18824911,0.12496185,0.3700676,0.20390625,-0.68499756,0.14974366,0.0
28036,-0.23442507,0.15115356,0.54662704,0.20390625,-0.68499756,0.14974366,0.0
28037,-0.23442507,0.15115356,0.54662704,0.16354981,-0.74871826,0.17629395,0.0
28038,-0.37045002,0.08443451,0.5813217,0.16354981,-0.74871826,0.17629395,0.0
28039,-0.37045002,0.08443451,0.5813217,0.2166504,-0.8315552,0.20921631,0.0
28040,-0.4623394,0.16043091,0.45510864,0.2166504,-0.8315552,0.20921631,0.0
28041,-0.4623394,0.16043091,0.45510864,0.2262085,-0.8729736,0.26550293,0.0
28042,-0.47065258,0.17193604,0.27038574,0.2262085,-0.8729736,0.26550293,0.0
28043,-0.47065258,0.17193604,0.27038574,0.2442627,-0.86341554,0.29311523,0.0
28044,-0.51142216,-0.029075623,0.06225586,0.2442627,-0.86341554,0.29311523,0.0
28045,-0.51142216,-0.029075623,0.06225586,0.25594482,-0.83898926,0.24744873,0.0
28046,-0.5809641,-0.26659393,-0.21599197,0.25594482,-0.83898926,0.24744873,0.0
28047,-0.5809641,-0.26659393,-0.21599197,0.36002198,-0.77951664,0.17947999,0.0
28048,-0.5277233,-0.27098083,-0.302166,0.36002198,-0.77951664,0.17947999,0.0
28049,-0.5277233,-0.27098083,-0.302166,0.3791382,-0.62340087,0.16779785,0.0
28050,-0.30174398,-0.16526031,-0.11219025,0.3791382,-0.62340087,0.16779785,0.0
28051,-0.30174398,-0.16526031,-0.11219025,0.2984253,-0.5076416,0.1539917,0.0
28052,-0.113257885,-0.12837219,0.20651245,0.2984253,-0.5076416,0.1539917,0.0
28053,-0.113257885,-0.12837219,0.20651245,0.25913087,-0.4609131,0.16354981,0.0
28054,-0.21775436,-0.13250732,0.5034065,0.25913087,-0.4609131,0.16354981,0.0
28055,-0.21775436,-0.13250732,0.5034065,0.24107666,-0.5501221,0.11682129,0.0
28056,-0.43697214,-0.17480469,0.576725,0.24107666,-0.5501221,0.11682129,0.0
28057,-0.43697214,-0.17480469,0.576725,0.17416993,-0.62340087,0.052038576,0.0
28058,-0.49063015,-0.10152435,0.41261292,0.17416993,-0.62340087,0.052038576,0.0
28059,-0.49063015,-0.10152435,0.41261292,0.16036378,-0.6616333,0.026550293,0.0
28060,-0.41429377,-0.056106567,0.11180496,0.16036378,-0.6616333,0.026550293,0.0
28061,-0.41429377,-0.056106567,0.11180496,0.21558838,-0.6488892,0.0021240234,0.0
28062,-0.28849077,-0.102134705,-0.14593124,0.21558838,-0.6488892,0.0021240234,0.0
28063,-0.28849077,-0.102134705,-0.14593124,0.2548828,-0.6117188,-0.040356446,0.0
28064,-0.15358305,-0.006843567,-0.23949814,0.2548828,-0.6117188,-0.040356446,0.0
28065,-0.15358305,-0.006843567,-0.23949814,0.17416993,-0.54587406,0.0010620117,0.0
28066,-0.13338852,0.25205994,-0.22721863,0.17416993,-0.54587406,0.0010620117,0.0
28067,-0.13338852,0.25205994,-0.22721863,0.2166504,-0.48109132,0.09451904,0.0
28068,-0.1672697,0.2659912,-0.16265869,0.2166504,-0.48109132,0.09451904,0.0
28069,-0.1672697,0.2659912,-0.16265869,0.27506104,-0.41099855,0.14337158,0.0
28070,-0.1215601,0.07585144,0.0119895935,0.27506104,-0.41099855,0.14337158,0.0
28071,-0.1215601,0.07585144,0.0119895935,0.1901001,-0.37807617,0.18160401,0.0
28072,-0.08526039,0.045791626,0.18222427,0.1901001,-0.37807617,0.18160401,0.0
28073,-0.08526039,0.045791626,0.18222427,0.10938721,-0.39082032,0.21558838,0.0
28074,-0.12364054,-0.040168762,0.19897842,0.10938721,-0.39082032,0.21558838,0.0
28075,-0.12364054,-0.040168762,0.19897842,0.10938721,-0.40250245,0.21558838,0.0
28076,-0.15019417,-0.2294159,0.15534973,0.10938721,-0.40250245,0.21558838,0.0
28077,-0.15019417,-0.2294159,0.15534973,0.10195313,-0.43967286,0.1901001,0.0
28078,-0.07474518,-0.20748138,0.084667206,0.10195313,-0.43967286,0.1901001,0.0
28079,-0.07474518,-0.20748138,0.084667206,0.043542482,-0.46728516,0.20496826,0.0
28080,-0.049578667,0.07878876,-0.02986145,0.043542482,-0.46728516,0.20496826,0.0
28081,-0.049578667,0.07878876,-0.02986145,0.016992187,-0.45772704,0.26762697,0.0
28082,-0.15456772,0.114089966,-0.11067963,0.016992187,-0.45772704,0.26762697,0.0
28083,-0.15456772,0.114089966,-0.11067963,0.07965088,-0.4333008,0.26444092,0.0
28084,-0.14134216,-0.14669037,-0.16756058,0.07965088,-0.4333008,0.26444092,0.0
28085,-0.14134216,-0.14669037,-0.16756058,0.060534667,-0.43117675,0.21983643,0.0
28086,0.006811619,-0.1414032,-0.2738304,0.060534667,-0.43117675,0.21983643,0.0
28087,0.006811619,-0.1414032,-0.2738304,-0.004248047,-0.3069214,0.23151855,0.0
28088,0.038933277,-0.017417908,-0.31225204,-0.004248047,-0.3069214,0.23151855,0.0
28089,0.038933277,-0.017417908,-0.31225204,0.010620117,-0.20709229,0.24532472,0.0
28090,-0.06089449,-0.09363556,-0.17865753,0.010620117,-0.20709229,0.24532472,0.0
28091,-0.06089449,-0.09363556,-0.17865753,0.07540283,-0.1996582,0.21027832,0.0
28092,-0.10779762,-0.10411072,0.020942688,0.07540283,-0.1996582,0.21027832,0.0
28093,-0.10779762,-0.10411072,0.020942688,0.093457036,-0.21134034,0.22833252,0.0
28094,-0.12147999,-0.018722534,0.13212204,0.093457036,-0.21134034,0.22833252,0.0
28095,-0.12147999,-0.018722534,0.13212204,0.10407715,-0.19753419,0.22196046,0.0
28096,-0.13900518,-0.08326721,0.20544052,0.10407715,-0.19753419,0.22196046,0.0
28097,-0.13900518,-0.08326721,0.20544052,0.08071289,-0.24744873,0.18160401,0.0
28098,-0.099619865,-0.085609436,0.30923843,0.08071289,-0.24744873,0.18160401,0.0
28099,-0.099619865,-0.085609436,0.30923843,-0.0031860352,-0.32709962,0.20072022,0.0
28100,-0.08560419,0.010894775,0.2095375,-0.0031860352,-0.32709962,0.20072022,0.0
28101,-0.08560419,0.010894775,0.2095375,-0.0053100586,-0.35577393,0.18054199,0.0
28102,-0.1201067,-0.035461426,-0.14131927,-0.0053100586,-0.35577393,0.18054199,0.0
28103,-0.1201067,-0.035461426,-0.14131927,0.04248047,-0.2814331,0.16461182,0.0
28104,-0.11980343,-0.104148865,-0.39968872,0.04248047,-0.2814331,0.16461182,0.0
28105,-0.11980343,-0.104148865,-0.39968872,0.090270996,-0.17523193,0.15930176,0.0
28106,-0.036382675,-0.038345337,-0.33608246,0.090270996,-0.17523193,0.15930176,0.0
28107,-0.036382675,-0.038345337,-0.33608246,0.098767094,-0.09133301,0.16885987,0.0
28108,0.020088196,-0.029006958,-0.09152222,0.098767094,-0.09133301,0.16885987,0.0
28109,0.020088196,-0.029006958,-0.09152222,0.11257324,-0.08814698,0.14868164,0.0
28110,-0.035601616,-0.18934631,0.057167053,0.11257324,-0.08814698,0.14868164,0.0
28111,-0.035601616,-0.18934631,0.057167053,0.16461182,-0.107263185,0.0722168,0.0
28112,-0.1281395,-0.28749084,0.09485626,0.16461182,-0.107263185,0.0722168,0.0
28113,-0.1281395,-0.28749084,0.09485626,0.21452637,-0.15080567,-0.0031860352,0.0
28114,-0.15142536,-0.12740326,0.16009903,0.21452637,-0.15080567,-0.0031860352,0.0
28115,-0.15142536,-0.12740326,0.16009903,0.2166504,-0.22302246,-0.023364259,0.0
28116,-0.09806919,0.14929962,0.11660385,0.2166504,-0.22302246,-0.023364259,0.0
28117,-0.09806919,0.14929962,0.11660385,0.18160401,-0.21452637,-0.011682129,0.0
28118,-0.0042362213,0.25720978,-0.05727768,0.18160401,-0.21452637,-0.011682129,0.0
28119,-0.0042362213,0.25720978,-0.05727768,0.20072022,-0.1444336,0.020178223,0.0
28120,0.050969124,0.20220184,-0.11319351,0.20072022,-0.1444336,0.020178223,0.0
28121,0.050969124,0.20220184,-0.11319351,0.10513916,-0.13062744,0.05628662,0.0
28122,-0.0022792816,0.051948547,-4.5394897E-4,0.10513916,-0.13062744,0.05628662,0.0
28123,-0.0022792816,0.051948547,-4.5394897E-4,0.12000733,-0.14230958,0.070092775,0.0
28124,-0.062150955,-0.11399078,0.11878967,0.12000733,-0.14230958,0.070092775,0.0
28125,-0.062150955,-0.11399078,0.11878967,0.10407715,-0.17841797,0.04885254,0.0
28126,-0.04895115,-0.12805939,0.09165192,0.10407715,-0.17841797,0.04885254,0.0
28127,-0.04895115,-0.12805939,0.09165192,0.10620117,-0.16142578,0.04248047,0.0
28128,-0.0719614,-0.009353638,0.0198555,0.10620117,-0.16142578,0.04248047,0.0
28129,-0.0719614,-0.009353638,0.0198555,0.07327881,-0.16354981,0.0541626,0.0
28130,-0.10556698,0.053726196,-0.023605347,0.07327881,-0.16354981,0.0541626,0.0
28131,-0.10556698,0.053726196,-0.023605347,0.093457036,-0.15505372,0.04885254,0.0
28132,-0.057634354,-0.01890564,-0.025096893,0.093457036,-0.15505372,0.04885254,0.0
28133,-0.057634354,-0.01890564,-0.025096893,0.083898924,-0.1359375,0.04991455,0.0
28134,0.03212738,-0.09427643,0.028579712,0.083898924,-0.1359375,0.04991455,0.0
28135,0.03212738,-0.09427643,0.028579712,0.10620117,-0.13381349,0.05522461,0.0
28136,0.008099556,-0.082611084,0.09166336,0.10620117,-0.13381349,0.05522461,0.0
28137,0.008099556,-0.082611084,0.09166336,0.033984374,-0.16885987,0.04991455,0.0
28138,-0.06939888,-0.1750946,0.16689682,0.033984374,-0.16885987,0.04991455,0.0
28139,-0.06939888,-0.1750946,0.16689682,0.078588866,-0.1444336,0.023364259,0.0
28140,-0.19102955,-0.29984283,0.26491547,0.078588866,-0.1444336,0.023364259,0.0
28141,-0.19102955,-0.29984283,0.26491547,0.09451904,-0.15080567,0.0021240234,0.0
28142,-1.0298376,-0.6402817,0.8803406,0.09451904,-0.15080567,0.0021240234,0.0
28143,-1.0298376,-0.6402817,0.8803406,-0.059472658,0.07540283,0.040356446,0.0
28144,-2.681219,-1.0013657,2.4884033,-0.059472658,0.07540283,0.040356446,0.0
28145,-2.681219,-1.0013657,2.4884033,0.8995239,0.20496826,-0.18372802,0.0
28146,-2.5525188,0.013946533,2.1884537,0.8995239,0.20496826,-0.18372802,0.0
28147,-2.5525188,0.013946533,2.1884537,0.5915405,-0.21134034,-0.3812622,0.0
28148,-2.5525188,0.013946533,2.1884537,0.5915405,-0.21134034,-0.3812622,101.0
28149,-0.091062546,0.71728516,-0.40642548,0.5915405,-0.21134034,-0.3812622,101.0
28150,-0.091062546,0.71728516,-0.40642548,0.7104859,-0.36320803,-0.38763428,101.0
28151,1.8256483,0.07735443,-1.9887009,0.7104859,-0.36320803,-0.38763428,101.0
28152,1.8256483,0.07735443,-1.9887009,0.8793457,-0.32816163,-0.452417,101.0
28153,2.2354326,-0.034103394,-2.1935997,0.8793457,-0.32816163,-0.452417,101.0
28154,2.2354326,-0.034103394,-2.1935997,0.8326172,-0.22833252,-0.3154175,101.0
28155,1.7523842,0.19765472,-1.8510208,0.8326172,-0.22833252,-0.3154175,101.0
28156,1.7523842,0.19765472,-1.8510208,0.7827026,-0.0998291,-0.18054199,101.0
28157,1.010745,0.122306824,-1.2090263,0.7827026,-0.0998291,-0.18054199,101.0
28158,1.010745,0.122306824,-1.2090263,0.42905274,0.03079834,-0.2538208,101.0
28159,0.4618435,-0.011650085,-0.5595169,0.42905274,0.03079834,-0.2538208,101.0
28160,0.4618435,-0.011650085,-0.5595169,0.36427003,0.0541626,-0.24107666,101.0
28161,0.312212,0.16455841,-0.18545532,0.36427003,0.0541626,-0.24107666,101.0
28162,0.312212,0.16455841,-0.18545532,0.22727051,0.019116212,-0.1996582,101.0
28163,0.28525543,0.2900467,0.014503479,0.22727051,0.019116212,-0.1996582,101.0
28164,0.28525543,0.2900467,0.014503479,0.13062744,0.02442627,-0.14655761,101.0
28165,0.23667574,0.087760925,0.16633987,0.13062744,0.02442627,-0.14655761,101.0
28166,0.23667574,0.087760925,0.16633987,0.1359375,-0.004248047,-0.12850343,101.0
28167,0.20766354,-0.25591278,0.38746643,0.1359375,-0.004248047,-0.12850343,101.0
28168,0.20766354,-0.25591278,0.38746643,0.10620117,-0.06159668,-0.11682129,101.0
28169,0.13654137,-0.46842957,0.6280174,0.10620117,-0.06159668,-0.11682129,101.0
28170,0.13654137,-0.46842957,0.6280174,0.1985962,-0.11151123,-0.1529297,101.0
28171,-0.02934122,-0.593483,0.9048042,0.1985962,-0.11151123,-0.1529297,101.0
28172,-0.02934122,-0.593483,0.9048042,0.49064943,-0.14974366,-0.18160401,101.0
28173,-0.42773342,-0.66922,1.2411156,0.49064943,-0.14974366,-0.18160401,101.0
28174,-0.42773342,-0.66922,1.2411156,0.64782715,-0.18054199,-0.24107666,101.0
28175,-1.078332,-0.74489594,1.5140953,0.64782715,-0.18054199,-0.24107666,101.0
28176,-1.078332,-0.74489594,1.5140953,0.78376466,-0.16036378,-0.29099122,101.0
28177,-1.099616,-0.5070877,1.0285263,0.78376466,-0.16036378,-0.29099122,101.0
28178,-1.099616,-0.5070877,1.0285263,1.1894531,-0.33028564,-0.33878174,101.0
28179,-0.4444027,-0.056388855,-0.06852341,1.1894531,-0.33028564,-0.33878174,101.0
28180,-0.4444027,-0.056388855,-0.06852341,0.9398804,-0.36851808,-0.5341919,101.0
28181,0.20419502,-0.13689423,-0.8719444,0.9398804,-0.36851808,-0.5341919,101.0
28182,0.20419502,-0.13689423,-0.8719444,1.1098022,-0.37807617,-0.6425171,101.0
28183,0.5875864,0.059761047,-1.0425377,1.1098022,-0.37807617,-0.6425171,101.0
28184,0.5875864,0.059761047,-1.0425377,0.91864014,-0.5065796,-0.49383545,101.0
28185,0.6117201,0.6514969,-0.81165695,0.91864014,-0.5065796,-0.49383545,101.0
28186,0.6117201,0.6514969,-0.81165695,0.5479981,-0.44179687,-0.45029297,101.0
28187,0.58293056,0.39431,-0.50961685,0.5479981,-0.44179687,-0.45029297,101.0
28188,0.58293056,0.39431,-0.50961685,0.6552612,-0.26975098,-0.3695801,101.0
28189,0.5195918,-0.6066208,-0.17948532,0.6552612,-0.26975098,-0.3695801,101.0
28190,0.5195918,-0.6066208,-0.17948532,0.9897949,-0.13381349,-0.49277344,101.0
28191,0.3257079,-1.3752136,0.19643784,0.9897949,-0.13381349,-0.49277344,101.0
28192,0.3257079,-1.3752136,0.19643784,1.3052124,0.039294433,-0.6796875,101.0
28193,0.17708206,-1.3514023,0.60656357,1.3052124,0.039294433,-0.6796875,101.0
28194,0.17708206,-1.3514023,0.60656357,1.8585205,0.10407715,-0.53100586,101.0
28195,-0.06689167,-0.8421097,0.93667984,1.8585205,0.10407715,-0.53100586,101.0
28196,-0.06689167,-0.8421097,0.93667984,2.4086425,-0.09239502,-0.5214478,101.0
28197,-0.39673853,-0.25875854,1.0345001,2.4086425,-0.09239502,-0.5214478,101.0
28198,-0.39673853,-0.25875854,1.0345001,2.1070313,-0.020178223,-0.5331299,101.0
28199,-0.3868122,-0.17343903,0.7256584,2.1070313,-0.020178223,-0.5331299,101.0
28200,-0.3868122,-0.17343903,0.7256584,1.8850708,0.07965088,-0.5533081,101.0
28201,-0.16700554,-0.9029007,0.10198593,1.8850708,0.07965088,-0.5533081,101.0
28202,-0.16700554,-0.9029007,0.10198593,2.3746583,-0.007434082,-0.70305175,101.0
28203,-0.14253998,-0.9479675,-0.4782257,2.3746583,-0.007434082,-0.70305175,101.0
28204,-0.14253998,-0.9479675,-0.4782257,2.6454713,-0.3355957,-0.6669434,101.0
28205,-0.7670355,1.5378647,-1.0155525,2.6454713,-0.3355957,-0.6669434,101.0
28206,-0.7670355,1.5378647,-1.0155525,1.0312134,-1.3965454,-0.6074707,101.0
28207,-0.54956627,4.292534,-1.2324371,1.0312134,-1.3965454,-0.6074707,101.0
28208,-0.54956627,4.292534,-1.2324371,0.54375,-0.5299439,-0.7434082,101.0
28209,0.43179512,2.5026321,-0.34011078,0.54375,-0.5299439,-0.7434082,101.0
28210,0.43179512,2.5026321,-0.34011078,0.362146,-0.43117675,-0.08071289,101.0
28211,0.79087067,-1.3061981,1.0458336,0.362146,-0.43117675,-0.08071289,101.0
28212,0.79087067,-1.3061981,1.0458336,0.5384399,-0.5968506,-0.033984374,101.0
28213,0.86343384,-2.4105377,1.6555748,0.5384399,-0.5968506,-0.033984374,101.0
28214,0.86343384,-2.4105377,1.6555748,1.4199097,-0.6754395,-0.21134034,101.0
28215,0.8165035,-1.2961426,1.7399254,1.4199097,-0.6754395,-0.21134034,101.0
28216,0.8165035,-1.2961426,1.7399254,1.0821899,-0.85598147,0.06903076,101.0
28217,0.98434305,0.0064086914,1.4118881,1.0821899,-0.85598147,0.06903076,101.0
28218,0.98434305,0.0064086914,1.4118881,1.0959961,-0.7423462,0.2081543,101.0
28219,1.3395128,0.3792801,0.42759323,1.0959961,-0.7423462,0.2081543,101.0
28220,1.3395128,0.3792801,0.42759323,1.0237793,-0.5012695,0.48215333,101.0
28221,1.4965005,-0.0050735474,-0.47192764,1.0237793,-0.5012695,0.48215333,101.0
28222,1.4965005,-0.0050735474,-0.47192764,1.2871583,-0.3791382,0.5872925,101.0
28223,1.3251915,-0.4430008,-0.6309242,1.2871583,-0.3791382,0.5872925,101.0
28224,1.3251915,-0.4430008,-0.6309242,1.5558472,-0.22408448,0.6117188,101.0
28225,1.0760226,-0.34677124,-0.08169174,1.5558472,-0.22408448,0.6117188,101.0
28226,1.0760226,-0.34677124,-0.08169174,1.6546143,0.17416993,0.5076416,101.0
28227,0.606802,0.13677979,0.39052963,1.6546143,0.17416993,0.5076416,101.0
28228,0.606802,0.13677979,0.39052963,1.5154908,0.32497558,0.5968506,101.0
28229,-0.0103468895,0.47208405,0.1747284,1.5154908,0.32497558,0.5968506,101.0
28230,-0.0103468895,0.47208405,0.1747284,1.3083985,0.5278198,0.5586182,101.0
28231,-0.5606332,0.6407547,-0.30170822,1.3083985,0.5278198,0.5586182,101.0
28232,-0.5606332,0.6407547,-0.30170822,1.1852051,0.63933104,0.4715332,101.0
28233,-1.0468097,1.0286942,-0.44390488,1.1852051,0.63933104,0.4715332,101.0
28234,-1.0468097,1.0286942,-0.44390488,0.84748536,0.6531372,0.47790527,101.0
28235,-1.3611412,1.4214401,-0.26714706,0.84748536,0.6531372,0.47790527,101.0
28236,-1.3611412,1.4214401,-0.26714706,0.5649902,0.6488892,0.40462646,101.0
28237,-1.7113371,1.487114,0.07572174,0.5649902,0.6488892,0.40462646,101.0
28238,-1.7113371,1.487114,0.07572174,0.19434814,0.64995116,0.2782471,101.0
28239,-2.0981836,1.2095642,0.38340378,0.19434814,0.64995116,0.2782471,101.0
28240,-2.0981836,1.2095642,0.38340378,-0.18054199,0.44710693,0.0361084,101.0
28241,-1.9740429,0.52752686,0.4368744,-0.18054199,0.44710693,0.0361084,101.0
28242,-1.9740429,0.52752686,0.4368744,-0.48321533,0.40037844,-0.06690674,101.0
28243,-1.6357164,-0.23557281,0.3646965,-0.48321533,0.40037844,-0.06690674,101.0
28244,-1.6357164,-0.23557281,0.3646965,-0.6754395,0.34940186,-0.2081543,101.0
28245,-1.6703529,-0.69859314,0.3410263,-0.6754395,0.34940186,-0.2081543,101.0
28246,-1.6703529,-0.69859314,0.3410263,-0.59897465,0.11682129,-0.38338622,101.0
28247,-1.679471,-0.9483261,0.40514374,-0.59897465,0.11682129,-0.38338622,101.0
28248,-1.679471,-0.9483261,0.40514374,-0.38444826,-0.093457036,-0.3802002,101.0
28249,-1.2477274,-1.0590973,0.6103325,-0.38444826,-0.093457036,-0.3802002,101.0
28250,-1.2477274,-1.0590973,0.6103325,-0.18479005,-0.20072022,-0.2803711,101.0
28251,-0.7022953,-1.0610428,0.75844574,-0.18479005,-0.20072022,-0.2803711,101.0
28252,-0.7022953,-1.0610428,0.75844574,-0.23258057,-0.08283692,-0.15611573,101.0
28253,-0.5765457,-1.132927,0.690155,-0.23258057,-0.08283692,-0.15611573,101.0
28254,-0.5765457,-1.132927,0.690155,-0.32497558,-0.1178833,-0.12956543,101.0
28255,-0.74524593,-1.2458572,0.49507904,-0.32497558,-0.1178833,-0.12956543,101.0
28256,-0.74524593,-1.2458572,0.49507904,-0.18903808,-0.30267334,-0.13275146,101.0
28257,-0.74524593,-1.2458572,0.49507904,-0.18903808,-0.30267334,-0.13275146,100.0
28258,-0.59547615,-1.2451324,0.35633087,-0.18903808,-0.30267334,-0.13275146,100.0
28259,-0.59547615,-1.2451324,0.35633087,0.10513916,-0.28355715,-0.060534667,100.0
28260,-0.24947643,-0.9942398,0.35648727,0.10513916,-0.28355715,-0.060534667,100.0
28261,-0.24947643,-0.9942398,0.35648727,0.33665773,-0.26975098,0.093457036,100.0
28262,-0.12818241,-0.57453156,0.28035736,0.33665773,-0.26975098,0.093457036,100.0
28263,-0.12818241,-0.57453156,0.28035736,0.41843262,-0.31223145,0.21983643,100.0
28264,-0.13422298,-0.28289032,0.037017822,0.41843262,-0.31223145,0.21983643,100.0
28265,-0.13422298,-0.28289032,0.037017822,0.50445557,-0.44073486,0.24957275,100.0
28266,-0.10203171,-0.2474823,-0.16500092,0.50445557,-0.44073486,0.24957275,100.0
28267,-0.10203171,-0.2474823,-0.16500092,0.62340087,-0.6988037,0.33771974,100.0
28268,0.0539093,-0.27764893,-0.42938995,0.62340087,-0.6988037,0.33771974,100.0
28269,0.0539093,-0.27764893,-0.42938995,0.69986576,-0.8527954,0.47471926,100.0
28270,0.31265926,-0.25621033,-0.9717941,0.69986576,-0.8527954,0.47471926,100.0
28271,0.31265926,-0.25621033,-0.9717941,0.5586182,-0.65632325,0.33665773,100.0
28272,0.5483093,-0.018508911,-1.4240799,0.5586182,-0.65632325,0.33665773,100.0
28273,0.5483093,-0.018508911,-1.4240799,0.5936646,-0.67225343,0.010620117,100.0
28274,0.8121948,0.8173599,-1.4631767,0.5936646,-0.67225343,0.010620117,100.0
28275,0.8121948,0.8173599,-1.4631767,0.5607422,-0.8028809,-0.07434082,100.0
28276,1.127881,1.6391678,-1.4106789,0.5607422,-0.8028809,-0.07434082,100.0
28277,1.127881,1.6391678,-1.4106789,0.23151855,-0.77739257,-0.033984374,100.0
28278,1.4708109,1.5589905,-1.7429352,0.23151855,-0.77739257,-0.033984374,100.0
28279,1.4708109,1.5589905,-1.7429352,-0.16885987,-0.48215333,-0.18585205,100.0
28280,1.7718267,1.11837,-2.3401146,-0.16885987,-0.48215333,-0.18585205,100.0
28281,1.7718267,1.11837,-2.3401146,-0.9218262,-0.17735596,-0.38975832,100.0
28282,2.0208187,1.0669174,-2.6607018,-0.9218262,-0.17735596,-0.38975832,100.0
28283,2.0208187,1.0669174,-2.6607018,-1.7947998,-0.30479738,-0.32285157,100.0
28284,3.397612,1.3164291,-3.39542,-1.7947998,-0.30479738,-0.32285157,100.0
28285,3.397612,1.3164291,-3.39542,-3.62677,1.1958252,-0.22196046,100.0
28286,7.8460927,1.9096375,-3.8056297,-3.62677,1.1958252,-0.22196046,100.0
28287,7.8460927,1.9096375,-3.8056297,-2.0826051,9.224634,-0.4885254,100.0
28288,5.5698066,-0.36009216,-0.10359955,-2.0826051,9.224634,-0.4885254,100.0
28289,5.5698066,-0.36009216,-0.10359955,0.49064943,4.6516113,0.9855469,100.0
28290,-3.93644,-1.673996,6.0109787,0.49064943,4.6516113,0.9855469,100.0
28291,-3.93644,-1.673996,6.0109787,-2.3746583,1.6015137,0.03186035,100.0
28292,-8.376288,0.20774078,7.7940598,-2.3746583,1.6015137,0.03186035,100.0
28293,-8.376288,0.20774078,7.7940598,-5.4746704,0.5894165,0.29736328,100.0
28294,-5.394122,-0.6864548,3.2222137,-5.4746704,0.5894165,0.29736328,100.0
28295,-5.394122,-0.6864548,3.2222137,-4.2098145,1.1076783,0.32178956,100.0
28296,-0.8322897,-1.9889908,-1.5463142,-4.2098145,1.1076783,0.32178956,100.0
28297,-0.8322897,-1.9889908,-1.5463142,-4.2108765,1.0545777,-0.18266602,100.0
28298,0.92966366,-1.7763138,-2.626114,-4.2108765,1.0545777,-0.18266602,100.0
28299,0.92966366,-1.7763138,-2.626114,-4.3276978,0.7306641,-0.31116945,100.0
28300,1.0772266,-1.5815353,-1.5857162,-4.3276978,0.7306641,-0.31116945,100.0
28301,1.0772266,-1.5815353,-1.5857162,-3.0968263,0.8623535,-0.3706421,100.0
28302,0.8596697,-1.088089,-0.17804718,-3.0968263,0.8623535,-0.3706421,100.0
28303,0.8596697,-1.088089,-0.17804718,-2.6327271,0.5363159,-0.26868898,100.0
28304,1.6462197,-0.3413086,2.5827827,-2.6327271,0.5363159,-0.26868898,100.0
28305,1.6462197,-0.3413086,2.5827827,-0.55755615,2.5615723,-0.38869628,100.0
28306,2.3076982,0.8972397,5.093239,-0.55755615,2.5615723,-0.38869628,100.0
28307,2.3076982,0.8972397,5.093239,-0.80819094,1.088562,0.40037844,100.0
28308,1.0507607,1.7519073,3.7740555,-0.80819094,1.088562,0.40037844,100.0
28309,1.0507607,1.7519073,3.7740555,-0.54906005,0.4609131,0.5564942,100.0
28310,-0.7729778,1.1888657,0.63433075,-0.54906005,0.4609131,0.5564942,100.0
28311,-0.7729778,1.1888657,0.63433075,-0.32391357,-0.1444336,0.6117188,100.0
28312,-1.6793566,0.38597107,-1.546711,-0.32391357,-0.1444336,0.6117188,100.0
28313,-1.6793566,0.38597107,-1.546711,-0.29099122,-0.3355957,0.4959595,100.0
28314,-1.457694,0.028022766,-2.5281906,-0.29099122,-0.3355957,0.4959595,100.0
28315,-1.457694,0.028022766,-2.5281906,-0.14337158,-0.2357666,0.32709962,100.0
28316,-0.8212948,0.07460022,-2.4453316,-0.14337158,-0.2357666,0.32709962,100.0
28317,-0.8212948,0.07460022,-2.4453316,0.09239502,-0.11363526,0.22727051,100.0
28318,-0.25021267,0.23228455,-1.8103561,0.09239502,-0.11363526,0.22727051,100.0
28319,-0.25021267,0.23228455,-1.8103561,0.115759276,-0.019116212,0.18797608,100.0
28320,0.001502037,0.3675537,-1.3286552,0.115759276,-0.019116212,0.18797608,100.0
28321,0.001502037,0.3675537,-1.3286552,0.06265869,0.17947999,0.05628662,100.0
28322,-0.102838516,0.42022705,-0.9917679,0.06265869,0.17947999,0.05628662,100.0
28323,-0.102838516,0.42022705,-0.9917679,0.14974366,0.33240968,-0.010620117,100.0
28324,-0.22737598,0.37036133,-0.52562714,0.14974366,0.33240968,-0.010620117,100.0
28325,-0.22737598,0.37036133,-0.52562714,0.16885987,0.35789797,-0.025488282,100.0
28326,-0.20771885,0.38215637,-0.18178177,0.16885987,0.35789797,-0.025488282,100.0
28327,-0.20771885,0.38215637,-0.18178177,0.1359375,0.35895997,-0.023364259,100.0
28328,-0.18428993,0.39000702,-0.19137192,0.1359375,0.35895997,-0.023364259,100.0
28329,-0.18428993,0.39000702,-0.19137192,0.19222413,0.48215333,-0.09133301,100.0
28330,-0.1800003,0.16291809,-0.19089127,0.19222413,0.48215333,-0.09133301,100.0
28331,-0.1800003,0.16291809,-0.19089127,0.31329346,0.48215333,-0.15717773,100.0
28332,-0.067938805,-0.08265686,0.038059235,0.31329346,0.48215333,-0.15717773,100.0
28333,-0.067938805,-0.08265686,0.038059235,0.24744873,0.3993164,-0.22089843,100.0
28334,0.050251007,-0.045295715,0.18208313,0.24744873,0.3993164,-0.22089843,100.0
28335,0.050251007,-0.045295715,0.18208313,0.14761963,0.32816163,-0.24107666,100.0
28336,0.08683205,0.19387817,-0.016895294,0.14761963,0.32816163,-0.24107666,100.0
28337,0.08683205,0.19387817,-0.016895294,0.121069334,0.4078125,-0.26125488,100.0
28338,0.106184006,0.2939453,-0.34264374,0.121069334,0.4078125,-0.26125488,100.0
28339,0.106184006,0.2939453,-0.34264374,0.2548828,0.5511841,-0.2442627,100.0
28340,0.18845081,0.1381607,-0.24338913,0.2548828,0.5511841,-0.2442627,100.0
28341,0.18845081,0.1381607,-0.24338913,0.15080567,0.56180423,-0.27612305,100.0
28342,0.34759903,0.0070495605,0.12614822,0.15080567,0.56180423,-0.27612305,100.0
28343,0.34759903,0.0070495605,0.12614822,0.04991455,0.51188964,-0.3069214,100.0
28344,0.32742023,0.0087890625,0.03043747,0.04991455,0.51188964,-0.3069214,100.0
28345,0.32742023,0.0087890625,0.03043747,0.16461182,0.5649902,-0.34727785,100.0
28346,0.16845417,-0.08308411,-0.45598602,0.16461182,0.5649902,-0.34727785,100.0
28347,0.16845417,-0.08308411,-0.45598602,0.28568116,0.724292,-0.41737062,100.0
28348,0.19924068,-0.17465973,-0.5466385,0.28568116,0.724292,-0.41737062,100.0
28349,0.19924068,-0.17465973,-0.5466385,0.24744873,0.8315552,-0.49383545,100.0
28350,0.25833035,-0.010116577,-0.19690704,0.24744873,0.8315552,-0.49383545,100.0
28351,0.25833035,-0.010116577,-0.19690704,0.32922363,0.85704345,-0.51826173,100.0
28352,0.24857092,0.034301758,0.02279663,0.32922363,0.85704345,-0.51826173,100.0
28353,0.24857092,0.034301758,0.02279663,0.42374268,0.9143921,-0.56392825,100.0
28354,0.29798985,-0.15720367,-0.037670135,0.42374268,0.9143921,-0.56392825,100.0
28355,0.29798985,-0.15720367,-0.037670135,0.41843262,1.0120972,-0.6595093,100.0
28356,0.34570408,-0.17019653,-0.10353851,0.41843262,1.0120972,-0.6595093,100.0
28357,0.34570408,-0.17019653,-0.10353851,0.3058594,1.1044922,-0.7338501,100.0
28358,0.27569675,-0.086265564,0.0823288,0.3058594,1.1044922,-0.7338501,100.0
28359,0.27569675,-0.086265564,0.0823288,0.31329346,1.089624,-0.81031495,100.0
28360,0.17025232,-0.037994385,0.50486374,0.31329346,1.089624,-0.81031495,100.0
28361,0.17025232,-0.037994385,0.50486374,0.34833986,0.87615967,-0.8400513,100.0
28362,0.1317339,0.043273926,0.77295685,0.34833986,0.87615967,-0.8400513,100.0
28363,0.1317339,0.043273926,0.77295685,0.41312256,0.6467652,-0.8219971,100.0
28364,0.17362452,0.120765686,0.6823044,0.41312256,0.6467652,-0.8219971,100.0
28365,0.17362452,0.120765686,0.6823044,0.38869628,0.4704712,-0.79119873,100.0
28366,0.24522257,0.17749786,0.40509796,0.38869628,0.4704712,-0.79119873,100.0
28367,0.24522257,0.17749786,0.40509796,0.31435546,0.36745605,-0.7678345,100.0
28368,0.26646614,0.057037354,0.27219772,0.31435546,0.36745605,-0.7678345,100.0
28369,0.26646614,0.057037354,0.27219772,0.35471192,0.24320069,-0.75509036,100.0
28370,0.30781412,-0.11753082,0.3953476,0.35471192,0.24320069,-0.75509036,100.0
28371,0.30781412,-0.11753082,0.3953476,0.31223145,0.060534667,-0.7763306,100.0
28372,0.36149788,-0.09901428,0.4074173,0.31223145,0.060534667,-0.7763306,100.0
28373,0.36149788,-0.09901428,0.4074173,0.29099122,-0.033984374,-0.7890747,100.0
28374,0.23840475,0.08000183,-0.0022888184,0.29099122,-0.033984374,-0.7890747,100.0
28375,0.23840475,0.08000183,-0.0022888184,0.31860352,-0.093457036,-0.7784546,100.0
28376,0.019971848,0.28176117,-0.5019531,0.31860352,-0.093457036,-0.7784546,100.0
28377,0.019971848,0.28176117,-0.5019531,0.15611573,-0.1178833,-0.6988037,100.0
28378,0.04990101,0.3422165,-0.56790924,0.15611573,-0.1178833,-0.6988037,100.0
28379,0.04990101,0.3422165,-0.56790924,0.18160401,-0.039294433,-0.6616333,100.0
28380,0.26256514,0.3234787,-0.3971634,0.18160401,-0.039294433,-0.6616333,100.0
28381,0.26256514,0.3234787,-0.3971634,0.10938721,0.060534667,-0.60109866,100.0
28382,0.34586716,0.19979858,-0.39058304,0.10938721,0.060534667,-0.60109866,100.0
28383,0.34586716,0.19979858,-0.39058304,0.13168946,0.23364258,-0.5968506,100.0
28384,0.3274746,0.04194641,-0.35279846,0.13168946,0.23364258,-0.5968506,100.0
28385,0.3274746,0.04194641,-0.35279846,0.10089111,0.39294434,-0.5649902,100.0
28386,0.35653543,0.025657654,-0.13121414,0.10089111,0.39294434,-0.5649902,100.0
28387,0.35653543,0.025657654,-0.13121414,0.047790527,0.50020754,-0.4959595,100.0
28388,0.4337635,0.07190704,0.027778625,0.047790527,0.50020754,-0.4959595,100.0
28389,0.4337635,0.07190704,0.027778625,-0.10195313,0.62127686,-0.452417,100.0
28390,0.40462828,0.05357361,0.02078247,-0.10195313,0.62127686,-0.452417,100.0
28391,0.40462828,0.05357361,0.02078247,-0.15505372,0.7476563,-0.4354248,100.0
28392,0.2587247,0.024711609,0.0688858,-0.15505372,0.7476563,-0.4354248,100.0
28393,0.2587247,0.024711609,0.0688858,-0.17841797,0.7965088,-0.39613038,100.0
28394,0.16131306,0.09064484,0.22637177,-0.17841797,0.7965088,-0.39613038,100.0
28395,0.16131306,0.09064484,0.22637177,-0.1539917,0.7869507,-0.32922363,100.0
28396,0.1367774,0.20995331,0.29304886,-0.1539917,0.7869507,-0.32922363,100.0
28397,0.1367774,0.20995331,0.29304886,-0.18266602,0.7604004,-0.26762697,100.0
28398,0.085776806,0.24132538,0.23744202,-0.18266602,0.7604004,-0.26762697,100.0
28399,0.085776806,0.24132538,0.23744202,-0.16673584,0.7699585,-0.2177124,100.0
28400,0.09895611,0.117118835,0.3058586,-0.16673584,0.7699585,-0.2177124,100.0
28401,0.09895611,0.117118835,0.3058586,-0.1263794,0.7189819,-0.1274414,100.0
28402,0.2828393,-0.11858368,0.4882431,-0.1263794,0.7189819,-0.1274414,100.0
28403,0.2828393,-0.11858368,0.4882431,-0.1263794,0.7189819,-0.1274414,100.0
28404,0.2828393,-0.11858368,0.4882431,-0.1709839,0.62340087,-0.04991455,100.0
28405,0.47663784,-0.2819519,0.52669144,-0.1709839,0.62340087,-0.04991455,100.0
28406,0.47663784,-0.2819519,0.52669144,-0.32709962,0.50020754,-0.025488282,100.0
28407,0.44605637,-0.13865662,0.2954483,-0.32709962,0.50020754,-0.025488282,100.0
28408,0.44605637,-0.13865662,0.2954483,-0.46834716,0.46409914,-0.010620117,100.0
28409,0.25883484,0.24294281,-0.12660599,-0.46834716,0.46409914,-0.010620117,100.0
28410,0.25883484,0.24294281,-0.12660599,-0.5299439,0.52888185,0.052038576,100.0
28411,0.06894541,0.3236847,-0.4542122,-0.5299439,0.52888185,0.052038576,100.0
28412,0.06894541,0.3236847,-0.4542122,-0.39294434,0.6818115,0.07540283,100.0
28413,0.07909441,-0.2316742,-0.25508118,-0.39294434,0.6818115,0.07540283,100.0
28414,0.07909441,-0.2316742,-0.25508118,-0.30054933,0.61915284,-0.0180542,100.0
28415,0.32667923,-0.8937378,0.33280182,-0.30054933,0.61915284,-0.0180542,100.0
28416,0.32667923,-0.8937378,0.33280182,-0.33240968,0.4056885,-0.22302246,100.0
28417,0.4179349,-0.93520355,0.63778687,-0.33240968,0.4056885,-0.22302246,100.0
28418,0.4179349,-0.93520355,0.63778687,-0.33028564,0.15080567,-0.42268068,100.0
28419,0.13804674,-0.41099548,0.52893066,-0.33028564,0.15080567,-0.42268068,100.0
28420,0.13804674,-0.41099548,0.52893066,-0.19647217,-0.1444336,-0.60109866,100.0
28421,-0.046472073,-0.090652466,0.26425552,-0.19647217,-0.1444336,-0.60109866,100.0
28422,-0.046472073,-0.090652466,0.26425552,-0.053100586,-0.31116945,-0.7317261,100.0
28423,0.20525408,-0.35350037,0.04497528,-0.053100586,-0.31116945,-0.7317261,100.0
28424,0.20525408,-0.35350037,0.04497528,0.10301514,-0.38657227,-0.90908206,100.0
28425,0.5070009,-0.43341827,-0.061077118,0.10301514,-0.38657227,-0.90908206,100.0
28426,0.5070009,-0.43341827,-0.061077118,0.40037844,-0.30479738,-1.0184692,100.0
28427,0.23978043,0.4436798,-0.45248795,0.40037844,-0.30479738,-1.0184692,100.0
28428,0.23978043,0.4436798,-0.45248795,0.02442627,-0.46409914,-1.0046631,100.0
28429,-0.17350769,1.2881851,-1.0684242,0.02442627,-0.46409914,-1.0046631,100.0
28430,-0.17350769,1.2881851,-1.0684242,-0.012744141,-0.2516968,-0.78164065,100.0
28431,-0.11779785,1.0406876,-1.0698395,-0.012744141,-0.2516968,-0.78164065,100.0
28432,-0.11779785,1.0406876,-1.0698395,0.04991455,-0.083898924,-0.73597413,100.0
28433,0.25477314,0.22236633,-0.4889412,0.04991455,-0.083898924,-0.73597413,100.0
28434,0.25477314,0.22236633,-0.4889412,0.19434814,0.03717041,-0.73809814,100.0
28435,0.5969825,-0.4189682,0.082653046,0.19434814,0.03717041,-0.73809814,100.0
28436,0.5969825,-0.4189682,0.082653046,0.29523927,0.09133301,-0.77314454,100.0
28437,0.68984175,-0.85624695,0.40629578,0.29523927,0.09133301,-0.77314454,100.0
28438,0.68984175,-0.85624695,0.40629578,0.2984253,-0.06903076,-0.7678345,100.0
28439,0.658648,-0.84043884,0.36016846,0.2984253,-0.06903076,-0.7678345,100.0
28440,0.658648,-0.84043884,0.36016846,0.12850343,-0.1083252,-0.7657105,100.0
28441,0.4606223,-0.11338043,0.1356926,0.12850343,-0.1083252,-0.7657105,100.0
28442,0.4606223,-0.11338043,0.1356926,0.15930176,-0.06903076,-0.7519043,100.0
28443,-0.012007713,0.6178665,0.15911484,0.15930176,-0.06903076,-0.7519043,100.0
28444,-0.012007713,0.6178665,0.15911484,0.48533937,-0.11469727,-0.75509036,100.0
28445,-0.32208204,0.60985565,0.39333344,0.48533937,-0.11469727,-0.75509036,100.0
28446,-0.32208204,0.60985565,0.39333344,0.90270996,-0.15930176,-0.7168579,100.0
28447,-0.091955185,0.13877869,0.389019,0.90270996,-0.15930176,-0.7168579,100.0
28448,-0.091955185,0.13877869,0.389019,1.0492676,-0.10195313,-0.69136965,100.0
28449,0.32904816,-0.11627197,0.13148117,1.0492676,-0.10195313,-0.69136965,100.0
28450,0.32904816,-0.11627197,0.13148117,1.1044922,-0.050976563,-0.6680054,100.0
28451,0.53377104,-0.2558136,0.06119156,1.1044922,-0.050976563,-0.6680054,100.0
28452,0.53377104,-0.2558136,0.06119156,1.2213135,-0.06796875,-0.6435791,100.0
28453,0.37824965,-0.37403107,0.06472397,1.2213135,-0.06796875,-0.6435791,100.0
28454,0.37824965,-0.37403107,0.06472397,1.1873292,-0.23045655,-0.65419924,100.0
28455,-0.019800186,-0.0745697,-0.31993866,1.1873292,-0.23045655,-0.65419924,100.0
28456,-0.019800186,-0.0745697,-0.31993866,1.0736939,-0.29205322,-0.62552494,100.0
28457,-0.32379913,0.29506683,-0.71107864,1.0736939,-0.29205322,-0.62552494,100.0
28458,-0.32379913,0.29506683,-0.71107864,0.994043,-0.21134034,-0.5872925,100.0
28459,-0.42533588,0.25452423,-0.7233162,0.994043,-0.21134034,-0.5872925,100.0
28460,-0.42533588,0.25452423,-0.7233162,1.0428956,-0.25594482,-0.62552494,100.0
28461,-0.28270054,-0.08405304,-0.51799774,1.0428956,-0.25594482,-0.62552494,100.0
28462,-0.28270054,-0.08405304,-0.51799774,1.1161743,-0.1263794,-0.64782715,100.0
28463,-0.030200958,-0.26986694,-0.18032837,1.1161743,-0.1263794,-0.64782715,100.0
28464,-0.030200958,-0.26986694,-0.18032837,0.91120607,-0.16036378,-0.7126099,100.0
28465,0.11519432,-0.1511612,0.1444931,0.91120607,-0.16036378,-0.7126099,100.0
28466,0.11519432,-0.1511612,0.1444931,0.724292,-0.19753419,-0.7965088,100.0
28467,0.26736307,-0.028022766,0.32388306,0.724292,-0.19753419,-0.7965088,100.0
28468,0.26736307,-0.028022766,0.32388306,0.68074954,-0.053100586,-0.7614624,100.0
28469,0.3636222,-0.24893188,0.41333008,0.68074954,-0.053100586,-0.7614624,100.0
28470,0.3636222,-0.24893188,0.41333008,1.0290893,0.06796875,-0.7508423,100.0
28471,0.22897148,-0.60554504,0.5623169,1.0290893,0.06796875,-0.7508423,100.0
28472,0.22897148,-0.60554504,0.5623169,1.1055542,0.17841797,-0.7848267,100.0
28473,-0.07923746,-0.7596588,0.7053833,1.1055542,0.17841797,-0.7848267,100.0
28474,-0.07923746,-0.7596588,0.7053833,1.2712281,0.053100586,-0.817749,100.0
28475,-0.29134417,-0.55513763,0.6240845,1.2712281,0.053100586,-0.817749,100.0
28476,-0.29134417,-0.55513763,0.6240845,1.5739014,-0.06159668,-0.9228882,100.0
28477,-0.24501371,-0.49528503,0.39527512,1.5739014,-0.06159668,-0.9228882,100.0
28478,-0.24501371,-0.49528503,0.39527512,1.6737305,-0.03717041,-0.99510497,100.0
28479,-0.28775883,-0.33042908,-0.22262192,1.6737305,-0.03717041,-0.99510497,100.0
28480,-0.28775883,-0.33042908,-0.22262192,1.3721192,-0.40993652,-1.2351197,100.0
28481,-0.19099808,0.70292664,-1.6773872,1.3721192,-0.40993652,-1.2351197,100.0
28482,-0.19099808,0.70292664,-1.6773872,-0.51188964,-0.5957886,-1.4092896,100.0
28483,0.41933298,1.4382553,-2.4871483,-0.51188964,-0.5957886,-1.4092896,100.0
28484,0.41933298,1.4382553,-2.4871483,-0.06903076,0.14018555,-1.5515991,100.0
28485,0.7626877,1.4140472,-1.5865936,-0.06903076,0.14018555,-1.5515991,100.0
28486,0.7626877,1.4140472,-1.5865936,-0.17735596,0.5033936,-1.6365601,100.0
28487,0.45947886,0.66819,-0.17052078,-0.17735596,0.5033936,-1.6365601,100.0
28488,0.45947886,0.66819,-0.17052078,-0.30054933,0.72216797,-1.7565674,100.0
28489,-0.20509768,-0.3966751,0.72507095,-0.30054933,0.72216797,-1.7565674,100.0
28490,-0.20509768,-0.3966751,0.72507095,-0.2442627,0.89208984,-1.9084351,100.0
28491,-0.36838722,-0.63544464,1.0098419,-0.2442627,0.89208984,-1.9084351,100.0
28492,-0.36838722,-0.63544464,1.0098419,-0.2442627,0.9388184,-2.061365,100.0
28493,0.13953066,0.27713013,1.0602417,-0.2442627,0.9388184,-2.061365,100.0
28494,0.13953066,0.27713013,1.0602417,-0.27399904,0.92501223,-2.1134033,100.0
28495,0.54359484,1.0465927,0.85362625,-0.27399904,0.92501223,-2.1134033,100.0
28496,0.54359484,1.0465927,0.85362625,-0.20284425,0.9324463,-2.1187134,100.0
28497,0.4805665,0.73023224,0.2842064,-0.20284425,0.9324463,-2.1187134,100.0
28498,0.4805665,0.73023224,0.2842064,-0.2081543,1.0131592,-2.2026124,100.0
28499,0.17532253,0.06944275,-0.1755867,-0.2081543,1.0131592,-2.2026124,100.0
28500,0.17532253,0.06944275,-0.1755867,-0.25063476,0.998291,-2.35979,100.0
28501,0.06495285,0.08337402,0.42502213,-0.25063476,0.998291,-2.35979,100.0
28502,0.06495285,0.08337402,0.42502213,-0.38338622,0.7582764,-2.4585571,100.0
28503,0.12111521,0.43507385,1.020462,-0.38338622,0.7582764,-2.4585571,100.0
28504,0.12111521,0.43507385,1.020462,-0.55968016,0.60109866,-2.5498903,100.0
28505,0.18087673,1.319252,1.8937988,-0.55968016,0.60109866,-2.5498903,100.0
28506,0.18087673,1.319252,1.8937988,-1.2776002,0.5320679,-2.350232,100.0
28507,0.21623468,1.1059418,1.1815567,-1.2776002,0.5320679,-2.350232,100.0
28508,0.21623468,1.1059418,1.1815567,-1.538855,0.8262451,-2.2812011,100.0
28509,-0.3177228,0.040275574,-1.2378006,-1.538855,0.8262451,-2.2812011,100.0
28510,-0.3177228,0.040275574,-1.2378006,-0.73809814,0.72004396,-2.085791,100.0
28511,-0.44318008,0.18579865,-1.5000305,-0.73809814,0.72004396,-2.085791,100.0
28512,-0.44318008,0.18579865,-1.5000305,-0.5915405,0.7327881,-2.0369384,100.0
28513,-0.0978179,0.9471741,-0.98418045,-0.5915405,0.7327881,-2.0369384,100.0
28514,-0.0978179,0.9471741,-0.98418045,-0.3430298,0.6945557,-2.085791,100.0
28515,0.36652088,0.901207,-0.1690445,-0.3430298,0.6945557,-2.085791,100.0
28516,0.36652088,0.901207,-0.1690445,-0.32709962,0.7519043,-2.073047,100.0
28517,1.3154578,0.4958725,1.9678192,-0.32709962,0.7519043,-2.073047,100.0
28518,1.3154578,0.4958725,1.9678192,-0.6244629,0.62127686,-2.0985353,100.0
28519,1.1656964,0.40361786,2.0268555,-0.6244629,0.62127686,-2.0985353,100.0
28520,1.1656964,0.40361786,2.0268555,-0.85385746,0.38444826,-2.0995972,100.0
28521,1.1209605,-0.2210617,1.6992416,-0.85385746,0.38444826,-2.0995972,100.0
28522,1.1209605,-0.2210617,1.6992416,-1.3965454,0.5097656,-2.0040162,100.0
28523,0.9052279,-0.3007126,1.2765579,-1.3965454,0.5097656,-2.0040162,100.0
28524,0.9052279,-0.3007126,1.2765579,-1.450708,0.6552612,-1.9477295,100.0
28525,0.0801394,-0.5381546,0.28620148,-1.450708,0.6552612,-1.9477295,100.0
28526,0.0801394,-0.5381546,0.28620148,-1.448584,1.0174073,-1.719397,100.0
28527,-0.26746798,-0.35964966,-0.027290344,-1.448584,1.0174073,-1.719397,100.0
28528,-0.26746798,-0.35964966,-0.027290344,-1.3625611,1.2329956,-1.5770874,100.0
28529,-0.8213353,-0.50268555,-0.23153687,-1.3625611,1.2329956,-1.5770874,100.0
28530,-0.8213353,-0.50268555,-0.23153687,-0.7593384,1.63125,-1.5123047,100.0
28531,-1.0822515,0.09978485,0.20284653,-0.7593384,1.63125,-1.5123047,100.0
28532,-1.0822515,0.09978485,0.20284653,-0.30054933,1.627002,-1.3880494,100.0
28533,-1.382647,1.3608932,0.5330162,-0.30054933,1.627002,-1.3880494,100.0
28534,-1.382647,1.3608932,0.5330162,-0.4959595,1.44115,-1.268042,100.0
28535,-1.5555925,1.8598709,0.5144272,-0.4959595,1.44115,-1.268042,100.0
28536,-1.5555925,1.8598709,0.5144272,-0.6435791,1.354065,-1.0959961,100.0
28537,-1.5555925,1.8598709,0.5144272,-0.6435791,1.354065,-1.0959961,100.0
28538,-1.4385414,1.4560318,0.46642303,-0.6435791,1.354065,-1.0959961,100.0
28539,-1.4385414,1.4560318,0.46642303,-0.6467652,1.2340577,-1.083252,100.0
28540,-1.2411404,1.0942917,0.5498352,-0.6467652,1.2340577,-1.083252,100.0
28541,-1.2411404,1.0942917,0.5498352,-0.67437744,0.8889038,-1.0513916,100.0
28542,-1.0019455,1.3141556,0.5630722,-0.67437744,0.8889038,-1.0513916,100.0
28543,-1.0019455,1.3141556,0.5630722,-0.67225343,0.43754885,-0.9388184,100.0
28544,-0.8076234,1.4768219,0.24388123,-0.67225343,0.43754885,-0.9388184,100.0
28545,-0.8076234,1.4768219,0.24388123,-0.5129517,-0.13168946,-1.0174073,100.0
28546,-0.6534958,1.228859,-0.14404297,-0.5129517,-0.13168946,-1.0174073,100.0
28547,-0.6534958,1.228859,-0.14404297,-0.5235718,-0.73703617,-1.2000732,100.0
28548,-0.4054017,0.9351883,-0.3120842,-0.5235718,-0.73703617,-1.2000732,100.0
28549,-0.4054017,0.9351883,-0.3120842,-0.28355715,-0.90908206,-1.2425537,100.0
28550,0.03480959,0.82353973,-0.2851677,-0.28355715,-0.90908206,-1.2425537,100.0
28551,0.03480959,0.82353973,-0.2851677,0.029736329,-0.61915284,-1.0588257,100.0
28552,0.48671007,0.6622467,-0.09064484,0.029736329,-0.61915284,-1.0588257,100.0
28553,0.48671007,0.6622467,-0.09064484,0.39188233,-0.17735596,-1.0609497,100.0
28554,0.51001024,0.4384079,0.46905136,0.39188233,-0.17735596,-1.0609497,100.0
28555,0.51001024,0.4384079,0.46905136,-0.10301514,-0.7678345,-1.7140869,100.0
28556,0.27208328,0.5171585,0.94983673,-0.10301514,-0.7678345,-1.7140869,100.0
28557,0.27208328,0.5171585,0.94983673,-0.815625,-1.3370727,-1.9679078,100.0
28558,0.27828646,0.892746,0.63908005,-0.815625,-1.3370727,-1.9679078,100.0
28559,0.27828646,0.892746,0.63908005,-0.8400513,-1.0184692,-1.8457764,100.0
28560,0.32708454,1.2214203,-0.13403702,-0.8400513,-1.0184692,-1.8457764,100.0
28561,0.32708454,1.2214203,-0.13403702,-0.66588134,-0.60216063,-1.5346069,100.0
28562,0.17751217,1.0045547,-0.42245102,-0.66588134,-0.60216063,-1.5346069,100.0
28563,0.17751217,1.0045547,-0.42245102,-0.46728516,-0.5246338,-1.2117554,100.0
28564,-0.0118842125,0.43197632,-0.12680435,-0.46728516,-0.5246338,-1.2117554,100.0
28565,-0.0118842125,0.43197632,-0.12680435,-0.39400634,-0.68712157,-0.9239502,100.0
28566,-0.22604752,-0.116737366,0.09167099,-0.39400634,-0.68712157,-0.9239502,100.0
28567,-0.22604752,-0.116737366,0.09167099,-0.813501,-1.1331666,-0.48109132,100.0
28568,-0.39562035,-0.54265594,-0.084732056,-0.813501,-1.1331666,-0.48109132,100.0
28569,-0.39562035,-0.54265594,-0.084732056,-1.7470093,-1.5208008,-0.098767094,100.0
28570,-0.08195019,-1.4207306,-0.57175446,-1.7470093,-1.5208008,-0.098767094,100.0
28571,-0.08195019,-1.4207306,-0.57175446,-2.1261475,-1.5484132,0.08920898,100.0
28572,0.7756996,-2.8972015,-0.9050369,-2.1261475,-1.5484132,0.08920898,100.0
28573,0.7756996,-2.8972015,-0.9050369,-1.8702027,-1.2457398,0.20072022,100.0
28574,1.2986116,-3.5591812,-0.7903633,-1.8702027,-1.2457398,0.20072022,100.0
28575,1.2986116,-3.5591812,-0.7903633,-1.355127,-0.84323734,0.5097656,100.0
28576,0.66869926,-2.461319,-0.7144203,-1.355127,-0.84323734,0.5097656,100.0
28577,0.66869926,-2.461319,-0.7144203,-0.905896,-0.7062378,0.75721437,100.0
28578,-0.53995514,-0.46801758,-1.0893936,-0.905896,-0.7062378,0.75721437,100.0
28579,-0.53995514,-0.46801758,-1.0893936,-0.7412842,-0.7434082,0.85491943,100.0
28580,-1.0262513,0.9042816,-1.4494553,-0.7412842,-0.7434082,0.85491943,100.0
28581,-1.0262513,0.9042816,-1.4494553,-0.6531372,-0.53100586,0.8294312,100.0
28582,-0.6447072,1.021225,-1.2100792,-0.6531372,-0.53100586,0.8294312,100.0
28583,-0.6447072,1.021225,-1.2100792,-0.7083618,-0.2814331,0.8527954,100.0
28584,-0.24036264,0.40464783,-0.5776825,-0.7083618,-0.2814331,0.8527954,100.0
28585,-0.24036264,0.40464783,-0.5776825,-0.59472656,-0.34940186,0.8527954,100.0
28586,-0.3160205,0.04160309,-0.18677902,-0.59472656,-0.34940186,0.8527954,100.0
28587,-0.3160205,0.04160309,-0.18677902,-0.4078125,-0.3993164,0.9632446,100.0
28588,-0.73362684,0.3224411,-0.1605072,-0.4078125,-0.3993164,0.9632446,100.0
28589,-0.73362684,0.3224411,-0.1605072,-0.0031860352,-0.27612305,1.1586548,100.0
28590,-1.0864258,0.78209686,0.075683594,-0.0031860352,-0.27612305,1.1586548,100.0
28591,-1.0864258,0.78209686,0.075683594,0.05628662,0.046728518,1.4634522,100.0
28592,-1.1593509,0.5386276,0.6748314,0.05628662,0.046728518,1.4634522,100.0
28593,-1.1593509,0.5386276,0.6748314,-0.014868164,0.52038574,1.9243653,100.0
28594,-0.796072,-0.20370483,1.2697601,-0.014868164,0.52038574,1.9243653,100.0
28595,-0.796072,-0.20370483,1.2697601,-0.38657227,1.0036011,2.0411866,100.0
28596,-0.019926071,-0.13684082,1.7094612,-0.38657227,1.0036011,2.0411866,100.0
28597,-0.019926071,-0.13684082,1.7094612,-1.3965454,1.5218629,1.4868164,100.0
28598,0.59774303,0.6403961,1.9006615,-1.3965454,1.5218629,1.4868164,100.0
28599,0.59774303,0.6403961,1.9006615,-1.7756836,2.0358765,0.904834,100.0
28600,0.6875086,0.96250916,1.8022919,-1.7756836,2.0358765,0.904834,100.0
28601,0.6875086,0.96250916,1.8022919,-0.6701294,2.4107666,0.9409424,100.0
28602,0.37090492,0.39134216,1.5486832,-0.6701294,2.4107666,0.9409424,100.0
28603,0.37090492,0.39134216,1.5486832,1.0195312,2.258899,0.41418457,100.0
28604,0.13866758,0.2059555,1.0622406,1.0195312,2.258899,0.41418457,100.0
28605,0.13866758,0.2059555,1.0622406,2.0295045,2.7006958,-0.7614624,100.0
28606,0.084542274,1.3979263,0.42921066,2.0295045,2.7006958,-0.7614624,100.0
28607,0.084542274,1.3979263,0.42921066,3.062842,2.7580445,-1.2860962,100.0
28608,-0.21868229,2.727562,0.6864929,3.062842,2.7580445,-1.2860962,100.0
28609,-0.21868229,2.727562,0.6864929,3.2232056,2.1558838,-1.4528321,100.0
28610,0.22302818,1.5601044,1.6705055,3.2232056,2.1558838,-1.4528321,100.0
28611,0.22302818,1.5601044,1.6705055,2.552014,1.1841431,-2.0974731,100.0
28612,1.0191455,-1.0302048,1.4705963,2.552014,1.1841431,-2.0974731,100.0
28613,1.0191455,-1.0302048,1.4705963,2.6210449,0.33878174,-2.6465333,100.0
28614,0.7766204,-0.5898819,-0.21472168,2.6210449,0.33878174,-2.6465333,100.0
28615,0.7766204,-0.5898819,-0.21472168,1.9424194,0.27293703,-3.0947022,100.0
28616,0.41685295,2.0023727,-2.1511002,1.9424194,0.27293703,-3.0947022,100.0
28617,0.41685295,2.0023727,-2.1511002,1.1469727,0.40462646,-3.0373535,100.0
28618,0.6835432,2.651558,-2.4525948,1.1469727,0.40462646,-3.0373535,100.0
28619,0.6835432,2.651558,-2.4525948,0.9781128,-0.12213135,-2.909912,100.0
28620,1.7577109,0.71681976,-1.1170921,0.9781128,-0.12213135,-2.909912,100.0
28621,1.7577109,0.71681976,-1.1170921,0.59472656,-0.76358646,-2.7984009,100.0
28622,2.100944,-0.7476654,-0.44407654,0.59472656,-0.76358646,-2.7984009,100.0
28623,2.100944,-0.7476654,-0.44407654,0.053100586,-0.817749,-2.6645875,100.0
28624,1.139471,-0.15484619,-1.0096588,0.053100586,-0.817749,-2.6645875,100.0
28625,1.139471,-0.15484619,-1.0096588,-0.23789063,-0.6701294,-2.34917,100.0
28626,0.11811972,0.60063934,-1.7772331,-0.23789063,-0.6701294,-2.34917,100.0
28627,0.11811972,0.60063934,-1.7772331,0.078588866,-0.45772704,-2.163318,100.0
28628,-1.1217151,0.61956024,-1.9957848,0.078588866,-0.45772704,-2.163318,100.0
28629,-1.1217151,0.61956024,-1.9957848,0.2814331,-0.65419924,-2.2238526,100.0
28630,-2.2024503,0.9076729,-2.015976,0.2814331,-0.65419924,-2.2238526,100.0
28631,-2.2024503,0.9076729,-2.015976,-0.15080567,-1.0343994,-1.996582,100.0
28632,-2.276792,1.2081337,-2.481018,-0.15080567,-1.0343994,-1.996582,100.0
28633,-2.276792,1.2081337,-2.481018,-0.48746338,-1.2552979,-1.8383423,100.0
28634,-1.1747537,0.67972565,-3.197216,-0.48746338,-1.2552979,-1.8383423,100.0
28635,-1.1747537,0.67972565,-3.197216,-0.058410645,-1.265918,-1.7714356,100.0
28636,3.1313033,-2.958725,0.101017,-0.058410645,-1.265918,-1.7714356,100.0
28637,3.1313033,-2.958725,0.101017,1.8234742,-0.43117675,-4.9946413,100.0
28638,7.9956064,-8.611618,8.387943,1.8234742,-0.43117675,-4.9946413,100.0
28639,7.9956064,-8.611618,8.387943,4.1184816,0.83474123,-0.07434082,100.0
28640,4.052394,-3.526596,9.150833,4.1184816,0.83474123,-0.07434082,100.0
28641,4.052394,-3.526596,9.150833,0.94731444,0.70305175,-1.811792,100.0
28642,-3.24235,4.735428,1.5758171,0.94731444,0.70305175,-1.811792,100.0
28643,-3.24235,4.735428,1.5758171,0.44604492,0.29630128,-0.87191164,100.0
28644,-4.340926,3.359024,-3.065651,0.44604492,0.29630128,-0.87191164,100.0
28645,-4.340926,3.359024,-3.065651,1.0524536,-0.118945315,-0.75615233,100.0
28646,-2.32694,-0.958107,-4.2037544,1.0524536,-0.118945315,-0.75615233,100.0
28647,-2.32694,-0.958107,-4.2037544,2.698572,0.35577393,-0.6265869,100.0
28648,-1.5163617,-2.5038376,-3.0832558,2.698572,0.35577393,-0.6265869,100.0
28649,-1.5163617,-2.5038376,-3.0832558,3.533313,-0.27293703,-0.45878908,100.0
28650,-2.514225,-1.7645721,-1.586052,3.533313,-0.27293703,-0.45878908,100.0
28651,-2.514225,-1.7645721,-1.586052,4.701526,-1.6121339,-0.27506104,100.0
28652,-2.514225,-1.7645721,-1.586052,4.701526,-1.6121339,-0.27506104,100.0
28653,-3.4184847,-1.1983871,-0.91438675,4.701526,-1.6121339,-0.27506104,100.0
28654,-3.4184847,-1.1983871,-0.91438675,5.8007083,-1.9827759,-0.20390625,100.0
28655,-3.2134495,-0.086753845,-0.35358047,5.8007083,-1.9827759,-0.20390625,100.0
28656,-3.2134495,-0.086753845,-0.35358047,5.2081056,-2.1877441,0.1178833,100.0
28657,-2.249361,1.2582321,-0.27584457,5.2081056,-2.1877441,0.1178833,100.0
28658,-2.249361,1.2582321,-0.27584457,4.37655,-2.4978516,0.53737795,100.0
28659,-1.0567398,1.2998505,-0.79789734,4.37655,-2.4978516,0.53737795,100.0
28660,-1.0567398,1.2998505,-0.79789734,4.146094,-3.1924074,1.3137085,100.0
28661,0.61083364,0.78504944,-0.79972076,4.146094,-3.1924074,1.3137085,100.0
28662,0.61083364,0.78504944,-0.79972076,3.2752442,-3.2136476,1.2786621,100.0
28663,2.7510815,1.6989594,-1.0151291,3.2752442,-3.2136476,1.2786621,100.0
28664,2.7510815,1.6989594,-1.0151291,1.5823975,1.3954834,0.14761963,100.0
28665,3.0123887,3.0128784,-1.0876045,1.5823975,1.3954834,0.14761963,100.0
28666,3.0123887,3.0128784,-1.0876045,0.99935305,-0.30054933,-0.28674316,100.0
28667,1.9360218,1.9644775,-0.96678925,0.99935305,-0.30054933,-0.28674316,100.0
28668,1.9360218,1.9644775,-0.96678925,0.7858887,0.18903808,-0.26975098,100.0
28669,0.5574112,-0.5922241,-0.87651825,0.7858887,0.18903808,-0.26975098,100.0
28670,0.5574112,-0.5922241,-0.87651825,1.1660889,0.37595215,-0.3419678,100.0
28671,-0.58704233,-1.8977432,-0.58720016,1.1660889,0.37595215,-0.3419678,100.0
28672,-0.58704233,-1.8977432,-0.58720016,1.355127,0.42799073,-0.29523927,100.0
28673,-0.99547625,-1.5407562,-0.3842392,1.355127,0.42799073,-0.29523927,100.0
28674,-0.99547625,-1.5407562,-0.3842392,1.3891114,0.58304447,-0.26868898,100.0
28675,-1.0545354,-0.769577,-0.20885468,1.3891114,0.58304447,-0.26868898,100.0
28676,-1.0545354,-0.769577,-0.20885468,1.4082276,0.55968016,-0.26550293,100.0
28677,-0.9436407,0.20786285,0.088947296,1.4082276,0.55968016,-0.26550293,100.0
28678,-0.9436407,0.20786285,0.088947296,0.9420044,0.30479738,-0.22727051,100.0
28679,-0.6473808,0.62963104,0.017715454,0.9420044,0.30479738,-0.22727051,100.0
28680,-0.6473808,0.62963104,0.017715454,0.8092529,0.29736328,-0.1274414,100.0
28681,-0.51200867,0.13709259,-0.2860489,0.8092529,0.29736328,-0.1274414,100.0
28682,-0.51200867,0.13709259,-0.2860489,0.9600586,0.3440918,-0.14018555,100.0
28683,-0.40772724,-0.14955139,-0.34235382,0.9600586,0.3440918,-0.14018555,100.0
28684,-0.40772724,-0.14955139,-0.34235382,0.67437744,0.12000733,-0.1529297,100.0
28685,-0.1185894,0.041557312,-0.32089233,0.67437744,0.12000733,-0.1529297,100.0
28686,-0.1185894,0.041557312,-0.32089233,0.5214478,0.1529297,-0.11151123,100.0
28687,-0.018406868,0.24612427,-0.29366302,0.5214478,0.1529297,-0.11151123,100.0
28688,-0.018406868,0.24612427,-0.29366302,0.42799073,0.18266602,-0.015930176,100.0
28689,-0.25994062,0.44966125,-0.15691376,0.42799073,0.18266602,-0.015930176,100.0
28690,-0.25994062,0.44966125,-0.15691376,0.07646485,-0.06690674,0.026550293,100.0
28691,-0.514349,0.2228775,-0.16671753,0.07646485,-0.06690674,0.026550293,100.0
28692,-0.514349,0.2228775,-0.16671753,0.023364259,-0.035046387,-0.04248047,100.0
28693,-0.56296873,-0.24280548,-0.26913834,0.023364259,-0.035046387,-0.04248047,100.0
28694,-0.56296873,-0.24280548,-0.26913834,-0.0010620117,-0.21240234,-0.19328614,100.0
28695,-0.40417147,-0.30384064,-0.31146622,-0.0010620117,-0.21240234,-0.19328614,100.0
28696,-0.40417147,-0.30384064,-0.31146622,-0.0541626,-0.21134034,-0.2081543,100.0
28697,-0.2283907,-0.23440552,-0.28795624,-0.0541626,-0.21134034,-0.2081543,100.0
28698,-0.2283907,-0.23440552,-0.28795624,-0.022302246,-0.2347046,-0.25594482,100.0
28699,-0.1440897,-0.12060547,-0.1664238,-0.022302246,-0.2347046,-0.25594482,100.0
28700,-0.1440897,-0.12060547,-0.1664238,-0.1359375,-0.29630128,-0.28674316,100.0
28701,-0.11608982,0.0028076172,-0.098667145,-0.1359375,-0.29630128,-0.28674316,100.0
28702,-0.11608982,0.0028076172,-0.098667145,-0.17416993,-0.3069214,-0.29523927,100.0
28703,-0.054566383,-0.11193848,-0.12166977,-0.17416993,-0.3069214,-0.29523927,100.0
28704,-0.054566383,-0.11193848,-0.12166977,-0.03079834,-0.26019287,-0.32072756,100.0
28705,-0.05169773,-0.15856934,-0.1325531,-0.03079834,-0.26019287,-0.32072756,100.0
28706,-0.05169773,-0.15856934,-0.1325531,-0.0998291,-0.25063476,-0.3706421,100.0
28707,-0.09071112,-0.11299133,-0.068286896,-0.0998291,-0.25063476,-0.3706421,100.0
28708,-0.09071112,-0.11299133,-0.068286896,-0.17841797,-0.32603762,-0.39082032,100.0
28709,0.053615093,-0.13468933,0.09455109,-0.17841797,-0.32603762,-0.39082032,100.0
28710,0.053615093,-0.13468933,0.09455109,-0.011682129,-0.1731079,-0.4609131,100.0
28711,0.1232996,-0.03479004,0.071624756,-0.011682129,-0.1731079,-0.4609131,100.0
28712,0.1232996,-0.03479004,0.071624756,-0.15823975,-0.15080567,-0.36427003,100.0
28713,0.15807533,-0.09912872,0.06198883,-0.15823975,-0.15080567,-0.36427003,100.0
28714,0.15807533,-0.09912872,0.06198883,0.10620117,-0.045666505,-0.31329346,100.0
28715,0.089045525,-0.04714966,0.21126175,0.10620117,-0.045666505,-0.31329346,100.0
28716,0.089045525,-0.04714966,0.21126175,-0.007434082,0.057348635,-0.24001466,100.0
28717,-0.14418125,-0.13155365,0.25089264,-0.007434082,0.057348635,-0.24001466,100.0
28718,-0.14418125,-0.13155365,0.25089264,0.039294433,0.011682129,-0.17947999,100.0
28719,-0.16040087,-0.5906677,0.230587,0.039294433,0.011682129,-0.17947999,100.0
28720,-0.16040087,-0.5906677,0.230587,0.3154175,0.29099122,-0.14974366,100.0
28721,-0.2436037,-0.76782227,0.28588486,0.3154175,0.29099122,-0.14974366,100.0
28722,-0.2436037,-0.76782227,0.28588486,0.3090454,0.10620117,-0.05522461,100.0
28723,-0.338511,-0.6971817,0.49926376,0.3090454,0.10620117,-0.05522461,100.0
28724,-0.338511,-0.6971817,0.49926376,0.17841797,0.04248047,-0.0180542,100.0
28725,-0.10629463,-0.59736633,0.5703201,0.17841797,0.04248047,-0.0180542,100.0
28726,-0.10629463,-0.59736633,0.5703201,0.09770508,0.0361084,-0.08920898,100.0
28727,0.273973,-0.71393585,0.52698517,0.09770508,0.0361084,-0.08920898,100.0
28728,0.273973,-0.71393585,0.52698517,0.011682129,0.0180542,-0.115759276,100.0
28729,0.45358992,-0.77767944,0.5570984,0.011682129,0.0180542,-0.115759276,100.0
28730,0.45358992,-0.77767944,0.5570984,-0.20603028,-0.093457036,-0.023364259,100.0
28731,0.4414487,-0.19158936,0.62724686,-0.20603028,-0.093457036,-0.023364259,100.0
28732,0.4414487,-0.19158936,0.62724686,-0.16673584,-0.22302246,0.13381349,100.0
28733,0.34727526,0.6485367,0.69597244,-0.16673584,-0.22302246,0.13381349,100.0
28734,0.34727526,0.6485367,0.69597244,-0.50870365,-0.26975098,0.21558838,100.0
28735,0.1194582,0.8182831,0.39824677,-0.50870365,-0.26975098,0.21558838,100.0
28736,0.1194582,0.8182831,0.39824677,-0.51826173,-0.3079834,0.23895264,100.0
28737,-0.18145943,0.33813477,0.10880661,-0.51826173,-0.3079834,0.23895264,100.0
28738,-0.18145943,0.33813477,0.10880661,-0.14868164,-0.18479005,0.14337158,100.0
28739,-0.42542887,-0.047225952,0.08597183,-0.14868164,-0.18479005,0.14337158,100.0
28740,-0.42542887,-0.047225952,0.08597183,-0.3717041,-0.30373535,-0.021240234,100.0
28741,-0.2761097,-0.17027283,-0.037265778,-0.3717041,-0.30373535,-0.021240234,100.0
28742,-0.2761097,-0.17027283,-0.037265778,-0.37595215,-0.1901001,-0.16461182,100.0
28743,0.0850935,-0.20992279,-0.33816147,-0.37595215,-0.1901001,-0.16461182,100.0
28744,0.0850935,-0.20992279,-0.33816147,-0.4163086,-0.16142578,-0.15611573,100.0
28745,0.41021347,-0.32356262,-0.6448822,-0.4163086,-0.16142578,-0.15611573,100.0
28746,0.41021347,-0.32356262,-0.6448822,-0.059472658,0.083898924,-0.13487549,100.0
28747,0.4849701,-0.36954498,-0.5994644,-0.059472658,0.083898924,-0.13487549,100.0
28748,0.4849701,-0.36954498,-0.5994644,0.12531738,0.20072022,-0.10620117,100.0
28749,0.33062744,-0.32844543,-0.42526245,0.12531738,0.20072022,-0.10620117,100.0
28750,0.33062744,-0.32844543,-0.42526245,0.14655761,0.35895997,-0.22408448,100.0
28751,0.27283955,-0.52492523,-0.22187424,0.14655761,0.35895997,-0.22408448,100.0
28752,0.27283955,-0.52492523,-0.22187424,0.3993164,0.4970215,-0.19434814,100.0
28753,0.22143316,-0.4505539,0.27502823,0.3993164,0.4970215,-0.19434814,100.0
28754,0.22143316,-0.4505539,0.27502823,0.44179687,0.42161867,-0.15611573,100.0
28755,0.083127975,0.24071503,0.76467514,0.44179687,0.42161867,-0.15611573,100.0
28756,0.083127975,0.24071503,0.76467514,0.1274414,0.21452637,-0.078588866,100.0
28757,-0.030702114,0.7135086,0.60281754,0.1274414,0.21452637,-0.078588866,100.0
28758,-0.030702114,0.7135086,0.60281754,-0.10301514,0.16142578,-0.013806152,100.0
28759,0.016563416,0.26705933,-0.14318466,-0.10301514,0.16142578,-0.013806152,100.0
28760,0.016563416,0.26705933,-0.14318466,0.10089111,0.24532472,0.025488282,100.0
28761,0.1769104,-0.49100494,-0.6929054,0.10089111,0.24532472,0.025488282,100.0
28762,0.1769104,-0.49100494,-0.6929054,0.33665773,0.4163086,-0.0361084,100.0
28763,0.16372108,-0.5871506,-0.40068817,0.33665773,0.4163086,-0.0361084,100.0
28764,0.16372108,-0.5871506,-0.40068817,0.31010744,0.43754885,-0.035046387,100.0
28765,0.16372108,-0.5871506,-0.40068817,0.31010744,0.43754885,-0.035046387,100.0
28766,-0.03740692,-0.13719177,0.1549263,0.31010744,0.43754885,-0.035046387,100.0
28767,-0.03740692,-0.13719177,0.1549263,0.14230958,0.34090576,-0.07115479,100.0
28768,-0.11179829,0.20603943,0.2594757,0.14230958,0.34090576,-0.07115479,100.0
28769,-0.11179829,0.20603943,0.2594757,0.15823975,0.35789797,-0.016992187,100.0
28770,-0.07206774,0.23451996,0.15679932,0.15823975,0.35789797,-0.016992187,100.0
28771,-0.07206774,0.23451996,0.15679932,0.098767094,0.3154175,-0.010620117,100.0
28772,0.003698349,0.061271667,0.09712982,0.098767094,0.3154175,-0.010620117,100.0
28773,0.003698349,0.061271667,0.09712982,0.07646485,0.2888672,-0.03079834,100.0
28774,0.1364789,-0.06763458,-0.027973175,0.07646485,0.2888672,-0.03079834,100.0
28775,0.1364789,-0.06763458,-0.027973175,0.021240234,0.26125488,-0.027612304,100.0
28776,0.18327951,0.0362854,-0.14349747,0.021240234,0.26125488,-0.027612304,100.0
28777,0.18327951,0.0362854,-0.14349747,0.008496094,0.28674316,-0.010620117,100.0
28778,0.092912674,0.1383667,-0.14147186,0.008496094,0.28674316,-0.010620117,100.0
28779,0.092912674,0.1383667,-0.14147186,-0.029736329,0.27718505,0.0,100.0
28780,0.012073994,0.048355103,-0.15856552,-0.029736329,0.27718505,0.0,100.0
28781,0.012073994,0.048355103,-0.15856552,0.039294433,0.32709962,0.021240234,100.0
28782,0.023953915,-0.12827301,-0.10437775,0.039294433,0.32709962,0.021240234,100.0
28783,0.023953915,-0.12827301,-0.10437775,0.1083252,0.3175415,0.020178223,100.0
28784,0.038889885,-0.17720032,-0.014713287,0.1083252,0.3175415,0.020178223,100.0
28785,0.038889885,-0.17720032,-0.014713287,0.1083252,0.271875,-0.022302246,100.0
28786,0.112764835,-0.011734009,-0.089710236,0.1083252,0.271875,-0.022302246,100.0
28787,0.112764835,-0.011734009,-0.089710236,0.13275146,0.32709962,-0.0180542,100.0
28788,0.20278502,0.09288025,-0.20888901,0.13275146,0.32709962,-0.0180542,100.0
28789,0.20278502,0.09288025,-0.20888901,0.1539917,0.3706421,0.013806152,100.0
28790,0.11228943,-0.02103424,-0.09928894,0.1539917,0.3706421,0.013806152,100.0
28791,0.11228943,-0.02103424,-0.09928894,0.21346436,0.34833986,0.0180542,100.0
28792,-0.029028416,-0.009017944,0.01574707,0.21346436,0.34833986,0.0180542,100.0
28793,-0.029028416,-0.009017944,0.01574707,0.21452637,0.362146,0.016992187,100.0
28794,0.06791496,0.2144165,-0.10928726,0.21452637,0.362146,0.016992187,100.0
28795,0.06791496,0.2144165,-0.10928726,0.29736328,0.4364868,0.14230958,100.0
28796,0.22671986,0.15362549,-0.16688538,0.29736328,0.4364868,0.14230958,100.0
28797,0.22671986,0.15362549,-0.16688538,0.37595215,0.4630371,0.16461182,100.0
28798,0.14609766,-0.16524506,0.065258026,0.37595215,0.4630371,0.16461182,100.0
28799,0.14609766,-0.16524506,0.065258026,0.32072756,0.38869628,0.08920898,100.0
28800,-0.04363203,-0.24264526,0.24380875,0.32072756,0.38869628,0.08920898,100.0
28801,-0.04363203,-0.24264526,0.24380875,0.26125488,0.31966552,0.06903076,100.0
28802,-0.038128376,-0.10418701,0.18138885,0.26125488,0.31966552,0.06903076,100.0
28803,-0.038128376,-0.10418701,0.18138885,0.26444092,0.30479738,0.08496094,100.0
28804,0.116909504,-0.05306244,0.15067673,0.26444092,0.30479738,0.08496094,100.0
28805,0.116909504,-0.05306244,0.15067673,0.19222413,0.21983643,0.06478272,100.0
28806,0.2169652,-0.13864136,0.15258408,0.19222413,0.21983643,0.06478272,100.0
28807,0.2169652,-0.13864136,0.15258408,0.11151123,0.13062744,0.04141846,100.0
28808,0.22164345,-0.18275452,0.0014839172,0.11151123,0.13062744,0.04141846,100.0
28809,0.22164345,-0.18275452,0.0014839172,0.13168946,0.14124756,0.06159668,100.0
28810,0.13671398,-0.13346863,-0.08860779,0.13168946,0.14124756,0.06159668,100.0
28811,0.13671398,-0.13346863,-0.08860779,0.12000733,0.1263794,0.07115479,100.0
28812,0.08861923,-0.02909851,-0.10020828,0.12000733,0.1263794,0.07115479,100.0
28813,0.08861923,-0.02909851,-0.10020828,0.10407715,0.12213135,0.083898924,100.0
28814,0.13431072,0.077941895,-0.18646622,0.10407715,0.12213135,0.083898924,100.0
28815,0.13431072,0.077941895,-0.18646622,0.13487549,0.16779785,0.14549561,100.0
28816,0.13012934,0.072776794,-0.25331116,0.13487549,0.16779785,0.14549561,100.0
28817,0.13012934,0.072776794,-0.25331116,0.14549561,0.20390625,0.16248779,100.0
28818,0.059731007,-0.069877625,-0.24263763,0.14549561,0.20390625,0.16248779,100.0
28819,0.059731007,-0.069877625,-0.24263763,0.22196046,0.24638672,0.14761963,100.0
28820,0.39039946,-0.46483612,0.1565628,0.22196046,0.24638672,0.14761963,100.0
28821,0.39039946,-0.46483612,0.1565628,0.27506104,0.35895997,0.10620117,100.0
28822,1.2796044,-1.703682,0.48799515,0.27506104,0.35895997,0.10620117,100.0
28823,1.2796044,-1.703682,0.48799515,0.2623169,0.20921631,-0.13275146,100.0
28824,2.2438374,-2.7739716,0.41730118,0.2623169,0.20921631,-0.13275146,100.0
28825,2.2438374,-2.7739716,0.41730118,0.41524658,0.7104859,-0.057348635,100.0
28826,1.9872332,-1.5251617,-0.017734528,0.41524658,0.7104859,-0.057348635,100.0
28827,1.9872332,-1.5251617,-0.017734528,0.6818115,0.6531372,-0.32391357,100.0
28828,0.16428614,1.4643173,-0.42882156,0.6818115,0.6531372,-0.32391357,100.0
28829,0.16428614,1.4643173,-0.42882156,0.34833986,0.5097656,0.07752686,100.0
28830,-1.7254438,3.0932465,-0.15042877,0.34833986,0.5097656,0.07752686,100.0
28831,-1.7254438,3.0932465,-0.15042877,0.0180542,0.3717041,0.24213867,100.0
28832,-2.5651574,2.2042236,0.1330986,0.0180542,0.3717041,0.24213867,100.0
28833,-2.5651574,2.2042236,0.1330986,0.032922365,0.2262085,0.20284425,100.0
28834,-2.1551533,0.7559204,0.13101578,0.032922365,0.2262085,0.20284425,100.0
28835,-2.1551533,0.7559204,0.13101578,-0.06478272,-0.010620117,0.05522461,100.0
28836,-1.0222182,0.03981781,-0.13031769,-0.06478272,-0.010620117,0.05522461,100.0
28837,-1.0222182,0.03981781,-0.13031769,-0.19222413,-0.08283692,0.0010620117,100.0
28838,0.041319847,-0.28044128,-0.48101044,-0.19222413,-0.08283692,0.0010620117,100.0
28839,0.041319847,-0.28044128,-0.48101044,-0.07752686,0.009558106,-0.03079834,100.0
28840,0.65277004,-0.6627579,-0.3449402,-0.07752686,0.009558106,-0.03079834,100.0
28841,0.65277004,-0.6627579,-0.3449402,0.0180542,0.03079834,-0.057348635,100.0
28842,0.8421259,-0.856308,0.15522385,0.0180542,0.03079834,-0.057348635,100.0
28843,0.8421259,-0.856308,0.15522385,-0.022302246,-0.011682129,-0.08920898,100.0
28844,0.6858711,-0.4385376,0.24713898,-0.022302246,-0.011682129,-0.08920898,100.0
28845,0.6858711,-0.4385376,0.24713898,-0.045666505,-0.0180542,-0.06478272,100.0
28846,0.18373108,0.2958603,0.030097961,-0.045666505,-0.0180542,-0.06478272,100.0
28847,0.18373108,0.2958603,0.030097961,-0.107263185,-0.08283692,-0.022302246,100.0
28848,-0.5027952,0.88583374,-0.045146942,-0.107263185,-0.08283692,-0.022302246,100.0
28849,-0.5027952,0.88583374,-0.045146942,-0.24638672,-0.18903808,0.032922365,100.0
28850,-0.8537741,0.99430084,-0.17398453,-0.24638672,-0.18903808,0.032922365,100.0
28851,-0.8537741,0.99430084,-0.17398453,-0.33240968,-0.20496826,0.0637207,100.0
28852,-0.6959586,0.55744934,-0.28707504,-0.33240968,-0.20496826,0.0637207,100.0
28853,-0.6959586,0.55744934,-0.28707504,-0.2824951,-0.1901001,0.0541626,100.0
28854,-0.22945976,-0.08907318,-0.1837616,-0.2824951,-0.1901001,0.0541626,100.0
28855,-0.22945976,-0.08907318,-0.1837616,-0.2262085,-0.19541016,0.012744141,100.0
28856,0.26917887,-0.34770966,0.069480896,-0.2262085,-0.19541016,0.012744141,100.0
28857,0.26917887,-0.34770966,0.069480896,-0.32922363,-0.17735596,0.008496094,100.0
28858,0.53799915,-0.14706421,0.17661667,-0.32922363,-0.17735596,0.008496094,100.0
28859,0.53799915,-0.14706421,0.17661667,-0.49489745,-0.15611573,0.040356446,100.0
28860,0.4852457,0.11824036,0.06481552,-0.49489745,-0.15611573,0.040356446,100.0
28861,0.4852457,0.11824036,0.06481552,-0.4980835,-0.09664307,0.107263185,100.0
28862,0.21043777,0.4427719,0.19955826,-0.4980835,-0.09664307,0.107263185,100.0
28863,0.21043777,0.4427719,0.19955826,-0.7147339,-0.043542482,0.08814698,100.0
28864,0.084609985,1.049881,0.7775421,-0.7147339,-0.043542482,0.08814698,100.0
28865,0.084609985,1.049881,0.7775421,-1.359375,0.19116211,-0.026550293,100.0
28866,0.23966074,1.6634979,1.5369263,-1.359375,0.19116211,-0.026550293,100.0
28867,0.23966074,1.6634979,1.5369263,-2.5594482,0.7943848,-0.4163086,100.0
28868,0.45375252,2.0417938,2.111843,-2.5594482,0.7943848,-0.4163086,100.0
28869,0.45375252,2.0417938,2.111843,-3.799878,1.4124756,-0.78164065,100.0
28870,0.7011738,2.551773,1.7659988,-3.799878,1.4124756,-0.78164065,100.0
28871,0.7011738,2.551773,1.7659988,-5.248462,1.7809937,-1.2117554,100.0
28872,0.88526773,2.4068375,0.08734894,-5.248462,1.7809937,-1.2117554,100.0
28873,0.88526773,2.4068375,0.08734894,-5.528833,1.7565674,-1.1193603,100.0
28874,0.850585,1.0033379,-2.102314,-5.528833,1.7565674,-1.1193603,100.0
28875,0.850585,1.0033379,-2.102314,-4.517798,1.6046997,-0.88996583,100.0
28876,0.52797794,-0.678566,-3.328907,-4.517798,1.6046997,-0.88996583,100.0
28877,0.52797794,-0.678566,-3.328907,-3.1339967,1.2351197,-0.43754885,100.0
28878,-0.25741482,-1.8154373,-2.809513,-3.1339967,1.2351197,-0.43754885,100.0
28879,-0.25741482,-1.8154373,-2.809513,-1.8489624,0.68712157,0.12000733,100.0
28880,-0.25741482,-1.8154373,-2.809513,-1.8489624,0.68712157,0.12000733,101.0
28881,-1.3329091,-2.4688034,-1.5027504,-1.8489624,0.68712157,0.12000733,101.0
28882,-1.3329091,-2.4688034,-1.5027504,-0.2803711,-0.8602295,1.0397094,101.0
28883,-1.1615419,-2.517723,-0.3316574,-0.2803711,-0.8602295,1.0397094,101.0
28884,-1.1615419,-2.517723,-0.3316574,0.45878908,-1.4942505,0.6531372,101.0
28885,0.08363247,-0.6349411,0.869133,0.45878908,-1.4942505,0.6531372,101.0
28886,0.08363247,-0.6349411,0.869133,-1.2818482,-0.8857178,-0.059472658,101.0
28887,0.5075922,1.5511627,1.7698784,-1.2818482,-0.8857178,-0.059472658,101.0
28888,0.5075922,1.5511627,1.7698784,-1.9519776,-1.0301514,0.11363526,101.0
28889,0.3773508,1.9170456,2.0758133,-1.9519776,-1.0301514,0.11363526,101.0
28890,0.3773508,1.9170456,2.0758133,-2.1973023,-1.1905152,0.14230958,101.0
28891,0.30048943,1.5266037,2.1349678,-2.1973023,-1.1905152,0.14230958,101.0
28892,0.30048943,1.5266037,2.1349678,-2.8302612,-1.3253907,0.68499756,101.0
28893,0.38221264,0.5345154,1.6657257,-2.8302612,-1.3253907,0.68499756,101.0
28894,0.38221264,0.5345154,1.6657257,-2.9194703,-1.351941,1.1607789,101.0
28895,0.59872675,-0.8720856,0.35562515,-2.9194703,-1.351941,1.1607789,101.0
28896,0.59872675,-0.8720856,0.35562515,-2.9608886,-0.6467652,0.6510132,101.0
28897,0.7024555,-1.6434937,-0.6151352,-2.9608886,-0.6467652,0.6510132,101.0
28898,0.7024555,-1.6434937,-0.6151352,-2.3927124,0.21558838,-0.08283692,101.0
28899,0.45059967,-1.452713,-0.53235626,-2.3927124,0.21558838,-0.08283692,101.0
28900,0.45059967,-1.452713,-0.53235626,-1.450708,0.7848267,-0.2899292,101.0
28901,-0.455853,-0.5155487,-0.0615654,-1.450708,0.7848267,-0.2899292,101.0
28902,-0.455853,-0.5155487,-0.0615654,-1.083252,0.9759888,-0.44710693,101.0
28903,-1.455051,0.66483307,0.25008774,-1.083252,0.9759888,-0.44710693,101.0
28904,-1.455051,0.66483307,0.25008774,-1.1469727,1.0981201,-0.20284425,101.0
28905,-1.7972069,0.6761322,0.46823502,-1.1469727,1.0981201,-0.20284425,101.0
28906,-1.7972069,0.6761322,0.46823502,-1.5579712,1.270166,-0.17416993,101.0
28907,-1.9203458,-0.8022232,0.61452866,-1.5579712,1.270166,-0.17416993,101.0
28908,-1.9203458,-0.8022232,0.61452866,-0.73809814,1.0513916,-0.39400634,101.0
28909,-2.2499728,-1.8579788,0.52085876,-0.73809814,1.0513916,-0.39400634,101.0
28910,-2.2499728,-1.8579788,0.52085876,-0.083898924,0.70198977,-0.18160401,101.0
28911,-2.383975,-1.5863495,0.41580963,-0.083898924,0.70198977,-0.18160401,101.0
28912,-2.383975,-1.5863495,0.41580963,0.081774905,0.3791382,0.09451904,101.0
28913,-2.0730982,-1.0132446,0.40148163,0.081774905,0.3791382,0.09451904,101.0
28914,-2.0730982,-1.0132446,0.40148163,0.21877442,-0.04460449,0.18372802,101.0
28915,-1.4872875,-0.91420746,0.32462692,0.21877442,-0.04460449,0.18372802,101.0
28916,-1.4872875,-0.91420746,0.32462692,1.1225464,-0.6510132,0.057348635,101.0
28917,-0.9056263,-0.6013031,0.14701843,1.1225464,-0.6510132,0.057348635,101.0
28918,-0.9056263,-0.6013031,0.14701843,1.2244996,-1.1257324,0.19222413,101.0
28919,-0.4379902,0.12638855,-0.15965652,1.2244996,-1.1257324,0.19222413,101.0
28920,-0.4379902,0.12638855,-0.15965652,1.1448487,-1.3030884,0.023364259,101.0
28921,-0.06727409,0.7723923,-0.49840546,1.1448487,-1.3030884,0.023364259,101.0
28922,-0.06727409,0.7723923,-0.49840546,1.3614991,-1.4220337,-0.23151855,101.0
28923,0.16438103,1.4876556,-0.5144577,1.3614991,-1.4220337,-0.23151855,101.0
28924,0.16438103,1.4876556,-0.5144577,1.2627319,-1.5346069,-0.5214478,101.0
28925,0.34733772,2.0639877,-0.31623077,1.2627319,-1.5346069,-0.5214478,101.0
28926,0.34733772,2.0639877,-0.31623077,1.1968873,-1.7119629,-0.6966797,101.0
28927,0.69270134,2.0907898,-0.55545044,1.1968873,-1.7119629,-0.6966797,101.0
28928,0.69270134,2.0907898,-0.55545044,0.81031495,-1.7034668,-0.79226077,101.0
28929,1.3256092,1.640007,-1.4283447,0.81031495,-1.7034668,-0.79226077,101.0
28930,1.3256092,1.640007,-1.4283447,0.31860352,-0.86766356,-1.2967163,101.0
28931,3.1768084,1.4376068,-1.8040047,0.31860352,-0.86766356,-1.2967163,101.0
28932,3.1768084,1.4376068,-1.8040047,-0.04885254,2.351294,-1.7278931,101.0
28933,3.4992714,1.2839966,0.33488464,-0.04885254,2.351294,-1.7278931,101.0
28934,3.4992714,1.2839966,0.33488464,-0.37595215,0.90058595,0.023364259,101.0
28935,1.7856598,-0.62786865,1.7481194,-0.37595215,0.90058595,0.023364259,101.0
28936,1.7856598,-0.62786865,1.7481194,0.5957886,0.67225343,-0.43861085,101.0
28937,1.4240236,-3.7890854,-0.4533844,0.5957886,0.67225343,-0.43861085,101.0
28938,1.4240236,-3.7890854,-0.4533844,2.8833618,0.37489015,-0.35683593,101.0
28939,0.31137466,-3.7879105,-1.6388664,2.8833618,0.37489015,-0.35683593,101.0
28940,0.31137466,-3.7879105,-1.6388664,3.429236,-1.083252,-0.5809204,101.0
28941,-2.5227757,-1.3749542,-0.22996521,3.429236,-1.083252,-0.5809204,101.0
28942,-2.5227757,-1.3749542,-0.22996521,4.8470216,-3.0639038,-0.61065674,101.0
28943,-3.7178545,-0.88266754,0.24576569,4.8470216,-3.0639038,-0.61065674,101.0
28944,-3.7178545,-0.88266754,0.24576569,6.4888916,-4.1195436,-1.0471436,101.0
28945,-2.3421059,-1.5784988,-0.6066208,6.4888916,-4.1195436,-1.0471436,101.0
28946,-2.3421059,-1.5784988,-0.6066208,7.614624,-4.2990236,-2.3587282,101.0
28947,2.2411714,2.048088,2.1744576,7.614624,-4.2990236,-2.3587282,101.0
28948,2.2411714,2.048088,2.1744576,1.635498,2.083667,-1.910559,101.0
28949,3.3064747,5.528473,5.1152153,1.635498,2.083667,-1.910559,101.0
28950,3.3064747,5.528473,5.1152153,1.1512207,-0.903772,-0.021240234,101.0
28951,1.431056,4.7522736,2.4905624,1.1512207,-0.903772,-0.021240234,101.0
