,accx,accy,accz,gyrox,gyroy,gyroz,heart rate
20917,open,open,open,open,open,open,open
20918,-0.8677559,-0.51711273,0.03169632,-0.18691407,0.28674316,0.5256958,148.0
20919,-0.67270803,-0.41693878,0.038661957,-0.18691407,0.28674316,0.5256958,148.0
20920,-0.67270803,-0.41693878,0.038661957,-0.07965088,0.057348635,0.1263794,148.0
20921,1.2112598,-1.6137772,1.4631195,-0.07965088,0.057348635,0.1263794,148.0
20922,1.2112598,-1.6137772,1.4631195,-0.038232423,0.039294433,0.16036378,148.0
20923,1.06465,-1.5000191,1.1239624,-0.038232423,0.039294433,0.16036378,148.0
20924,1.06465,-1.5000191,1.1239624,-0.020178223,0.027612304,0.18903808,148.0
20925,0.9436269,-1.2643471,0.97968674,-0.020178223,0.027612304,0.18903808,148.0
20926,0.9436269,-1.2643471,0.97968674,-0.03717041,0.0180542,0.22089843,148.0
20927,0.9436269,-1.2643471,0.97968674,-0.052038576,0.014868164,0.23258057,148.0
20928,0.85007954,-1.0074883,0.86372757,-0.052038576,0.014868164,0.23258057,148.0
20929,0.79192877,-0.8409653,0.75736237,-0.052038576,0.014868164,0.23258057,148.0
20930,0.79192877,-0.8409653,0.75736237,-0.038232423,0.0180542,0.24532472,148.0
20931,0.72891665,-0.69607544,0.635746,-0.038232423,0.0180542,0.24532472,148.0
20932,0.72891665,-0.69607544,0.635746,-0.052038576,0.028674318,0.22727051,148.0
20933,0.651505,-0.46412277,0.5215454,-0.052038576,0.028674318,0.22727051,148.0
20934,0.651505,-0.46412277,0.5215454,-0.10089111,0.028674318,0.20284425,148.0
20935,0.6066289,-0.2739334,0.4492073,-0.10089111,0.028674318,0.20284425,148.0
20936,0.6066289,-0.2739334,0.4492073,-0.1444336,0.04460449,0.19222413,148.0
20937,0.5722413,-0.2513237,0.42009354,-0.1444336,0.04460449,0.19222413,148.0
20938,0.5722413,-0.2513237,0.42009354,-0.16567384,0.07434082,0.16885987,148.0
20939,0.48247528,-0.3321228,0.4001999,-0.16567384,0.07434082,0.16885987,148.0
20940,0.48247528,-0.3321228,0.4001999,-0.11682129,0.081774905,0.14230958,148.0
20941,0.39564848,-0.37060547,0.36863327,-0.11682129,0.081774905,0.14230958,148.0
20942,0.39564848,-0.37060547,0.36863327,-0.070092775,0.08814698,0.14549561,148.0
20943,0.3269801,-0.27435303,0.31983185,-0.070092775,0.08814698,0.14549561,148.0
20944,0.3269801,-0.27435303,0.31983185,-0.078588866,0.09451904,0.12319336,148.0
20945,0.3269801,-0.27435303,0.31983185,-0.118945315,0.08283692,0.1178833,148.0
20946,0.26329327,-0.10115814,0.28193665,-0.118945315,0.08283692,0.1178833,148.0
20947,0.23401117,-0.019744873,0.25321198,-0.118945315,0.08283692,0.1178833,148.0
20948,0.23401117,-0.019744873,0.25321198,-0.11682129,0.07540283,0.11363526,148.0
20949,0.24411821,-0.054237366,0.2193451,-0.11682129,0.07540283,0.11363526,148.0
20950,0.24411821,-0.054237366,0.2193451,-0.090270996,0.07752686,0.10089111,148.0
20951,0.25094652,-0.09337616,0.18167496,-0.090270996,0.07752686,0.10089111,148.0
20952,0.25094652,-0.09337616,0.18167496,-0.046728518,0.070092775,0.0998291,148.0
20953,0.25094652,-0.09337616,0.18167496,-0.04248047,0.06478272,0.087084964,148.0
20954,0.22448778,-0.05554962,0.13794327,-0.04248047,0.06478272,0.087084964,148.0
20955,0.17491484,-0.01750946,0.06610489,-0.04248047,0.06478272,0.087084964,148.0
20956,0.17491484,-0.01750946,0.06610489,0.0063720704,0.045666505,0.07965088,148.0
20957,0.121035576,-0.028812408,-0.024902344,0.0063720704,0.045666505,0.07965088,148.0
20958,0.121035576,-0.028812408,-0.024902344,0.04248047,0.039294433,0.058410645,148.0
20959,0.07163286,-0.006729126,-0.07783127,0.04248047,0.039294433,0.058410645,148.0
20960,0.07163286,-0.006729126,-0.07783127,0.04885254,0.014868164,0.045666505,148.0
20961,0.03889799,0.06890869,-0.10997009,0.04885254,0.014868164,0.045666505,148.0
20962,0.03889799,0.06890869,-0.10997009,-0.013806152,0.011682129,0.043542482,148.0
20963,-0.009323597,0.095047,-0.15446854,-0.013806152,0.011682129,0.043542482,148.0
20964,-0.009323597,0.095047,-0.15446854,-0.057348635,-0.012744141,0.050976563,148.0
20965,-0.06701708,0.031600952,-0.18727112,-0.057348635,-0.012744141,0.050976563,148.0
20966,-0.06701708,0.031600952,-0.18727112,-0.050976563,-0.035046387,0.053100586,148.0
20967,-0.08210468,-0.020275116,-0.18167877,-0.050976563,-0.035046387,0.053100586,148.0
20968,-0.08210468,-0.020275116,-0.18167877,-0.059472658,-0.022302246,0.090270996,148.0
20969,-0.13067389,-0.03268814,-0.1921463,-0.059472658,-0.022302246,0.090270996,148.0
20970,-0.13067389,-0.03268814,-0.1921463,-0.06690674,-0.040356446,0.124255374,148.0
20971,-0.22443676,-0.070178986,-0.21146774,-0.06690674,-0.040356446,0.124255374,148.0
20972,-0.22443676,-0.070178986,-0.21146774,-0.07965088,-0.08920898,0.13487549,148.0
20973,-0.20320702,-0.107681274,-0.22904968,-0.07965088,-0.08920898,0.13487549,148.0
20974,-0.20320702,-0.107681274,-0.22904968,-0.090270996,-0.13912354,-0.023364259,148.0
20975,-0.06183338,-0.034412384,-0.16152191,-0.090270996,-0.13912354,-0.023364259,148.0
20976,-0.06183338,-0.034412384,-0.16152191,-0.16036378,-0.16673584,0.07752686,148.0
20977,0.09356308,0.038398743,-0.037727356,-0.16036378,-0.16673584,0.07752686,148.0
20978,0.09356308,0.038398743,-0.037727356,-0.15080567,-0.18797608,0.057348635,148.0
20979,0.09356308,0.038398743,-0.037727356,-0.18797608,-0.20496826,-0.007434082,148.0
20980,0.2217989,0.08836365,0.070137024,-0.18797608,-0.20496826,-0.007434082,148.0
20981,0.35092545,0.19485092,0.09233856,-0.18797608,-0.20496826,-0.007434082,148.0
20982,0.35092545,0.19485092,0.09233856,-0.2516968,-0.22302246,-0.032922365,148.0
20983,0.43368196,0.30474472,-0.02342987,-0.2516968,-0.22302246,-0.032922365,148.0
20984,0.43368196,0.30474472,-0.02342987,-0.32816163,-0.19753419,-0.070092775,148.0
20985,0.34031725,0.42237473,-0.14915466,-0.32816163,-0.19753419,-0.070092775,148.0
20986,0.34031725,0.42237473,-0.14915466,-0.41843262,-0.22196046,-0.14655761,148.0
20987,0.16492939,0.50330734,-0.15677261,-0.41843262,-0.22196046,-0.14655761,148.0
20988,0.16492939,0.50330734,-0.15677261,-0.47365722,-0.26975098,-0.19328614,148.0
20989,0.04241705,0.5037689,-0.040431976,-0.47365722,-0.26975098,-0.19328614,148.0
20990,0.04241705,0.5037689,-0.040431976,-0.47365722,-0.3175415,-0.2347046,148.0
20991,-0.04570484,0.5261383,0.12911987,-0.47365722,-0.3175415,-0.2347046,148.0
20992,-0.04570484,0.5261383,0.12911987,-0.5278198,-0.37382814,-0.3345337,148.0
20993,-0.0836463,0.59924316,0.259655,-0.5278198,-0.37382814,-0.3345337,148.0
20994,-0.0836463,0.59924316,0.259655,-0.5713623,-0.41843262,-0.3791382,148.0
20995,-0.12176323,0.5839348,0.2803917,-0.5713623,-0.41843262,-0.3791382,148.0
20996,-0.12176323,0.5839348,0.2803917,-0.5628662,-0.44604492,-0.37807617,148.0
20997,-0.2729478,0.5138664,0.22864532,-0.5628662,-0.44604492,-0.37807617,148.0
20998,-0.2729478,0.5138664,0.22864532,-0.5299439,-0.4970215,-0.4056885,148.0
20999,-0.48973274,0.48848724,0.17402649,-0.5299439,-0.4970215,-0.4056885,148.0
21000,-0.48973274,0.48848724,0.17402649,-0.5235718,-0.5883545,-0.42905274,148.0
21001,-0.62744284,0.45586777,0.14367676,-0.5235718,-0.5883545,-0.42905274,148.0
21002,-0.62744284,0.45586777,0.14367676,-0.47365722,-0.6680054,-0.42905274,148.0
21003,-0.62833357,0.3795166,0.20061111,-0.47365722,-0.6680054,-0.42905274,148.0
21004,-0.62833357,0.3795166,0.20061111,-0.5150757,-0.7126099,-0.44498292,148.0
21005,-0.61960983,0.20918274,0.3170662,-0.5150757,-0.7126099,-0.44498292,148.0
21006,-0.61960983,0.20918274,0.3170662,-0.5957886,-0.72854006,-0.43861085,148.0
21007,-0.71719646,-0.07247543,0.41851807,-0.5957886,-0.72854006,-0.43861085,148.0
21008,-0.71719646,-0.07247543,0.41851807,-0.5235718,-0.72216797,-0.49064943,148.0
21009,-0.83207035,-0.3043785,0.52658844,-0.5235718,-0.72216797,-0.49064943,148.0
21010,-0.83207035,-0.3043785,0.52658844,-0.37595215,-0.7476563,-0.49277344,148.0
21011,-0.85152054,-0.3636093,0.69335175,-0.37595215,-0.7476563,-0.49277344,148.0
21012,-0.85152054,-0.3636093,0.69335175,-0.33240968,-0.7412842,-0.5065796,148.0
21013,-0.771719,-0.36058807,0.8988838,-0.33240968,-0.7412842,-0.5065796,148.0
21014,-0.771719,-0.36058807,0.8988838,-0.20284425,-0.7041138,-0.50020754,148.0
21015,-0.6667404,-0.45499802,1.0742455,-0.20284425,-0.7041138,-0.50020754,148.0
21016,-0.6667404,-0.45499802,1.0742455,-0.21558838,-0.65632325,-0.46834716,148.0
21017,-0.61398315,-0.69231796,1.0709801,-0.21558838,-0.65632325,-0.46834716,148.0
21018,-0.61398315,-0.69231796,1.0709801,-0.107263185,-0.64782715,-0.4343628,148.0
21019,-0.5619631,-0.9353943,0.83419037,-0.107263185,-0.64782715,-0.4343628,148.0
21020,-0.5619631,-0.9353943,0.83419037,-0.17629395,-0.65207523,-0.4800293,148.0
21021,-0.4027934,-1.0413933,0.47144318,-0.17629395,-0.65207523,-0.4800293,148.0
21022,-0.4027934,-1.0413933,0.47144318,-0.43011475,-0.631897,-0.47684327,148.0
21023,-0.14254713,-1.133934,0.13612747,-0.43011475,-0.631897,-0.47684327,148.0
21024,-0.14254713,-1.133934,0.13612747,-0.6425171,-0.64570314,-0.4980835,148.0
21025,0.18967295,-1.4278603,-0.096652985,-0.6425171,-0.64570314,-0.4980835,148.0
21026,0.18967295,-1.4278603,-0.096652985,-0.57242435,-0.72960204,-0.5278198,148.0
21027,0.59912586,-1.8579407,-0.36195374,-0.57242435,-0.72960204,-0.5278198,148.0
21028,0.59912586,-1.8579407,-0.36195374,-0.32072756,-0.9547486,-0.6403931,148.0
21029,1.1332922,-2.198475,-0.5872078,-0.32072756,-0.9547486,-0.6403931,148.0
21030,1.1332922,-2.198475,-0.5872078,-0.08602295,-1.1597168,-0.6446411,148.0
21031,1.7628231,-2.1732216,-0.6778374,-0.08602295,-1.1597168,-0.6446411,148.0
21032,1.7628231,-2.1732216,-0.6778374,0.16036378,-1.3200806,-0.5692383,148.0
21033,2.1926441,-1.700531,-0.7599449,0.16036378,-1.3200806,-0.5692383,148.0
21034,2.1926441,-1.700531,-0.7599449,-0.0063720704,-1.3699951,-0.452417,148.0
21035,2.3236346,-1.2835846,-0.85532,-0.0063720704,-1.3699951,-0.452417,148.0
21036,2.3236346,-1.2835846,-0.85532,0.3727661,-1.6185058,-0.32072756,148.0
21037,2.5756924,-0.96413803,-0.78806686,0.3727661,-1.6185058,-0.32072756,148.0
21038,2.5756924,-0.96413803,-0.78806686,0.75296634,-1.6429322,-0.21452637,148.0
21039,2.9356883,-0.69301605,-0.71193695,0.75296634,-1.6429322,-0.21452637,148.0
21040,2.9356883,-0.69301605,-0.71193695,0.44073486,-1.5473511,0.14868164,148.0
21041,2.7603793,-0.94291306,-1.0580139,0.44073486,-1.5473511,0.14868164,148.0
21042,2.7603793,-0.94291306,-1.0580139,0.5533081,-1.8468384,0.44923097,148.0
21043,2.3921049,-1.0675888,-1.5936279,0.5533081,-1.8468384,0.44923097,148.0
21044,2.3921049,-1.0675888,-1.5936279,1.0577637,-1.8277222,0.2984253,148.0
21045,2.601196,-0.3146782,-1.7276382,1.0577637,-1.8277222,0.2984253,148.0
21046,2.601196,-0.3146782,-1.7276382,1.0598878,-1.81604,0.4991455,148.0
21047,3.007617,0.3326912,-1.7267151,1.0598878,-1.81604,0.4991455,148.0
21048,3.007617,0.3326912,-1.7267151,1.1310425,-1.7332032,0.6064087,148.0
21049,3.1420312,0.53154755,-1.8792877,1.1310425,-1.7332032,0.6064087,148.0
21050,3.1420312,0.53154755,-1.8792877,0.9366943,-1.5101807,0.37701416,148.0
21051,3.0497212,0.8874321,-1.8950081,0.9366943,-1.5101807,0.37701416,148.0
21052,3.0497212,0.8874321,-1.8950081,0.13912354,-1.3381348,0.48321533,148.0
21053,2.7311954,1.0816116,-1.7376251,0.13912354,-1.3381348,0.48321533,148.0
21054,2.7311954,1.0816116,-1.7376251,-0.6403931,-1.1597168,0.5097656,148.0
21055,2.2241533,0.8407898,-1.4931755,-0.6403931,-1.1597168,0.5097656,148.0
21056,2.2241533,0.8407898,-1.4931755,-1.2786621,-0.8952759,0.52250975,148.0
21057,1.7622328,0.5837517,-1.2817993,-1.2786621,-0.8952759,0.52250975,148.0
21058,1.7622328,0.5837517,-1.2817993,-1.6737305,-0.79226077,0.5097656,148.0
21059,0.9327965,1.6200294,-0.81534576,-1.6737305,-0.79226077,0.5097656,148.0
21060,0.9327965,1.6200294,-0.81534576,-4.489124,-0.038232423,-0.09451904,148.0
21061,0.91475534,1.9089279,0.47907257,-4.489124,-0.038232423,-0.09451904,148.0
21062,0.91475534,1.9089279,0.47907257,-5.978064,0.4364868,0.5214478,148.0
21063,0.116692066,-0.2847252,2.7615166,-5.978064,0.4364868,0.5214478,148.0
21064,0.116692066,-0.2847252,2.7615166,-5.505469,1.357251,0.18266602,148.0
21065,-0.55120206,-2.290596,3.591732,-5.505469,1.357251,0.18266602,148.0
21066,-0.55120206,-2.290596,3.591732,-3.8561647,1.3147706,0.03186035,148.0
21067,-2.1196847,-5.573517,5.825218,-3.8561647,1.3147706,0.03186035,148.0
21068,-2.1196847,-5.573517,5.825218,-1.2096313,1.0312134,0.13699952,148.0
21069,-2.1574667,-4.126892,5.7441483,-1.2096313,1.0312134,0.13699952,148.0
21070,-2.1574667,-4.126892,5.7441483,-1.9392334,0.82730716,-0.1178833,148.0
21071,-2.206088,-0.52547455,3.9078789,-1.9392334,0.82730716,-0.1178833,148.0
21072,-2.206088,-0.52547455,3.9078789,-3.1265626,0.29523927,0.014868164,148.0
21073,-1.5713402,-0.46710968,2.0921364,-3.1265626,0.29523927,0.014868164,148.0
21074,-1.5713402,-0.46710968,2.0921364,-2.617859,0.3695801,-0.02442627,148.0
21075,-0.6065595,-1.8641548,-0.49119568,-2.617859,0.3695801,-0.02442627,148.0
21076,-0.6065595,-1.8641548,-0.49119568,-1.4379638,0.38551027,0.12850343,148.0
21077,-0.4736876,-1.9678497,0.029689789,-1.4379638,0.38551027,0.12850343,148.0
21078,-0.4736876,-1.9678497,0.029689789,-1.4804443,0.34940186,0.15611573,148.0
21079,-0.59236556,-1.9745636,1.3139877,-1.4804443,0.34940186,0.15611573,148.0
21080,-0.59236556,-1.9745636,1.3139877,-1.3944215,0.40462646,0.12850343,148.0
21081,-0.7820834,-2.079483,1.8682556,-1.3944215,0.40462646,0.12850343,148.0
21082,-0.7820834,-2.079483,1.8682556,-1.270166,0.2984253,0.1274414,148.0
21083,-0.6395217,-2.443985,1.5327644,-1.270166,0.2984253,0.1274414,148.0
21084,-0.6395217,-2.443985,1.5327644,-0.68712157,0.3982544,0.0722168,148.0
21085,-0.45237663,-1.9785309,1.2951927,-0.68712157,0.3982544,0.0722168,148.0
21086,-0.45237663,-1.9785309,1.2951927,-0.5065796,0.32922363,0.10195313,148.0
21087,-0.37705022,-1.2662354,1.0549889,-0.5065796,0.32922363,0.10195313,148.0
21088,-0.37705022,-1.2662354,1.0549889,-0.65207523,0.10195313,0.118945315,148.0
21089,-0.35489947,-0.99827576,0.74108505,-0.65207523,0.10195313,0.118945315,148.0
21090,-0.35489947,-0.99827576,0.74108505,-0.7338501,0.28780517,0.16354981,148.0
21091,-0.19656606,-1.3267136,0.5289879,-0.7338501,0.28780517,0.16354981,148.0
21092,-0.19656606,-1.3267136,0.5289879,-0.6467652,0.23045655,0.09133301,148.0
21093,-0.22168157,-1.3910599,0.5639267,-0.6467652,0.23045655,0.09133301,148.0
21094,-0.22168157,-1.3910599,0.5639267,-0.7954468,0.18691407,0.07965088,148.0
21095,-0.37191314,-1.446434,1.0943794,-0.7954468,0.18691407,0.07965088,148.0
21096,-0.37191314,-1.446434,1.0943794,-0.8623535,0.12850343,0.052038576,148.0
21097,-0.3620935,-1.0580292,1.1283951,-0.8623535,0.12850343,0.052038576,148.0
21098,-0.3620935,-1.0580292,1.1283951,-0.81668705,0.08920898,0.020178223,148.0
21099,-0.4481465,-0.5960083,0.9429741,-0.81668705,0.08920898,0.020178223,148.0
21100,-0.4481465,-0.5960083,0.9429741,-0.6159668,0.08496094,-0.050976563,148.0
21101,-0.5593107,-0.55135345,0.5056839,-0.6159668,0.08496094,-0.050976563,148.0
21102,-0.5593107,-0.55135345,0.5056839,-0.55755615,0.040356446,-0.052038576,148.0
21103,-0.505139,-0.55781555,0.30477905,-0.55755615,0.040356446,-0.052038576,148.0
21104,-0.505139,-0.55781555,0.30477905,-0.3164795,-0.05628662,0.0,148.0
21105,-0.18000233,-0.41402435,0.4021721,-0.3164795,-0.05628662,0.0,148.0
21106,-0.18000233,-0.41402435,0.4021721,0.038232423,-0.07540283,-0.0010620117,148.0
21107,0.18428183,-0.31687927,0.49082947,0.038232423,-0.07540283,-0.0010620117,148.0
21108,0.18428183,-0.31687927,0.49082947,0.47578126,-0.14230958,-0.0063720704,148.0
21109,0.30876583,-0.42801666,0.21866608,0.47578126,-0.14230958,-0.0063720704,148.0
21110,0.30876583,-0.42801666,0.21866608,0.38975832,-0.29099122,-0.07115479,148.0
21111,0.14653659,-0.4933319,-0.23422241,0.38975832,-0.29099122,-0.07115479,148.0
21112,0.14653659,-0.4933319,-0.23422241,0.2347046,-0.3355957,-0.17735596,148.0
21113,0.023418248,-0.26094055,-0.4504776,0.2347046,-0.3355957,-0.17735596,148.0
21114,0.023418248,-0.26094055,-0.4504776,0.15080567,-0.3971924,-0.20390625,148.0
21115,0.13118577,0.14794922,-0.48573303,0.15080567,-0.3971924,-0.20390625,148.0
21116,0.13118577,0.14794922,-0.48573303,0.32603762,-0.38869628,-0.21452637,148.0
21117,0.23820058,0.6225586,-0.48299408,0.32603762,-0.38869628,-0.21452637,148.0
21118,0.23820058,0.6225586,-0.48299408,0.7104859,-0.2527588,-0.24638672,148.0
21119,0.13814345,0.9578247,-0.6139107,0.7104859,-0.2527588,-0.24638672,148.0
21120,0.13814345,0.9578247,-0.6139107,0.82836914,-0.040356446,-0.29630128,148.0
21121,-0.11439979,0.9135361,-0.9279938,0.82836914,-0.040356446,-0.29630128,148.0
21122,-0.11439979,0.9135361,-0.9279938,0.7975708,0.05628662,-0.2538208,148.0
21123,-0.28625858,0.5875168,-1.1133804,0.7975708,0.05628662,-0.2538208,148.0
21124,-0.28625858,0.5875168,-1.1133804,0.6860596,0.107263185,-0.1996582,148.0
21125,-0.1660552,0.27340698,-0.88700485,0.6860596,0.107263185,-0.1996582,148.0
21126,-0.1660552,0.27340698,-0.88700485,0.6966797,0.19222413,-0.2177124,148.0
21127,0.20669442,0.23187256,-0.328022,0.6966797,0.19222413,-0.2177124,148.0
21128,0.20669442,0.23187256,-0.328022,0.77314454,0.18266602,-0.31010744,148.0
21129,0.5252799,0.33455658,0.13835144,0.77314454,0.18266602,-0.31010744,148.0
21130,0.5252799,0.33455658,0.13835144,0.724292,0.16354981,-0.36320803,148.0
21131,0.4411956,0.41587067,0.28918457,0.724292,0.16354981,-0.36320803,148.0
21132,0.4411956,0.41587067,0.28918457,0.66588134,0.124255374,-0.45772704,148.0
21133,-0.037802786,0.8436127,0.2325325,0.66588134,0.124255374,-0.45772704,148.0
21134,-0.037802786,0.8436127,0.2325325,0.6945557,0.11257324,-0.5363159,148.0
21135,-0.5994561,1.2273102,-0.044612885,0.6945557,0.11257324,-0.5363159,148.0
21136,-0.5994561,1.2273102,-0.044612885,0.7943848,0.043542482,-0.49383545,148.0
21137,-0.8414179,1.1637421,-0.38102722,0.7943848,0.043542482,-0.49383545,148.0
21138,-0.8414179,1.1637421,-0.38102722,0.9409424,0.03717041,-0.5787964,148.0
21139,-0.6224263,0.92652893,-0.4991684,0.9409424,0.03717041,-0.5787964,148.0
21140,-0.6224263,0.92652893,-0.4991684,0.8687256,-0.013806152,-0.6446411,148.0
21141,-0.3173136,0.7897339,-0.5551071,0.8687256,-0.013806152,-0.6446411,148.0
21142,-0.3173136,0.7897339,-0.5551071,0.7497803,-0.05628662,-0.6711914,148.0
21143,-0.31409258,0.9411621,-0.66111374,0.7497803,-0.05628662,-0.6711914,148.0
21144,-0.31409258,0.9411621,-0.66111374,0.5586182,-0.027612304,-0.721106,148.0
21145,-0.50425255,1.1701431,-0.6645012,0.5586182,-0.027612304,-0.721106,148.0
21146,-0.50425255,1.1701431,-0.6645012,0.49277344,-0.021240234,-0.6754395,148.0
21147,-0.5336267,1.24543,-0.52843857,0.49277344,-0.021240234,-0.6754395,148.0
21148,-0.5336267,1.24543,-0.52843857,0.40144044,-0.038232423,-0.5734863,148.0
21149,-0.5179781,1.329483,-0.36717224,0.40144044,-0.038232423,-0.5734863,148.0
21150,-0.5179781,1.329483,-0.36717224,0.40144044,-0.038232423,-0.5734863,0.0
21151,-0.5179781,1.329483,-0.36717224,0.29417726,-0.0722168,-0.59897465,0.0
21152,-0.62225604,1.638794,-0.43940353,0.29417726,-0.0722168,-0.59897465,0.0
21153,-0.62225604,1.638794,-0.43940353,0.10513916,-0.070092775,-0.5246338,0.0
21154,-0.70520234,1.637558,-0.70981216,0.10513916,-0.070092775,-0.5246338,0.0
21155,-0.70520234,1.637558,-0.70981216,-0.21346436,-0.033984374,-0.42692873,0.0
21156,-0.60778975,0.85668945,-0.7719269,-0.21346436,-0.033984374,-0.42692873,0.0
21157,-0.60778975,0.85668945,-0.7719269,-0.15717773,0.007434082,-0.3993164,0.0
21158,-0.3500502,0.30974197,-0.43983078,-0.15717773,0.007434082,-0.3993164,0.0
21159,-0.3500502,0.30974197,-0.43983078,-0.021240234,0.06584473,-0.47471926,0.0
21160,-0.15472269,0.5849762,0.15543365,-0.021240234,0.06584473,-0.47471926,0.0
21161,-0.15472269,0.5849762,0.15543365,0.019116212,0.13275146,-0.45878908,0.0
21162,-0.073875904,0.7856064,0.46281052,0.019116212,0.13275146,-0.45878908,0.0
21163,-0.073875904,0.7856064,0.46281052,-0.022302246,0.16461182,-0.35046387,0.0
21164,0.04352379,0.128582,0.4939804,-0.022302246,0.16461182,-0.35046387,0.0
21165,0.04352379,0.128582,0.4939804,0.0063720704,0.121069334,-0.19328614,0.0
21166,0.07524872,-0.38137436,0.68060684,0.0063720704,0.121069334,-0.19328614,0.0
21167,0.07524872,-0.38137436,0.68060684,0.31329346,0.078588866,-0.26762697,0.0
21168,0.006671071,-0.003829956,0.8322525,0.31329346,0.078588866,-0.26762697,0.0
21169,0.006671071,-0.003829956,0.8322525,0.48640138,0.021240234,-0.23682861,0.0
21170,-0.027097225,0.34731293,0.6263733,0.48640138,0.021240234,-0.23682861,0.0
21171,-0.027097225,0.34731293,0.6263733,0.4800293,-0.0180542,-0.16673584,0.0
21172,-0.034714937,0.069488525,0.18314362,0.4800293,-0.0180542,-0.16673584,0.0
21173,-0.034714937,0.069488525,0.18314362,0.46409914,-0.04141846,-0.12213135,0.0
21174,-0.08092141,-0.31334305,-0.1956253,0.46409914,-0.04141846,-0.12213135,0.0
21175,-0.08092141,-0.31334305,-0.1956253,0.5766724,-0.03186035,-0.24001466,0.0
21176,-0.07096267,-0.09825897,-0.24943542,0.5766724,-0.03186035,-0.24001466,0.0
21177,-0.07096267,-0.09825897,-0.24943542,0.38869628,-0.004248047,-0.33665773,0.0
21178,-0.012202263,0.31560516,-0.108753204,0.38869628,-0.004248047,-0.33665773,0.0
21179,-0.012202263,0.31560516,-0.108753204,0.17841797,0.0010620117,-0.36639404,0.0
21180,0.03570938,0.49215698,0.100364685,0.17841797,0.0010620117,-0.36639404,0.0
21181,0.03570938,0.49215698,0.100364685,0.32709962,0.07965088,-0.40993652,0.0
21182,0.02582097,0.588295,0.33799362,0.32709962,0.07965088,-0.40993652,0.0
21183,0.02582097,0.588295,0.33799362,0.4056885,0.053100586,-0.44073486,0.0
21184,-0.09367418,0.65039825,0.3468094,0.4056885,0.053100586,-0.44073486,0.0
21185,-0.09367418,0.65039825,0.3468094,0.48321533,0.015930176,-0.42268068,0.0
21186,-0.27985883,0.7380791,0.11148071,0.48321533,0.015930176,-0.42268068,0.0
21187,-0.27985883,0.7380791,0.11148071,0.54587406,-0.027612304,-0.3982544,0.0
21188,-0.43880415,0.93746185,-0.1680069,0.54587406,-0.027612304,-0.3982544,0.0
21189,-0.43880415,0.93746185,-0.1680069,0.6701294,-0.05522461,-0.41843262,0.0
21190,-0.50995445,1.0420113,-0.42852402,0.6701294,-0.05522461,-0.41843262,0.0
21191,-0.50995445,1.0420113,-0.42852402,0.74447024,-0.06265869,-0.3069214,0.0
21192,-0.48748016,0.9456711,-0.6703186,0.74447024,-0.06265869,-0.3069214,0.0
21193,-0.48748016,0.9456711,-0.6703186,0.7423462,-0.08283692,-0.27293703,0.0
21194,-0.42608047,0.80257034,-0.8362427,0.7423462,-0.08283692,-0.27293703,0.0
21195,-0.42608047,0.80257034,-0.8362427,0.65632325,-0.090270996,-0.21452637,0.0
21196,-0.34201193,0.69973373,-0.885643,0.65632325,-0.090270996,-0.21452637,0.0
21197,-0.34201193,0.69973373,-0.885643,0.5479981,-0.10620117,-0.19434814,0.0
21198,-0.27426887,0.57248306,-0.8827362,0.5479981,-0.10620117,-0.19434814,0.0
21199,-0.27426887,0.57248306,-0.8827362,0.49383545,-0.09664307,-0.21877442,0.0
21200,-0.22300386,0.4796753,-0.8772354,0.49383545,-0.09664307,-0.21877442,0.0
21201,-0.22300386,0.4796753,-0.8772354,0.3802002,-0.07115479,-0.27399904,0.0
21202,-0.22593713,0.5421524,-0.9143982,0.3802002,-0.07115479,-0.27399904,0.0
21203,-0.22593713,0.5421524,-0.9143982,-0.011682129,-0.11682129,-0.27399904,0.0
21204,-0.2621951,0.52477264,-0.9041023,-0.011682129,-0.11682129,-0.27399904,0.0
21205,-0.2621951,0.52477264,-0.9041023,-0.13062744,-0.08071289,-0.26444092,0.0
21206,-0.08308363,0.48086548,-0.60375214,-0.13062744,-0.08071289,-0.26444092,0.0
21207,-0.08308363,0.48086548,-0.60375214,-0.15611573,-0.014868164,-0.26337892,0.0
21208,0.16120648,0.4829483,-0.1210289,-0.15611573,-0.014868164,-0.26337892,0.0
21209,0.16120648,0.4829483,-0.1210289,-0.27506104,0.023364259,-0.22408448,0.0
21210,0.1803689,0.35695267,0.182827,-0.27506104,0.023364259,-0.22408448,0.0
21211,0.1803689,0.35695267,0.182827,-0.29311523,0.0361084,-0.22727051,0.0
21212,0.066158056,0.24067688,0.23535156,-0.29311523,0.0361084,-0.22727051,0.0
21213,0.066158056,0.24067688,0.23535156,-0.2814331,0.0010620117,-0.20072022,0.0
21214,-0.029263496,0.20011902,0.18000412,-0.2814331,0.0010620117,-0.20072022,0.0
21215,-0.029263496,0.20011902,0.18000412,-0.23895264,-0.011682129,-0.16354981,0.0
21216,-0.022238731,0.12978363,0.16030121,-0.23895264,-0.011682129,-0.16354981,0.0
21217,-0.022238731,0.12978363,0.16030121,-0.18903808,-0.02442627,-0.10938721,0.0
21218,0.050434113,0.040901184,0.24949646,-0.18903808,-0.02442627,-0.10938721,0.0
21219,0.050434113,0.040901184,0.24949646,-0.19434814,-0.03186035,-0.07646485,0.0
21220,0.07594299,0.039520264,0.24822998,-0.19434814,-0.03186035,-0.07646485,0.0
21221,0.07594299,0.039520264,0.24822998,-0.16461182,-0.058410645,-0.043542482,0.0
21222,0.015173435,0.076416016,0.11884689,-0.16461182,-0.058410645,-0.043542482,0.0
21223,0.015173435,0.076416016,0.11884689,-0.057348635,-0.10301514,-0.012744141,0.0
21224,0.011210918,-0.012634277,0.082271576,-0.057348635,-0.10301514,-0.012744141,0.0
21225,0.011210918,-0.012634277,0.082271576,-0.10195313,-0.11469727,0.0180542,0.0
21226,0.12455702,-0.16495132,0.039031982,-0.10195313,-0.11469727,0.0180542,0.0
21227,0.12455702,-0.16495132,0.039031982,-0.039294433,-0.0722168,0.039294433,0.0
21228,0.16253638,-0.20287323,-0.0993309,-0.039294433,-0.0722168,0.039294433,0.0
21229,0.16253638,-0.20287323,-0.0993309,-0.058410645,-0.053100586,0.029736329,0.0
21230,0.10557842,-0.1232872,-0.19968033,-0.058410645,-0.053100586,0.029736329,0.0
21231,0.10557842,-0.1232872,-0.19968033,-0.07646485,-0.06159668,0.0361084,0.0
21232,0.1520164,-0.039253235,-0.1620903,-0.07646485,-0.06159668,0.0361084,0.0
21233,0.1520164,-0.039253235,-0.1620903,-0.14018555,-0.05628662,0.06159668,0.0
21234,0.29317093,-0.041217804,-0.039596558,-0.14018555,-0.05628662,0.06159668,0.0
21235,0.29317093,-0.041217804,-0.039596558,-0.11257324,-0.04460449,0.07646485,0.0
21236,0.37151194,-0.12240219,0.07689285,-0.11257324,-0.04460449,0.07646485,0.0
21237,0.37151194,-0.12240219,0.07689285,-0.13168946,-0.047790527,0.10620117,0.0
21238,0.35476565,-0.18582535,0.01889038,-0.13168946,-0.047790527,0.10620117,0.0
21239,0.35476565,-0.18582535,0.01889038,-0.0998291,-0.06903076,0.13062744,0.0
21240,0.29172277,-0.1884079,-0.22634125,-0.0998291,-0.06903076,0.13062744,0.0
21241,0.29172277,-0.1884079,-0.22634125,-0.053100586,-0.1178833,0.1359375,0.0
21242,0.21490884,-0.1627655,-0.32799911,-0.053100586,-0.1178833,0.1359375,0.0
21243,0.21490884,-0.1627655,-0.32799911,0.07752686,-0.14974366,0.13699952,0.0
21244,0.13421965,-0.17260742,0.033863068,0.07752686,-0.14974366,0.13699952,0.0
21245,0.13421965,-0.17260742,0.033863068,0.11682129,-0.1709839,0.13912354,0.0
21246,0.04629183,-0.22072601,0.5350952,0.11682129,-0.1709839,0.13912354,0.0
21247,0.04629183,-0.22072601,0.5350952,-0.0010620117,-0.1985962,0.1359375,0.0
21248,0.008078337,-0.23905563,0.51013184,-0.0010620117,-0.1985962,0.1359375,0.0
21249,0.008078337,-0.23905563,0.51013184,-0.014868164,-0.24638672,0.16567384,0.0
21250,0.11274934,-0.14421082,0.048606873,-0.014868164,-0.24638672,0.16567384,0.0
21251,0.11274934,-0.14421082,0.048606873,0.03186035,-0.2548828,0.15611573,0.0
21252,0.23000646,0.035755157,-0.28152466,0.03186035,-0.2548828,0.15611573,0.0
21253,0.23000646,0.035755157,-0.28152466,0.020178223,-0.20496826,0.14230958,0.0
21254,0.2149744,0.057865143,-0.3937378,0.020178223,-0.20496826,0.14230958,0.0
21255,0.2149744,0.057865143,-0.3937378,0.06796875,-0.21877442,0.16354981,0.0
21256,0.14406204,-0.12932968,-0.4389534,0.06796875,-0.21877442,0.16354981,0.0
21257,0.14406204,-0.12932968,-0.4389534,0.13275146,-0.18691407,0.15186767,0.0
21258,0.10587454,-0.23553085,-0.3876648,0.13275146,-0.18691407,0.15186767,0.0
21259,0.10587454,-0.23553085,-0.3876648,0.13275146,-0.18691407,0.15186767,0.0
21260,0.10587454,-0.23553085,-0.3876648,0.1709839,-0.18160401,0.13381349,0.0
21261,0.10861313,-0.06625366,-0.21278381,0.1709839,-0.18160401,0.13381349,0.0
21262,0.10861313,-0.06625366,-0.21278381,0.09664307,-0.14337158,0.10407715,0.0
21263,0.067029715,0.12252045,-0.052856445,0.09664307,-0.14337158,0.10407715,0.0
21264,0.067029715,0.12252045,-0.052856445,0.0021240234,-0.10938721,0.12213135,0.0
21265,0.017222404,0.038116455,-0.029369354,0.0021240234,-0.10938721,0.12213135,0.0
21266,0.017222404,0.038116455,-0.029369354,0.06159668,-0.118945315,0.11469727,0.0
21267,0.085420966,-0.13513184,-0.075912476,0.06159668,-0.118945315,0.11469727,0.0
21268,0.085420966,-0.13513184,-0.075912476,0.070092775,-0.098767094,0.08283692,0.0
21269,0.19427669,-0.13451004,-0.13220215,0.070092775,-0.098767094,0.08283692,0.0
21270,0.19427669,-0.13451004,-0.13220215,0.03186035,-0.09451904,0.038232423,0.0
21271,0.2548355,-0.046539307,-0.1568718,0.03186035,-0.09451904,0.038232423,0.0
21272,0.2548355,-0.046539307,-0.1568718,-0.03079834,-0.083898924,0.027612304,0.0
21273,0.24529898,-0.036010742,-0.10335541,-0.03079834,-0.083898924,0.027612304,0.0
21274,0.24529898,-0.036010742,-0.10335541,-0.0541626,-0.07327881,-0.0021240234,0.0
21275,0.23154187,-0.12233734,0.075237274,-0.0541626,-0.07327881,-0.0021240234,0.0
21276,0.23154187,-0.12233734,0.075237274,-0.11257324,-0.0541626,0.0010620117,0.0
21277,0.23039949,-0.1886673,0.22439575,-0.11257324,-0.0541626,0.0010620117,0.0
21278,0.23039949,-0.1886673,0.22439575,-0.17629395,-0.029736329,-0.0063720704,0.0
21279,0.22670245,-0.15338898,0.18193436,-0.17629395,-0.029736329,-0.0063720704,0.0
21280,0.22670245,-0.15338898,0.18193436,-0.078588866,-0.025488282,0.015930176,0.0
21281,0.1928854,-0.010978699,0.11395264,-0.078588866,-0.025488282,0.015930176,0.0
21282,0.1928854,-0.010978699,0.11395264,-0.0541626,-0.0180542,-0.02442627,0.0
21283,0.14100266,0.10647583,0.098789215,-0.0541626,-0.0180542,-0.02442627,0.0
21284,0.14100266,0.10647583,0.098789215,-0.0637207,-0.03717041,-0.004248047,0.0
21285,0.11090994,0.081970215,0.063064575,-0.0637207,-0.03717041,-0.004248047,0.0
21286,0.11090994,0.081970215,0.063064575,-0.053100586,-0.03079834,-0.012744141,0.0
21287,0.10661125,0.03224945,-0.012817383,-0.053100586,-0.03079834,-0.012744141,0.0
21288,0.10661125,0.03224945,-0.012817383,0.02442627,-0.043542482,-0.019116212,0.0
21289,0.14184427,-0.008159637,-0.026134491,0.02442627,-0.043542482,-0.019116212,0.0
21290,0.14184427,-0.008159637,-0.026134491,-0.022302246,-0.04460449,-0.019116212,0.0
21291,0.19980359,-0.052059174,-0.0020141602,-0.022302246,-0.04460449,-0.019116212,0.0
21292,0.19980359,-0.052059174,-0.0020141602,-0.06478272,-0.027612304,-0.011682129,0.0
21293,0.22157383,-0.05937195,-0.019275665,-0.06478272,-0.027612304,-0.011682129,0.0
21294,0.22157383,-0.05937195,-0.019275665,-0.12319336,-0.007434082,-0.0053100586,0.0
21295,0.31237876,-0.05274582,0.050460815,-0.12319336,-0.007434082,-0.0053100586,0.0
21296,0.31237876,-0.05274582,0.050460815,-0.31010744,-0.004248047,0.032922365,0.0
21297,0.5906135,-0.007320404,0.2750473,-0.31010744,-0.004248047,0.032922365,0.0
21298,0.5906135,-0.007320404,0.2750473,-0.3971924,0.020178223,0.093457036,0.0
21299,0.85311824,0.029129028,0.3475876,-0.3971924,0.020178223,0.093457036,0.0
21300,0.85311824,0.029129028,0.3475876,-0.015930176,0.20390625,0.42161867,0.0
21301,0.6833613,-0.070755005,0.12124634,-0.015930176,0.20390625,0.42161867,0.0
21302,0.6833613,-0.070755005,0.12124634,0.028674318,0.45029297,0.83898926,0.0
21303,0.09790975,-0.32551575,0.6182709,0.028674318,0.45029297,0.83898926,0.0
21304,0.09790975,-0.32551575,0.6182709,-0.9589966,-0.32922363,1.1618408,0.0
21305,0.83507824,-1.1752548,0.9722023,-0.9589966,-0.32922363,1.1618408,0.0
21306,0.83507824,-1.1752548,0.9722023,-1.2945923,0.6414551,1.1225464,0.0
21307,2.0680993,-1.6745911,0.40079498,-1.2945923,0.6414551,1.1225464,0.0
21308,2.0680993,-1.6745911,0.40079498,-0.6977417,1.0938721,0.8846558,0.0
21309,1.8013911,-1.5720596,0.12742615,-0.6977417,1.0938721,0.8846558,0.0
21310,1.8013911,-1.5720596,0.12742615,0.016992187,1.3466309,0.815625,0.0
21311,0.8063351,-1.330864,-0.07298279,0.016992187,1.3466309,0.815625,0.0
21312,0.8063351,-1.330864,-0.07298279,0.078588866,1.3338867,1.0280274,0.0
21313,0.014025629,-0.83711624,-0.302063,0.078588866,1.3338867,1.0280274,0.0
21314,0.014025629,-0.83711624,-0.302063,0.06478272,1.2829102,1.0673218,0.0
21315,-0.514219,-0.51548004,-0.13017273,0.06478272,1.2829102,1.0673218,0.0
21316,-0.514219,-0.51548004,-0.13017273,0.43117675,1.3763672,0.8294312,0.0
21317,-0.8055158,-0.11223602,0.39063644,0.43117675,1.3763672,0.8294312,0.0
21318,-0.8055158,-0.11223602,0.39063644,0.5129517,1.2011353,0.87615967,0.0
21319,-0.7656529,0.3489189,0.7915001,0.5129517,1.2011353,0.87615967,0.0
21320,-0.7656529,0.3489189,0.7915001,0.41099855,1.2191895,0.9197022,0.0
21321,-0.7356669,0.5894127,0.87613297,0.41099855,1.2191895,0.9197022,0.0
21322,-0.7356669,0.5894127,0.87613297,0.28780517,1.3126465,0.9388184,0.0
21323,-1.1464193,0.6308441,0.5700569,0.28780517,1.3126465,0.9388184,0.0
21324,-1.1464193,0.6308441,0.5700569,0.21134034,1.2892822,0.87403566,0.0
21325,-1.6651092,0.6066437,0.24845123,0.21134034,1.2892822,0.87403566,0.0
21326,-1.6651092,0.6066437,0.24845123,0.1996582,1.3020264,0.7742066,0.0
21327,-1.9113964,0.36109924,0.38204956,0.1996582,1.3020264,0.7742066,0.0
21328,-1.9113964,0.36109924,0.38204956,0.23045655,1.1597168,0.68499756,0.0
21329,-1.8168857,-0.23530197,0.7869644,0.23045655,1.1597168,0.68499756,0.0
21330,-1.8168857,-0.23530197,0.7869644,0.32709962,1.179895,0.6488892,0.0
21331,-1.703826,-0.7079582,0.92126846,0.32709962,1.179895,0.6488892,0.0
21332,-1.703826,-0.7079582,0.92126846,0.37807617,1.2584839,0.6945557,0.0
21333,-1.8728142,-0.67910004,0.61974335,0.37807617,1.2584839,0.6945557,0.0
21334,-1.8728142,-0.67910004,0.61974335,0.26019287,1.3455689,0.8092529,0.0
21335,-2.167746,-0.28230667,0.20705032,0.26019287,1.3455689,0.8092529,0.0
21336,-2.167746,-0.28230667,0.20705032,0.48427734,1.2892822,0.93350834,0.0
21337,-2.2519214,0.3569069,-0.0679512,0.48427734,1.2892822,0.93350834,0.0
21338,-2.2519214,0.3569069,-0.0679512,0.82730716,1.3222046,0.9866089,0.0
21339,-2.1373649,0.9642601,-0.15801239,0.82730716,1.3222046,0.9866089,0.0
21340,-2.1373649,0.9642601,-0.15801239,0.6159668,1.4124756,1.0513916,0.0
21341,-2.0461712,0.94348145,-0.10453415,0.6159668,1.4124756,1.0513916,0.0
21342,-2.0461712,0.94348145,-0.10453415,0.38869628,1.3232666,1.0237793,0.0
21343,-1.8305407,0.416893,-0.21901321,0.38869628,1.3232666,1.0237793,0.0
21344,-1.8305407,0.416893,-0.21901321,0.44073486,1.2064453,0.90802,0.0
21345,-1.5237713,0.2827072,-0.7528839,0.44073486,1.2064453,0.90802,0.0
21346,-1.5237713,0.2827072,-0.7528839,0.49489745,1.0227174,0.75509036,0.0
21347,-1.3024273,0.47270966,-1.2228622,0.49489745,1.0227174,0.75509036,0.0
21348,-1.3024273,0.47270966,-1.2228622,0.6903076,0.72960204,0.50020754,0.0
21349,-0.93816996,0.46414185,-1.0240936,0.6903076,0.72960204,0.50020754,0.0
21350,-0.93816996,0.46414185,-1.0240936,0.67650145,0.7317261,0.42161867,0.0
21351,-0.4385605,0.38079834,-0.25987625,0.67650145,0.7317261,0.42161867,0.0
21352,-0.4385605,0.38079834,-0.25987625,0.5671143,0.79013675,0.3345337,0.0
21353,0.045660496,0.47934723,0.45375443,0.5671143,0.79013675,0.3345337,0.0
21354,0.045660496,0.47934723,0.45375443,0.68074954,0.7168579,0.26868898,0.0
21355,0.4158497,0.66164017,0.75598526,0.68074954,0.7168579,0.26868898,0.0
21356,0.4158497,0.66164017,0.75598526,0.45560303,0.8750977,0.29417726,0.0
21357,0.46787262,0.6659584,0.74780655,0.45560303,0.8750977,0.29417726,0.0
21358,0.46787262,0.6659584,0.74780655,0.2347046,0.88359374,0.31329346,0.0
21359,0.32905865,0.63209534,0.60505676,0.2347046,0.88359374,0.31329346,0.0
21360,0.32905865,0.63209534,0.60505676,-0.12850343,0.9526245,0.36002198,0.0
21361,0.08004379,0.7286377,0.35090256,-0.12850343,0.9526245,0.36002198,0.0
21362,0.08004379,0.7286377,0.35090256,-0.47684327,1.1501588,0.3536499,0.0
21363,-0.40351868,0.72587967,0.01153183,-0.47684327,1.1501588,0.3536499,0.0
21364,-0.40351868,0.72587967,0.01153183,-0.47684327,1.1501588,0.3536499,0.0
21365,-0.40351868,0.72587967,0.01153183,-0.4598511,1.1639649,0.31223145,0.0
21366,-0.9041624,0.36710358,-0.28509903,-0.4598511,1.1639649,0.31223145,0.0
21367,-0.9041624,0.36710358,-0.28509903,-0.39294434,1.1002442,0.22408448,0.0
21368,-1.1921291,-0.16111374,-0.4955101,-0.39294434,1.1002442,0.22408448,0.0
21369,-1.1921291,-0.16111374,-0.4955101,-0.19647217,1.0078491,0.15186767,0.0
21370,-1.3190231,-0.48451996,-0.71329117,-0.19647217,1.0078491,0.15186767,0.0
21371,-1.3190231,-0.48451996,-0.71329117,0.021240234,0.7986328,0.15823975,0.0
21372,-1.3373108,-0.48381805,-1.0423737,0.021240234,0.7986328,0.15823975,0.0
21373,-1.3373108,-0.48381805,-1.0423737,0.18160401,0.54906005,0.14655761,0.0
21374,-1.1627932,-0.37633514,-1.0153809,0.18160401,0.54906005,0.14655761,0.0
21375,-1.1627932,-0.37633514,-1.0153809,0.10301514,0.38869628,0.11363526,0.0
21376,-0.7638769,-0.53726196,-0.5846214,0.10301514,0.38869628,0.11363526,0.0
21377,-0.7638769,-0.53726196,-0.5846214,-0.098767094,0.45454103,0.26125488,0.0
21378,-0.5723562,-0.5571289,-0.48378372,-0.098767094,0.45454103,0.26125488,0.0
21379,-0.5723562,-0.5571289,-0.48378372,0.36533204,0.26444092,0.32178956,0.0
21380,-0.53632736,-0.21146393,-0.40808487,0.36533204,0.26444092,0.32178956,0.0
21381,-0.53632736,-0.21146393,-0.40808487,0.16354981,0.10620117,0.2814331,0.0
21382,-0.29352713,0.06757355,-0.084999084,0.16354981,0.10620117,0.2814331,0.0
21383,-0.29352713,0.06757355,-0.084999084,0.18691407,0.13381349,0.3058594,0.0
21384,-0.07891369,0.1275711,0.26760864,0.18691407,0.13381349,0.3058594,0.0
21385,-0.07891369,0.1275711,0.26760864,0.12850343,0.10938721,0.27718505,0.0
21386,0.050345898,0.046588898,0.54930496,0.12850343,0.10938721,0.27718505,0.0
21387,0.050345898,0.046588898,0.54930496,0.07646485,0.13912354,0.24744873,0.0
21388,0.08779907,-0.024681091,0.73589325,0.07646485,0.13912354,0.24744873,0.0
21389,0.08779907,-0.024681091,0.73589325,0.124255374,0.20284425,0.18797608,0.0
21390,0.036486626,0.009101868,0.75161743,0.124255374,0.20284425,0.18797608,0.0
21391,0.036486626,0.009101868,0.75161743,0.23258057,0.22833252,0.10620117,0.0
21392,-0.04490757,0.21873093,0.5841179,0.23258057,0.22833252,0.10620117,0.0
21393,-0.04490757,0.21873093,0.5841179,0.22514649,0.29948732,0.045666505,0.0
21394,-0.13222742,0.47355652,0.40369415,0.22514649,0.29948732,0.045666505,0.0
21395,-0.13222742,0.47355652,0.40369415,0.10089111,0.35046387,0.032922365,0.0
21396,-0.21132374,0.47221375,0.271904,0.10089111,0.35046387,0.032922365,0.0
21397,-0.21132374,0.47221375,0.271904,-0.07540283,0.4056885,0.040356446,0.0
21398,-0.29588985,0.1743164,0.119277954,-0.07540283,0.4056885,0.040356446,0.0
21399,-0.29588985,0.1743164,0.119277954,0.043542482,0.4333008,0.027612304,0.0
21400,-0.4114313,0.05582428,-0.05952072,0.043542482,0.4333008,0.027612304,0.0
21401,-0.4114313,0.05582428,-0.05952072,0.16885987,0.44923097,-0.027612304,0.0
21402,-0.5528021,0.29491425,-0.24384308,0.16885987,0.44923097,-0.027612304,0.0
21403,-0.5528021,0.29491425,-0.24384308,0.043542482,0.38975832,-0.029736329,0.0
21404,-0.6034231,0.39170837,-0.39856339,0.043542482,0.38975832,-0.029736329,0.0
21405,-0.6034231,0.39170837,-0.39856339,-0.03717041,0.31223145,0.011682129,0.0
21406,-0.5571766,0.21008301,-0.4780197,-0.03717041,0.31223145,0.011682129,0.0
21407,-0.5571766,0.21008301,-0.4780197,0.012744141,0.26975098,0.028674318,0.0
21408,-0.5145769,0.09629822,-0.49403763,0.012744141,0.26975098,0.028674318,0.0
21409,-0.5145769,0.09629822,-0.49403763,0.118945315,0.20284425,0.010620117,0.0
21410,-0.44399834,0.20598221,-0.472744,0.118945315,0.20284425,0.010620117,0.0
21411,-0.44399834,0.20598221,-0.472744,0.19541016,0.06796875,-0.013806152,0.0
21412,-0.2807846,0.4216118,-0.40701675,0.19541016,0.06796875,-0.013806152,0.0
21413,-0.2807846,0.4216118,-0.40701675,0.10407715,0.02442627,-0.05522461,0.0
21414,-0.082598686,0.41739273,-0.24897766,0.10407715,0.02442627,-0.05522461,0.0
21415,-0.082598686,0.41739273,-0.24897766,0.03717041,-0.045666505,-0.11469727,0.0
21416,0.09511471,0.06850815,0.04925537,0.03717041,-0.045666505,-0.11469727,0.0
21417,0.09511471,0.06850815,0.04925537,0.118945315,-0.07115479,-0.13381349,0.0
21418,0.27367496,-0.2184372,0.3262596,0.118945315,-0.07115479,-0.13381349,0.0
21419,0.27367496,-0.2184372,0.3262596,0.16992188,-0.052038576,-0.11363526,0.0
21420,0.33892345,-0.09912872,0.31310654,0.16992188,-0.052038576,-0.11363526,0.0
21421,0.33892345,-0.09912872,0.31310654,0.07752686,-0.060534667,-0.12319336,0.0
21422,0.18600655,0.23149872,0.09219742,0.07752686,-0.060534667,-0.12319336,0.0
21423,0.18600655,0.23149872,0.09219742,0.027612304,-0.0637207,-0.18372802,0.0
21424,-0.01634407,0.3401451,0.020240784,0.027612304,-0.0637207,-0.18372802,0.0
21425,-0.01634407,0.3401451,0.020240784,-0.026550293,-0.16354981,-0.23895264,0.0
21426,-0.03929615,0.11381531,0.094329834,-0.026550293,-0.16354981,-0.23895264,0.0
21427,-0.03929615,0.11381531,0.094329834,0.0,-0.0998291,-0.26125488,0.0
21428,-0.021818161,-0.08392334,0.146801,0.0,-0.0998291,-0.26125488,0.0
21429,-0.021818161,-0.08392334,0.146801,-0.027612304,-0.087084964,-0.28674316,0.0
21430,-0.08946419,-0.100914,0.18238068,-0.027612304,-0.087084964,-0.28674316,0.0
21431,-0.08946419,-0.100914,0.18238068,-0.0541626,-0.121069334,-0.3069214,0.0
21432,-0.14675426,-0.1587677,0.25477982,-0.0541626,-0.121069334,-0.3069214,0.0
21433,-0.14675426,-0.1587677,0.25477982,-0.07327881,-0.087084964,-0.2803711,0.0
21434,-0.21093369,-0.26940918,0.28299713,-0.07327881,-0.087084964,-0.2803711,0.0
21435,-0.21093369,-0.26940918,0.28299713,-0.046728518,-0.09133301,-0.2899292,0.0
21436,-0.27838993,-0.26852036,0.20891953,-0.046728518,-0.09133301,-0.2899292,0.0
21437,-0.27838993,-0.26852036,0.20891953,-0.02442627,-0.10301514,-0.25806886,0.0
21438,-0.35934544,-0.11981964,0.038619995,-0.02442627,-0.10301514,-0.25806886,0.0
21439,-0.35934544,-0.11981964,0.038619995,0.06265869,-0.13912354,-0.270813,0.0
21440,-0.47551346,0.13415909,-0.100170135,0.06265869,-0.13912354,-0.270813,0.0
21441,-0.47551346,0.13415909,-0.100170135,0.10089111,-0.13275146,-0.3695801,0.0
21442,-0.50237083,0.36128235,-0.119148254,0.10089111,-0.13275146,-0.3695801,0.0
21443,-0.50237083,0.36128235,-0.119148254,-0.038232423,-0.25913087,-0.362146,0.0
21444,-0.34582996,0.32181168,-0.13789749,-0.038232423,-0.25913087,-0.362146,0.0
21445,-0.34582996,0.32181168,-0.13789749,-0.06478272,-0.23151855,-0.4258667,0.0
21446,-0.09958935,-0.08095169,-0.18171692,-0.06478272,-0.23151855,-0.4258667,0.0
21447,-0.09958935,-0.08095169,-0.18171692,-0.032922365,-0.1720459,-0.4333008,0.0
21448,0.0023107529,-0.5960007,-0.14887619,-0.032922365,-0.1720459,-0.4333008,0.0
21449,0.0023107529,-0.5960007,-0.14887619,0.021240234,-0.13487549,-0.45454103,0.0
21450,-0.12415218,-0.8058624,-0.11729431,0.021240234,-0.13487549,-0.45454103,0.0
21451,-0.12415218,-0.8058624,-0.11729431,-0.0010620117,-0.12000733,-0.34940186,0.0
21452,-0.37072086,-0.63547516,-0.31427002,-0.0010620117,-0.12000733,-0.34940186,0.0
21453,-0.37072086,-0.63547516,-0.31427002,-0.060534667,-0.15930176,-0.2793091,0.0
21454,-0.5233097,-0.50253296,-0.541893,-0.060534667,-0.15930176,-0.2793091,0.0
21455,-0.5233097,-0.50253296,-0.541893,-0.008496094,-0.2538208,-0.1996582,0.0
21456,-0.40735626,-0.614418,-0.4557686,-0.008496094,-0.2538208,-0.1996582,0.0
21457,-0.40735626,-0.614418,-0.4557686,0.16992188,-0.29205322,-0.18479005,0.0
21458,-0.12509155,-0.76462936,-0.16291809,0.16992188,-0.29205322,-0.18479005,0.0
21459,-0.12509155,-0.76462936,-0.16291809,0.3154175,-0.2899292,-0.124255374,0.0
21460,0.040014267,-0.56723404,0.034095764,0.3154175,-0.2899292,-0.124255374,0.0
21461,0.040014267,-0.56723404,0.034095764,0.35152587,-0.3334717,0.0021240234,0.0
21462,0.1641283,-0.14113998,0.08876419,0.35152587,-0.3334717,0.0021240234,0.0
21463,0.1641283,-0.14113998,0.08876419,0.13912354,-0.3069214,0.07752686,0.0
21464,0.24625587,0.19897842,0.07834625,0.13912354,-0.3069214,0.07752686,0.0
21465,0.24625587,0.19897842,0.07834625,0.11682129,-0.2357666,0.2899292,0.0
21466,0.1039629,0.41653442,0.12348938,0.11682129,-0.2357666,0.2899292,0.0
21467,0.1039629,0.41653442,0.12348938,0.29417726,-0.4343628,0.2177124,0.0
21468,0.09191036,0.6534195,0.13554764,0.29417726,-0.4343628,0.2177124,0.0
21469,0.09191036,0.6534195,0.13554764,0.41099855,-0.46409914,0.2516968,0.0
21470,0.20603561,1.0312653,-0.14344025,0.41099855,-0.46409914,0.2516968,0.0
21471,0.20603561,1.0312653,-0.14344025,0.38975832,-0.48427734,0.16779785,0.0
21472,0.21034813,0.9802246,-0.6418419,0.38975832,-0.48427734,0.16779785,0.0
21473,0.21034813,0.9802246,-0.6418419,0.43117675,-0.51082766,0.11469727,0.0
21474,0.07214832,0.72953033,-0.90535736,0.43117675,-0.51082766,0.11469727,0.0
21475,0.07214832,0.72953033,-0.90535736,0.55755615,-0.5957886,0.25063476,0.0
21476,-0.23665428,1.3330154,-0.79074097,0.55755615,-0.5957886,0.25063476,0.0
21477,-0.23665428,1.3330154,-0.79074097,0.23895264,-0.82836914,0.040356446,0.0
21478,-0.44463348,1.9176826,-0.83579254,0.23895264,-0.82836914,0.040356446,0.0
21479,-0.44463348,1.9176826,-0.83579254,-0.020178223,-1.1352905,-0.11257324,0.0
21480,-0.40495014,1.2352829,-1.4981995,-0.020178223,-1.1352905,-0.11257324,0.0
21481,-0.40495014,1.2352829,-1.4981995,0.21346436,-1.540979,-0.26550293,0.0
21482,-0.121702194,-0.20578003,-2.431446,0.21346436,-1.540979,-0.26550293,0.0
21483,-0.121702194,-0.20578003,-2.431446,1.09281,-2.0645509,-0.24213867,0.0
21484,0.33254528,-0.4248047,-3.124588,1.09281,-2.0645509,-0.24213867,0.0
21485,0.33254528,-0.4248047,-3.124588,2.1240234,-2.1346436,-0.28461915,0.0
21486,0.9705038,1.1857529,-3.3460083,2.1240234,-2.1346436,-0.28461915,0.0
21487,0.9705038,1.1857529,-3.3460083,2.0326905,-2.6582153,0.08920898,0.0
21488,2.0473137,2.2555122,-2.8545036,2.0326905,-2.6582153,0.08920898,0.0
21489,2.0473137,2.2555122,-2.8545036,2.061365,-2.8738039,0.53100586,0.0
21490,3.468686,1.6771393,-1.8608742,2.061365,-2.8738039,0.53100586,0.0
21491,3.468686,1.6771393,-1.8608742,2.005078,-2.8684938,0.8007569,0.0
21492,4.7338724,0.98104095,-1.0171509,2.005078,-2.8684938,0.8007569,0.0
21493,4.7338724,0.98104095,-1.0171509,1.7310791,-3.09364,0.90802,0.0
21494,5.382935,0.56471634,-0.86206055,1.7310791,-3.09364,0.90802,0.0
21495,5.382935,0.56471634,-0.86206055,1.1352905,-3.3102906,1.0397094,0.0
21496,5.1009526,-0.41740417,-1.7221451,1.1352905,-3.3102906,1.0397094,0.0
21497,5.1009526,-0.41740417,-1.7221451,1.0821899,-3.361267,0.83898926,0.0
21498,4.413574,-1.0584984,-2.6699524,1.0821899,-3.361267,0.83898926,0.0
21499,4.413574,-1.0584984,-2.6699524,1.6408081,-3.3092287,-0.007434082,0.0
21500,4.137976,0.29230118,-2.330017,1.6408081,-3.3092287,-0.007434082,0.0
21501,4.137976,0.29230118,-2.330017,1.9424194,-2.89823,-0.16142578,0.0
21502,4.168706,2.1995049,-1.072876,1.9424194,-2.89823,-0.16142578,0.0
21503,4.168706,2.1995049,-1.072876,1.3880494,-2.1558838,0.21027832,0.0
21504,3.4680583,2.2689896,0.062156677,1.3880494,-2.1558838,0.21027832,0.0
21505,3.4680583,2.2689896,0.062156677,1.5983276,-1.3052124,-0.19541016,0.0
21506,2.1737998,1.653801,1.4044151,1.5983276,-1.3052124,-0.19541016,0.0
21507,2.1737998,1.653801,1.4044151,1.0875,-0.56817627,-0.07115479,0.0
21508,2.1737998,1.653801,1.4044151,1.0875,-0.56817627,-0.07115479,87.0
21509,1.2591203,2.7326584,3.5344086,1.0875,-0.56817627,-0.07115479,87.0
21510,1.2591203,2.7326584,3.5344086,-0.7423462,0.7805786,-0.68712157,87.0
21511,0.53908336,2.9769592,4.734436,-0.7423462,0.7805786,-0.68712157,87.0
21512,0.53908336,2.9769592,4.734436,-1.812854,1.1182984,-0.0063720704,87.0
21513,0.34907675,-1.4088745,3.1436157,-1.812854,1.1182984,-0.0063720704,87.0
21514,0.34907675,-1.4088745,3.1436157,0.24107666,0.8336792,0.4333008,87.0
21515,1.1477917,-5.4357414,1.9083977,0.24107666,0.8336792,0.4333008,87.0
21516,1.1477917,-5.4357414,1.9083977,-0.08602295,1.1013062,0.8485474,87.0
21517,2.2724571,-4.350376,2.1833344,-0.08602295,1.1013062,0.8485474,87.0
21518,2.2724571,-4.350376,2.1833344,-0.73597413,1.3498169,1.0333375,87.0
21519,1.7451873,-0.8732834,0.13074875,-0.73597413,1.3498169,1.0333375,87.0
21520,1.7451873,-0.8732834,0.13074875,-0.7168579,0.60109866,0.43011475,87.0
21521,-0.784673,1.6171684,-1.9527626,-0.7168579,0.60109866,0.43011475,87.0
21522,-0.784673,1.6171684,-1.9527626,-1.1915772,0.5150757,0.16779785,87.0
21523,-2.8154094,1.6526222,-1.1625137,-1.1915772,0.5150757,0.16779785,87.0
21524,-2.8154094,1.6526222,-1.1625137,-0.9165161,0.38657227,0.40250245,87.0
21525,-3.0300255,0.6301918,0.10429001,-0.9165161,0.38657227,0.40250245,87.0
21526,-3.0300255,0.6301918,0.10429001,-0.88040775,0.25063476,0.5331299,87.0
21527,-1.9675384,0.263443,0.084186554,-0.88040775,0.25063476,0.5331299,87.0
21528,-1.9675384,0.263443,0.084186554,-0.9526245,0.18691407,0.54587406,87.0
21529,-0.59700435,0.38498688,-0.23013687,-0.9526245,0.18691407,0.54587406,87.0
21530,-0.59700435,0.38498688,-0.23013687,-0.9239502,0.2357666,0.5235718,87.0
21531,0.24512601,0.30699158,-0.0017242432,-0.9239502,0.2357666,0.5235718,87.0
21532,0.24512601,0.30699158,-0.0017242432,-0.8421753,0.31329346,0.4694092,87.0
21533,0.43267307,-0.08621979,0.4472046,-0.8421753,0.31329346,0.4694092,87.0
21534,0.43267307,-0.08621979,0.4472046,-0.59047854,0.32391357,0.41418457,87.0
21535,0.42243242,-0.4885559,0.85947037,-0.59047854,0.32391357,0.41418457,87.0
21536,0.42243242,-0.4885559,0.85947037,-0.41312256,0.33878174,0.33878174,87.0
21537,0.31874427,-0.55766296,0.736393,-0.41312256,0.33878174,0.33878174,87.0
21538,0.31874427,-0.55766296,0.736393,-0.34833986,0.26868898,0.18266602,87.0
21539,-0.086166695,-0.19087219,-0.19979095,-0.34833986,0.26868898,0.18266602,87.0
21540,-0.086166695,-0.19087219,-0.19979095,-0.4248047,0.14868164,0.13062744,87.0
21541,-0.5201297,-0.11664963,-0.675251,-0.4248047,0.14868164,0.13062744,87.0
21542,-0.5201297,-0.11664963,-0.675251,-0.39400634,0.1444336,0.115759276,87.0
21543,-0.539114,-0.6525116,-0.067726135,-0.39400634,0.1444336,0.115759276,87.0
21544,-0.539114,-0.6525116,-0.067726135,-0.40250245,0.19116211,0.15186767,87.0
21545,-0.19578093,-1.0438461,0.4684372,-0.40250245,0.19116211,0.15186767,87.0
21546,-0.19578093,-1.0438461,0.4684372,-0.5692383,0.29417726,0.12213135,87.0
21547,-0.14519897,-0.97291946,0.12023163,-0.5692383,0.29417726,0.12213135,87.0
21548,-0.14519897,-0.97291946,0.12023163,-0.8007569,0.2814331,0.029736329,87.0
21549,-0.5636811,-0.63746643,-0.5454788,-0.8007569,0.2814331,0.029736329,87.0
21550,-0.5636811,-0.63746643,-0.5454788,-0.7317261,0.16248779,0.03186035,87.0
21551,-0.6413624,-0.48049545,-0.22143173,-0.7317261,0.16248779,0.03186035,87.0
21552,-0.6413624,-0.48049545,-0.22143173,-0.74871826,0.21877442,0.1083252,87.0
21553,-0.09733069,-0.693367,0.8944473,-0.74871826,0.21877442,0.1083252,87.0
21554,-0.09733069,-0.693367,0.8944473,-0.7051758,0.33240968,0.081774905,87.0
21555,0.14673263,-0.6982727,1.0792923,-0.7051758,0.33240968,0.081774905,87.0
21556,0.14673263,-0.6982727,1.0792923,-0.5979126,0.29630128,0.04460449,87.0
21557,-0.0637418,-0.43183517,0.6349411,-0.5979126,0.29630128,0.04460449,87.0
21558,-0.0637418,-0.43183517,0.6349411,-0.47365722,0.2347046,0.05628662,87.0
21559,0.1758132,-0.37026978,0.75435257,-0.47365722,0.2347046,0.05628662,87.0
21560,0.1758132,-0.37026978,0.75435257,-0.4619751,0.21027832,0.095581055,87.0
21561,0.6875622,-0.44270325,0.7918854,-0.4619751,0.21027832,0.095581055,87.0
21562,0.6875622,-0.44270325,0.7918854,-0.4715332,0.2357666,0.015930176,87.0
21563,0.39414155,-0.30345535,0.01914978,-0.4715332,0.2357666,0.015930176,87.0
21564,0.39414155,-0.30345535,0.01914978,-0.42268068,0.17629395,-0.083898924,87.0
21565,-0.43378344,-0.054531097,-0.70783615,-0.42268068,0.17629395,-0.083898924,87.0
21566,-0.43378344,-0.054531097,-0.70783615,-0.16354981,-0.004248047,-0.09133301,87.0
21567,-0.5935234,-0.4645462,0.11559296,-0.16354981,-0.004248047,-0.09133301,87.0
21568,-0.5935234,-0.4645462,0.11559296,-0.3334717,0.08602295,0.007434082,87.0
21569,0.024766266,-1.2130432,1.3756523,-0.3334717,0.08602295,0.007434082,87.0
21570,0.024766266,-1.2130432,1.3756523,-0.48109132,0.1263794,-0.046728518,87.0
21571,0.544752,-1.1703644,1.2359238,-0.48109132,0.1263794,-0.046728518,87.0
21572,0.544752,-1.1703644,1.2359238,-0.540564,0.14655761,-0.15930176,87.0
21573,0.27352133,-0.46535492,0.18522263,-0.540564,0.14655761,-0.15930176,87.0
21574,0.27352133,-0.46535492,0.18522263,-0.42161867,0.13912354,-0.2538208,87.0
21575,-0.30418098,0.057331085,-0.44659805,-0.42161867,0.13912354,-0.2538208,87.0
21576,-0.30418098,0.057331085,-0.44659805,-0.20603028,-0.093457036,-0.22089843,87.0
21577,-0.4053687,0.047512054,-0.3169365,-0.20603028,-0.093457036,-0.22089843,87.0
21578,-0.4053687,0.047512054,-0.3169365,-0.1901001,-0.14124756,-0.2793091,87.0
21579,0.048031718,-0.6328888,0.8403816,-0.1901001,-0.14124756,-0.2793091,87.0
21580,0.048031718,-0.6328888,0.8403816,-0.45029297,-0.1901001,-0.3334717,87.0
21581,0.19362557,-0.7331085,1.0435104,-0.45029297,-0.1901001,-0.3334717,87.0
21582,0.19362557,-0.7331085,1.0435104,-0.44816896,-0.21134034,-0.3525879,87.0
21583,0.6390435,-0.9860573,1.1484795,-0.44816896,-0.21134034,-0.3525879,87.0
21584,0.6390435,-0.9860573,1.1484795,-0.51826173,-0.29205322,-0.5235718,87.0
21585,0.5898115,-0.867363,0.93593216,-0.51826173,-0.29205322,-0.5235718,87.0
21586,0.5898115,-0.867363,0.93593216,-0.5713623,-0.35152587,-0.59472656,87.0
21587,0.5898115,-0.867363,0.93593216,-0.7147339,-0.5607422,-0.7763306,87.0
21588,0.51774764,-0.8184891,0.46645737,-0.7147339,-0.5607422,-0.7763306,87.0
21589,0.26497936,-0.6527672,0.33293152,-0.7147339,-0.5607422,-0.7763306,87.0
21590,0.26497936,-0.6527672,0.33293152,-0.7763306,-0.6138428,-0.8358032,87.0
21591,-0.106559,-0.6016197,0.06717682,-0.7763306,-0.6138428,-0.8358032,87.0
21592,-0.106559,-0.6016197,0.06717682,-0.94731444,-0.7349121,-0.9855469,87.0
21593,-0.28325745,-0.60209656,0.14871216,-0.94731444,-0.7349121,-0.9855469,87.0
21594,-0.28325745,-0.60209656,0.14871216,-1.0248413,-0.74659425,-1.0418335,87.0
21595,-0.72100294,-0.9052887,0.12300873,-1.0248413,-0.74659425,-1.0418335,87.0
21596,-0.72100294,-0.9052887,0.12300873,-1.1947632,-0.8007569,-1.2096313,87.0
21597,-0.8749103,-0.833374,0.07377243,-1.1947632,-0.8007569,-1.2096313,87.0
21598,-0.8749103,-0.833374,0.07377243,-1.264856,-0.7943848,-1.2266235,87.0
21599,-1.1823257,-0.87145996,-0.50948715,-1.264856,-0.7943848,-1.2266235,87.0
21600,-1.1823257,-0.87145996,-0.50948715,-1.6652344,-0.8973999,-1.1650269,87.0
21601,-1.1888782,-0.81378174,-1.1499596,-1.6652344,-0.8973999,-1.1650269,87.0
21602,-1.1888782,-0.81378174,-1.1499596,-1.7735596,-0.79013675,-1.2552979,87.0
21603,-0.87080467,-0.35177994,-1.1543427,-1.7735596,-0.79013675,-1.2552979,87.0
21604,-0.87080467,-0.35177994,-1.1543427,-1.540979,-0.6860596,-1.4772583,87.0
21605,-0.6518562,0.17847824,-0.8471184,-1.540979,-0.6860596,-1.4772583,87.0
21606,-0.6518562,0.17847824,-0.8471184,-1.5547851,-0.80181885,-1.5208008,87.0
21607,-0.441651,-0.28191376,-1.6334457,-1.5547851,-0.80181885,-1.5208008,87.0
21608,-0.441651,-0.28191376,-1.6334457,-2.3927124,-0.56392825,-1.5728394,87.0
21609,-0.34661913,-0.31229782,-0.63645554,-2.3927124,-0.56392825,-1.5728394,87.0
21610,-0.34661913,-0.31229782,-0.63645554,-2.8281372,0.2548828,-2.0560548,87.0
21611,0.00910604,-0.048339844,2.9295654,-2.8281372,0.2548828,-2.0560548,87.0
21612,0.00910604,-0.048339844,2.9295654,-2.1941164,0.43754885,-1.4687623,87.0
21613,-0.32886028,-1.3238411,5.9464493,-2.1941164,0.43754885,-1.4687623,87.0
21614,-0.32886028,-1.3238411,5.9464493,-1.3360108,0.3175415,-1.2903442,87.0
21615,-0.42491674,-2.8042755,3.7317429,-1.3360108,0.3175415,-1.2903442,87.0
21616,-0.42491674,-2.8042755,3.7317429,-2.3109376,0.35471192,-1.1905152,87.0
21617,-0.31096613,-1.9262924,1.930378,-2.3109376,0.35471192,-1.1905152,87.0
21618,-0.31096613,-1.9262924,1.930378,-2.2365968,0.35789797,-1.1480347,87.0
21619,0.0838809,1.388546,-1.2394981,-2.2365968,0.35789797,-1.1480347,87.0
21620,0.0838809,1.388546,-1.2394981,-1.6046997,0.29417726,-1.3816773,87.0
21621,-0.06930888,1.5486412,-1.2791977,-1.6046997,0.29417726,-1.3816773,87.0
21622,-0.06930888,1.5486412,-1.2791977,-1.4018555,0.26550293,-1.3296387,87.0
21623,-0.24756134,0.955246,-0.9106369,-1.4018555,0.26550293,-1.3296387,87.0
21624,-0.24756134,0.955246,-0.9106369,-0.88253176,0.19541016,-1.2446778,87.0
21625,-0.38900363,-0.6930809,0.120075226,-0.88253176,0.19541016,-1.2446778,87.0
21626,-0.38900363,-0.6930809,0.120075226,-0.60109866,0.16885987,-1.2106934,87.0
21627,-0.7003753,-2.291832,0.6623459,-0.60109866,0.16885987,-1.2106934,87.0
21628,-0.7003753,-2.291832,0.6623459,-0.9494385,0.2793091,-1.080066,87.0
21629,-1.2801001,-2.8301544,0.39622116,-0.9494385,0.2793091,-1.080066,87.0
21630,-1.2801001,-2.8301544,0.39622116,-0.9494385,0.2793091,-1.080066,79.0
21631,-1.2801001,-2.8301544,0.39622116,-1.3222046,0.48533937,-1.0651978,79.0
21632,-1.6807573,-1.9199829,-0.08731079,-1.3222046,0.48533937,-1.0651978,79.0
21633,-1.6807573,-1.9199829,-0.08731079,-1.2552979,0.62340087,-1.0991821,79.0
21634,-1.5088637,-0.6186981,-0.34422684,-1.2552979,0.62340087,-1.0991821,79.0
21635,-1.5088637,-0.6186981,-0.34422684,-1.1151123,0.69349366,-1.1066163,79.0
21636,-0.49473763,-0.10902405,0.010494232,-1.1151123,0.69349366,-1.1066163,79.0
21637,-0.49473763,-0.10902405,0.010494232,-0.9345703,0.84323734,-0.97492677,79.0
21638,-0.21193981,-0.5146713,0.35772324,-0.9345703,0.84323734,-0.97492677,79.0
21639,-0.21193981,-0.5146713,0.35772324,-0.9420044,0.8496094,-0.91864014,79.0
21640,0.19988155,-1.4835281,1.0490341,-0.9420044,0.8496094,-0.91864014,79.0
21641,0.19988155,-1.4835281,1.0490341,-1.0790039,0.8262451,-0.903772,79.0
21642,0.17322326,-2.1331635,1.5407906,-1.0790039,0.8262451,-0.903772,79.0
21643,0.17322326,-2.1331635,1.5407906,-1.1013062,0.72216797,-1.0036011,79.0
21644,-0.1784625,-2.1791992,1.7570953,-1.1013062,0.72216797,-1.0036011,79.0
21645,-0.1784625,-2.1791992,1.7570953,-1.1862671,0.54693604,-1.1682129,79.0
21646,-0.57471585,-1.9600677,1.283081,-1.1862671,0.54693604,-1.1682129,79.0
21647,-0.57471585,-1.9600677,1.283081,-1.1087402,0.5161377,-1.1937011,79.0
21648,-0.7854686,-1.7655258,0.066711426,-1.1087402,0.5161377,-1.1937011,79.0
21649,-0.7854686,-1.7655258,0.066711426,-1.0726318,0.6414551,-1.173523,79.0
21650,-0.96185875,-1.491745,-0.95209885,-1.0726318,0.6414551,-1.173523,79.0
21651,-0.96185875,-1.491745,-0.95209885,-1.083252,0.7848267,-1.1809571,79.0
21652,-1.3381271,-1.3488159,-0.74733734,-1.083252,0.7848267,-1.1809571,79.0
21653,-1.3381271,-1.3488159,-0.74733734,-1.1512207,0.8931519,-1.3774292,79.0
21654,-1.5171571,-1.3619003,0.29011917,-1.1512207,0.8931519,-1.3774292,79.0
21655,-1.5171571,-1.3619003,0.29011917,-1.360437,0.84536135,-1.5484132,79.0
21656,-1.2013354,-1.7358704,1.1373177,-1.360437,0.84536135,-1.5484132,79.0
21657,-1.2013354,-1.7358704,1.1373177,-1.531421,0.7784546,-1.7629395,79.0
21658,-0.6325407,-1.7834396,1.4751015,-1.531421,0.7784546,-1.7629395,79.0
21659,-0.6325407,-1.7834396,1.4751015,-1.5558472,0.61278075,-1.8245362,79.0
21660,-0.42279243,-0.9532318,1.2117844,-1.5558472,0.61278075,-1.8245362,79.0
21661,-0.42279243,-0.9532318,1.2117844,-1.2956543,0.49277344,-1.8468384,79.0
21662,-0.5874281,0.1113739,0.42190552,-1.2956543,0.49277344,-1.8468384,79.0
21663,-0.5874281,0.1113739,0.42190552,-1.0577637,0.38444826,-1.8011719,79.0
21664,-0.79125595,0.559494,-0.37018967,-1.0577637,0.38444826,-1.8011719,79.0
21665,-0.79125595,0.559494,-0.37018967,-0.86553955,0.28568116,-1.7799317,79.0
21666,-0.92831707,0.15427399,-0.7717514,-0.86553955,0.28568116,-1.7799317,79.0
21667,-0.92831707,0.15427399,-0.7717514,-0.6945557,0.20496826,-1.6811646,79.0
21668,-0.9146261,-0.59394073,-0.7541084,-0.6945557,0.20496826,-1.6811646,79.0
21669,-0.9146261,-0.59394073,-0.7541084,-0.631897,0.24213867,-1.6110718,79.0
21670,-0.6438713,-0.93685913,-0.66719055,-0.631897,0.24213867,-1.6110718,79.0
21671,-0.6438713,-0.93685913,-0.66719055,-0.5957886,0.22302246,-1.628064,79.0
21672,-0.28379822,-1.134903,-0.80550766,-0.5957886,0.22302246,-1.628064,79.0
21673,-0.28379822,-1.134903,-0.80550766,-0.54693604,0.26125488,-1.5579712,79.0
21674,0.054089546,-1.0394516,-0.9179802,-0.54693604,0.26125488,-1.5579712,79.0
21675,0.054089546,-1.0394516,-0.9179802,-0.27293703,0.21027832,-1.8617066,79.0
21676,0.56397486,-8.621216E-4,-0.31896973,-0.27293703,0.21027832,-1.8617066,79.0
21677,0.56397486,-8.621216E-4,-0.31896973,0.059472658,0.20496826,-1.8829468,79.0
21678,0.74036455,0.46743774,0.8764763,0.059472658,0.20496826,-1.8829468,79.0
21679,0.74036455,0.46743774,0.8764763,0.06478272,0.1720459,-1.9233032,79.0
21680,0.48062134,-0.418396,1.2140579,0.06478272,0.1720459,-1.9233032,79.0
21681,0.48062134,-0.418396,1.2140579,-0.124255374,-0.038232423,-1.9264892,79.0
21682,0.12507296,-1.0649872,0.3963089,-0.124255374,-0.038232423,-1.9264892,79.0
21683,0.12507296,-1.0649872,0.3963089,0.052038576,-0.21558838,-1.811792,79.0
21684,0.031320572,-1.4031982,-0.1235199,0.052038576,-0.21558838,-1.811792,79.0
21685,0.031320572,-1.4031982,-0.1235199,-0.1444336,-0.4078125,-1.5781494,79.0
21686,0.46497345,-1.9016113,0.12717438,-0.1444336,-0.4078125,-1.5781494,79.0
21687,0.46497345,-1.9016113,0.12717438,-0.36745605,-0.59472656,-1.9158691,79.0
21688,0.46087074,-1.1392593,0.22982788,-0.36745605,-0.59472656,-1.9158691,79.0
21689,0.46087074,-1.1392593,0.22982788,-0.038232423,-0.8092529,-1.8659546,79.0
21690,0.48570108,0.34670258,0.033058167,-0.038232423,-0.8092529,-1.8659546,79.0
21691,0.48570108,0.34670258,0.033058167,0.0637207,-0.9133301,-1.5813354,79.0
21692,1.5359974,0.22477722,-0.17462921,0.0637207,-0.9133301,-1.5813354,79.0
21693,1.5359974,0.22477722,-0.17462921,-0.29523927,-0.90908206,-1.3774292,79.0
21694,1.8176651,-1.2633057,-0.6898155,-0.29523927,-0.90908206,-1.3774292,79.0
21695,1.8176651,-1.2633057,-0.6898155,-0.96643066,-0.79969484,-1.4984986,79.0
21696,0.8743348,-2.5608978,-1.3462601,-0.96643066,-0.79969484,-1.4984986,79.0
21697,0.8743348,-2.5608978,-1.3462601,-0.41418457,-0.8442993,-1.1278565,79.0
21698,-0.03502941,-1.4273682,-1.0637131,-0.41418457,-0.8442993,-1.1278565,79.0
21699,-0.03502941,-1.4273682,-1.0637131,-0.6796875,-0.84323734,-1.713025,79.0
21700,-0.41308212,1.326294,0.38116074,-0.6796875,-0.84323734,-1.713025,79.0
21701,-0.41308212,1.326294,0.38116074,-0.7041138,-1.0790039,-1.6068238,79.0
21702,-0.10904217,2.2000961,2.196064,-0.7041138,-1.0790039,-1.6068238,79.0
21703,-0.10904217,2.2000961,2.196064,-0.5171997,-0.8219971,-1.8394043,79.0
21704,0.048923492,1.1767883,3.7437172,-0.5171997,-0.8219971,-1.8394043,79.0
21705,0.048923492,1.1767883,3.7437172,-0.45347902,-0.5522461,-1.8733886,79.0
21706,-0.08484793,-0.23815918,3.613575,-0.45347902,-0.5522461,-1.8733886,79.0
21707,-0.08484793,-0.23815918,3.613575,-0.76677245,-0.25913087,-2.0464966,79.0
21708,0.3151784,-0.9628067,1.1702538,-0.76677245,-0.25913087,-2.0464966,79.0
21709,0.3151784,-0.9628067,1.1702538,-1.1002442,0.13381349,-1.9487915,79.0
21710,0.81211567,-1.2033005,-2.033867,-1.1002442,0.13381349,-1.9487915,79.0
21711,0.81211567,-1.2033005,-2.033867,-1.2829102,0.11044922,-1.6535523,79.0
21712,1.2383642,-1.8850937,-3.6355896,-1.2829102,0.11044922,-1.6535523,79.0
21713,1.2383642,-1.8850937,-3.6355896,-1.3466309,0.32497558,-1.3731812,79.0
21714,1.7017143,-2.7301865,-2.80896,-1.3466309,0.32497558,-1.3731812,79.0
21715,1.7017143,-2.7301865,-2.80896,-1.2436157,0.1985962,-1.269104,79.0
21716,1.7017143,-2.7301865,-2.80896,-1.2436157,0.1985962,-1.269104,79.0
21717,1.5057807,-2.7467117,-1.325428,-1.2436157,0.1985962,-1.269104,79.0
21718,1.5057807,-2.7467117,-1.325428,-1.4623902,0.026550293,-1.1363525,79.0
21719,0.37774467,-2.4928894,-1.2428627,-1.4623902,0.026550293,-1.1363525,79.0
21720,0.37774467,-2.4928894,-1.2428627,-1.0248413,-0.7869507,-1.0768799,79.0
21721,-0.642128,-2.2844238,-1.7806778,-1.0248413,-0.7869507,-1.0768799,79.0
21722,-0.642128,-2.2844238,-1.7806778,-1.3211426,-0.3982544,-0.59260255,79.0
21723,-0.7568054,-1.8449326,-0.7412071,-1.3211426,-0.3982544,-0.59260255,79.0
21724,-0.7568054,-1.8449326,-0.7412071,-1.4379638,-0.24638672,-0.26975098,79.0
21725,-0.9206786,-1.5782547,1.2593384,-1.4379638,-0.24638672,-0.26975098,79.0
21726,-0.9206786,-1.5782547,1.2593384,-1.3774292,-0.19647217,-0.07965088,79.0
21727,-1.6979933,-1.2759323,2.1125374,-1.3774292,-0.19647217,-0.07965088,79.0
21728,-1.6979933,-1.2759323,2.1125374,-1.7236451,0.026550293,0.15080567,79.0
21729,-2.6135583,-0.7269745,1.9409714,-1.7236451,0.026550293,0.15080567,79.0
21730,-2.6135583,-0.7269745,1.9409714,-1.454956,0.31010744,0.50870365,79.0
21731,-2.9291768,-0.20684814,2.3909378,-1.454956,0.31010744,0.50870365,79.0
21732,-2.9291768,-0.20684814,2.3909378,-0.5968506,0.7625244,0.6690674,79.0
21733,-2.627802,0.5408325,3.8028107,-0.5968506,0.7625244,0.6690674,79.0
21734,-2.627802,0.5408325,3.8028107,-0.011682129,1.2085694,0.6701294,79.0
21735,-2.3354568,1.7422028,4.5668106,-0.011682129,1.2085694,0.6701294,79.0
21736,-2.3354568,1.7422028,4.5668106,-0.06159668,1.5505371,0.46409914,79.0
21737,-2.2995176,2.8580704,3.5884857,-0.06159668,1.5505371,0.46409914,79.0
21738,-2.2995176,2.8580704,3.5884857,-0.3355957,1.7778076,0.3451538,79.0
21739,-2.1506004,3.21904,1.4833717,-0.3355957,1.7778076,0.3451538,79.0
21740,-2.1506004,3.21904,1.4833717,-0.544812,2.0549927,0.14124756,79.0
21741,-1.7590303,3.0113525,-0.5003395,-0.544812,2.0549927,0.14124756,79.0
21742,-1.7590303,3.0113525,-0.5003395,-0.76677245,2.1909301,-0.16036378,79.0
21743,-1.3040018,2.6345673,-1.619976,-0.76677245,2.1909301,-0.16036378,79.0
21744,-1.3040018,2.6345673,-1.619976,-1.1246704,2.179248,-0.4885254,79.0
21745,-0.86335564,2.06102,-2.0002556,-1.1246704,2.179248,-0.4885254,79.0
21746,-0.86335564,2.06102,-2.0002556,-1.442212,1.993396,-0.7540283,79.0
21747,-0.44909477,1.1869125,-2.2239838,-1.442212,1.993396,-0.7540283,79.0
21748,-0.44909477,1.1869125,-2.2239838,-1.442212,1.6121339,-0.996167,79.0
21749,-0.16137505,0.3831482,-2.7415543,-1.442212,1.6121339,-0.996167,79.0
21750,-0.16137505,0.3831482,-2.7415543,-1.4592041,1.2255615,-1.2776002,79.0
21751,0.005457878,-0.11406708,-3.4450874,-1.4592041,1.2255615,-1.2776002,79.0
21752,0.005457878,-0.11406708,-3.4450874,-1.3052124,0.8581055,-1.4910644,79.0
21753,0.22502041,-0.53302765,-3.8728905,-1.3052124,0.8581055,-1.4910644,79.0
21754,0.22502041,-0.53302765,-3.8728905,-1.1129884,0.5299439,-1.5792115,79.0
21755,0.5639887,-1.0508575,-3.7898674,-1.1129884,0.5299439,-1.5792115,79.0
21756,0.5639887,-1.0508575,-3.7898674,-0.721106,0.13699952,-1.7087768,79.0
21757,1.044672,-1.477356,-3.3307343,-0.721106,0.13699952,-1.7087768,79.0
21758,1.044672,-1.477356,-3.3307343,-0.39188233,-0.3175415,-1.8914429,79.0
21759,1.7353106,-1.6632843,-2.8370972,-0.39188233,-0.3175415,-1.8914429,79.0
21760,1.7353106,-1.6632843,-2.8370972,-0.34090576,-0.8007569,-1.99552,79.0
21761,2.5762854,-1.818779,-2.4635124,-0.34090576,-0.8007569,-1.99552,79.0
21762,2.5762854,-1.818779,-2.4635124,-0.544812,-1.2160034,-2.1027832,79.0
21763,3.4563656,-2.0112991,-2.162571,-0.544812,-1.2160034,-2.1027832,79.0
21764,3.4563656,-2.0112991,-2.162571,-0.8358032,-1.6854126,-2.176062,79.0
21765,4.1480274,-2.0592499,-1.9351463,-0.8358032,-1.6854126,-2.176062,79.0
21766,4.1480274,-2.0592499,-1.9351463,-1.1023682,-1.989148,-2.1484497,79.0
21767,4.472609,-1.8458405,-1.7339592,-1.1023682,-1.989148,-2.1484497,79.0
21768,4.472609,-1.8458405,-1.7339592,-1.2744141,-2.264209,-2.0539308,79.0
21769,4.6448965,-1.6459808,-1.5844727,-1.2744141,-2.264209,-2.0539308,79.0
21770,4.6448965,-1.6459808,-1.5844727,-1.2096313,-2.2376587,-1.902063,79.0
21771,5.268102,-2.8183212,-1.1264534,-1.2096313,-2.2376587,-1.902063,79.0
21772,5.268102,-2.8183212,-1.1264534,1.089624,-1.4135376,-1.7034668,79.0
21773,5.7681684,-3.6131058,0.8730812,1.089624,-1.4135376,-1.7034668,79.0
21774,5.7681684,-3.6131058,0.8730812,2.4946656,0.24320069,-1.351941,79.0
21775,4.122103,-1.293808,3.5002327,2.4946656,0.24320069,-1.351941,79.0
21776,4.122103,-1.293808,3.5002327,-0.78164065,0.14974366,-0.8814697,79.0
21777,1.1848042,1.187294,3.6054726,-0.78164065,0.14974366,-0.8814697,79.0
21778,1.1848042,1.187294,3.6054726,-1.1809571,0.1359375,-0.541626,79.0
21779,-0.4402426,1.7696457,1.201149,-1.1809571,0.1359375,-0.541626,79.0
21780,-0.4402426,1.7696457,1.201149,-0.92501223,0.18372802,-0.49277344,79.0
21781,-0.799948,1.7110672,-0.8501549,-0.92501223,0.18372802,-0.49277344,79.0
21782,-0.799948,1.7110672,-0.8501549,0.04885254,0.07752686,-0.34090576,79.0
21783,-0.56521475,0.8895569,-1.9876328,0.04885254,0.07752686,-0.34090576,79.0
21784,-0.56521475,0.8895569,-1.9876328,1.1193603,-0.18691407,-0.1709839,79.0
21785,0.40732527,-0.46717834,-1.721283,1.1193603,-0.18691407,-0.1709839,79.0
21786,0.40732527,-0.46717834,-1.721283,1.4050416,-0.052038576,0.1996582,79.0
21787,1.5415341,-1.2839737,-0.003917694,1.4050416,-0.052038576,0.1996582,79.0
21788,1.5415341,-1.2839737,-0.003917694,1.9817139,-0.4609131,0.21983643,79.0
21789,1.6335447,-0.29784393,1.7372818,1.9817139,-0.4609131,0.21983643,79.0
21790,1.6335447,-0.29784393,1.7372818,2.2249146,-0.5246338,0.11682129,79.0
21791,0.6709837,1.4226837,2.8897629,2.2249146,-0.5246338,0.11682129,79.0
21792,0.6709837,1.4226837,2.8897629,1.4942505,-0.20496826,0.3154175,79.0
21793,-0.7903981,1.0945435,3.1357346,1.4942505,-0.20496826,0.3154175,79.0
21794,-0.7903981,1.0945435,3.1357346,1.9381714,-0.48427734,0.36108398,79.0
21795,-1.6581242,-0.20590973,2.4285355,1.9381714,-0.48427734,0.36108398,79.0
21796,-1.6581242,-0.20590973,2.4285355,2.3364258,-0.5671143,0.4163086,79.0
21797,-1.2605326,-0.15784454,1.3173523,2.3364258,-0.5671143,0.4163086,79.0
21798,-1.2605326,-0.15784454,1.3173523,2.265271,-0.49064943,0.29736328,79.0
21799,-0.9410189,0.12818146,-0.5046272,2.265271,-0.49064943,0.29736328,79.0
21800,-0.9410189,0.12818146,-0.5046272,1.5962037,-0.4598511,0.3706421,79.0
21801,-1.4149122,0.050941467,-1.9792404,1.5962037,-0.4598511,0.3706421,79.0
21802,-1.4149122,0.050941467,-1.9792404,1.622754,-0.41524658,-0.013806152,79.0
21803,-1.7706262,0.046211243,-1.728241,1.622754,-0.41524658,-0.013806152,79.0
21804,-1.7706262,0.046211243,-1.728241,1.5813354,-0.74447024,0.1539917,79.0
21805,-1.1830415,0.5661545,-0.27593994,1.5813354,-0.74447024,0.1539917,79.0
21806,-1.1830415,0.5661545,-0.27593994,1.7905518,-0.8315552,-0.107263185,79.0
21807,-0.013156772,1.6745911,0.98685074,1.7905518,-0.8315552,-0.107263185,79.0
21808,-0.013156772,1.6745911,0.98685074,1.3986695,-0.8007569,-0.050976563,79.0
21809,0.9855561,2.380043,0.9907837,1.3986695,-0.8007569,-0.050976563,79.0
21810,0.9855561,2.380043,0.9907837,1.1480347,-0.9611206,-0.03186035,79.0
21811,1.7838306,2.662056,0.06953049,1.1480347,-0.9611206,-0.03186035,79.0
21812,1.7838306,2.662056,0.06953049,0.47896728,-0.811377,0.059472658,79.0
21813,2.540529,2.4992294,-0.79792786,0.47896728,-0.811377,0.059472658,79.0
21814,2.540529,2.4992294,-0.79792786,0.22939454,-0.544812,0.06584473,79.0
21815,2.8136733,1.9558029,-0.98871994,0.22939454,-0.544812,0.06584473,79.0
21816,2.8136733,1.9558029,-0.98871994,-0.039294433,-0.19222413,0.08920898,79.0
21817,2.1025376,1.2672882,-0.59132004,-0.039294433,-0.19222413,0.08920898,79.0
21818,2.1025376,1.2672882,-0.59132004,-0.42268068,0.0031860352,0.16885987,79.0
21819,0.5568104,0.24284363,-0.24197769,-0.42268068,0.0031860352,0.16885987,79.0
21820,0.5568104,0.24284363,-0.24197769,-0.41737062,0.03186035,0.16461182,79.0
21821,-0.8415146,-0.38321686,-0.17448044,-0.41737062,0.03186035,0.16461182,79.0
21822,-0.8415146,-0.38321686,-0.17448044,-0.48321533,-0.0063720704,0.06690674,79.0
21823,-1.2473817,-0.34687042,-0.12605667,-0.48321533,-0.0063720704,0.06690674,79.0
21824,-1.2473817,-0.34687042,-0.12605667,-0.41843262,-0.070092775,0.04248047,79.0
21825,-0.63164556,-0.24201965,0.15963745,-0.41843262,-0.070092775,0.04248047,79.0
21826,-0.63164556,-0.24201965,0.15963745,-0.34727785,-0.039294433,0.043542482,79.0
21827,0.2506771,-0.03328705,0.30168533,-0.34727785,-0.039294433,0.043542482,79.0
21828,0.2506771,-0.03328705,0.30168533,-0.30267334,-0.004248047,0.03186035,79.0
21829,0.50326383,0.20114899,0.061660767,-0.30267334,-0.004248047,0.03186035,79.0
21830,0.50326383,0.20114899,0.061660767,-0.0998291,0.021240234,0.06690674,79.0
21831,0.26827264,0.30719757,-0.2586937,-0.0998291,0.021240234,0.06690674,79.0
21832,0.26827264,0.30719757,-0.2586937,-0.10195313,0.009558106,0.04885254,79.0
21833,-0.031683207,0.28536987,-0.13136673,-0.10195313,0.009558106,0.04885254,79.0
21834,-0.031683207,0.28536987,-0.13136673,-0.04885254,0.02442627,0.039294433,79.0
21835,-0.12394285,-0.054611206,0.4905243,-0.04885254,0.02442627,0.039294433,79.0
21836,-0.12394285,-0.054611206,0.4905243,-0.16248779,0.0021240234,0.015930176,79.0
21837,-0.107845664,-0.2532196,0.58419037,-0.16248779,0.0021240234,0.015930176,79.0
21838,-0.107845664,-0.2532196,0.58419037,-0.16779785,-0.06584473,-0.07327881,79.0
21839,-0.28788793,-0.19200134,0.16482544,-0.16779785,-0.06584473,-0.07327881,79.0
21840,-0.28788793,-0.19200134,0.16482544,0.18372802,-0.13806152,-0.047790527,79.0
21841,-0.23162878,0.0072631836,-0.108104706,0.18372802,-0.13806152,-0.047790527,79.0
21842,-0.23162878,0.0072631836,-0.108104706,0.15717773,-0.22196046,-0.14655761,79.0
21843,0.15798306,0.30776215,-0.2036438,0.15717773,-0.22196046,-0.14655761,79.0
21844,0.15798306,0.30776215,-0.2036438,0.18903808,-0.17416993,-0.058410645,79.0
21845,0.35303438,0.40841675,-0.112831116,0.18903808,-0.17416993,-0.058410645,79.0
21846,0.35303438,0.40841675,-0.112831116,0.1985962,-0.13912354,-0.09451904,79.0
21847,0.23313546,0.43218994,0.07771301,0.1985962,-0.13912354,-0.09451904,79.0
21848,0.23313546,0.43218994,0.07771301,0.19116211,-0.16885987,-0.16885987,79.0
21849,0.10914016,0.3344345,0.24993896,0.19116211,-0.16885987,-0.16885987,79.0
21850,0.10914016,0.3344345,0.24993896,0.14868164,-0.20178223,-0.16673584,79.0
21851,0.07195568,0.19324493,0.24592209,0.14868164,-0.20178223,-0.16673584,79.0
21852,0.07195568,0.19324493,0.24592209,0.10089111,-0.2623169,-0.23258057,79.0
21853,0.06354594,0.21761322,-0.0053863525,0.10089111,-0.2623169,-0.23258057,79.0
21854,0.06354594,0.21761322,-0.0053863525,0.09770508,-0.32072756,-0.23789063,79.0
21855,0.15277767,0.3201828,-0.288208,0.09770508,-0.32072756,-0.23789063,79.0
21856,0.15277767,0.3201828,-0.288208,0.15186767,-0.3069214,-0.19328614,79.0
21857,0.28795695,0.30769348,-0.21504211,0.15186767,-0.3069214,-0.19328614,79.0
21858,0.28795695,0.30769348,-0.21504211,0.25063476,-0.31860352,-0.16354981,79.0
21859,0.38490653,0.25740814,-0.013988495,0.25063476,-0.31860352,-0.16354981,79.0
21860,0.38490653,0.25740814,-0.013988495,0.16461182,-0.33878174,-0.16142578,79.0
21861,0.37647998,0.23857117,-0.1553917,0.16461182,-0.33878174,-0.16142578,79.0
21862,0.37647998,0.23857117,-0.1553917,0.16142578,-0.3058594,-0.08283692,79.0
21863,0.26712644,0.10535431,-0.3940277,0.16142578,-0.3058594,-0.08283692,79.0
21864,0.26712644,0.10535431,-0.3940277,0.24107666,-0.26125488,-0.10620117,79.0
21865,0.24166751,0.023101807,-0.5001221,0.24107666,-0.26125488,-0.10620117,79.0
21866,0.24166751,0.023101807,-0.5001221,0.2166504,-0.20390625,-0.14974366,79.0
21867,0.27349758,0.13336182,-0.4833145,0.2166504,-0.20390625,-0.14974366,79.0
21868,0.27349758,0.13336182,-0.4833145,0.17416993,-0.1274414,-0.14337158,79.0
21869,0.29027033,0.19049072,-0.27260208,0.17416993,-0.1274414,-0.14337158,79.0
21870,0.29027033,0.19049072,-0.27260208,0.17416993,-0.1274414,-0.14337158,82.0
21871,0.29027033,0.19049072,-0.27260208,0.05628662,-0.090270996,-0.16673584,82.0
21872,0.254848,0.17838287,-0.09897995,0.05628662,-0.090270996,-0.16673584,82.0
21873,0.254848,0.17838287,-0.09897995,0.0021240234,-0.078588866,-0.13168946,82.0
21874,0.14029193,0.271286,-0.13996124,0.0021240234,-0.078588866,-0.13168946,82.0
21875,0.14029193,0.271286,-0.13996124,0.07965088,-0.058410645,-0.093457036,82.0
21876,0.16504121,0.3587265,-0.111896515,0.07965088,-0.058410645,-0.093457036,82.0
21877,0.16504121,0.3587265,-0.111896515,0.124255374,-0.03717041,-0.020178223,82.0
21878,0.25901055,0.2679901,0.076545715,0.124255374,-0.03717041,-0.020178223,82.0
21879,0.25901055,0.2679901,0.076545715,0.06903076,-0.035046387,-0.039294433,82.0
21880,0.16986704,0.21006775,0.092033386,0.06903076,-0.035046387,-0.039294433,82.0
21881,0.16986704,0.21006775,0.092033386,0.027612304,-0.028674318,-0.06903076,82.0
21882,0.004973173,0.26408386,-0.10519409,0.027612304,-0.028674318,-0.06903076,82.0
21883,0.004973173,0.26408386,-0.10519409,0.052038576,-0.021240234,-0.046728518,82.0
21884,-0.072059155,0.17552185,-0.16788483,0.052038576,-0.021240234,-0.046728518,82.0
21885,-0.072059155,0.17552185,-0.16788483,0.022302246,-0.015930176,-0.043542482,82.0
21886,-0.07654381,0.030685425,-0.001045227,0.022302246,-0.015930176,-0.043542482,82.0
21887,-0.07654381,0.030685425,-0.001045227,-0.12956543,-0.025488282,-0.13062744,82.0
21888,-0.030314684,0.0836792,0.07954788,-0.12956543,-0.025488282,-0.13062744,82.0
21889,-0.030314684,0.0836792,0.07954788,-0.18903808,-0.02442627,-0.14230958,82.0
21890,0.022269249,0.23730469,-0.032260895,-0.18903808,-0.02442627,-0.14230958,82.0
21891,0.022269249,0.23730469,-0.032260895,-0.093457036,-0.03186035,-0.08814698,82.0
21892,0.05968547,0.21097565,-0.10934067,-0.093457036,-0.03186035,-0.08814698,82.0
21893,0.05968547,0.21097565,-0.10934067,-0.070092775,-0.007434082,-0.06796875,82.0
21894,0.122235775,0.04324341,0.025684357,-0.070092775,-0.007434082,-0.06796875,82.0
21895,0.122235775,0.04324341,0.025684357,-0.004248047,-0.015930176,-0.10513916,82.0
21896,0.13494682,0.010292053,0.23447418,-0.004248047,-0.015930176,-0.10513916,82.0
21897,0.13494682,0.010292053,0.23447418,-0.021240234,-0.010620117,-0.11257324,82.0
21898,0.07997894,0.14107513,0.30473328,-0.021240234,-0.010620117,-0.11257324,82.0
21899,0.07997894,0.14107513,0.30473328,-0.025488282,-0.03186035,-0.12531738,82.0
21900,0.016155958,0.22024536,0.19747543,-0.025488282,-0.03186035,-0.12531738,82.0
21901,0.016155958,0.22024536,0.19747543,-0.078588866,-0.052038576,-0.14655761,82.0
21902,-0.052639246,0.16499329,-0.012321472,-0.078588866,-0.052038576,-0.14655761,82.0
21903,-0.052639246,0.16499329,-0.012321472,-0.08071289,-0.08496094,-0.1444336,82.0
21904,-0.017416477,-0.071395874,-0.34233093,-0.08071289,-0.08496094,-0.1444336,82.0
21905,-0.017416477,-0.071395874,-0.34233093,-0.08496094,-0.10513916,-0.13062744,82.0
21906,0.40210676,-1.024231,-0.7981911,-0.08496094,-0.10513916,-0.13062744,82.0
21907,0.40210676,-1.024231,-0.7981911,-0.3462158,-0.012744141,0.32922363,82.0
21908,0.7774229,-0.98293304,-0.77926636,-0.3462158,-0.012744141,0.32922363,82.0
21909,0.7774229,-0.98293304,-0.77926636,-0.058410645,0.15717773,-0.011682129,82.0
21910,0.44470453,-0.14936829,-0.48846436,-0.058410645,0.15717773,-0.011682129,82.0
21911,0.44470453,-0.14936829,-0.48846436,-0.29205322,0.17735596,0.1178833,82.0
21912,0.062001467,-0.3667221,-0.3107071,-0.29205322,0.17735596,0.1178833,82.0
21913,0.062001467,-0.3667221,-0.3107071,-0.045666505,0.22089843,0.04885254,82.0
21914,-0.019429445,-0.5859451,-0.05506134,-0.045666505,0.22089843,0.04885254,82.0
21915,-0.019429445,-0.5859451,-0.05506134,-0.21452637,0.3154175,-0.0021240234,82.0
21916,-0.17445469,-0.108810425,0.37589645,-0.21452637,0.3154175,-0.0021240234,82.0
21917,-0.17445469,-0.108810425,0.37589645,-0.2516968,0.29417726,-0.19541016,82.0
21918,-0.3802619,0.5320511,0.7011795,-0.2516968,0.29417726,-0.19541016,82.0
21919,-0.3802619,0.5320511,0.7011795,-0.5671143,0.37382814,-0.18691407,82.0
21920,-0.12501049,1.0648117,0.5255928,-0.5671143,0.37382814,-0.18691407,82.0
21921,-0.12501049,1.0648117,0.5255928,-1.0057251,0.64995116,-0.10513916,82.0
21922,0.29675674,1.1699066,0.17551422,-1.0057251,0.64995116,-0.10513916,82.0
21923,0.29675674,1.1699066,0.17551422,-1.4379638,0.8050049,0.1178833,82.0
21924,0.117874146,0.56970215,0.33720016,-1.4379638,0.8050049,0.1178833,82.0
21925,0.117874146,0.56970215,0.33720016,-1.7608155,0.9260742,0.06690674,82.0
21926,-0.3754518,-0.5194931,0.47813416,-1.7608155,0.9260742,0.06690674,82.0
21927,-0.3754518,-0.5194931,0.47813416,-1.9233032,0.9228882,0.11151123,82.0
21928,-0.7692213,-1.3134232,-0.1745758,-1.9233032,0.9228882,0.11151123,82.0
21929,-0.7692213,-1.3134232,-0.1745758,-1.9498535,0.88996583,0.04141846,82.0
21930,-1.1112144,-1.5575027,-0.8843994,-1.9498535,0.88996583,0.04141846,82.0
21931,-1.1112144,-1.5575027,-0.8843994,-1.9158691,1.0120972,0.12319336,82.0
21932,-1.4449408,-2.040413,-0.51413727,-1.9158691,1.0120972,0.12319336,82.0
21933,-1.4449408,-2.040413,-0.51413727,-1.721521,0.90695804,0.05522461,82.0
21934,-1.7462114,-2.8454971,0.2868805,-1.721521,0.90695804,0.05522461,82.0
21935,-1.7462114,-2.8454971,0.2868805,-1.173523,0.56392825,-0.098767094,82.0
21936,-1.8615565,-3.1727753,0.59719086,-1.173523,0.56392825,-0.098767094,82.0
21937,-1.8615565,-3.1727753,0.59719086,-0.45029297,0.17735596,-0.30161133,82.0
21938,-1.3241696,-2.0802612,0.4213562,-0.45029297,0.17735596,-0.30161133,82.0
21939,-1.3241696,-2.0802612,0.4213562,-0.52675784,0.20709229,-0.4991455,82.0
21940,-0.2815891,-0.23823547,-0.10587311,-0.52675784,0.20709229,-0.4991455,82.0
21941,-0.2815891,-0.23823547,-0.10587311,-0.84111327,0.23895264,-0.39613038,82.0
21942,0.3935032,0.45522308,-0.5523224,-0.84111327,0.23895264,-0.39613038,82.0
21943,0.3935032,0.45522308,-0.5523224,-0.903772,0.3154175,-0.3430298,82.0
21944,0.5275711,-0.16065216,-0.6423111,-0.903772,0.3154175,-0.3430298,82.0
21945,0.5275711,-0.16065216,-0.6423111,-0.7189819,0.3069214,-0.36639404,82.0
21946,0.39108765,-0.933197,-0.44528198,-0.7189819,0.3069214,-0.36639404,82.0
21947,0.39108765,-0.933197,-0.44528198,-0.42268068,0.1996582,-0.35471192,82.0
21948,0.20663232,-1.2401962,0.05834961,-0.42268068,0.1996582,-0.35471192,82.0
21949,0.20663232,-1.2401962,0.05834961,-0.30054933,0.16779785,-0.36851808,82.0
21950,0.1511457,-1.0772171,0.41175842,-0.30054933,0.16779785,-0.36851808,82.0
21951,0.1511457,-1.0772171,0.41175842,-0.4959595,0.1274414,-0.38338622,82.0
21952,0.32692242,-0.9105377,0.028198242,-0.4959595,0.1274414,-0.38338622,82.0
21953,0.32692242,-0.9105377,0.028198242,-0.9143921,0.3451538,-0.26337892,82.0
21954,0.4739281,-0.9132309,-0.50388336,-0.9143921,0.3451538,-0.26337892,82.0
21955,0.4739281,-0.9132309,-0.50388336,-1.2117554,0.4163086,-0.26975098,82.0
21956,0.3896649,-0.8729706,-0.6325226,-1.2117554,0.4163086,-0.26975098,82.0
21957,0.3896649,-0.8729706,-0.6325226,-0.80394286,0.5097656,-0.20709229,82.0
21958,0.3314706,-0.70854187,-0.75964355,-0.80394286,0.5097656,-0.20709229,82.0
21959,0.3314706,-0.70854187,-0.75964355,-0.54693604,0.3971924,-0.21983643,82.0
21960,0.26308906,-0.50881195,-0.98859787,-0.54693604,0.3971924,-0.21983643,82.0
21961,0.26308906,-0.50881195,-0.98859787,-0.6881836,0.4163086,-0.03079834,82.0
21962,0.12873292,-0.34783173,-0.8722534,-0.6881836,0.4163086,-0.03079834,82.0
21963,0.12873292,-0.34783173,-0.8722534,-0.7455322,0.3345337,0.010620117,82.0
21964,-0.121806145,-0.060653687,-0.44641113,-0.7455322,0.3345337,0.010620117,82.0
21965,-0.121806145,-0.060653687,-0.44641113,-0.8973999,0.32178956,-0.10301514,82.0
21966,-0.40585566,0.1737442,0.04925537,-0.8973999,0.32178956,-0.10301514,82.0
21967,-0.40585566,0.1737442,0.04925537,-0.95793456,0.31223145,-0.06159668,82.0
21968,-0.66134226,0.06755066,0.35147858,-0.95793456,0.31223145,-0.06159668,82.0
21969,-0.66134226,0.06755066,0.35147858,-0.88359374,0.19753419,-0.16248779,82.0
21970,-0.92006505,-0.15248871,0.58914185,-0.88359374,0.19753419,-0.16248779,82.0
21971,-0.92006505,-0.15248871,0.58914185,-0.83474123,-0.032922365,-0.2888672,82.0
21972,-0.92006505,-0.15248871,0.58914185,-0.83474123,-0.032922365,-0.2888672,84.0
21973,-0.9821946,0.003036499,-0.02532959,-0.83474123,-0.032922365,-0.2888672,84.0
21974,-0.9821946,0.003036499,-0.02532959,-1.2340577,0.19116211,-0.26975098,84.0
21975,-0.8411268,0.38923645,-1.1494141,-1.2340577,0.19116211,-0.26975098,84.0
21976,-0.8411268,0.38923645,-1.1494141,-1.6907227,0.24320069,-0.16567384,84.0
21977,-0.5948985,-0.008361816,-0.8881111,-1.6907227,0.24320069,-0.16567384,84.0
21978,-0.5948985,-0.008361816,-0.8881111,-1.6917847,0.3440918,-0.059472658,84.0
21979,-0.50549644,-1.0075531,0.23978043,-1.6917847,0.3440918,-0.059472658,84.0
21980,-0.50549644,-1.0075531,0.23978043,-1.905249,0.22727051,-0.17629395,84.0
21981,-0.79482687,-1.5403442,0.345253,-1.905249,0.22727051,-0.17629395,84.0
21982,-0.79482687,-1.5403442,0.345253,-3.064966,0.19541016,-0.2803711,84.0
21983,-1.0928073,-1.6571198,-0.6257019,-3.064966,0.19541016,-0.2803711,84.0
21984,-1.0928073,-1.6571198,-0.6257019,-4.286279,0.43117675,-0.43117675,84.0
21985,-1.1041775,-1.7356415,-1.6742554,-4.286279,0.43117675,-0.43117675,84.0
21986,-1.1041775,-1.7356415,-1.6742554,-5.6530886,0.6680054,-0.6149048,84.0
21987,-0.9950119,-2.0323715,-2.2029915,-5.6530886,0.6680054,-0.6149048,84.0
21988,-0.9950119,-2.0323715,-2.2029915,-5.9122195,0.79332274,-0.4619751,84.0
21989,-0.92556286,-2.458702,-2.341507,-5.9122195,0.79332274,-0.4619751,84.0
21990,-0.92556286,-2.458702,-2.341507,-5.3323607,0.71579593,-0.8379273,84.0
21991,-1.0401452,-2.398613,-2.3839874,-5.3323607,0.71579593,-0.8379273,84.0
21992,-1.0401452,-2.398613,-2.3839874,-4.7386966,0.6616333,-0.71367186,84.0
21993,-0.8421869,-1.3849182,-2.924366,-4.7386966,0.6616333,-0.71367186,84.0
21994,-0.8421869,-1.3849182,-2.924366,-6.1118774,0.72854006,-0.7391602,84.0
21995,-0.46386182,-1.1423264,-3.5818024,-6.1118774,0.72854006,-0.7391602,84.0
21996,-0.46386182,-1.1423264,-3.5818024,-5.2208495,0.4800293,-0.33028564,84.0
21997,-0.250484,-2.8229904,-3.5400543,-5.2208495,0.4800293,-0.33028564,84.0
21998,-0.250484,-2.8229904,-3.5400543,-0.47790527,0.0637207,-0.27612305,84.0
21999,-0.012069225,-3.1614685,-2.7567406,-0.47790527,0.0637207,-0.27612305,84.0
22000,-0.012069225,-3.1614685,-2.7567406,1.7555054,-0.021240234,-0.24744873,84.0
22001,0.31269574,-1.6215286,-1.4624138,1.7555054,-0.021240234,-0.24744873,84.0
22002,0.31269574,-1.6215286,-1.4624138,2.4808595,-0.12319336,0.28674316,84.0
22003,0.5222391,-0.902359,-0.28769302,2.4808595,-0.12319336,0.28674316,84.0
22004,0.5222391,-0.902359,-0.28769302,2.5392702,-0.20072022,0.47896728,84.0
22005,0.5410212,-1.0883179,0.33405685,2.5392702,-0.20072022,0.47896728,84.0
22006,0.5410212,-1.0883179,0.33405685,2.151636,-0.20390625,0.6711914,84.0
22007,0.3480147,-1.2232513,0.6071739,2.151636,-0.20390625,0.6711914,84.0
22008,0.3480147,-1.2232513,0.6071739,2.095349,-0.15505372,0.8326172,84.0
22009,0.057757497,-0.68097687,0.8351402,2.095349,-0.15505372,0.8326172,84.0
22010,0.057757497,-0.68097687,0.8351402,2.9683228,-0.20496826,0.6956177,84.0
22011,-0.23921883,0.7330017,0.9201393,2.9683228,-0.20496826,0.6956177,84.0
22012,-0.23921883,0.7330017,0.9201393,3.533313,-0.27506104,0.6149048,84.0
22013,-0.6600884,1.88974,0.822525,3.533313,-0.27506104,0.6149048,84.0
22014,-0.6600884,1.88974,0.822525,4.1184816,-0.4959595,0.6223389,84.0
22015,-0.9922066,2.2054672,0.88505554,4.1184816,-0.4959595,0.6223389,84.0
22016,-0.9922066,2.2054672,0.88505554,4.2990236,-0.8931519,0.4619751,84.0
22017,-0.8352448,1.9796829,1.3314438,4.2990236,-0.8931519,0.4619751,84.0
22018,-0.8352448,1.9796829,1.3314438,4.445581,-1.4029175,0.25063476,84.0
22019,-0.08605468,1.9283295,1.5929871,4.445581,-1.4029175,0.25063476,84.0
22020,-0.08605468,1.9283295,1.5929871,4.1535277,-1.5898316,-0.26762697,84.0
22021,0.8523233,2.419716,1.2317009,4.1535277,-1.5898316,-0.26762697,84.0
22022,0.8523233,2.419716,1.2317009,3.437732,-1.7555054,-0.5055176,84.0
22023,1.6115706,2.70887,0.41386414,3.437732,-1.7555054,-0.5055176,84.0
22024,1.6115706,2.70887,0.41386414,2.5923707,-1.8733886,-0.51826173,84.0
22025,2.1268053,2.7781677,-0.62158203,2.5923707,-1.8733886,-0.51826173,84.0
22026,2.1268053,2.7781677,-0.62158203,1.8871949,-2.0178223,-0.69349366,84.0
22027,2.9979653,2.6332626,-0.752758,1.8871949,-2.0178223,-0.69349366,84.0
22028,2.9979653,2.6332626,-0.752758,2.2217286,-1.2043213,-0.5957886,84.0
22029,3.9165487,1.9008484,1.1980133,2.2217286,-1.2043213,-0.5957886,84.0
22030,3.9165487,1.9008484,1.1980133,2.2334106,-0.5968506,-0.14124756,84.0
22031,3.2787957,0.9412384,2.5302505,2.2334106,-0.5968506,-0.14124756,84.0
22032,3.2787957,0.9412384,2.5302505,1.9381714,-0.75721437,0.0637207,84.0
22033,2.0773702,0.5252533,1.7845497,1.9381714,-0.75721437,0.0637207,84.0
22034,2.0773702,0.5252533,1.7845497,1.7002808,-0.24107666,0.44923097,84.0
22035,1.485126,0.63256073,1.2995987,1.7002808,-0.24107666,0.44923097,84.0
22036,1.485126,0.63256073,1.2995987,1.4092896,-0.13487549,0.69349366,84.0
22037,0.7666042,0.8104019,2.33498,1.4092896,-0.13487549,0.69349366,84.0
22038,0.7666042,0.8104019,2.33498,2.1898682,-0.15823975,0.46834716,84.0
22039,-0.076841116,0.94031525,3.4859047,2.1898682,-0.15823975,0.46834716,84.0
22040,-0.076841116,0.94031525,3.4859047,2.8546875,-0.3345337,0.35471192,84.0
22041,-0.5883405,1.5647812,3.0966797,2.8546875,-0.3345337,0.35471192,84.0
22042,-0.5883405,1.5647812,3.0966797,2.2397828,-0.07327881,0.5235718,84.0
22043,-0.847589,1.703949,1.689331,2.2397828,-0.07327881,0.5235718,84.0
22044,-0.847589,1.703949,1.689331,1.9158691,-0.2516968,0.72960204,84.0
22045,-1.1267161,0.39164734,0.62688065,1.9158691,-0.2516968,0.72960204,84.0
22046,-1.1267161,0.39164734,0.62688065,2.5254638,-0.5628662,0.42268068,84.0
22047,-1.222198,-0.43395996,0.47166824,2.5254638,-0.5628662,0.42268068,84.0
22048,-1.222198,-0.43395996,0.47166824,2.8504395,-0.67437744,0.27506104,84.0
22049,-0.899963,0.23439789,0.57196426,2.8504395,-0.67437744,0.27506104,84.0
22050,-0.899963,0.23439789,0.57196426,2.3980224,-0.5957886,0.29311523,84.0
22051,-0.25965548,1.3545074,0.4352455,2.3980224,-0.5957886,0.29311523,84.0
22052,-0.25965548,1.3545074,0.4352455,2.1059692,-0.4991455,0.16354981,84.0
22053,0.46322286,2.195694,0.37021637,2.1059692,-0.4991455,0.16354981,84.0
22054,0.46322286,2.195694,0.37021637,1.634436,-0.31223145,0.13062744,84.0
22055,1.0432224,2.4586258,0.5968323,1.634436,-0.31223145,0.13062744,84.0
22056,1.0432224,2.4586258,0.5968323,1.4921265,-0.25700685,0.07752686,84.0
22057,1.2533402,2.4427872,0.77443695,1.4921265,-0.25700685,0.07752686,84.0
22058,1.2533402,2.4427872,0.77443695,1.2956543,-0.17416993,0.039294433,84.0
22059,1.0575428,2.3403168,0.53058624,1.2956543,-0.17416993,0.039294433,84.0
22060,1.0575428,2.3403168,0.53058624,1.2436157,-0.19434814,0.03186035,84.0
22061,0.53476715,1.8623657,0.008197784,1.2436157,-0.19434814,0.03186035,84.0
22062,0.53476715,1.8623657,0.008197784,1.4963745,-0.20072022,0.06690674,84.0
22063,-0.07584858,1.2728653,-0.07160568,1.4963745,-0.20072022,0.06690674,84.0
22064,-0.07584858,1.2728653,-0.07160568,1.8797607,-0.2538208,0.0541626,84.0
22065,-0.4115944,1.0452728,0.53643036,1.8797607,-0.2538208,0.0541626,84.0
22066,-0.4115944,1.0452728,0.53643036,2.1017213,-0.31329346,0.05522461,84.0
22067,-0.300699,1.1589584,1.1730652,2.1017213,-0.31329346,0.05522461,84.0
22068,-0.300699,1.1589584,1.1730652,2.2111084,-0.31116945,0.08496094,84.0
22069,-0.300699,1.1589584,1.1730652,2.2111084,-0.31116945,0.08496094,85.0
22070,0.20703602,1.4534149,1.5509529,2.2111084,-0.31116945,0.08496094,85.0
22071,0.20703602,1.4534149,1.5509529,2.4351928,-0.14868164,0.058410645,85.0
22072,0.8478553,2.7563477,1.8383179,2.4351928,-0.14868164,0.058410645,85.0
22073,0.8478553,2.7563477,1.8383179,1.1629028,0.23258057,-0.115759276,85.0
22074,0.99544716,3.3216553,1.0542374,1.1629028,0.23258057,-0.115759276,85.0
22075,0.99544716,3.3216553,1.0542374,0.8708496,-0.15930176,0.02442627,85.0
22076,0.65663624,2.219101,-1.0016022,0.8708496,-0.15930176,0.02442627,85.0
22077,0.65663624,2.219101,-1.0016022,0.88253176,-0.10301514,-0.12000733,85.0
22078,0.1993568,1.5297241,-2.746975,0.88253176,-0.10301514,-0.12000733,85.0
22079,0.1993568,1.5297241,-2.746975,0.5129517,-0.14868164,-0.15930176,85.0
22080,-0.09708214,1.0467682,-3.0081291,0.5129517,-0.14868164,-0.15930176,85.0
22081,-0.09708214,1.0467682,-3.0081291,0.28355715,-0.23682861,-0.070092775,85.0
22082,0.1026566,0.4806366,-1.9655762,0.28355715,-0.23682861,-0.070092775,85.0
22083,0.1026566,0.4806366,-1.9655762,0.31010744,-0.015930176,-0.060534667,85.0
22084,0.30701542,0.2927704,-0.8188629,0.31010744,-0.015930176,-0.060534667,85.0
22085,0.30701542,0.2927704,-0.8188629,0.16567384,0.035046387,0.004248047,85.0
22086,0.2518134,0.17584229,0.017124176,0.16567384,0.035046387,0.004248047,85.0
22087,0.2518134,0.17584229,0.017124176,0.1709839,0.12000733,0.038232423,85.0
22088,0.20112133,-0.0844574,0.67816544,0.1709839,0.12000733,0.038232423,85.0
22089,0.20112133,-0.0844574,0.67816544,0.17947999,0.16567384,0.012744141,85.0
22090,0.11534047,0.043640137,1.0517502,0.17947999,0.16567384,0.012744141,85.0
22091,0.11534047,0.043640137,1.0517502,-0.023364259,0.26444092,-0.011682129,85.0
22092,-0.07981014,0.43109894,1.1060333,-0.023364259,0.26444092,-0.011682129,85.0
22093,-0.07981014,0.43109894,1.1060333,-0.4364868,0.23045655,0.043542482,85.0
22094,-0.122478485,0.5289383,0.76312256,-0.4364868,0.23045655,0.043542482,85.0
22095,-0.122478485,0.5289383,0.76312256,-1.0949341,0.3791382,0.011682129,85.0
22096,-0.44371033,-0.21051788,-0.15328217,-1.0949341,0.3791382,0.011682129,85.0
22097,-0.44371033,-0.21051788,-0.15328217,-0.82836914,0.3536499,0.08602295,85.0
22098,-0.7027466,-0.98833466,-0.6741867,-0.82836914,0.3536499,0.08602295,85.0
22099,-0.7027466,-0.98833466,-0.6741867,-0.271875,0.24532472,-0.004248047,85.0
22100,-0.46415043,-0.6354904,-0.1688919,-0.271875,0.24532472,-0.004248047,85.0
22101,-0.46415043,-0.6354904,-0.1688919,-0.6053467,0.33665773,0.16248779,85.0
22102,-0.2798288,-0.27606964,0.18701553,-0.6053467,0.33665773,0.16248779,85.0
22103,-0.2798288,-0.27606964,0.18701553,-0.70198977,0.33134767,0.15505372,85.0
22104,-0.033970594,-0.0574646,0.6344032,-0.70198977,0.33134767,0.15505372,85.0
22105,-0.033970594,-0.0574646,0.6344032,-0.9197022,0.5511841,0.12213135,85.0
22106,-0.1289587,-0.28702545,0.5730629,-0.9197022,0.5511841,0.12213135,85.0
22107,-0.1289587,-0.28702545,0.5730629,-0.84536135,0.6287109,0.14230958,85.0
22108,-0.16029572,-0.3711624,1.217411,-0.84536135,0.6287109,0.14230958,85.0
22109,-0.16029572,-0.3711624,1.217411,-1.3413209,0.8400513,0.118945315,85.0
22110,-0.26134205,-0.3159256,1.081398,-1.3413209,0.8400513,0.118945315,85.0
22111,-0.26134205,-0.3159256,1.081398,-1.5813354,0.9165161,0.15717773,85.0
22112,-0.53797984,-0.55996704,0.71510696,-1.5813354,0.9165161,0.15717773,85.0
22113,-0.53797984,-0.55996704,0.71510696,-1.99552,1.2096313,0.15505372,85.0
22114,-0.6529181,-1.0242691,0.23395157,-1.99552,1.2096313,0.15505372,85.0
22115,-0.6529181,-1.0242691,0.23395157,-1.8818848,1.2945923,0.13699952,85.0
22116,-0.68903375,-1.3536453,-0.24412537,-1.8818848,1.2945923,0.13699952,85.0
22117,-0.68903375,-1.3536453,-0.24412537,-2.1548219,1.4369019,0.1263794,85.0
22118,-0.7344179,-1.1715927,-0.25683594,-2.1548219,1.4369019,0.1263794,85.0
22119,-0.7344179,-1.1715927,-0.25683594,-2.434131,1.4878784,0.20178223,85.0
22120,-1.1383034,-1.3306503,0.2250824,-2.434131,1.4878784,0.20178223,85.0
22121,-1.1383034,-1.3306503,0.2250824,-2.9938111,1.4825684,0.24744873,85.0
22122,-1.2637556,-1.7090988,0.075466156,-2.9938111,1.4825684,0.24744873,85.0
22123,-1.2637556,-1.7090988,0.075466156,-3.071338,1.4868164,0.21346436,85.0
22124,-1.4414366,-2.508194,0.31769943,-3.071338,1.4868164,0.21346436,85.0
22125,-1.4414366,-2.508194,0.31769943,-3.353833,1.4931885,0.15611573,85.0
22126,-1.374707,-2.3113556,0.07089615,-3.353833,1.4931885,0.15611573,85.0
22127,-1.374707,-2.3113556,0.07089615,-3.5046387,1.445398,0.18797608,85.0
22128,-2.7733495,-3.019432,-0.73996353,-3.5046387,1.445398,0.18797608,85.0
22129,-2.7733495,-3.019432,-0.73996353,-3.1180665,0.4333008,0.85385746,85.0
22130,-3.1002104,-3.4053802,-1.4524193,-3.1180665,0.4333008,0.85385746,85.0
22131,-3.1002104,-3.4053802,-1.4524193,-2.1962402,0.4056885,0.57561034,85.0
22132,-2.865178,-3.6664658,-1.5512543,-2.1962402,0.4056885,0.57561034,85.0
22133,-2.865178,-3.6664658,-1.5512543,-1.4602661,0.33984375,0.7189819,85.0
22134,-1.916459,-2.6541595,-1.0418091,-1.4602661,0.33984375,0.7189819,85.0
22135,-1.916459,-2.6541595,-1.0418091,-1.355127,0.29099122,0.6616333,85.0
22136,-0.68426585,-1.5709,-0.26772308,-1.355127,0.29099122,0.6616333,85.0
22137,-0.68426585,-1.5709,-0.26772308,-0.8772217,0.19541016,0.79969484,85.0
22138,0.12274122,-1.3136902,0.039398193,-0.8772217,0.19541016,0.79969484,85.0
22139,0.12274122,-1.3136902,0.039398193,-0.49383545,0.118945315,0.904834,85.0
22140,0.54809535,-1.3011322,0.072250366,-0.49383545,0.118945315,0.904834,85.0
22141,0.54809535,-1.3011322,0.072250366,-0.07965088,0.10195313,0.92713624,85.0
22142,0.26230443,-0.58380127,0.18879318,-0.07965088,0.10195313,0.92713624,85.0
22143,0.26230443,-0.58380127,0.18879318,0.21877442,0.027612304,0.9483765,85.0
22144,-0.6977248,0.6715927,0.4185524,0.21877442,0.027612304,0.9483765,85.0
22145,-0.6977248,0.6715927,0.4185524,-0.16992188,0.028674318,0.99510497,85.0
22146,-0.84168816,0.7363968,0.31438446,-0.16992188,0.028674318,0.99510497,85.0
22147,-0.84168816,0.7363968,0.31438446,-0.4333008,0.081774905,1.0152832,85.0
22148,-0.7312486,0.24247742,0.14424515,-0.4333008,0.081774905,1.0152832,85.0
22149,-0.7312486,0.24247742,0.14424515,-0.49489745,0.17735596,1.269104,85.0
22150,-0.26894665,-1.0930023,-0.118320465,-0.49489745,0.17735596,1.269104,85.0
22151,-0.26894665,-1.0930023,-0.118320465,-0.3536499,0.5671143,1.2457398,85.0
22152,-0.6137781,-1.8129349,-0.6133232,-0.3536499,0.5671143,1.2457398,85.0
22153,-0.6137781,-1.8129349,-0.6133232,0.23895264,0.721106,1.4517701,85.0
22154,-1.1225533,-1.2744827,-0.8437958,0.23895264,0.721106,1.4517701,85.0
22155,-1.1225533,-1.2744827,-0.8437958,0.014868164,0.6605713,1.273352,85.0
22156,-1.6275227,-0.2675705,-1.447876,0.014868164,0.6605713,1.273352,85.0
22157,-1.6275227,-0.2675705,-1.447876,-0.53525394,0.6786255,1.3391968,85.0
22158,-1.3387003,0.2067337,-1.6157379,-0.53525394,0.6786255,1.3391968,85.0
22159,-1.3387003,0.2067337,-1.6157379,-0.4067505,0.7168579,1.3370727,85.0
22160,-0.9807136,-0.19540405,-1.5072975,-0.4067505,0.7168579,1.3370727,85.0
22161,-0.9807136,-0.19540405,-1.5072975,0.007434082,0.78376466,1.1958252,85.0
22162,-1.0911751,-0.19480133,-1.3030052,0.007434082,0.78376466,1.1958252,85.0
22163,-1.0911751,-0.19480133,-1.3030052,0.10513916,0.7869507,1.2818482,85.0
22164,-1.5247588,0.1370697,-0.9055519,0.10513916,0.7869507,1.2818482,85.0
22165,-1.5247588,0.1370697,-0.9055519,0.16461182,0.8772217,1.5186768,85.0
22166,-2.1167922,0.42365265,-0.30893707,0.16461182,0.8772217,1.5186768,85.0
22167,-2.1167922,0.42365265,-0.30893707,0.13806152,0.74871826,1.5993897,85.0
22168,-2.7525768,0.6068344,0.30438995,0.13806152,0.74871826,1.5993897,85.0
22169,-2.7525768,0.6068344,0.30438995,0.39400634,0.6881836,1.4326538,85.0
22170,-3.193492,1.0070267,0.80607224,0.39400634,0.6881836,1.4326538,85.0
22171,-3.193492,1.0070267,0.80607224,0.4248047,0.65207523,1.2000732,85.0
22172,-3.3405113,1.7771149,1.0905266,0.4248047,0.65207523,1.2000732,85.0
22173,-3.3405113,1.7771149,1.0905266,0.26019287,1.1289185,0.9717407,85.0
22174,-3.3795986,2.2956924,1.5342712,0.26019287,1.1289185,0.9717407,85.0
22175,-3.3795986,2.2956924,1.5342712,0.58410645,1.2425537,0.8326172,85.0
22176,-3.7534351,1.4328918,2.3822365,0.58410645,1.2425537,0.8326172,85.0
22177,-3.7534351,1.4328918,2.3822365,-0.36851808,0.8889038,0.6180908,85.0
22178,-4.4673967,0.5324936,2.66951,-0.36851808,0.8889038,0.6180908,85.0
22179,-4.4673967,0.5324936,2.66951,-1.9774659,0.61702883,-0.38232422,85.0
22180,-4.780899,-0.2714157,1.9883537,-1.9774659,0.61702883,-0.38232422,85.0
22181,-4.780899,-0.2714157,1.9883537,-2.7304323,0.45878908,-0.8782837,85.0
22182,-4.109314,-2.3052216,1.2483635,-2.7304323,0.45878908,-0.8782837,85.0
22183,-4.109314,-2.3052216,1.2483635,-1.8956909,0.50233155,-0.99722904,85.0
22184,-3.0483398,-4.441002,0.9299545,-1.8956909,0.50233155,-0.99722904,85.0
22185,-3.0483398,-4.441002,0.9299545,-1.2818482,0.34727785,-0.7041138,85.0
22186,-2.253027,-5.5952682,0.7221756,-1.2818482,0.34727785,-0.7041138,85.0
22187,-2.253027,-5.5952682,0.7221756,-0.4715332,0.078588866,-0.28355715,85.0
22188,-1.7819138,-5.315941,0.23269653,-0.4715332,0.078588866,-0.28355715,85.0
22189,-1.7819138,-5.315941,0.23269653,0.73597413,-0.46516114,0.25700685,85.0
22190,-1.3363104,-4.289543,-0.60375977,0.73597413,-0.46516114,0.25700685,85.0
22191,-1.3363104,-4.289543,-0.60375977,1.9148072,-1.1289185,0.6956177,85.0
22192,-0.52832603,-2.76223,-1.3808098,1.9148072,-1.1289185,0.6956177,85.0
22193,-0.52832603,-2.76223,-1.3808098,2.4171388,-1.5059327,0.81031495,85.0
22194,0.5796709,-0.8694382,-1.7443085,2.4171388,-1.5059327,0.81031495,85.0
22195,0.5796709,-0.8694382,-1.7443085,2.4171388,-1.5059327,0.81031495,86.0
22196,0.5796709,-0.8694382,-1.7443085,2.616797,-1.6885986,0.88253176,86.0
22197,1.5450478,0.74180603,-1.5467186,2.616797,-1.6885986,0.88253176,86.0
22198,1.5450478,0.74180603,-1.5467186,2.991687,-1.7841797,1.0736939,86.0
22199,2.1719627,1.9849472,-1.0118637,2.991687,-1.7841797,1.0736939,86.0
22200,2.1719627,1.9849472,-1.0118637,3.1424928,-1.8213501,1.3466309,86.0
22201,2.6205902,3.1603699,-0.7654495,3.1424928,-1.8213501,1.3466309,86.0
22202,2.6205902,3.1603699,-0.7654495,2.4755495,-1.6843506,1.545227,86.0
22203,3.078003,3.6400146,-0.4754448,2.4755495,-1.6843506,1.545227,86.0
22204,3.078003,3.6400146,-0.4754448,2.4596193,-1.4592041,1.906311,86.0
22205,3.406457,2.671814,0.53398514,2.4596193,-1.4592041,1.906311,86.0
22206,3.406457,2.671814,0.53398514,3.1031983,-1.4931885,1.9233032,86.0
22207,3.6427193,1.7976685,1.6482697,3.1031983,-1.4931885,1.9233032,86.0
22208,3.6427193,1.7976685,1.6482697,3.4568481,-1.532483,1.8192261,86.0
22209,3.8495874,2.1280365,2.319275,3.4568481,-1.532483,1.8192261,86.0
22210,3.8495874,2.1280365,2.319275,3.2295778,-1.5282348,2.0348146,86.0
22211,3.9566355,2.2086563,2.2061996,3.2295778,-1.5282348,2.0348146,86.0
22212,3.9566355,2.2086563,2.2061996,2.35448,-1.3466309,2.3778443,86.0
22213,4.105189,1.9147186,1.7657394,2.35448,-1.3466309,2.3778443,86.0
22214,4.105189,1.9147186,1.7657394,2.2164185,-0.6977417,2.4012086,86.0
22215,3.7242756,2.151245,1.8908615,2.2164185,-0.6977417,2.4012086,86.0
22216,3.7242756,2.151245,1.8908615,2.1537597,-0.27399904,2.5636964,86.0
22217,2.3576307,2.968361,2.23238,2.1537597,-0.27399904,2.5636964,86.0
22218,2.3576307,2.968361,2.23238,2.1951783,-0.16992188,2.262085,86.0
22219,0.6526818,4.019058,1.7972336,2.1951783,-0.16992188,2.262085,86.0
22220,0.6526818,4.019058,1.7972336,1.5749635,-0.20603028,1.9402955,86.0
22221,-0.63755894,4.678528,0.61981964,1.5749635,-0.20603028,1.9402955,86.0
22222,-0.63755894,4.678528,0.61981964,0.9494385,-0.19116211,1.6408081,86.0
22223,-1.2518072,4.4516373,-0.4085884,0.9494385,-0.19116211,1.6408081,86.0
22224,-1.2518072,4.4516373,-0.4085884,1.0004151,-0.18266602,1.6917847,86.0
22225,-1.4326591,3.2692337,-0.55051804,1.0004151,-0.18266602,1.6917847,86.0
22226,-1.4326591,3.2692337,-0.55051804,1.8755127,-0.023364259,1.7151489,86.0
22227,-1.588449,1.9840775,-0.0068588257,1.8755127,-0.023364259,1.7151489,86.0
22228,-1.588449,1.9840775,-0.0068588257,1.9041871,0.053100586,1.5420411,86.0
22229,-1.6761179,1.7620316,0.3841133,1.9041871,0.053100586,1.5420411,86.0
22230,-1.6761179,1.7620316,0.3841133,1.5038086,0.16461182,1.2510499,86.0
22231,-1.3807015,2.5056458,0.51068497,1.5038086,0.16461182,1.2510499,86.0
22232,-1.3807015,2.5056458,0.51068497,1.0768799,0.29205322,1.2340577,86.0
22233,-0.8006916,2.9223251,0.6602783,1.0768799,0.29205322,1.2340577,86.0
22234,-0.8006916,2.9223251,0.6602783,0.05628662,0.55755615,1.5048707,86.0
22235,-0.32718658,2.3140182,0.5878067,0.05628662,0.55755615,1.5048707,86.0
22236,-0.32718658,2.3140182,0.5878067,0.08814698,0.37595215,1.4262818,86.0
22237,-0.04727173,1.3434982,0.33680725,0.08814698,0.37595215,1.4262818,86.0
22238,-0.04727173,1.3434982,0.33680725,0.52675784,0.3419678,1.3030884,86.0
22239,0.13286114,0.8380432,0.30889893,0.52675784,0.3419678,1.3030884,86.0
22240,0.13286114,0.8380432,0.30889893,0.7540283,0.29630128,1.173523,86.0
22241,0.09303188,0.767746,0.52705,0.7540283,0.29630128,1.173523,86.0
22242,0.09303188,0.767746,0.52705,0.7126099,0.18797608,1.2499878,86.0
22243,-0.11220837,0.6433716,0.71082306,0.7126099,0.18797608,1.2499878,86.0
22244,-0.11220837,0.6433716,0.71082306,0.6064087,0.16248779,1.2542359,86.0
22245,-0.17733955,0.4473114,0.5871391,0.6064087,0.16248779,1.2542359,86.0
22246,-0.17733955,0.4473114,0.5871391,0.31116945,0.09770508,1.1947632,86.0
22247,0.06834602,0.53531647,-0.032157898,0.31116945,0.09770508,1.1947632,86.0
22248,0.06834602,0.53531647,-0.032157898,0.03186035,0.09770508,1.2181275,86.0
22249,0.46305084,0.97286224,-0.96624374,0.03186035,0.09770508,1.2181275,86.0
22250,0.46305084,0.97286224,-0.96624374,0.08071289,0.045666505,1.2340577,86.0
22251,0.71099234,1.4957962,-1.5456505,0.08071289,0.045666505,1.2340577,86.0
22252,0.71099234,1.4957962,-1.5456505,0.15611573,0.013806152,1.2829102,86.0
22253,0.76300764,1.6203766,-1.2897301,0.15611573,0.013806152,1.2829102,86.0
22254,0.76300764,1.6203766,-1.2897301,0.44816896,0.098767094,1.3689331,86.0
22255,0.52454185,1.0821915,-0.44743347,0.44816896,0.098767094,1.3689331,86.0
22256,0.52454185,1.0821915,-0.44743347,0.7880127,0.16992188,1.4815063,86.0
22257,0.0023117065,0.30538177,0.32496262,0.7880127,0.16992188,1.4815063,86.0
22258,0.0023117065,0.30538177,0.32496262,0.56180423,0.15611573,1.4347779,86.0
22259,-0.3142028,-0.120780945,0.48286057,0.56180423,0.15611573,1.4347779,86.0
22260,-0.3142028,-0.120780945,0.48286057,0.36745605,0.06690674,1.4708862,86.0
22261,-0.12598419,0.064826965,0.056854248,0.36745605,0.06690674,1.4708862,86.0
22262,-0.12598419,0.064826965,0.056854248,0.5522461,0.03717041,1.5271729,86.0
22263,0.19818735,0.616127,-0.4115219,0.5522461,0.03717041,1.5271729,86.0
22264,0.19818735,0.616127,-0.4115219,0.6159668,-0.023364259,1.4931885,86.0
22265,0.34770966,1.0271988,-0.5009842,0.6159668,-0.023364259,1.4931885,86.0
22266,0.34770966,1.0271988,-0.5009842,0.6881836,-0.09664307,1.4910644,86.0
22267,0.38406372,1.0034714,-0.3176117,0.6881836,-0.09664307,1.4910644,86.0
22268,0.38406372,1.0034714,-0.3176117,1.0705079,-0.13168946,1.5271729,86.0
22269,0.5163331,0.8088913,-0.096092224,1.0705079,-0.13168946,1.5271729,86.0
22270,0.5163331,0.8088913,-0.096092224,1.260608,-0.23045655,1.3678712,86.0
22271,0.85986805,0.96489716,0.12708282,1.260608,-0.23045655,1.3678712,86.0
22272,0.85986805,0.96489716,0.12708282,0.65419924,-0.31223145,1.3020264,86.0
22273,1.2053995,1.1165085,0.1995697,0.65419924,-0.31223145,1.3020264,86.0
22274,1.2053995,1.1165085,0.1995697,0.10089111,-0.4959595,1.4007934,86.0
22275,1.1902108,0.39396667,0.03394699,0.10089111,-0.4959595,1.4007934,86.0
22276,1.1902108,0.39396667,0.03394699,0.29630128,-0.5703003,1.5250489,86.0
22277,0.7720909,-0.5257721,0.104904175,0.29630128,-0.5703003,1.5250489,86.0
22278,0.7720909,-0.5257721,0.104904175,0.4991455,-0.6000366,1.1990112,86.0
22279,0.35502625,-0.6862793,0.39927673,0.4991455,-0.6000366,1.1990112,86.0
22280,0.35502625,-0.6862793,0.39927673,0.5936646,-0.5246338,1.3816773,86.0
22281,0.288867,-0.15245819,0.20626068,0.5936646,-0.5246338,1.3816773,86.0
22282,0.288867,-0.15245819,0.20626068,0.58198243,-0.5140137,1.2478638,86.0
22283,0.6121483,0.87454224,-0.66441345,0.58198243,-0.5140137,1.2478638,86.0
22284,0.6121483,0.87454224,-0.66441345,0.53100586,-0.47896728,1.355127,86.0
22285,1.0983615,1.7212372,-1.5435677,0.53100586,-0.47896728,1.355127,86.0
22286,1.0983615,1.7212372,-1.5435677,0.38338622,-0.42692873,1.454956,86.0
22287,1.3701563,1.8460693,-1.8393974,0.38338622,-0.42692873,1.454956,86.0
22288,1.3701563,1.8460693,-1.8393974,0.0,-0.32709962,1.4645141,86.0
22289,1.275959,1.2203598,-1.6023636,0.0,-0.32709962,1.4645141,86.0
22290,1.275959,1.2203598,-1.6023636,-0.18903808,-0.29948732,1.4092896,86.0
22291,1.0884185,-0.0054893494,-0.94369507,-0.18903808,-0.29948732,1.4092896,86.0
22292,1.0884185,-0.0054893494,-0.94369507,-0.32072756,-0.23045655,1.3179566,86.0
22293,0.86560774,-1.3188553,0.064403534,-0.32072756,-0.23045655,1.3179566,86.0
22294,0.86560774,-1.3188553,0.064403534,-0.3462158,-0.16673584,1.1501588,86.0
22295,0.46908522,-2.1409225,1.100666,-0.3462158,-0.16673584,1.1501588,86.0
22296,0.46908522,-2.1409225,1.100666,-0.42055663,-0.23258057,1.0375855,86.0
22297,0.20419884,-2.1747284,1.6035042,-0.42055663,-0.23258057,1.0375855,86.0
22298,0.20419884,-2.1747284,1.6035042,-0.26550293,-0.452417,0.89421386,86.0
22299,0.20419884,-2.1747284,1.6035042,-0.26550293,-0.452417,0.89421386,87.0
22300,0.4880538,-1.3759613,1.2727928,-0.26550293,-0.452417,0.89421386,87.0
22301,0.4880538,-1.3759613,1.2727928,-0.0637207,-0.61915284,0.72323,87.0
22302,1.0390759,-0.18937683,0.49168396,-0.0637207,-0.61915284,0.72323,87.0
22303,1.0390759,-0.18937683,0.49168396,0.047790527,-0.7189819,0.6074707,87.0
22304,1.3717759,0.7302017,-0.13995361,0.047790527,-0.7189819,0.6074707,87.0
22305,1.3717759,0.7302017,-0.13995361,-0.038232423,-0.8251831,0.6488892,87.0
22306,1.5290003,1.1374664,-0.44387054,-0.038232423,-0.8251831,0.6488892,87.0
22307,1.5290003,1.1374664,-0.44387054,-0.23789063,-0.8581055,0.73703617,87.0
22308,1.5774848,0.8339691,-0.5706253,-0.23789063,-0.8581055,0.73703617,87.0
22309,1.5774848,0.8339691,-0.5706253,-0.29948732,-0.77951664,0.8506714,87.0
22310,1.4020636,0.10770416,-0.6634674,-0.29948732,-0.77951664,0.8506714,87.0
22311,1.4020636,0.10770416,-0.6634674,0.16885987,-0.6680054,0.904834,87.0
22312,0.9339068,-0.19754028,-0.6177025,0.16885987,-0.6680054,0.904834,87.0
22313,0.9339068,-0.19754028,-0.6177025,0.31116945,-0.65207523,0.9260742,87.0
22314,0.38003564,0.11086273,-0.70098495,0.31116945,-0.65207523,0.9260742,87.0
22315,0.38003564,0.11086273,-0.70098495,-0.1539917,-0.71579593,1.002539,87.0
22316,0.16594267,-0.025382996,-0.9536705,-0.1539917,-0.71579593,1.002539,87.0
22317,0.16594267,-0.025382996,-0.9536705,0.21134034,-0.70305175,1.0651978,87.0
22318,0.40436053,-0.8150101,-0.81352234,0.21134034,-0.70305175,1.0651978,87.0
22319,0.40436053,-0.8150101,-0.81352234,0.19753419,-0.66269535,0.996167,87.0
22320,0.7399924,-1.1782761,-0.39139557,0.19753419,-0.66269535,0.996167,87.0
22321,0.7399924,-1.1782761,-0.39139557,-0.038232423,-0.54906005,0.95581055,87.0
22322,0.90074635,-0.977005,-0.17583466,-0.038232423,-0.54906005,0.95581055,87.0
22323,0.90074635,-0.977005,-0.17583466,-0.3090454,-0.41524658,0.9674927,87.0
22324,0.9579506,-0.8896103,-0.4092865,-0.3090454,-0.41524658,0.9674927,87.0
22325,0.9579506,-0.8896103,-0.4092865,-0.31966552,-0.35577393,0.9218262,87.0
22326,1.0365266,-0.8708191,-0.5414047,-0.31966552,-0.35577393,0.9218262,87.0
22327,1.0365266,-0.8708191,-0.5414047,0.33240968,-0.41524658,0.89846194,87.0
22328,1.1496192,-0.3751068,-0.025081635,0.33240968,-0.41524658,0.89846194,87.0
22329,1.1496192,-0.3751068,-0.025081635,0.1274414,-0.32816163,0.93350834,87.0
22330,1.2558038,0.048721313,0.5308876,0.1274414,-0.32816163,0.93350834,87.0
22331,1.2558038,0.048721313,0.5308876,-0.3440918,-0.35789797,1.0365235,87.0
22332,1.3441328,-0.21324158,0.4389801,-0.3440918,-0.35789797,1.0365235,87.0
22333,1.3441328,-0.21324158,0.4389801,-0.63614506,-0.32072756,1.0694458,87.0
22334,1.1373912,-0.8462372,0.010814667,-0.63614506,-0.32072756,1.0694458,87.0
22335,1.1373912,-0.8462372,0.010814667,-0.40144044,-0.3334717,0.9398804,87.0
22336,0.53385097,-1.2468491,-0.20401764,-0.40144044,-0.3334717,0.9398804,87.0
22337,0.53385097,-1.2468491,-0.20401764,0.14337158,-0.48746338,0.83049315,87.0
22338,0.04817453,-1.2742462,-0.11835098,0.14337158,-0.48746338,0.83049315,87.0
22339,0.04817453,-1.2742462,-0.11835098,-0.0541626,-0.54906005,0.7083618,87.0
22340,-0.0070536435,-1.1767578,-0.052825928,-0.0541626,-0.54906005,0.7083618,87.0
22341,-0.0070536435,-1.1767578,-0.052825928,-0.08814698,-0.59260255,0.5628662,87.0
22342,0.089291185,-1.1186981,-0.22029877,-0.08814698,-0.59260255,0.5628662,87.0
22343,0.089291185,-1.1186981,-0.22029877,0.07434082,-0.58623046,0.3727661,87.0
22344,0.2966771,-0.7856064,-0.6533165,0.07434082,-0.58623046,0.3727661,87.0
22345,0.2966771,-0.7856064,-0.6533165,0.24532472,-0.5214478,0.3090454,87.0
22346,0.7563969,-0.025558472,-1.0070801,0.24532472,-0.5214478,0.3090454,87.0
22347,0.7563969,-0.025558472,-1.0070801,0.32178956,-0.3695801,0.25700685,87.0
22348,1.2270414,0.5928192,-0.90205,0.32178956,-0.3695801,0.25700685,87.0
22349,1.2270414,0.5928192,-0.90205,0.22302246,-0.21240234,0.2538208,87.0
22350,1.2863084,0.60988617,-0.5064926,0.22302246,-0.21240234,0.2538208,87.0
22351,1.2863084,0.60988617,-0.5064926,0.14124756,-0.10195313,0.20709229,87.0
22352,0.9432924,0.27080536,-0.18329239,0.14124756,-0.10195313,0.20709229,87.0
22353,0.9432924,0.27080536,-0.18329239,0.15505372,0.0021240234,0.18797608,87.0
22354,0.42768073,-0.15994263,-0.078739166,0.15505372,0.0021240234,0.18797608,87.0
22355,0.42768073,-0.15994263,-0.078739166,0.027612304,0.08602295,0.22089843,87.0
22356,-0.07555568,-0.43985748,-0.13771057,0.027612304,0.08602295,0.22089843,87.0
22357,-0.07555568,-0.43985748,-0.13771057,0.07965088,0.13168946,0.14549561,87.0
22358,-0.37188256,-0.37706757,-0.1655159,0.07965088,0.13168946,0.14549561,87.0
22359,-0.37188256,-0.37706757,-0.1655159,0.07646485,0.12850343,0.08602295,87.0
22360,-0.32461786,-0.18791199,-0.014858246,0.07646485,0.12850343,0.08602295,87.0
22361,-0.32461786,-0.18791199,-0.014858246,0.07540283,0.0053100586,0.038232423,87.0
22362,-0.09041929,0.0660553,0.24935532,0.07540283,0.0053100586,0.038232423,87.0
22363,-0.09041929,0.0660553,0.24935532,0.15611573,-0.17523193,-0.008496094,87.0
22364,0.11499369,0.31762695,0.39235306,0.15611573,-0.17523193,-0.008496094,87.0
22365,0.11499369,0.31762695,0.39235306,0.29630128,-0.27293703,0.05628662,87.0
22366,0.27206087,0.30308533,0.27884674,0.29630128,-0.27293703,0.05628662,87.0
22367,0.27206087,0.30308533,0.27884674,0.22939454,-0.30373535,0.12850343,87.0
22368,0.37323952,0.20690918,0.028057098,0.22939454,-0.30373535,0.12850343,87.0
22369,0.37323952,0.20690918,0.028057098,0.20603028,-0.31329346,0.17416993,87.0
22370,0.41598654,0.14713287,-0.2286148,0.20603028,-0.31329346,0.17416993,87.0
22371,0.41598654,0.14713287,-0.2286148,0.18903808,-0.2984253,0.15930176,87.0
22372,0.33747673,-0.0033874512,-0.450531,0.18903808,-0.2984253,0.15930176,87.0
22373,0.33747673,-0.0033874512,-0.450531,0.13912354,-0.2527588,0.16036378,87.0
22374,0.16248631,-0.023353577,-0.68442535,0.13912354,-0.2527588,0.16036378,87.0
22375,0.16248631,-0.023353577,-0.68442535,0.10195313,-0.19753419,0.10195313,87.0
22376,0.04529667,0.25376892,-0.9214554,0.10195313,-0.19753419,0.10195313,87.0
22377,0.04529667,0.25376892,-0.9214554,0.14124756,-0.13806152,0.1444336,87.0
22378,0.1287911,0.30727386,-0.8917389,0.14124756,-0.13806152,0.1444336,87.0
22379,0.1287911,0.30727386,-0.8917389,0.3334717,-0.059472658,0.14018555,87.0
22380,0.35328925,-0.21363068,-0.36411285,0.3334717,-0.059472658,0.14018555,87.0
22381,0.35328925,-0.21363068,-0.36411285,0.5607422,-0.07115479,0.050976563,87.0
22382,0.4918599,-0.7628708,0.443367,0.5607422,-0.07115479,0.050976563,87.0
22383,0.4918599,-0.7628708,0.443367,0.34090576,0.0,0.028674318,87.0
22384,0.4169376,-0.612236,0.810894,0.34090576,0.0,0.028674318,87.0
22385,0.4169376,-0.612236,0.810894,0.23682861,-0.05522461,-0.011682129,87.0
22386,0.18788362,0.08820343,0.34053802,0.23682861,-0.05522461,-0.011682129,87.0
22387,0.18788362,0.08820343,0.34053802,0.56392825,-0.15505372,0.0,87.0
22388,0.040089607,0.6355362,-0.26057816,0.56392825,-0.15505372,0.0,87.0
22389,0.040089607,0.6355362,-0.26057816,0.6881836,-0.20284425,0.06478272,87.0
22390,0.11483526,0.79737854,-0.26229477,0.6881836,-0.20284425,0.06478272,87.0
22391,0.11483526,0.79737854,-0.26229477,0.59472656,-0.23258057,0.08496094,87.0
22392,0.2769146,0.6908417,0.04143524,0.59472656,-0.23258057,0.08496094,87.0
22393,0.2769146,0.6908417,0.04143524,0.42161867,-0.22408448,0.16142578,87.0
22394,0.36767435,0.58701324,0.07520294,0.42161867,-0.22408448,0.16142578,87.0
22395,0.36767435,0.58701324,0.07520294,0.3079834,-0.2166504,0.25063476,87.0
22396,0.40765262,0.56031036,-0.26037216,0.3079834,-0.2166504,0.25063476,87.0
22397,0.40765262,0.56031036,-0.26037216,0.33240968,-0.1720459,0.32285157,87.0
22398,0.32701325,0.42778015,-0.55174255,0.33240968,-0.1720459,0.32285157,87.0
22399,0.32701325,0.42778015,-0.55174255,0.23151855,-0.14230958,0.31860352,87.0
22400,0.10736251,0.20758057,-0.56642914,0.23151855,-0.14230958,0.31860352,87.0
22401,0.10736251,0.20758057,-0.56642914,0.1901001,-0.11469727,0.37382814,87.0
22402,0.10736251,0.20758057,-0.56642914,0.1901001,-0.11469727,0.37382814,88.0
22403,-0.072374105,0.016235352,-0.4623108,0.1901001,-0.11469727,0.37382814,88.0
22404,-0.072374105,0.016235352,-0.4623108,0.18372802,-0.083898924,0.36533204,88.0
22405,-0.10767937,-0.032981873,-0.4283676,0.18372802,-0.083898924,0.36533204,88.0
22406,-0.10767937,-0.032981873,-0.4283676,0.13062744,-0.083898924,0.31435546,88.0
22407,0.013294935,0.1486435,-0.5060234,0.13062744,-0.083898924,0.31435546,88.0
22408,0.013294935,0.1486435,-0.5060234,0.2081543,-0.010620117,0.29523927,88.0
22409,0.17469859,-0.12130737,-0.28689957,0.2081543,-0.010620117,0.29523927,88.0
22410,0.17469859,-0.12130737,-0.28689957,0.36745605,-0.012744141,0.29736328,88.0
22411,0.2351079,-0.4564209,0.17112732,0.36745605,-0.012744141,0.29736328,88.0
22412,0.2351079,-0.4564209,0.17112732,0.21877442,-0.033984374,0.22196046,88.0
22413,0.17952919,0.046058655,0.16451263,0.21877442,-0.033984374,0.22196046,88.0
22414,0.17952919,0.046058655,0.16451263,-0.028674318,-0.06796875,0.19222413,88.0
22415,0.112324476,0.54452515,-0.16926956,-0.028674318,-0.06796875,0.19222413,88.0
22416,0.112324476,0.54452515,-0.16926956,0.33665773,-0.10513916,0.18797608,88.0
22417,0.066434145,0.35866547,-0.1370163,0.33665773,-0.10513916,0.18797608,88.0
22418,0.066434145,0.35866547,-0.1370163,0.4598511,-0.22727051,0.13699952,88.0
22419,0.09681177,-0.077812195,0.19098663,0.4598511,-0.22727051,0.13699952,88.0
22420,0.09681177,-0.077812195,0.19098663,0.35152587,-0.2177124,0.12956543,88.0
22421,0.31370425,-0.20698547,0.30694962,0.35152587,-0.2177124,0.12956543,88.0
22422,0.31370425,-0.20698547,0.30694962,0.1709839,-0.18372802,0.090270996,88.0
22423,0.45644426,0.0015411377,0.08472061,0.1709839,-0.18372802,0.090270996,88.0
22424,0.45644426,0.0015411377,0.08472061,0.26444092,-0.22408448,0.1083252,88.0
22425,0.3110416,0.3396759,-0.20998383,0.26444092,-0.22408448,0.1083252,88.0
22426,0.3110416,0.3396759,-0.20998383,0.5065796,-0.26125488,0.09664307,88.0
22427,0.089092016,0.44447327,-0.33161163,0.5065796,-0.26125488,0.09664307,88.0
22428,0.089092016,0.44447327,-0.33161163,0.4322388,-0.23258057,0.17629395,88.0
22429,-0.020291328,0.39552307,-0.34807968,0.4322388,-0.23258057,0.17629395,88.0
22430,-0.020291328,0.39552307,-0.34807968,0.22196046,-0.20390625,0.19328614,88.0
22431,0.011599064,0.5466919,-0.43803406,0.22196046,-0.20390625,0.19328614,88.0
22432,0.011599064,0.5466919,-0.43803406,0.09239502,-0.1709839,0.18054199,88.0
22433,0.16816592,0.5347061,-0.49700928,0.09239502,-0.1709839,0.18054199,88.0
22434,0.16816592,0.5347061,-0.49700928,0.2442627,-0.12956543,0.19434814,88.0
22435,0.2927847,0.12706757,-0.16552734,0.2442627,-0.12956543,0.19434814,88.0
22436,0.2927847,0.12706757,-0.16552734,0.17416993,-0.11257324,0.19753419,88.0
22437,0.2529776,-0.14224243,0.22521973,0.17416993,-0.11257324,0.19753419,88.0
22438,0.2529776,-0.14224243,0.22521973,-0.10407715,-0.06159668,0.2548828,88.0
22439,0.08121514,0.048843384,0.20835114,-0.10407715,-0.06159668,0.2548828,88.0
22440,0.08121514,0.048843384,0.20835114,-0.28355715,-0.04248047,0.3164795,88.0
22441,-0.025127888,0.4662094,-0.02488327,-0.28355715,-0.04248047,0.3164795,88.0
22442,-0.025127888,0.4662094,-0.02488327,-0.5161377,-0.15611573,0.4970215,88.0
22443,-0.045431852,0.46157837,-0.25434494,-0.5161377,-0.15611573,0.4970215,88.0
22444,-0.045431852,0.46157837,-0.25434494,-0.25594482,-0.11363526,0.45878908,88.0
22445,0.011945486,-0.02671814,-0.25247574,-0.25594482,-0.11363526,0.45878908,88.0
22446,0.011945486,-0.02671814,-0.25247574,-0.2527588,-0.08920898,0.5533081,88.0
22447,0.113255024,-0.24934387,0.07232666,-0.2527588,-0.08920898,0.5533081,88.0
22448,0.113255024,-0.24934387,0.07232666,-0.7349121,-0.033984374,0.73703617,88.0
22449,0.15062594,-0.4020996,0.25749207,-0.7349121,-0.033984374,0.73703617,88.0
22450,0.15062594,-0.4020996,0.25749207,-0.85704345,0.038232423,0.65419924,88.0
22451,0.14448738,-1.0639496,0.20680237,-0.85704345,0.038232423,0.65419924,88.0
22452,0.14448738,-1.0639496,0.20680237,-0.50870365,-0.012744141,0.60216063,88.0
22453,0.09514308,-1.7344513,0.19173431,-0.50870365,-0.012744141,0.60216063,88.0
22454,0.09514308,-1.7344513,0.19173431,-0.26444092,-0.08602295,0.5256958,88.0
22455,0.038553476,-1.8793106,0.24066544,-0.26444092,-0.08602295,0.5256958,88.0
22456,0.038553476,-1.8793106,0.24066544,-0.26337892,-0.098767094,0.452417,88.0
22457,0.034419537,-1.5453186,0.26446915,-0.26337892,-0.098767094,0.452417,88.0
22458,0.034419537,-1.5453186,0.26446915,-0.26019287,-0.1359375,0.39506838,88.0
22459,0.123970985,-1.1464005,0.2448616,-0.26019287,-0.1359375,0.39506838,88.0
22460,0.123970985,-1.1464005,0.2448616,-0.26125488,-0.32391357,0.36320803,88.0
22461,0.2699287,-0.87223816,0.31409073,-0.26125488,-0.32391357,0.36320803,88.0
22462,0.2699287,-0.87223816,0.31409073,-0.0998291,-0.45560303,0.39400634,88.0
22463,0.49071097,-0.58735657,0.30612183,-0.0998291,-0.45560303,0.39400634,88.0
22464,0.49071097,-0.58735657,0.30612183,0.014868164,-0.5968506,0.47684327,88.0
