,accx,accy,accz,gyrox,gyroy,gyroz,heart rate
32238,open,open,open,open,open,open,open
32239,0.012032509,0.065485,0.28645325,-0.22196046,-0.17523193,0.0021240234,90.0
32240,0.012032509,0.065485,0.28645325,-0.21452637,-0.06796875,0.014868164,90.0
32241,0.2538519,-0.19821167,0.08526611,-0.21452637,-0.06796875,0.014868164,90.0
32242,0.2538519,-0.19821167,0.08526611,0.03079834,0.13912354,0.10938721,90.0
32243,0.2567191,-0.33971024,-0.11505127,0.03079834,0.13912354,0.10938721,90.0
32244,0.2567191,-0.33971024,-0.11505127,0.20284425,0.25806886,0.17523193,90.0
32245,-0.048970222,-0.16503143,-0.11187744,0.20284425,0.25806886,0.17523193,90.0
32246,-0.048970222,-0.16503143,-0.11187744,0.1731079,0.19328614,0.12531738,90.0
32247,-0.048970222,-0.16503143,-0.11187744,0.1731079,0.19328614,0.12531738,90.0
32248,-0.048970222,-0.16503143,-0.11187744,-0.020178223,0.016992187,0.010620117,90.0
32249,-0.3357458,0.13477135,0.028915405,-0.020178223,0.016992187,0.010620117,90.0
32250,-0.2235527,0.24370575,0.05168152,-0.020178223,0.016992187,0.010620117,90.0
32251,-0.2235527,0.24370575,0.05168152,-0.053100586,0.039294433,0.032922365,90.0
32252,0.0029082298,0.18540573,-0.060409546,-0.053100586,0.039294433,0.032922365,90.0
32253,0.0029082298,0.18540573,-0.060409546,-0.045666505,0.019116212,0.026550293,90.0
32254,0.091071606,0.1099453,-0.15524292,-0.045666505,0.019116212,0.026550293,90.0
32255,0.091071606,0.1099453,-0.15524292,0.0031860352,0.019116212,0.016992187,90.0
32256,0.087554455,0.10316467,-0.13627625,0.0031860352,0.019116212,0.016992187,90.0
32257,0.087554455,0.10316467,-0.13627625,0.012744141,0.011682129,0.0010620117,90.0
32258,0.04322481,0.12768555,-0.0287323,0.012744141,0.011682129,0.0010620117,90.0
32259,0.04322481,0.12768555,-0.0287323,-0.007434082,-0.0053100586,-0.012744141,90.0
32260,0.010703087,0.090660095,0.03439331,-0.007434082,-0.0053100586,-0.012744141,90.0
32261,0.010703087,0.090660095,0.03439331,-0.0021240234,-0.014868164,-0.020178223,90.0
32262,-0.009540558,0.008611679,0.030563354,-0.0021240234,-0.014868164,-0.020178223,90.0
32263,-0.009540558,0.008611679,0.030563354,0.007434082,-0.023364259,-0.022302246,90.0
32264,-0.01561594,-0.053340912,0.012023926,0.007434082,-0.023364259,-0.022302246,90.0
32265,-0.01561594,-0.053340912,0.012023926,0.008496094,-0.03186035,-0.020178223,90.0
32266,-0.01561594,-0.053340912,0.012023926,-0.020178223,-0.03717041,-0.009558106,90.0
32267,0.0015211105,-0.057186127,0.04385376,-0.020178223,-0.03717041,-0.009558106,90.0
32268,0.014424801,-0.05209732,0.06636047,-0.020178223,-0.03717041,-0.009558106,90.0
32269,0.014424801,-0.05209732,0.06636047,-0.046728518,-0.04460449,-0.013806152,90.0
32270,0.0048503876,-0.0987339,0.025848389,-0.046728518,-0.04460449,-0.013806152,90.0
32271,0.0048503876,-0.0987339,0.025848389,0.0010620117,-0.04460449,-0.021240234,90.0
32272,-0.0049209595,-0.09308624,-0.01473999,0.0010620117,-0.04460449,-0.021240234,90.0
32273,-0.0049209595,-0.09308624,-0.01473999,0.0031860352,-0.0361084,-0.020178223,90.0
32274,-0.024798393,-0.015863419,-0.0043182373,0.0031860352,-0.0361084,-0.020178223,90.0
32275,-0.024798393,-0.015863419,-0.0043182373,-0.02442627,-0.039294433,-0.015930176,90.0
32276,-0.0401392,0.02822876,-0.010940552,-0.02442627,-0.039294433,-0.015930176,90.0
32277,-0.0401392,0.02822876,-0.010940552,-0.022302246,-0.035046387,-0.019116212,90.0
32278,-0.033612728,-0.0060195923,-0.04017639,-0.022302246,-0.035046387,-0.019116212,90.0
32279,-0.033612728,-0.0060195923,-0.04017639,0.014868164,-0.0361084,-0.028674318,90.0
32280,-0.02826929,0.025421143,-0.056930542,0.014868164,-0.0361084,-0.028674318,90.0
32281,-0.02826929,0.025421143,-0.056930542,0.04141846,-0.009558106,-0.013806152,90.0
32282,-0.07541084,0.1502552,-0.026153564,0.04141846,-0.009558106,-0.013806152,90.0
32283,-0.07541084,0.1502552,-0.026153564,-0.05522461,-0.06903076,-0.029736329,90.0
32284,-0.07541084,0.1502552,-0.026153564,-0.07327881,-0.093457036,-0.081774905,90.0
32285,-0.08669567,0.14293289,-0.011947632,-0.07327881,-0.093457036,-0.081774905,90.0
32286,0.04243517,0.0781765,-0.028213501,-0.07327881,-0.093457036,-0.081774905,90.0
32287,0.04243517,0.0781765,-0.028213501,-0.04991455,-0.045666505,-0.07115479,90.0
32288,0.07934618,0.11802292,-0.063797,-0.04991455,-0.045666505,-0.07115479,90.0
32289,0.07934618,0.11802292,-0.063797,-0.0361084,-0.035046387,-0.07965088,90.0
32290,-0.039416313,0.15052032,-0.14179993,-0.0361084,-0.035046387,-0.07965088,90.0
32291,-0.039416313,0.15052032,-0.14179993,-0.06903076,-0.087084964,-0.11257324,90.0
32292,-0.04641342,0.066986084,-0.16444397,-0.06903076,-0.087084964,-0.11257324,90.0
32293,-0.04641342,0.066986084,-0.16444397,0.019116212,-0.095581055,-0.13275146,90.0
32294,0.092178345,-0.05466461,-0.05101013,0.019116212,-0.095581055,-0.13275146,90.0
32295,0.092178345,-0.05466461,-0.05101013,0.09451904,-0.07646485,-0.1444336,90.0
32296,0.19436026,-0.021026611,0.07839966,0.09451904,-0.07646485,-0.1444336,90.0
32297,0.19436026,-0.021026611,0.07839966,0.057348635,-0.059472658,-0.14124756,90.0
32298,0.1410594,0.18469238,0.06317139,0.057348635,-0.059472658,-0.14124756,90.0
32299,0.1410594,0.18469238,0.06317139,-0.07540283,-0.078588866,-0.12319336,90.0
32300,0.020659924,0.39565468,-0.0761261,-0.07540283,-0.078588866,-0.12319336,90.0
32301,0.020659924,0.39565468,-0.0761261,-0.16142578,-0.11682129,-0.12531738,90.0
32302,-0.06446552,0.43213654,-0.2917328,-0.16142578,-0.11682129,-0.12531738,90.0
32303,-0.06446552,0.43213654,-0.2917328,-0.10620117,-0.1539917,-0.1709839,90.0
32304,-0.17146969,0.54805374,-0.5744171,-0.10620117,-0.1539917,-0.1709839,90.0
32305,-0.17146969,0.54805374,-0.5744171,-0.033984374,-0.17629395,-0.22089843,90.0
32306,-0.4591117,1.0996132,-0.9153137,-0.033984374,-0.17629395,-0.22089843,90.0
32307,-0.4591117,1.0996132,-0.9153137,-0.081774905,-0.270813,-0.31010744,90.0
32308,-0.92490673,1.7945461,-1.3307037,-0.081774905,-0.270813,-0.31010744,90.0
32309,-0.92490673,1.7945461,-1.3307037,-0.18054199,-0.45560303,-0.4694092,90.0
32310,-0.92490673,1.7945461,-1.3307037,-0.08283692,-0.6966797,-0.7168579,90.0
32311,-1.3457725,1.9640427,-1.791153,-0.08283692,-0.6966797,-0.7168579,90.0
32312,-1.4358344,1.5414371,-1.957489,-0.08283692,-0.6966797,-0.7168579,90.0
32313,-1.4358344,1.5414371,-1.957489,0.11469727,-0.9611206,-0.9494385,90.0
32314,-1.1121564,1.0579052,-1.5467224,0.11469727,-0.9611206,-0.9494385,90.0
32315,-1.1121564,1.0579052,-1.5467224,0.20178223,-1.2011353,-1.1597168,90.0
32316,-0.53784513,0.6597519,-0.7358551,0.20178223,-1.2011353,-1.1597168,90.0
32317,-0.53784513,0.6597519,-0.7358551,0.18160401,-1.4687623,-1.3285767,90.0
32318,0.2477634,-0.011932373,0.0155181885,0.18160401,-1.4687623,-1.3285767,90.0
32319,0.2477634,-0.011932373,0.0155181885,0.0541626,-1.629126,-1.355127,90.0
32320,0.95952654,-0.7058964,0.48381042,0.0541626,-1.629126,-1.355127,90.0
32321,0.95952654,-0.7058964,0.48381042,0.1731079,-1.4358399,-1.2552979,90.0
32322,1.0208929,-0.6597004,0.9394531,0.1731079,-1.4358399,-1.2552979,90.0
32323,1.0208929,-0.6597004,0.9394531,0.17416993,-1.2255615,-1.2871583,90.0
32324,0.5087309,0.011741638,1.3914032,0.17416993,-1.2255615,-1.2871583,90.0
32325,0.5087309,0.011741638,1.3914032,-0.13381349,-1.0312134,-1.2351197,90.0
32326,-0.21130133,0.4780712,1.5990448,-0.13381349,-1.0312134,-1.2351197,90.0
32327,-0.21130133,0.4780712,1.5990448,-0.59897465,-0.96643066,-1.1841431,90.0
32328,-0.6143534,0.1907692,1.6609192,-0.59897465,-0.96643066,-1.1841431,90.0
32329,-0.6143534,0.1907692,1.6609192,-0.5809204,-0.9143921,-1.364685,90.0
32330,-0.4600985,-0.41731834,1.8006134,-0.5809204,-0.9143921,-1.364685,90.0
32331,-0.4600985,-0.41731834,1.8006134,-0.4364868,-0.8358032,-1.539917,90.0
32332,-0.24255371,-0.770134,1.853241,-0.4364868,-0.8358032,-1.539917,90.0
32333,-0.24255371,-0.770134,1.853241,-0.6552612,-0.9281983,-1.6567383,90.0
32334,-0.12233901,-1.0736027,1.4434052,-0.6552612,-0.9281983,-1.6567383,90.0
32335,-0.12233901,-1.0736027,1.4434052,-0.86978763,-0.8814697,-1.62594,90.0
32336,0.027299643,-1.3634586,0.75476074,-0.86978763,-0.8814697,-1.62594,90.0
32337,0.027299643,-1.3634586,0.75476074,-1.0014771,-0.7434082,-1.5292969,90.0
32338,0.1155529,-1.4238968,0.15184021,-1.0014771,-0.7434082,-1.5292969,90.0
32339,0.1155529,-1.4238968,0.15184021,-1.1416626,-0.53525394,-1.3774292,90.0
32340,0.038902283,-1.4932785,-0.31051636,-1.1416626,-0.53525394,-1.3774292,90.0
32341,0.038902283,-1.4932785,-0.31051636,-1.0662597,-0.35577393,-1.2191895,90.0
32342,-0.11607051,-1.5821114,-0.49453735,-1.0662597,-0.35577393,-1.2191895,90.0
32343,-0.11607051,-1.5821114,-0.49453735,-1.0152832,-0.22408448,-1.0036011,90.0
32344,-0.11607051,-1.5821114,-0.49453735,-1.0152832,-0.22408448,-1.0036011,90.0
32345,-0.23785162,-1.5434113,-0.4246521,-1.0152832,-0.22408448,-1.0036011,90.0
32346,-0.23785162,-1.5434113,-0.4246521,-0.8644776,-0.18479005,-0.7943848,90.0
32347,-0.31825995,-1.3739624,-0.45942688,-0.8644776,-0.18479005,-0.7943848,90.0
32348,-0.31825995,-1.3739624,-0.45942688,-0.5692383,-0.19541016,-0.5872925,90.0
32349,-0.3577087,-0.99279785,-0.65267944,-0.5692383,-0.19541016,-0.5872925,90.0
32350,-0.3577087,-0.99279785,-0.65267944,-0.20390625,-0.14337158,-0.40250245,90.0
32351,-0.39712882,-0.56615067,-0.78471375,-0.20390625,-0.14337158,-0.40250245,90.0
32352,-0.39712882,-0.56615067,-0.78471375,0.0361084,-0.15080567,-0.23045655,90.0
32353,-0.34859896,-0.38832092,-0.5565491,0.0361084,-0.15080567,-0.23045655,90.0
32354,-0.34859896,-0.38832092,-0.5565491,0.1709839,-0.23789063,-0.14124756,90.0
32355,-0.10162091,-0.4688244,-0.16175842,0.1709839,-0.23789063,-0.14124756,90.0
32356,-0.10162091,-0.4688244,-0.16175842,0.2516968,-0.38869628,-0.028674318,90.0
32357,0.1571188,-0.47247124,-0.17286682,0.2516968,-0.38869628,-0.028674318,90.0
32358,0.1571188,-0.47247124,-0.17286682,0.3717041,-0.45772704,0.03079834,90.0
32359,0.32895422,-0.08741379,-0.46095276,0.3717041,-0.45772704,0.03079834,90.0
32360,0.32895422,-0.08741379,-0.46095276,0.3802002,-0.4630371,0.0541626,90.0
32361,0.3656292,0.33010674,-0.5602112,0.3802002,-0.4630371,0.0541626,90.0
32362,0.3656292,0.33010674,-0.5602112,0.4343628,-0.57242435,0.08283692,90.0
32363,0.20778656,0.4906845,-0.4898224,0.4343628,-0.57242435,0.08283692,90.0
32364,0.20778656,0.4906845,-0.4898224,0.61065674,-0.7827026,0.18479005,90.0
32365,0.031549215,0.59815025,-0.41593933,0.61065674,-0.7827026,0.18479005,90.0
32366,0.031549215,0.59815025,-0.41593933,0.74871826,-1.0110352,0.16248779,90.0
32367,0.06691408,0.585783,-0.37043762,0.74871826,-1.0110352,0.16248779,90.0
32368,0.06691408,0.585783,-0.37043762,0.9409424,-1.1958252,0.0722168,90.0
32369,0.2238071,0.49427223,-0.5134125,0.9409424,-1.1958252,0.0722168,90.0
32370,0.2238071,0.49427223,-0.5134125,1.0280274,-1.3200806,0.045666505,90.0
32371,0.37557888,0.66111565,-0.72499084,1.0280274,-1.3200806,0.045666505,90.0
32372,0.37557888,0.66111565,-0.72499084,1.0736939,-1.2850342,0.029736329,90.0
32373,0.73022366,0.66628265,-0.72447205,1.0736939,-1.2850342,0.029736329,90.0
32374,0.73022366,0.66628265,-0.72447205,1.448584,-1.0673218,-0.1359375,90.0
32375,1.5515373,1.6388245,1.3914185,1.448584,-1.0673218,-0.1359375,90.0
32376,1.5515373,1.6388245,1.3914185,0.30161133,0.62764895,0.015930176,90.0
32377,1.4110785,1.9055538,4.7282867,0.30161133,0.62764895,0.015930176,90.0
32378,1.4110785,1.9055538,4.7282867,-0.098767094,0.51826173,-0.13062744,90.0
32379,-0.079120636,0.29153252,4.7750397,-0.098767094,0.51826173,-0.13062744,90.0
32380,-0.079120636,0.29153252,4.7750397,0.7848267,-0.2081543,0.0021240234,90.0
32381,-1.2607698,-0.66451454,1.7583771,0.7848267,-0.2081543,0.0021240234,90.0
32382,-1.2607698,-0.66451454,1.7583771,2.0305665,-0.9568726,0.16673584,90.0
32383,-1.5768533,-0.7493477,-1.468338,2.0305665,-0.9568726,0.16673584,90.0
32384,-1.5768533,-0.7493477,-1.468338,2.975757,-1.44115,0.019116212,90.0
32385,-1.319942,-0.50707054,-3.0965118,2.975757,-1.44115,0.019116212,90.0
32386,-1.319942,-0.50707054,-3.0965118,2.8291993,-1.7268311,-0.059472658,90.0
32387,-0.7632289,-0.43074226,-2.956833,2.8291993,-1.7268311,-0.059472658,90.0
32388,-0.7632289,-0.43074226,-2.956833,2.1930542,-1.3381348,-0.13806152,90.0
32389,-0.31771207,-0.36748123,-2.1729279,2.1930542,-1.3381348,-0.13806152,90.0
32390,-0.31771207,-0.36748123,-2.1729279,1.1246704,-0.905896,-0.1274414,90.0
32391,-0.021955252,-0.5365143,-1.2265472,1.1246704,-0.905896,-0.1274414,90.0
32392,-0.021955252,-0.5365143,-1.2265472,0.29311523,-0.49383545,-0.20921631,90.0
32393,0.33513355,-0.7660408,0.020889282,0.29311523,-0.49383545,-0.20921631,90.0
32394,0.33513355,-0.7660408,0.020889282,-0.5979126,-0.058410645,-0.35046387,90.0
32395,0.8126259,-0.24802399,1.2266998,-0.5979126,-0.058410645,-0.35046387,90.0
32396,0.8126259,-0.24802399,1.2266998,-1.4761963,0.19541016,-0.5065796,90.0
32397,0.9148345,0.4600773,0.8258362,-1.4761963,0.19541016,-0.5065796,90.0
32398,0.9148345,0.4600773,0.8258362,-1.7501954,0.24744873,-0.5894165,90.0
32399,0.5177684,0.1968689,-1.2212372,-1.7501954,0.24744873,-0.5894165,90.0
32400,0.5177684,0.1968689,-1.2212372,-0.6754395,0.20072022,-0.3727661,90.0
32401,0.12590909,0.73161507,-2.4480743,-0.6754395,0.20072022,-0.3727661,90.0
32402,0.12590909,0.73161507,-2.4480743,-0.25806886,0.083898924,-0.23258057,90.0
32403,-0.03007102,2.4908218,-2.01622,-0.25806886,0.083898924,-0.23258057,90.0
32404,-0.03007102,2.4908218,-2.01622,-0.84111327,0.013806152,-0.09239502,90.0
32405,0.01232028,3.114582,-1.1956177,-0.84111327,0.013806152,-0.09239502,90.0
32406,0.01232028,3.114582,-1.1956177,-1.7406372,0.09664307,0.047790527,90.0
32407,0.16827917,0.77646637,-0.6562042,-1.7406372,0.09664307,0.047790527,90.0
32408,0.16827917,0.77646637,-0.6562042,-0.93350834,0.039294433,0.17416993,90.0
32409,0.21249199,-1.9072208,0.1508789,-0.93350834,0.039294433,0.17416993,90.0
32410,0.21249199,-1.9072208,0.1508789,0.1709839,0.07646485,0.20496826,90.0
32411,-0.15887594,-1.8869572,1.0134277,0.1709839,0.07646485,0.20496826,90.0
32412,-0.15887594,-1.8869572,1.0134277,-0.21452637,-0.06265869,0.23364258,90.0
32413,-0.43270373,-1.0196724,1.4388428,-0.21452637,-0.06265869,0.23364258,90.0
32414,-0.43270373,-1.0196724,1.4388428,-0.8028809,0.10195313,0.271875,90.0
32415,-0.49645615,-0.9395294,1.2914124,-0.8028809,0.10195313,0.271875,90.0
32416,-0.49645615,-0.9395294,1.2914124,-0.92713624,0.18903808,0.29311523,90.0
32417,-0.78500676,-1.2058716,0.561615,-0.92713624,0.18903808,0.29311523,90.0
32418,-0.78500676,-1.2058716,0.561615,-0.7540283,0.1274414,0.29311523,90.0
32419,-0.8913233,-1.2754517,-0.083465576,-0.7540283,0.1274414,0.29311523,90.0
32420,-0.8913233,-1.2754517,-0.083465576,-0.54587406,0.08814698,0.29099122,90.0
32421,-0.48666716,-1.0502567,-0.11103821,-0.54587406,0.08814698,0.29099122,90.0
32422,-0.48666716,-1.0502567,-0.11103821,-0.48746338,0.16461182,0.33240968,90.0
32423,0.066195965,-0.5114212,0.122283936,-0.48746338,0.16461182,0.33240968,90.0
32424,0.066195965,-0.5114212,0.122283936,-0.7147339,0.27293703,0.4067505,90.0
32425,0.36319828,0.0017642975,0.14974976,-0.7147339,0.27293703,0.4067505,90.0
32426,0.36319828,0.0017642975,0.14974976,-0.84111327,0.2803711,0.50233155,90.0
32427,0.39391565,0.06825638,0.06097412,-0.84111327,0.2803711,0.50233155,90.0
32428,0.39391565,0.06825638,0.06097412,-0.63614506,0.26868898,0.6531372,90.0
32429,0.3523519,0.08916283,-0.06593323,-0.63614506,0.26868898,0.6531372,90.0
32430,0.3523519,0.08916283,-0.06593323,-0.5363159,0.3419678,0.7349121,90.0
32431,0.41554856,0.5750294,-0.12971497,-0.5363159,0.3419678,0.7349121,90.0
32432,0.41554856,0.5750294,-0.12971497,-0.7412842,0.5341919,0.7890747,90.0
32433,0.5705247,1.4485359,0.263443,-0.7412842,0.5341919,0.7890747,90.0
32434,0.5705247,1.4485359,0.263443,-1.2425537,0.77526855,0.85385746,90.0
32435,0.635082,2.4369526,1.2054443,-1.2425537,0.77526855,0.85385746,90.0
32436,0.635082,2.4369526,1.2054443,-1.7714356,0.93563235,0.8931519,90.0
32437,0.55088806,2.9762096,2.0052795,-1.7714356,0.93563235,0.8931519,90.0
32438,0.55088806,2.9762096,2.0052795,-2.3587282,1.0726318,1.0078491,90.0
32439,0.47698975,2.5298557,1.760849,-2.3587282,1.0726318,1.0078491,90.0
32440,0.47698975,2.5298557,1.760849,-3.2444458,1.0864381,1.2414917,90.0
32441,0.475708,1.2868118,0.5638275,-3.2444458,1.0864381,1.2414917,90.0
32442,0.475708,1.2868118,0.5638275,-3.256128,1.0216553,1.4793824,90.0
32443,0.5434325,0.21609497,-0.5866089,-3.256128,1.0216553,1.4793824,90.0
32444,0.5434325,0.21609497,-0.5866089,-2.974695,1.2414917,1.5983276,90.0
32445,0.035209894,-0.107580185,-1.6410065,-2.974695,1.2414917,1.5983276,90.0
32446,0.035209894,-0.107580185,-1.6410065,-2.8738039,0.44498292,1.4443359,90.0
32447,-0.54188824,-1.0057411,-3.1039734,-2.8738039,0.44498292,1.4443359,90.0
32448,-0.54188824,-1.0057411,-3.1039734,-1.5569092,0.30267334,1.3827393,90.0
32449,-0.38867426,-2.034464,-3.6994934,-1.5569092,0.30267334,1.3827393,90.0
32450,-0.38867426,-2.034464,-3.6994934,0.07646485,0.14124756,1.5165528,90.0
32451,0.029331684,-1.4951859,-2.406601,0.07646485,0.14124756,1.5165528,90.0
32452,0.029331684,-1.4951859,-2.406601,0.73703617,0.032922365,1.4963745,90.0
32453,0.44502306,-0.17101479,-0.31715393,0.73703617,0.032922365,1.4963745,90.0
32454,0.44502306,-0.17101479,-0.31715393,1.1650269,-0.24320069,1.6471802,90.0
32455,0.76033974,0.94662285,1.2756042,1.1650269,-0.24320069,1.6471802,90.0
32456,0.76033974,0.94662285,1.2756042,0.9122681,-0.41312256,1.5940796,90.0
32457,1.052803,1.4443817,1.9371033,0.9122681,-0.41312256,1.5940796,90.0
32458,1.052803,1.4443817,1.9371033,0.90270996,-0.44498292,1.5855836,90.0
32459,1.052803,1.4443817,1.9371033,0.90270996,-0.44498292,1.5855836,91.0
32460,0.8122864,1.468811,2.0544434,0.90270996,-0.44498292,1.5855836,91.0
32461,0.8122864,1.468811,2.0544434,0.7858887,-0.9632446,1.5144287,91.0
32462,0.16247559,1.3712883,1.9627075,0.7858887,-0.9632446,1.5144287,91.0
32463,0.16247559,1.3712883,1.9627075,0.82836914,-1.4039795,1.4018555,91.0
32464,-0.2093749,1.3798065,1.8385315,0.82836914,-1.4039795,1.4018555,91.0
32465,-0.2093749,1.3798065,1.8385315,0.8527954,-1.8468384,1.2595459,91.0
32466,-0.6264477,2.1163578,1.8907776,0.8527954,-1.8468384,1.2595459,91.0
32467,-0.6264477,2.1163578,1.8907776,-0.07327881,-2.6868896,0.95368654,91.0
32468,-0.93747425,2.8074303,1.7544098,-0.07327881,-2.6868896,0.95368654,91.0
32469,-0.93747425,2.8074303,1.7544098,-0.903772,-3.2359498,0.38338622,91.0
32470,-0.73669815,2.2178078,0.98547363,-0.903772,-3.2359498,0.38338622,91.0
32471,-0.73669815,2.2178078,0.98547363,-1.355127,-3.4579103,-0.12213135,91.0
32472,-0.42853093,0.835392,-0.31617737,-1.355127,-3.4579103,-0.12213135,91.0
32473,-0.42853093,0.835392,-0.31617737,-1.5823975,-3.3856933,-0.7126099,91.0
32474,-0.27705336,0.15559387,-1.1819763,-1.5823975,-3.3856933,-0.7126099,91.0
32475,-0.27705336,0.15559387,-1.1819763,-1.5632813,-3.2136476,-1.4443359,91.0
32476,0.039233685,0.79211426,-0.95173645,-1.5632813,-3.2136476,-1.4443359,91.0
32477,0.039233685,0.79211426,-0.95173645,-1.5112427,-2.8674316,-2.1357057,91.0
32478,0.623904,1.6573372,-0.25868225,-1.5112427,-2.8674316,-2.1357057,91.0
32479,0.623904,1.6573372,-0.25868225,-1.5600952,-2.3799684,-2.5530763,91.0
32480,1.095571,1.679348,0.22850037,-1.5600952,-2.3799684,-2.5530763,91.0
32481,1.095571,1.679348,0.22850037,-1.7767457,-1.9307374,-2.8366334,91.0
32482,1.3722453,0.80582047,0.49717712,-1.7767457,-1.9307374,-2.8366334,91.0
32483,1.3722453,0.80582047,0.49717712,-2.1357057,-1.5016845,-2.9672608,91.0
32484,1.5040827,-0.45785904,0.8010559,-2.1357057,-1.5016845,-2.9672608,91.0
32485,1.5040827,-0.45785904,0.8010559,-2.795215,-1.1342286,-2.9938111,91.0
32486,1.4932928,-1.6830597,1.1812439,-2.795215,-1.1342286,-2.9938111,91.0
32487,1.4932928,-1.6830597,1.1812439,-3.5789795,-0.82730716,-2.9215944,91.0
32488,1.2828054,-2.7585087,1.5180206,-3.5789795,-0.82730716,-2.9215944,91.0
32489,1.2828054,-2.7585087,1.5180206,-4.162024,-0.47684327,-2.7622926,91.0
32490,0.79616594,-3.679987,1.6261444,-4.162024,-0.47684327,-2.7622926,91.0
32491,0.79616594,-3.679987,1.6261444,-4.4020386,-0.0998291,-2.4999757,91.0
32492,-0.006585598,-4.3204308,1.4168854,-4.4020386,-0.0998291,-2.4999757,91.0
32493,-0.006585598,-4.3204308,1.4168854,-4.2958374,0.22302246,-2.1781862,91.0
32494,-0.9809885,-4.4813824,1.0418243,-4.2958374,0.22302246,-2.1781862,91.0
32495,-0.9809885,-4.4813824,1.0418243,-3.9294434,0.3812622,-1.8234742,91.0
32496,-1.8047247,-4.148485,0.61413574,-3.9294434,0.3812622,-1.8234742,91.0
32497,-1.8047247,-4.148485,0.61413574,-3.2911744,0.44179687,-1.4050416,91.0
32498,-2.316741,-3.4351463,0.18319702,-3.2911744,0.44179687,-1.4050416,91.0
32499,-2.316741,-3.4351463,0.18319702,-2.5753784,0.45454103,-1.0110352,91.0
32500,-2.5614128,-2.5701256,-0.1131897,-2.5753784,0.45454103,-1.0110352,91.0
32501,-2.5614128,-2.5701256,-0.1131897,-1.9158691,0.35577393,-0.635083,91.0
32502,-2.5240083,-1.8082256,-0.24623108,-1.9158691,0.35577393,-0.635083,91.0
32503,-2.5240083,-1.8082256,-0.24623108,-1.4209718,0.29311523,-0.32285157,91.0
32504,-2.2574637,-1.230772,-0.2825775,-1.4209718,0.29311523,-0.32285157,91.0
32505,-2.2574637,-1.230772,-0.2825775,-1.1225464,0.24957275,-0.083898924,91.0
32506,-1.9586444,-0.7699089,-0.22683716,-1.1225464,0.24957275,-0.083898924,91.0
32507,-1.9586444,-0.7699089,-0.22683716,-0.9568726,0.19116211,0.057348635,91.0
32508,-1.66954,-0.36009216,-0.06341553,-0.9568726,0.19116211,0.057348635,91.0
32509,-1.66954,-0.36009216,-0.06341553,-0.89102787,0.13806152,0.1274414,91.0
32510,-1.415173,3.0517578E-4,0.162323,-0.89102787,0.13806152,0.1274414,91.0
32511,-1.415173,3.0517578E-4,0.162323,-0.9281983,0.13062744,0.19328614,91.0
32512,-1.3053685,0.22927284,0.348114,-0.9281983,0.13062744,0.19328614,91.0
32513,-1.3053685,0.22927284,0.348114,-1.002539,0.057348635,0.2262085,91.0
32514,-1.2765825,0.25640488,0.48460388,-1.002539,0.057348635,0.2262085,91.0
32515,-1.2765825,0.25640488,0.48460388,-1.0513916,-0.08496094,0.19434814,91.0
32516,-1.080751,0.12753677,0.6499176,-1.0513916,-0.08496094,0.19434814,91.0
32517,-1.080751,0.12753677,0.6499176,-0.9568726,-0.20921631,0.14230958,91.0
32518,-0.59731555,-0.039011,0.80574036,-0.9568726,-0.20921631,0.14230958,91.0
32519,-0.59731555,-0.039011,0.80574036,-0.814563,-0.36002198,0.022302246,91.0
32520,0.07308751,-0.07419014,0.91163635,-0.814563,-0.36002198,0.022302246,91.0
32521,0.07308751,-0.07419014,0.91163635,-0.4630371,-0.5214478,-0.107263185,91.0
32522,0.710472,0.06316948,1.062439,-0.4630371,-0.5214478,-0.107263185,91.0
32523,0.710472,0.06316948,1.062439,-0.17947999,-0.67650145,-0.22408448,91.0
32524,1.0676208,0.13775444,1.2951355,-0.17947999,-0.67650145,-0.22408448,91.0
32525,1.0676208,0.13775444,1.2951355,0.03186035,-0.7593384,-0.29736328,91.0
32526,1.0554516,0.0074329376,1.443222,0.03186035,-0.7593384,-0.29736328,91.0
32527,1.0554516,0.0074329376,1.443222,0.20072022,-0.8336792,-0.2984253,91.0
32528,0.8739145,-0.2041359,1.3839874,0.20072022,-0.8336792,-0.2984253,91.0
32529,0.8739145,-0.2041359,1.3839874,0.4598511,-0.8421753,-0.24320069,91.0
32530,0.7726667,-0.2305088,1.1136475,0.4598511,-0.8421753,-0.24320069,91.0
32531,0.7726667,-0.2305088,1.1136475,0.6446411,-0.7317261,-0.06690674,91.0
32532,0.6887877,-0.0075511932,0.7438965,0.6446411,-0.7317261,-0.06690674,91.0
32533,0.6887877,-0.0075511932,0.7438965,0.65632325,-0.6042847,0.16036378,91.0
32534,0.5497484,0.15620232,0.51213074,0.65632325,-0.6042847,0.16036378,91.0
32535,0.5497484,0.15620232,0.51213074,0.67650145,-0.5331299,0.36108398,91.0
32536,0.5067421,0.063266754,0.46461487,0.67650145,-0.5331299,0.36108398,91.0
32537,0.5067421,0.063266754,0.46461487,0.80181885,-0.37701416,0.55543214,91.0
32538,0.59996176,-0.22863388,0.42645264,0.80181885,-0.37701416,0.55543214,91.0
32539,0.59996176,-0.22863388,0.42645264,0.9791748,-0.21346436,0.6924316,91.0
32540,0.7003064,-0.5815525,0.2535553,0.9791748,-0.21346436,0.6924316,91.0
32541,0.7003064,-0.5815525,0.2535553,1.273352,0.008496094,0.8793457,91.0
32542,0.7381871,-0.7002754,-0.06517029,1.273352,0.008496094,0.8793457,91.0
32543,0.7381871,-0.7002754,-0.06517029,1.6758546,0.20284425,1.0227174,91.0
32544,0.87856245,-0.46245384,-0.5627594,1.6758546,0.20284425,1.0227174,91.0
32545,0.87856245,-0.46245384,-0.5627594,2.0103881,0.4343628,1.1214844,91.0
32546,1.2566707,-0.16014862,-1.1007996,2.0103881,0.4343628,1.1214844,91.0
32547,1.2566707,-0.16014862,-1.1007996,2.3003175,0.68074954,1.1724609,91.0
32548,1.5825827,0.18278313,-1.3869019,2.3003175,0.68074954,1.1724609,91.0
32549,1.5825827,0.18278313,-1.3869019,2.3003175,0.68074954,1.1724609,91.0
32550,1.5825827,0.18278313,-1.3869019,2.262085,0.9611206,1.265918,91.0
32551,1.4106464,0.6659889,-1.2260132,2.262085,0.9611206,1.265918,91.0
32552,1.4106464,0.6659889,-1.2260132,1.8670167,1.0439576,1.3168945,91.0
32553,0.83806324,1.1042023,-0.84103394,1.8670167,1.0439576,1.3168945,91.0
32554,0.83806324,1.1042023,-0.84103394,1.4230957,1.1076783,1.3976074,91.0
32555,0.2413001,1.411768,-0.62223816,1.4230957,1.1076783,1.3976074,91.0
32556,0.2413001,1.411768,-0.62223816,1.0535157,1.1512207,1.4719483,91.0
32557,-0.15979195,1.5648994,-0.7696533,1.0535157,1.1512207,1.4719483,91.0
32558,-0.15979195,1.5648994,-0.7696533,0.7954468,1.1820191,1.5006226,91.0
32559,-0.31645656,1.6199608,-1.0106354,0.7954468,1.1820191,1.5006226,91.0
32560,-0.31645656,1.6199608,-1.0106354,0.7476563,1.2170655,1.4910644,91.0
32561,-0.37770128,1.6988602,-1.0190582,0.7476563,1.2170655,1.4910644,91.0
32562,-0.37770128,1.6988602,-1.0190582,0.6287109,1.3434448,1.3976074,91.0
32563,-0.44921923,1.7990532,-0.9816742,0.6287109,1.3434448,1.3976074,91.0
32564,-0.44921923,1.7990532,-0.9816742,0.3355957,1.4230957,1.3115845,91.0
32565,-0.4508915,1.8597622,-1.1363678,0.3355957,1.4230957,1.3115845,91.0
32566,-0.4508915,1.8597622,-1.1363678,-0.028674318,1.4305298,1.2308716,91.0
32567,-0.3346758,1.8506031,-1.2338104,-0.028674318,1.4305298,1.2308716,91.0
32568,-0.3346758,1.8506031,-1.2338104,-0.3058594,1.3423828,1.1289185,91.0
32569,-0.2114296,1.6842651,-1.0770111,-0.3058594,1.3423828,1.1289185,91.0
32570,-0.2114296,1.6842651,-1.0770111,-0.5607422,1.269104,0.99510497,91.0
32571,-0.2297883,1.2808704,-0.8527527,-0.5607422,1.269104,0.99510497,91.0
32572,-0.2297883,1.2808704,-0.8527527,-0.6881836,1.089624,0.8241211,91.0
32573,-0.30599856,0.8029442,-0.6767731,-0.6881836,1.089624,0.8241211,91.0
32574,-0.30599856,0.8029442,-0.6767731,-0.632959,0.9239502,0.63826907,91.0
32575,-0.23286057,0.6146927,-0.5547943,-0.632959,0.9239502,0.63826907,91.0
32576,-0.23286057,0.6146927,-0.5547943,-0.6053467,0.85598147,0.54906005,91.0
32577,-0.370224,0.49834442,-0.6318512,-0.6053467,0.85598147,0.54906005,91.0
32578,-0.370224,0.49834442,-0.6318512,-0.6616333,0.62977296,0.2347046,91.0
32579,-0.31711435,0.4291191,-0.59465027,-0.6616333,0.62977296,0.2347046,91.0
32580,-0.31711435,0.4291191,-0.59465027,-0.6510132,0.5331299,0.1359375,91.0
32581,-0.13308597,0.15900612,-0.6277771,-0.6510132,0.5331299,0.1359375,91.0
32582,-0.13308597,0.15900612,-0.6277771,-0.6467652,0.3069214,-0.15186767,91.0
32583,0.020716429,0.005428314,-0.4808197,-0.6467652,0.3069214,-0.15186767,91.0
32584,0.020716429,0.005428314,-0.4808197,-0.59047854,0.21983643,-0.2262085,91.0
32585,0.50170493,-0.39476585,-0.38580322,-0.59047854,0.21983643,-0.2262085,91.0
32586,0.50170493,-0.39476585,-0.38580322,-0.3451538,0.038232423,-0.3993164,91.0
32587,0.51836824,-0.42913055,-0.3058014,-0.3451538,0.038232423,-0.3993164,91.0
32588,0.51836824,-0.42913055,-0.3058014,-0.271875,-0.0722168,-0.45454103,91.0
32589,1.1662326,-0.5040951,-0.39675903,-0.271875,-0.0722168,-0.45454103,91.0
32590,1.1662326,-0.5040951,-0.39675903,-0.078588866,-0.32497558,-0.540564,91.0
32591,1.2029324,-0.4408493,-0.37182617,-0.078588866,-0.32497558,-0.540564,91.0
32592,1.2029324,-0.4408493,-0.37182617,-0.0541626,-0.3791382,-0.542688,91.0
32593,1.5598311,-0.29761314,-0.3125763,-0.0541626,-0.3791382,-0.542688,91.0
32594,1.5598311,-0.29761314,-0.3125763,0.050976563,-0.7678345,-0.62127686,91.0
32595,1.2734022,-0.265337,-0.031204224,0.050976563,-0.7678345,-0.62127686,91.0
32596,1.2734022,-0.265337,-0.031204224,0.12850343,-0.85385746,-0.64570314,91.0
32597,0.97669315,-0.22948265,0.9190216,0.12850343,-0.85385746,-0.64570314,91.0
32598,0.97669315,-0.22948265,0.9190216,0.5171997,-1.1151123,-0.72323,91.0
32599,0.5071478,-0.30466843,1.0682678,0.5171997,-1.1151123,-0.72323,91.0
32600,0.5071478,-0.30466843,1.0682678,0.69136965,-1.174585,-0.74871826,91.0
32601,-0.7665963,-0.4925995,1.2656708,0.69136965,-1.174585,-0.74871826,91.0
32602,-0.7665963,-0.4925995,1.2656708,1.3901733,-1.1809571,-0.7306641,91.0
32603,-1.179122,-0.51358604,0.97254944,1.3901733,-1.1809571,-0.7306641,91.0
32604,-1.179122,-0.51358604,0.97254944,1.5696534,-1.1480347,-0.6881836,91.0
32605,-1.783886,-0.33567238,0.60801697,1.5696534,-1.1480347,-0.6881836,91.0
32606,-1.783886,-0.33567238,0.60801697,1.7576294,-1.088562,-0.5968506,91.0
32607,-1.7078705,0.017375946,0.08906555,1.7576294,-1.088562,-0.5968506,91.0
32608,-1.7078705,0.017375946,0.08906555,1.7310791,-0.9260742,-0.5097656,91.0
32609,-0.9709108,0.41266632,-0.74313354,1.7310791,-0.9260742,-0.5097656,91.0
32610,-0.9709108,0.41266632,-0.74313354,1.2786621,-0.6680054,-0.41099855,91.0
32611,-0.031330585,0.6871395,-1.7109222,1.2786621,-0.6680054,-0.41099855,91.0
32612,-0.031330585,0.6871395,-1.7109222,0.6637573,-0.44073486,-0.30479738,91.0
32613,0.9599576,0.9090862,-2.4644928,0.6637573,-0.44073486,-0.30479738,91.0
32614,0.9599576,0.9090862,-2.4644928,-0.14655761,-0.0998291,-0.18903808,91.0
32615,0.92570543,0.83096886,-1.9607239,-0.14655761,-0.0998291,-0.18903808,91.0
32616,0.92570543,0.83096886,-1.9607239,-0.44604492,0.026550293,-0.14018555,91.0
32617,0.26049852,0.8030567,-0.697052,-0.44604492,0.026550293,-0.14018555,91.0
32618,0.26049852,0.8030567,-0.697052,-1.3083985,0.09133301,-0.07965088,91.0
32619,-0.23406959,0.55472565,0.020828247,-1.3083985,0.09133301,-0.07965088,91.0
32620,-0.23406959,0.55472565,0.020828247,-1.4804443,0.021240234,-0.12213135,91.0
32621,-1.1570675,-0.11034584,1.1802979,-1.4804443,0.021240234,-0.12213135,91.0
32622,-1.1570675,-0.11034584,1.1802979,-1.6036377,-0.19222413,-0.23682861,91.0
32623,-1.7482126,-0.95565796,2.0229797,-1.6036377,-0.19222413,-0.23682861,91.0
32624,-1.7482126,-0.95565796,2.0229797,-1.2839721,-0.52888185,-0.45029297,91.0
32625,-1.9024763,-1.6302738,2.2554932,-1.2839721,-0.52888185,-0.45029297,91.0
32626,-1.9024763,-1.6302738,2.2554932,-0.5097656,-0.8527954,-0.73703617,91.0
32627,-1.7191734,-1.8887405,1.8919678,-0.5097656,-0.8527954,-0.73703617,91.0
32628,-1.7191734,-1.8887405,1.8919678,0.5671143,-1.1267945,-0.9589966,91.0
32629,-1.2813691,-1.5653,1.3934326,0.5671143,-1.1267945,-0.9589966,91.0
32630,-1.2813691,-1.5653,1.3934326,1.4942505,-1.2829102,-1.088562,91.0
32631,-0.7012062,-0.81100464,0.9843445,1.4942505,-1.2829102,-1.088562,91.0
32632,-0.7012062,-0.81100464,0.9843445,1.9041871,-1.3115845,-1.1692749,91.0
32633,-0.16871643,0.050073624,0.6081238,1.9041871,-1.3115845,-1.1692749,91.0
32634,-0.16871643,0.050073624,0.6081238,1.5505371,-1.2510499,-1.1512207,91.0
32635,0.20429683,0.6324177,0.26167297,1.5505371,-1.2510499,-1.1512207,91.0
32636,0.20429683,0.6324177,0.26167297,0.7954468,-1.1575928,-1.1087402,91.0
32637,0.439646,0.65836334,0.036026,0.7954468,-1.1575928,-1.1087402,91.0
32638,0.439646,0.65836334,0.036026,0.08920898,-0.97067875,-1.0184692,91.0
32639,0.48754454,0.1469059,0.02861023,0.08920898,-0.97067875,-1.0184692,91.0
32640,0.48754454,0.1469059,0.02861023,-0.2442627,-0.7678345,-0.8602295,91.0
32641,0.278561,-0.5885296,0.2117157,-0.2442627,-0.7678345,-0.8602295,91.0
32642,0.278561,-0.5885296,0.2117157,-0.27718505,-0.5363159,-0.5883545,91.0
32643,-0.08648968,-1.1602516,0.4842682,-0.27718505,-0.5363159,-0.5883545,91.0
32644,-0.08648968,-1.1602516,0.4842682,-0.10513916,-0.39400634,-0.3164795,91.0
32645,-0.39726794,-1.3968296,0.68922424,-0.10513916,-0.39400634,-0.3164795,91.0
32646,-0.39726794,-1.3968296,0.68922424,0.2442627,-0.30479738,-0.015930176,91.0
32647,-0.3644941,-1.241951,0.6571045,0.2442627,-0.30479738,-0.015930176,91.0
32648,-0.3644941,-1.241951,0.6571045,0.59047854,-0.23682861,0.26444092,91.0
32649,0.110675216,-0.7646179,0.3346405,0.59047854,-0.23682861,0.26444092,91.0
32650,0.110675216,-0.7646179,0.3346405,0.80181885,-0.115759276,0.5097656,91.0
32651,0.70056415,-0.21438026,-0.1051178,0.80181885,-0.115759276,0.5097656,91.0
32652,0.70056415,-0.21438026,-0.1051178,0.83474123,0.046728518,0.7051758,91.0
32653,1.0306664,0.20063782,-0.47940063,0.83474123,0.046728518,0.7051758,91.0
32654,1.0306664,0.20063782,-0.47940063,0.7317261,0.16567384,0.8506714,91.0
32655,1.194638,0.44426155,-0.7327118,0.7317261,0.16567384,0.8506714,91.0
32656,1.194638,0.44426155,-0.7327118,0.5511841,0.1996582,0.9388184,91.0
32657,1.5041966,0.54702187,-0.8245392,0.5511841,0.1996582,0.9388184,91.0
32658,1.5041966,0.54702187,-0.8245392,0.40993652,0.2782471,1.0216553,91.0
32659,1.7905397,0.5095291,-0.73898315,0.40993652,0.2782471,1.0216553,91.0
32660,1.7905397,0.5095291,-0.73898315,0.32816163,0.362146,1.0938721,91.0
32661,1.7905397,0.5095291,-0.73898315,0.32816163,0.362146,1.0938721,91.0
32662,1.8603859,0.35504723,-0.6114044,0.32816163,0.362146,1.0938721,91.0
32663,1.8603859,0.35504723,-0.6114044,0.27399904,0.33240968,1.1034302,91.0
32664,1.9225616,0.17806816,-0.57977295,0.27399904,0.33240968,1.1034302,91.0
32665,1.9225616,0.17806816,-0.57977295,0.32178956,0.31010744,1.1013062,91.0
32666,1.9150877,0.06677055,-0.5597229,0.32178956,0.31010744,1.1013062,91.0
32667,1.9150877,0.06677055,-0.5597229,0.5787964,0.3451538,1.1034302,91.0
32668,1.4094996,0.10690689,-0.5189514,0.5787964,0.3451538,1.1034302,91.0
32669,1.4094996,0.10690689,-0.5189514,0.89846194,0.43861085,1.1066163,91.0
32670,0.2532587,0.28697777,-0.5988312,0.89846194,0.43861085,1.1066163,91.0
32671,0.2532587,0.28697777,-0.5988312,1.1554688,0.5033936,1.1140503,91.0
32672,-1.0088677,0.5316696,-0.88552856,1.1554688,0.5033936,1.1140503,91.0
32673,-1.0088677,0.5316696,-0.88552856,1.2786621,0.56392825,1.1331666,91.0
32674,-1.6841941,0.7916317,-1.2539215,1.2786621,0.56392825,1.1331666,91.0
32675,-1.6841941,0.7916317,-1.2539215,1.2552979,0.5787964,1.1193603,91.0
32676,-1.5187297,0.99960136,-1.513382,1.2552979,0.5787964,1.1193603,91.0
32677,-1.5187297,0.99960136,-1.513382,1.0959961,0.6223389,1.0641358,91.0
32678,-0.80265474,1.0981426,-1.5864563,1.0959961,0.6223389,1.0641358,91.0
32679,-0.80265474,1.0981426,-1.5864563,0.8506714,0.69349366,0.9611206,91.0
32680,-0.06906462,1.0857296,-1.4924164,0.8506714,0.69349366,0.9611206,91.0
32681,-0.06906462,1.0857296,-1.4924164,0.54693604,0.76358646,0.8007569,91.0
32682,0.2828951,0.9319744,-1.2850037,0.54693604,0.76358646,0.8007569,91.0
32683,0.2828951,0.9319744,-1.2850037,0.2081543,0.8241211,0.6138428,91.0
32684,0.18266392,0.63210297,-1.0644531,0.2081543,0.8241211,0.6138428,91.0
32685,0.18266392,0.63210297,-1.0644531,-0.13912354,0.8262451,0.40144044,91.0
32686,-0.124022484,0.3013382,-0.89793396,-0.13912354,0.8262451,0.40144044,91.0
32687,-0.124022484,0.3013382,-0.89793396,-0.51826173,0.7858887,0.18372802,91.0
32688,-0.33073664,0.060552597,-0.8303833,-0.51826173,0.7858887,0.18372802,91.0
32689,-0.33073664,0.060552597,-0.8303833,-0.86978763,0.7338501,0.0053100586,91.0
32690,-0.37734556,-0.09191513,-0.8243408,-0.86978763,0.7338501,0.0053100586,91.0
32691,-0.37734556,-0.09191513,-0.8243408,-1.1469727,0.65844727,-0.118945315,91.0
32692,-0.37083387,-0.19985008,-0.7981262,-1.1469727,0.65844727,-0.118945315,91.0
32693,-0.37083387,-0.19985008,-0.7981262,-1.3338867,0.5713623,-0.18054199,91.0
32694,-0.3835323,-0.3089161,-0.6648407,-1.3338867,0.5713623,-0.18054199,91.0
32695,-0.3835323,-0.3089161,-0.6648407,-1.4220337,0.4598511,-0.20284425,91.0
32696,-0.39813447,-0.38741684,-0.4308014,-1.4220337,0.4598511,-0.20284425,91.0
32697,-0.39813447,-0.38741684,-0.4308014,-1.4071655,0.3164795,-0.20072022,91.0
32698,-0.38056803,-0.4318447,-0.16427612,-1.4071655,0.3164795,-0.20072022,91.0
32699,-0.38056803,-0.4318447,-0.16427612,-1.2712281,0.14018555,-0.20390625,91.0
32700,-0.3053577,-0.46381187,0.089782715,-1.2712281,0.14018555,-0.20390625,91.0
32701,-0.3053577,-0.46381187,0.089782715,-1.0120972,-0.06159668,-0.22939454,91.0
32702,-0.20980144,-0.5038872,0.33695984,-1.0120972,-0.06159668,-0.22939454,91.0
32703,-0.20980144,-0.5038872,0.33695984,-0.6446411,-0.26868898,-0.28780517,91.0
32704,-0.13512635,-0.51688004,0.5317688,-0.6446411,-0.26868898,-0.28780517,91.0
32705,-0.13512635,-0.51688004,0.5317688,-0.23258057,-0.45772704,-0.3812622,91.0
32706,-0.05818653,-0.40685272,0.60899353,-0.23258057,-0.45772704,-0.3812622,91.0
32707,-0.05818653,-0.40685272,0.60899353,0.060534667,-0.60216063,-0.48746338,91.0
32708,0.05690527,-0.15526772,0.6217346,0.060534667,-0.60216063,-0.48746338,91.0
32709,0.05690527,-0.15526772,0.6217346,0.14018555,-0.73597413,-0.5936646,91.0
32710,0.19640303,0.034074783,0.63801575,0.14018555,-0.73597413,-0.5936646,91.0
32711,0.19640303,0.034074783,0.63801575,0.09451904,-0.813501,-0.6956177,91.0
32712,0.31832838,0.08670807,0.6772766,0.09451904,-0.813501,-0.6956177,91.0
32713,0.31832838,0.08670807,0.6772766,-0.07434082,-0.81031495,-0.7476563,91.0
32714,0.3670895,0.07058716,0.7119751,-0.07434082,-0.81031495,-0.7476563,91.0
32715,0.3670895,0.07058716,0.7119751,-0.31860352,-0.7720825,-0.76677245,91.0
32716,0.36878157,0.029518127,0.7057495,-0.31860352,-0.7720825,-0.76677245,91.0
32717,0.36878157,0.029518127,0.7057495,-0.5851685,-0.721106,-0.7540283,91.0
32718,0.37142897,-0.021564484,0.6933594,-0.5851685,-0.721106,-0.7540283,91.0
32719,0.37142897,-0.021564484,0.6933594,-0.8209351,-0.65844727,-0.7062378,91.0
32720,0.31204796,-0.09949112,0.7618408,-0.8209351,-0.65844727,-0.7062378,91.0
32721,0.31204796,-0.09949112,0.7618408,-0.9897949,-0.61065674,-0.632959,91.0
32722,0.20253134,-0.20908546,0.8877106,-0.9897949,-0.61065674,-0.632959,91.0
32723,0.20253134,-0.20908546,0.8877106,-1.0641358,-0.58198243,-0.56392825,91.0
32724,0.18326521,-0.33435822,1.0250397,-1.0641358,-0.58198243,-0.56392825,91.0
32725,0.18326521,-0.33435822,1.0250397,-1.0259033,-0.58198243,-0.53100586,91.0
32726,0.30890465,-0.43973923,1.1557465,-1.0259033,-0.58198243,-0.53100586,91.0
32727,0.30890465,-0.43973923,1.1557465,-0.8952759,-0.5522461,-0.5341919,91.0
32728,0.35555887,-0.45607758,1.2716675,-0.8952759,-0.5522461,-0.5341919,91.0
32729,0.35555887,-0.45607758,1.2716675,-0.7582764,-0.5140137,-0.57454836,91.0
32730,0.21180296,-0.4052925,1.355423,-0.7582764,-0.5140137,-0.57454836,91.0
32731,0.21180296,-0.4052925,1.355423,-0.6467652,-0.50870365,-0.65632325,91.0
32732,0.10371971,-0.36921692,1.3995972,-0.6467652,-0.50870365,-0.65632325,91.0
32733,0.10371971,-0.36921692,1.3995972,-0.5256958,-0.4715332,-0.72216797,91.0
32734,0.19199657,-0.33295822,1.4154663,-0.5256958,-0.4715332,-0.72216797,91.0
32735,0.19199657,-0.33295822,1.4154663,-0.452417,-0.36851808,-0.75509036,91.0
32736,0.32248163,-0.22914886,1.3425446,-0.452417,-0.36851808,-0.75509036,91.0
32737,0.32248163,-0.22914886,1.3425446,-0.4715332,-0.19753419,-0.7434082,91.0
32738,0.31489468,-0.01414299,1.1014557,-0.4715332,-0.19753419,-0.7434082,91.0
32739,0.31489468,-0.01414299,1.1014557,-0.68287355,0.028674318,-0.6775635,91.0
32740,0.17514563,0.30055046,0.6853943,-0.68287355,0.028674318,-0.6775635,91.0
32741,0.17514563,0.30055046,0.6853943,-1.1310425,0.26125488,-0.5979126,91.0
32742,0.18422031,0.5655136,0.1920929,-1.1310425,0.26125488,-0.5979126,91.0
32743,0.18422031,0.5655136,0.1920929,-1.7841797,0.46728516,-0.542688,91.0
32744,0.581336,0.51665497,-0.2108612,-1.7841797,0.46728516,-0.542688,91.0
32745,0.581336,0.51665497,-0.2108612,-2.433069,0.64995116,-0.50445557,91.0
32746,1.179534,-0.009016037,-0.34524536,-2.433069,0.64995116,-0.50445557,91.0
32747,1.179534,-0.009016037,-0.34524536,-2.806897,0.8963379,-0.45772704,91.0
32748,1.1925287,-0.67580414,-0.12527466,-2.806897,0.8963379,-0.45772704,91.0
32749,1.1925287,-0.67580414,-0.12527466,-2.9630127,1.1650269,-0.34727785,91.0
32750,0.062641144,-1.0941467,0.30244446,-2.9630127,1.1650269,-0.34727785,91.0
32751,0.062641144,-1.0941467,0.30244446,-2.8568115,1.2329956,-0.2527588,91.0
32752,-1.5014496,-1.1952629,0.5813751,-2.8568115,1.2329956,-0.2527588,91.0
32753,-1.5014496,-1.1952629,0.5813751,-2.53396,1.1682129,-0.1720459,91.0
32754,-2.347424,-1.080513,0.5357208,-2.53396,1.1682129,-0.1720459,91.0
32755,-2.347424,-1.080513,0.5357208,-2.0358765,1.088562,-0.15186767,91.0
32756,-2.2776585,-0.8614197,0.25405884,-2.0358765,1.088562,-0.15186767,91.0
32757,-2.2776585,-0.8614197,0.25405884,-1.5239868,1.1034302,-0.16992188,91.0
32758,-1.8725908,-0.568676,-0.0740509,-1.5239868,1.1034302,-0.16992188,91.0
32759,-1.8725908,-0.568676,-0.0740509,-1.1682129,1.1384766,-0.22939454,91.0
32760,-1.5552747,-0.18185806,-0.36531067,-1.1682129,1.1384766,-0.22939454,91.0
32761,-1.5552747,-0.18185806,-0.36531067,-1.1342286,1.2244996,-0.27293703,91.0
32762,-1.2673521,0.2349205,-0.56918335,-1.1342286,1.2244996,-0.27293703,91.0
32763,-1.2673521,0.2349205,-0.56918335,-1.4305298,1.2744141,-0.2984253,91.0
32764,-1.2673521,0.2349205,-0.56918335,-1.4305298,1.2744141,-0.2984253,93.0
32765,-0.7967918,0.48926544,-0.7029419,-1.4305298,1.2744141,-0.2984253,93.0
32766,-0.7967918,0.48926544,-0.7029419,-1.910559,1.4007934,-0.2538208,93.0
32767,-0.25886893,0.46061325,-0.842041,-1.910559,1.4007934,-0.2538208,93.0
32768,-0.25886893,0.46061325,-0.842041,-2.4139526,1.5473511,-0.1444336,93.0
32769,0.043393135,0.20558739,-0.9827423,-2.4139526,1.5473511,-0.1444336,93.0
32770,0.043393135,0.20558739,-0.9827423,-2.805835,1.628064,-0.009558106,93.0
32771,0.0879128,-0.092451096,-1.0633545,-2.805835,1.628064,-0.009558106,93.0
32772,0.0879128,-0.092451096,-1.0633545,-3.0447876,1.7024049,0.18372802,93.0
32773,-0.08352709,-0.28773117,-1.0250549,-3.0447876,1.7024049,0.18372802,93.0
32774,-0.08352709,-0.28773117,-1.0250549,-3.1339967,1.6758546,0.37489015,93.0
32775,-0.348804,-0.36650085,-0.85250854,-3.1339967,1.6758546,0.37489015,93.0
32776,-0.348804,-0.36650085,-0.85250854,-3.0564697,1.5494751,0.54375,93.0
32777,-0.49632835,-0.3696041,-0.5503082,-3.0564697,1.5494751,0.54375,93.0
32778,-0.49632835,-0.3696041,-0.5503082,-2.795215,1.3423828,0.6616333,93.0
32779,-0.43652797,-0.33470917,-0.13491821,-2.795215,1.3423828,0.6616333,93.0
32780,-0.43652797,-0.33470917,-0.13491821,-2.3204956,1.0705079,0.68499756,93.0
32781,-0.24933231,-0.27085495,0.27967834,-2.3204956,1.0705079,0.68499756,93.0
32782,-0.24933231,-0.27085495,0.27967834,-1.6790406,0.80181885,0.6085327,93.0
32783,-0.13116753,-0.10074234,0.5778351,-1.6790406,0.80181885,0.6085327,93.0
32784,-0.13116753,-0.10074234,0.5778351,-1.0386475,0.5787964,0.4609131,93.0
32785,-0.23830807,0.2337246,0.7404022,-1.0386475,0.5787964,0.4609131,93.0
32786,-0.23830807,0.2337246,0.7404022,-0.6488892,0.31860352,0.24638672,93.0
32787,-0.49314892,0.59415627,0.7996826,-0.6488892,0.31860352,0.24638672,93.0
32788,-0.49314892,0.59415627,0.7996826,-0.44073486,0.08602295,-0.020178223,93.0
32789,-0.6985841,0.8237133,0.7832184,-0.44073486,0.08602295,-0.020178223,93.0
32790,-0.6985841,0.8237133,0.7832184,-0.4333008,-0.095581055,-0.2888672,93.0
32791,-0.7638111,0.87885475,0.779541,-0.4333008,-0.095581055,-0.2888672,93.0
32792,-0.7638111,0.87885475,0.779541,-0.55755615,-0.23789063,-0.54693604,93.0
32793,-0.6509049,0.76138496,0.82395935,-0.55755615,-0.23789063,-0.54693604,93.0
32794,-0.6509049,0.76138496,0.82395935,-0.74659425,-0.3419678,-0.813501,93.0
32795,-0.35110724,0.49273682,0.90330505,-0.74659425,-0.3419678,-0.813501,93.0
32796,-0.35110724,0.49273682,0.90330505,-0.96218264,-0.3982544,-1.0683838,93.0
32797,0.0028300285,0.13549805,0.9745941,-0.96218264,-0.3982544,-1.0683838,93.0
32798,0.0028300285,0.13549805,0.9745941,-1.170337,-0.4056885,-1.2924683,93.0
32799,0.227911,-0.2265625,0.9874878,-1.170337,-0.4056885,-1.2924683,93.0
32800,0.227911,-0.2265625,0.9874878,-1.3466309,-0.40993652,-1.4974365,93.0
32801,0.31660616,-0.5470829,0.95936584,-1.3466309,-0.40993652,-1.4974365,93.0
32802,0.31660616,-0.5470829,0.95936584,-1.4708862,-0.40993652,-1.6641724,93.0
32803,0.3903699,-0.8230057,0.965744,-1.4708862,-0.40993652,-1.6641724,93.0
32804,0.3903699,-0.8230057,0.965744,-1.5855836,-0.3993164,-1.7671875,93.0
32805,0.47274518,-1.0560608,1.0870361,-1.5855836,-0.3993164,-1.7671875,93.0
32806,0.47274518,-1.0560608,1.0870361,-1.6726685,-0.41206056,-1.8234742,93.0
32807,0.55810344,-1.2816048,1.3128815,-1.6726685,-0.41206056,-1.8234742,93.0
32808,0.55810344,-1.2816048,1.3128815,-1.6885986,-0.42374268,-1.8372803,93.0
32809,0.68924403,-1.5018215,1.4474792,-1.6885986,-0.42374268,-1.8372803,93.0
32810,0.68924403,-1.5018215,1.4474792,-1.6907227,-0.4163086,-1.8234742,93.0
32811,1.0060706,-1.7090263,1.3539429,-1.6907227,-0.4163086,-1.8234742,93.0
32812,1.0060706,-1.7090263,1.3539429,-1.6981567,-0.41843262,-1.8425903,93.0
32813,1.5410869,-1.8820782,1.0838318,-1.6981567,-0.41843262,-1.8425903,93.0
32814,1.5410869,-1.8820782,1.0838318,-1.6811646,-0.26868898,-1.81604,93.0
32815,1.6815023,-2.003477,0.71455383,-1.6811646,-0.26868898,-1.81604,93.0
32816,1.6815023,-2.003477,0.71455383,-1.6907227,0.04248047,-1.7140869,93.0
32817,0.9185052,-2.026989,0.28605652,-1.6907227,0.04248047,-1.7140869,93.0
32818,0.9185052,-2.026989,0.28605652,-1.8425903,0.31116945,-1.5930176,93.0
32819,-0.22472954,-1.9584446,-0.17837524,-1.8425903,0.31116945,-1.5930176,93.0
32820,-0.22472954,-1.9584446,-0.17837524,-2.1643798,0.5065796,-1.4124756,93.0
32821,-0.7834947,-1.8738594,-0.64871216,-2.1643798,0.5065796,-1.4124756,93.0
32822,-0.7834947,-1.8738594,-0.64871216,-2.52865,0.6690674,-1.1905152,93.0
32823,-0.40125847,-1.8694859,-1.0752563,-2.52865,0.6690674,-1.1905152,93.0
32824,-0.40125847,-1.8694859,-1.0752563,-2.8663697,0.8315552,-0.9600586,93.0
32825,0.5097792,-2.012312,-1.3517151,-2.8663697,0.8315552,-0.9600586,93.0
32826,0.5097792,-2.012312,-1.3517151,-3.1488647,1.0131592,-0.7338501,93.0
32827,1.1228259,-2.2640858,-1.4362335,-3.1488647,1.0131592,-0.7338501,93.0
32828,1.1228259,-2.2640858,-1.4362335,-3.2837403,1.1905152,-0.50445557,93.0
32829,0.909955,-2.452797,-1.3935089,-3.2837403,1.1905152,-0.50445557,93.0
32830,0.909955,-2.452797,-1.3935089,-3.153113,1.2584839,-0.2782471,93.0
32831,0.037302494,-2.3552065,-1.3371124,-3.153113,1.2584839,-0.2782471,93.0
32832,0.037302494,-2.3552065,-1.3371124,-2.8100832,1.260608,-0.040356446,93.0
32833,-1.0068645,-1.8364601,-1.294281,-2.8100832,1.260608,-0.040356446,93.0
32834,-1.0068645,-1.8364601,-1.294281,-2.3831544,1.1915772,0.21134034,93.0
32835,-1.7903061,-1.0511265,-1.25,-2.3831544,1.1915772,0.21134034,93.0
32836,-1.7903061,-1.0511265,-1.25,-1.9785279,1.0981201,0.44710693,93.0
32837,-2.165692,-0.28235626,-1.2014465,-1.9785279,1.0981201,0.44710693,93.0
32838,-2.165692,-0.28235626,-1.2014465,-1.6811646,0.98448485,0.631897,93.0
32839,-2.1333227,0.29986,-1.1546631,-1.6811646,0.98448485,0.631897,93.0
32840,-2.1333227,0.29986,-1.1546631,-1.4984986,0.8793457,0.72641605,93.0
32841,-1.7818413,0.6437206,-1.1130219,-1.4984986,0.8793457,0.72641605,93.0
32842,-1.7818413,0.6437206,-1.1130219,-1.4103516,0.8219971,0.7593384,93.0
32843,-1.2895477,0.81315804,-1.0857544,-1.4103516,0.8219971,0.7593384,93.0
32844,-1.2895477,0.81315804,-1.0857544,-1.3997315,0.79226077,0.72854006,93.0
32845,-0.8033423,0.9073868,-1.0843506,-1.3997315,0.79226077,0.72854006,93.0
32846,-0.8033423,0.9073868,-1.0843506,-1.4825684,0.77314454,0.6467652,93.0
32847,-0.414439,0.98289204,-1.1121063,-1.4825684,0.77314454,0.6467652,93.0
32848,-0.414439,0.98289204,-1.1121063,-1.6397461,0.75509036,0.5331299,93.0
32849,-0.16565764,1.0363503,-1.1257172,-1.6397461,0.75509036,0.5331299,93.0
32850,-0.16565764,1.0363503,-1.1257172,-1.8542725,0.7104859,0.39188233,93.0
32851,-0.038043678,1.0228539,-1.0656128,-1.8542725,0.7104859,0.39188233,93.0
32852,-0.038043678,1.0228539,-1.0656128,-2.080481,0.63826907,0.22514649,93.0
32853,0.0062349737,0.8911829,-0.9108124,-2.080481,0.63826907,0.22514649,93.0
32854,0.0062349737,0.8911829,-0.9108124,-2.270581,0.5278198,0.035046387,93.0
32855,-0.006242484,0.65177727,-0.6574249,-2.270581,0.5278198,0.035046387,93.0
32856,-0.006242484,0.65177727,-0.6574249,-2.3640382,0.39506838,-0.1731079,93.0
32857,-0.054115057,0.35430717,-0.34365845,-2.3640382,0.39506838,-0.1731079,93.0
32858,-0.054115057,0.35430717,-0.34365845,-2.3311157,0.21558838,-0.4163086,93.0
32859,-0.09628278,0.06459808,-0.07292175,-2.3311157,0.21558838,-0.4163086,93.0
32860,-0.09628278,0.06459808,-0.07292175,-2.1537597,0.029736329,-0.6552612,93.0
32861,-0.06061998,-0.16819382,0.14183044,-2.1537597,0.029736329,-0.6552612,93.0
32862,-0.06061998,-0.16819382,0.14183044,-1.8563966,-0.18372802,-0.9281983,93.0
32863,0.16184336,-0.3325901,0.35054016,-1.8563966,-0.18372802,-0.9281983,93.0
32864,0.16184336,-0.3325901,0.35054016,-1.4910644,-0.38869628,-1.2032593,93.0
32865,0.6065011,-0.46891594,0.6097107,-1.4910644,-0.38869628,-1.2032593,93.0
32866,0.6065011,-0.46891594,0.6097107,-1.1151123,-0.58304447,-1.5038086,93.0
32867,1.134798,-0.6184559,0.91693115,-1.1151123,-0.58304447,-1.5038086,93.0
32868,1.134798,-0.6184559,0.91693115,-0.7848267,-0.7306641,-1.807544,93.0
32869,1.5944108,-0.7782116,1.383728,-0.7848267,-0.7306641,-1.807544,93.0
32870,1.5944108,-0.7782116,1.383728,-0.42692873,-0.89421386,-2.1335816,93.0
32871,1.5944108,-0.7782116,1.383728,-0.42692873,-0.89421386,-2.1335816,94.0
32872,2.0855505,-1.0297832,1.8899536,-0.42692873,-0.89421386,-2.1335816,94.0
32873,2.0855505,-1.0297832,1.8899536,-0.2081543,-0.8666016,-2.4936035,94.0
32874,2.50815,-1.2818346,2.0670624,-0.2081543,-0.8666016,-2.4936035,94.0
32875,2.50815,-1.2818346,2.0670624,-0.16142578,-0.7890747,-2.710254,94.0
32876,2.5259414,-1.0882607,2.008255,-0.16142578,-0.7890747,-2.710254,94.0
32877,2.5259414,-1.0882607,2.008255,-0.14549561,-0.6510132,-2.7718506,94.0
32878,2.1623669,-0.26285744,1.8501434,-0.14549561,-0.6510132,-2.7718506,94.0
32879,2.1623669,-0.26285744,1.8501434,-0.61702883,-0.25063476,-2.616797,94.0
32880,1.582591,0.8300829,1.50383,-0.61702883,-0.25063476,-2.616797,94.0
32881,1.582591,0.8300829,1.50383,-1.621692,0.2888672,-2.259961,94.0
32882,0.93744755,1.6276283,1.0361023,-1.621692,0.2888672,-2.259961,94.0
32883,0.93744755,1.6276283,1.0361023,-3.169043,0.9717407,-1.812854,94.0
32884,0.39966488,1.5633945,0.30673218,-3.169043,0.9717407,-1.812854,94.0
32885,0.39966488,1.5633945,0.30673218,-4.533728,1.5962037,-1.3976074,94.0
32886,0.17156315,0.52266407,-0.64038086,-4.533728,1.5962037,-1.3976074,94.0
32887,0.17156315,0.52266407,-0.64038086,-5.037122,2.0942872,-1.0736939,94.0
32888,0.33852005,-0.87594795,-1.3073425,-5.037122,2.0942872,-1.0736939,94.0
32889,0.33852005,-0.87594795,-1.3073425,-4.911804,2.613611,-0.8963379,94.0
32890,0.367105,-1.9499655,-1.4436035,-4.911804,2.613611,-0.8963379,94.0
32891,0.367105,-1.9499655,-1.4436035,-4.244861,2.8823,-0.8442993,94.0
32892,-0.11062527,-2.369872,-1.3217163,-4.244861,2.8823,-0.8442993,94.0
32893,-0.11062527,-2.369872,-1.3217163,-3.2157714,2.9290283,-0.93138427,94.0
32894,-0.76546574,-2.0958738,-1.2873993,-3.2157714,2.9290283,-0.93138427,94.0
32895,-0.76546574,-2.0958738,-1.2873993,-2.2865112,2.8546875,-0.96643066,94.0
32896,-1.2170601,-1.3789454,-1.3959656,-2.2865112,2.8546875,-0.96643066,94.0
32897,-1.2170601,-1.3789454,-1.3959656,-1.6769165,2.6752076,-0.9696167,94.0
32898,-1.292984,-0.6312809,-1.647583,-1.6769165,2.6752076,-0.9696167,94.0
32899,-1.292984,-0.6312809,-1.647583,-1.356189,2.5127199,-0.9526245,94.0
32900,-1.0577271,-0.19131565,-1.9758148,-1.356189,2.5127199,-0.9526245,94.0
32901,-1.0577271,-0.19131565,-1.9758148,-1.2085694,2.3725343,-0.8506714,94.0
32902,-0.7450831,-0.10329628,-2.097107,-1.2085694,2.3725343,-0.8506714,94.0
32903,-0.7450831,-0.10329628,-2.097107,-1.084314,2.264209,-0.70942384,94.0
32904,-0.6000948,-0.2357254,-2.115509,-1.084314,2.264209,-0.70942384,94.0
32905,-0.6000948,-0.2357254,-2.115509,-0.8581055,2.1250856,-0.59260255,94.0
32906,-0.58493423,-0.36968422,-2.0503998,-0.8581055,2.1250856,-0.59260255,94.0
32907,-0.58493423,-0.36968422,-2.0503998,-0.4088745,1.9434814,-0.41099855,94.0
32908,-0.49267864,-0.29383087,-1.7145844,-0.4088745,1.9434814,-0.41099855,94.0
32909,-0.49267864,-0.29383087,-1.7145844,-0.098767094,1.8139161,-0.24638672,94.0
32910,-0.38971186,-0.15701294,-1.4181519,-0.098767094,1.8139161,-0.24638672,94.0
32911,-0.38971186,-0.15701294,-1.4181519,0.09664307,1.6131958,-0.08814698,94.0
32912,-0.3583882,-0.23367977,-1.3326569,0.09664307,1.6131958,-0.08814698,94.0
32913,-0.3583882,-0.23367977,-1.3326569,0.5543701,1.351941,0.040356446,94.0
32914,-0.39048266,-0.1649952,-1.0864868,0.5543701,1.351941,0.040356446,94.0
32915,-0.39048266,-0.1649952,-1.0864868,0.84323734,1.1926392,0.19541016,94.0
32916,-0.45844316,0.20685863,-0.70303345,0.84323734,1.1926392,0.19541016,94.0
32917,-0.45844316,0.20685863,-0.70303345,0.8442993,1.0248413,0.26762697,94.0
32918,-0.4052434,0.45153427,-0.54652405,0.8442993,1.0248413,0.26762697,94.0
32919,-0.4052434,0.45153427,-0.54652405,0.99510497,0.84536135,0.35895997,94.0
32920,-0.2645266,0.5457735,-0.44935608,0.99510497,0.84536135,0.35895997,94.0
32921,-0.2645266,0.5457735,-0.44935608,1.1597168,0.60216063,0.42268068,94.0
32922,-0.16444111,0.7095556,-0.24003601,1.1597168,0.60216063,0.42268068,94.0
32923,-0.16444111,0.7095556,-0.24003601,1.2000732,0.5235718,0.46834716,94.0
32924,-0.13537359,0.8689995,-0.16363525,1.2000732,0.5235718,0.46834716,94.0
32925,-0.13537359,0.8689995,-0.16363525,1.2128174,0.35577393,0.4715332,94.0
32926,0.09417915,0.7478609,-0.20559692,1.2128174,0.35577393,0.4715332,94.0
32927,0.09417915,0.7478609,-0.20559692,1.3742431,0.24957275,0.4258667,94.0
32928,0.6268692,0.4318943,-0.10479736,1.3742431,0.24957275,0.4258667,94.0
32929,0.6268692,0.4318943,-0.10479736,1.4995606,0.10301514,0.47578126,94.0
32930,0.98668814,0.1740551,0.17338562,1.4995606,0.10301514,0.47578126,94.0
32931,0.98668814,0.1740551,0.17338562,1.4135376,-0.06796875,0.61915284,94.0
32932,0.94469714,0.016123772,0.48562622,1.4135376,-0.06796875,0.61915284,94.0
32933,0.94469714,0.016123772,0.48562622,1.2722901,-0.20284425,0.6977417,94.0
32934,0.73526216,-0.021121979,0.70825195,1.2722901,-0.20284425,0.6977417,94.0
32935,0.73526216,-0.021121979,0.70825195,1.1544068,-0.2803711,0.8071289,94.0
32936,0.53150797,-0.002456665,0.7629242,1.1544068,-0.2803711,0.8071289,94.0
32937,0.53150797,-0.002456665,0.7629242,1.0577637,-0.27293703,0.88359374,94.0
32938,0.29297972,0.053380966,0.8330536,1.0577637,-0.27293703,0.88359374,94.0
32939,0.29297972,0.053380966,0.8330536,1.0280274,-0.25594482,0.98448485,94.0
32940,0.31867313,0.07672596,0.8879242,1.0280274,-0.25594482,0.98448485,94.0
32941,0.31867313,0.07672596,0.8879242,1.2106934,-0.04460449,0.96430665,94.0
32942,1.4696724,0.882987,2.0109406,1.2106934,-0.04460449,0.96430665,94.0
32943,1.4696724,0.882987,2.0109406,2.0603027,1.089624,0.54906005,94.0
32944,1.7392025,3.3496141,3.942459,2.0603027,1.089624,0.54906005,94.0
32945,1.7392025,3.3496141,3.942459,0.10513916,0.635083,0.62764895,94.0
32946,0.4152999,3.8609295,2.894516,0.10513916,0.635083,0.62764895,94.0
32947,0.4152999,3.8609295,2.894516,-1.6100098,0.2888672,0.40250245,94.0
32948,-0.40901995,0.98950005,-0.06796265,-1.6100098,0.2888672,0.40250245,94.0
32949,-0.40901995,0.98950005,-0.06796265,-0.8973999,0.2357666,0.5586182,94.0
32950,-0.6638737,-1.5432024,-1.3184814,-0.8973999,0.2357666,0.5586182,94.0
32951,-0.6638737,-1.5432024,-1.3184814,-0.9483765,-0.12213135,0.8262451,94.0
32952,-0.9179888,-2.2372723,-1.3288269,-0.9483765,-0.12213135,0.8262451,94.0
32953,-0.9179888,-2.2372723,-1.3288269,-1.3200806,-0.38444826,0.82730716,94.0
32954,-0.84355855,-1.7285881,-0.78167725,-1.3200806,-0.38444826,0.82730716,94.0
32955,-0.84355855,-1.7285881,-0.78167725,-0.31116945,-0.04460449,0.7317261,94.0
32956,-0.6006038,-0.4810753,0.6524048,-0.31116945,-0.04460449,0.7317261,94.0
32957,-0.6006038,-0.4810753,0.6524048,-0.9494385,-0.058410645,0.6149048,94.0
32958,-0.7750144,0.36183167,1.5056,-0.9494385,-0.058410645,0.6149048,94.0
32959,-0.7750144,0.36183167,1.5056,-1.5823975,0.03717041,0.62764895,94.0
32960,-1.0752482,0.53342247,0.9046173,-1.5823975,0.03717041,0.62764895,94.0
32961,-1.0752482,0.53342247,0.9046173,-2.1240234,0.18691407,0.7720825,94.0
32962,-1.3544858,1.1543627,-0.23510742,-2.1240234,0.18691407,0.7720825,94.0
32963,-1.3544858,1.1543627,-0.23510742,-3.6554444,0.05522461,0.81243896,94.0
32964,-1.2893991,0.97556496,-1.2107239,-3.6554444,0.05522461,0.81243896,94.0
32965,-1.2893991,0.97556496,-1.2107239,-3.5906618,-0.015930176,0.7306641,94.0
32966,-0.7285286,-0.43922615,-1.3572388,-3.5906618,-0.015930176,0.7306641,94.0
32967,-0.7285286,-0.43922615,-1.3572388,-2.4266968,-0.028674318,0.62552494,94.0
32968,-0.7285286,-0.43922615,-1.3572388,-2.4266968,-0.028674318,0.62552494,96.0
32969,0.03523135,-1.6888933,-0.46195984,-2.4266968,-0.028674318,0.62552494,96.0
32970,0.03523135,-1.6888933,-0.46195984,-0.81668705,0.05628662,0.4078125,96.0
32971,0.65858054,-1.7630405,0.9014282,-0.81668705,0.05628662,0.4078125,96.0
32972,0.65858054,-1.7630405,0.9014282,0.3058594,0.04885254,0.2782471,96.0
32973,0.98261404,-0.8062582,1.9256287,0.3058594,0.04885254,0.2782471,96.0
32974,0.98261404,-0.8062582,1.9256287,0.18797608,0.06159668,0.107263185,96.0
32975,0.9667187,-0.36402512,2.3119202,0.18797608,0.06159668,0.107263185,96.0
32976,0.9667187,-0.36402512,2.3119202,0.37382814,0.098767094,0.08496094,96.0
32977,0.64317465,-0.6186247,2.062851,0.37382814,0.098767094,0.08496094,96.0
32978,0.64317465,-0.6186247,2.062851,0.59472656,0.16779785,0.22833252,96.0
32979,0.17002058,-0.27418518,1.2015228,0.59472656,0.16779785,0.22833252,96.0
32980,0.17002058,-0.27418518,1.2015228,0.7051758,0.14124756,0.28355715,96.0
32981,-0.4404118,0.6129265,0.17062378,0.7051758,0.14124756,0.28355715,96.0
32982,-0.4404118,0.6129265,0.17062378,0.58623046,0.08496094,0.23895264,96.0
32983,-1.025181,1.0550013,-0.51156616,0.58623046,0.08496094,0.23895264,96.0
32984,-1.025181,1.0550013,-0.51156616,0.6595093,-0.009558106,0.14124756,96.0
32985,-1.1862826,0.5644474,-0.7267151,0.6595093,-0.009558106,0.14124756,96.0
32986,-1.1862826,0.5644474,-0.7267151,0.74022216,-0.06478272,0.093457036,96.0
32987,-0.8780545,-0.12264919,-0.6116791,0.74022216,-0.06478272,0.093457036,96.0
32988,-0.8780545,-0.12264919,-0.6116791,0.52888185,-0.14549561,0.0010620117,96.0
32989,-0.44757295,-0.34283447,-0.3578949,0.52888185,-0.14549561,0.0010620117,96.0
32990,-0.44757295,-0.34283447,-0.3578949,0.3419678,-0.18691407,-0.0637207,96.0
32991,-0.08305836,-0.2776003,-0.1953888,0.3419678,-0.18691407,-0.0637207,96.0
32992,-0.08305836,-0.2776003,-0.1953888,0.26975098,-0.16779785,-0.1083252,96.0
32993,0.081514835,-0.14590836,-0.16452026,0.26975098,-0.16779785,-0.1083252,96.0
32994,0.081514835,-0.14590836,-0.16452026,0.17841797,-0.13168946,-0.12850343,96.0
32995,0.03763616,0.022836685,-0.11729431,0.17841797,-0.13168946,-0.12850343,96.0
32996,0.03763616,0.022836685,-0.11729431,0.04141846,-0.14868164,-0.17523193,96.0
32997,-0.0524472,0.31995392,0.0066070557,0.04141846,-0.14868164,-0.17523193,96.0
32998,-0.0524472,0.31995392,0.0066070557,0.040356446,-0.17947999,-0.23789063,96.0
32999,-0.09113991,0.58668804,0.100494385,0.040356446,-0.17947999,-0.23789063,96.0
33000,-0.09113991,0.58668804,0.100494385,0.04991455,-0.26762697,-0.33240968,96.0
33001,-0.046349525,0.46882534,0.101638794,0.04991455,-0.26762697,-0.33240968,96.0
33002,-0.046349525,0.46882534,0.101638794,0.13062744,-0.30161133,-0.35471192,96.0
33003,-0.012348175,0.11966419,0.18919373,0.13062744,-0.30161133,-0.35471192,96.0
33004,-0.012348175,0.11966419,0.18919373,0.1996582,-0.32816163,-0.36533204,96.0
33005,-0.010183692,0.023673058,0.32432556,0.1996582,-0.32816163,-0.36533204,96.0
33006,-0.010183692,0.023673058,0.32432556,0.26975098,-0.39400634,-0.41737062,96.0
33007,0.06896484,0.09641647,0.25474548,0.26975098,-0.39400634,-0.41737062,96.0
33008,0.06896484,0.09641647,0.25474548,0.38551027,-0.43754885,-0.42374268,96.0
33009,0.21227634,0.30252457,0.15104675,0.38551027,-0.43754885,-0.42374268,96.0
33010,0.21227634,0.30252457,0.15104675,0.32178956,-0.5671143,-0.46834716,96.0
33011,0.43711853,0.6156769,0.11894226,0.32178956,-0.5671143,-0.46834716,96.0
33012,0.43711853,0.6156769,0.11894226,0.39400634,-0.5586182,-0.61065674,96.0
33013,0.8470948,0.44189453,-0.0716095,0.39400634,-0.5586182,-0.61065674,96.0
33014,0.8470948,0.44189453,-0.0716095,0.5915405,-0.46409914,-0.7497803,96.0
33015,1.3635278,-0.17607403,-0.39622498,0.5915405,-0.46409914,-0.7497803,96.0
33016,1.3635278,-0.17607403,-0.39622498,0.5522461,-0.4056885,-0.7508423,96.0
33017,1.5685444,-0.3731842,-0.5649414,0.5522461,-0.4056885,-0.7508423,96.0
33018,1.5685444,-0.3731842,-0.5649414,0.45772704,-0.34090576,-0.7784546,96.0
33019,1.0854387,0.08314228,-0.46394348,0.45772704,-0.34090576,-0.7784546,96.0
33020,1.0854387,0.08314228,-0.46394348,0.36533204,-0.24638672,-0.8050049,96.0
33021,0.05487442,0.42256927,-0.2177887,0.36533204,-0.24638672,-0.8050049,96.0
33022,0.05487442,0.42256927,-0.2177887,0.4630371,-0.22727051,-0.8336792,96.0
33023,-0.880136,0.08135319,-0.01612854,0.4630371,-0.22727051,-0.8336792,96.0
33024,-0.880136,0.08135319,-0.01612854,0.73809814,-0.1274414,-0.8219971,96.0
33025,-1.057136,-0.6109915,0.08268738,0.73809814,-0.1274414,-0.8219971,96.0
33026,-1.057136,-0.6109915,0.08268738,0.9494385,-0.038232423,-0.81243896,96.0
33027,-0.3182552,-0.7296381,0.16069031,0.9494385,-0.038232423,-0.81243896,96.0
33028,-0.3182552,-0.7296381,0.16069031,0.724292,0.14337158,-0.7848267,96.0
33029,0.6644387,-0.14964104,0.34536743,0.724292,0.14337158,-0.7848267,96.0
33030,0.6644387,-0.14964104,0.34536743,0.118945315,0.26125488,-0.90058595,96.0
33031,1.1571248,0.11163521,0.33958435,0.118945315,0.26125488,-0.90058595,96.0
33032,1.1571248,0.11163521,0.33958435,-0.2357666,0.47471926,-0.90270996,96.0
33033,0.9554119,-0.0023298264,0.038375854,-0.2357666,0.47471926,-0.90270996,96.0
33034,0.9554119,-0.0023298264,0.038375854,-0.8028809,0.6701294,-0.91014403,96.0
33035,0.32524252,-0.43905926,-0.2889099,-0.8028809,0.6701294,-0.91014403,96.0
33036,0.32524252,-0.43905926,-0.2889099,-0.9143921,0.75615233,-0.8963379,96.0
33037,-0.3603871,-0.8415556,-0.7095032,-0.9143921,0.75615233,-0.8963379,96.0
33038,-0.3603871,-0.8415556,-0.7095032,-0.55543214,0.4619751,-0.8952759,96.0
33039,-0.70715714,-0.27169418,-1.384964,-0.55543214,0.4619751,-0.8952759,96.0
33040,-0.70715714,-0.27169418,-1.384964,-0.541626,0.11257324,-1.0513916,96.0
33041,-0.57773733,0.80953693,-1.9235077,-0.541626,0.11257324,-1.0513916,96.0
33042,-0.57773733,0.80953693,-1.9235077,-0.991919,-0.08283692,-0.90270996,96.0
33043,-0.24402595,1.2780371,-1.9532318,-0.991919,-0.08283692,-0.90270996,96.0
33044,-0.24402595,1.2780371,-1.9532318,-0.87403566,-0.21877442,-0.87403566,96.0
33045,0.0514102,0.95259285,-1.7994995,-0.87403566,-0.21877442,-0.87403566,96.0
33046,0.0514102,0.95259285,-1.7994995,-0.4056885,-0.12213135,-0.7858887,96.0
33047,0.08810091,0.4478035,-1.4588623,-0.4056885,-0.12213135,-0.7858887,96.0
33048,0.08810091,0.4478035,-1.4588623,-0.027612304,-0.023364259,-0.6701294,96.0
33049,-0.05394554,0.16646957,-0.72792053,-0.027612304,-0.023364259,-0.6701294,96.0
33050,-0.05394554,0.16646957,-0.72792053,0.0031860352,-0.0180542,-0.4895874,96.0
33051,-0.13014364,-0.07203674,0.06500244,0.0031860352,-0.0180542,-0.4895874,96.0
33052,-0.13014364,-0.07203674,0.06500244,0.008496094,-0.06265869,-0.35895997,96.0
33053,-0.07385349,-0.42993164,0.52757263,0.008496094,-0.06265869,-0.35895997,96.0
33054,-0.07385349,-0.42993164,0.52757263,0.060534667,-0.0637207,-0.31010744,96.0
33055,-0.017212868,-0.58306885,0.64775085,0.060534667,-0.0637207,-0.31010744,96.0
33056,-0.017212868,-0.58306885,0.64775085,0.11363526,-0.032922365,-0.271875,96.0
33057,-0.10628724,-0.32124043,0.5228424,0.11363526,-0.032922365,-0.271875,96.0
33058,-0.10628724,-0.32124043,0.5228424,0.08602295,-0.008496094,-0.21558838,96.0
33059,-0.2274859,-0.006430626,0.36721802,0.08602295,-0.008496094,-0.21558838,96.0
33060,-0.2274859,-0.006430626,0.36721802,0.011682129,0.011682129,-0.12213135,96.0
33061,-0.16370273,-0.10879421,0.38401794,0.011682129,0.011682129,-0.12213135,96.0
33062,-0.16370273,-0.10879421,0.38401794,-0.0637207,0.046728518,-0.08071289,96.0
33063,-0.05283737,-0.24118614,0.3996582,-0.0637207,0.046728518,-0.08071289,96.0
33064,-0.05283737,-0.24118614,0.3996582,-0.0637207,0.046728518,-0.08071289,98.0
33065,-0.05283737,-0.24118614,0.3996582,-0.07752686,0.08814698,-0.0361084,98.0
33066,0.059524536,-0.44249725,0.6552429,-0.07752686,0.08814698,-0.0361084,98.0
33067,0.059524536,-0.44249725,0.6552429,-0.16779785,0.1709839,0.098767094,98.0
33068,0.00931406,-0.2630558,0.5480194,-0.16779785,0.1709839,0.098767094,98.0
33069,0.00931406,-0.2630558,0.5480194,-0.19328614,0.1901001,0.15611573,98.0
33070,-0.24625969,0.1351242,0.32069397,-0.19328614,0.1901001,0.15611573,98.0
33071,-0.24625969,0.1351242,0.32069397,-0.29630128,0.21452637,0.3451538,98.0
33072,-0.25267172,0.18314838,0.20965576,-0.29630128,0.21452637,0.3451538,98.0
33073,-0.25267172,0.18314838,0.20965576,-0.3079834,0.21558838,0.3982544,98.0
33074,-0.15007424,-0.111831665,0.40950012,-0.3079834,0.21558838,0.3982544,98.0
33075,-0.15007424,-0.111831665,0.40950012,-0.11257324,0.28355715,0.5703003,98.0
33076,-0.09070134,-0.14095497,0.4318695,-0.11257324,0.28355715,0.5703003,98.0
33077,-0.09070134,-0.14095497,0.4318695,-0.09664307,0.3058594,0.62340087,98.0
33078,-0.097365856,-0.13092804,0.43380737,-0.09664307,0.3058594,0.62340087,98.0
33079,-0.097365856,-0.13092804,0.43380737,-0.023364259,0.39188233,0.8092529,98.0
33080,-0.09880328,-0.033441544,0.28581238,-0.023364259,0.39188233,0.8092529,98.0
33081,-0.09880328,-0.033441544,0.28581238,-0.0063720704,0.40993652,0.8527954,98.0
33082,-0.115065575,0.039470673,0.26441956,-0.0063720704,0.40993652,0.8527954,98.0
33083,-0.115065575,0.039470673,0.26441956,0.10938721,0.41206056,0.94625247,98.0
33084,-0.110631704,0.02253151,0.29592896,0.10938721,0.41206056,0.94625247,98.0
33085,-0.110631704,0.02253151,0.29592896,0.16885987,0.4088745,0.96430665,98.0
33086,-0.019218206,-0.054606438,0.5067444,0.16885987,0.4088745,0.96430665,98.0
33087,-0.019218206,-0.054606438,0.5067444,0.18797608,0.32285157,1.0354614,98.0
33088,0.08792138,0.034036636,0.41711426,0.18797608,0.32285157,1.0354614,98.0
33089,0.08792138,0.034036636,0.41711426,0.1529297,0.26550293,1.0174073,98.0
33090,0.7318604,0.028963089,0.3216858,0.1529297,0.26550293,1.0174073,98.0
33091,0.7318604,0.028963089,0.3216858,0.1274414,0.1083252,1.0174073,98.0
33092,0.6942897,-0.07458305,0.29649353,0.1274414,0.1083252,1.0174073,98.0
33093,0.6942897,-0.07458305,0.29649353,0.19222413,0.0541626,1.0184692,98.0
33094,0.40251422,0.21955776,0.8095856,0.19222413,0.0541626,1.0184692,98.0
33095,0.40251422,0.21955776,0.8095856,0.43011475,0.15505372,0.7848267,98.0
33096,0.14828086,0.7256584,0.95433044,0.43011475,0.15505372,0.7848267,98.0
33097,0.14828086,0.7256584,0.95433044,0.44179687,0.16885987,0.6860596,98.0
33098,-0.1536653,1.8377409,1.1413574,0.44179687,0.16885987,0.6860596,98.0
33099,-0.1536653,1.8377409,1.1413574,0.24001466,0.014868164,0.3451538,98.0
33100,-0.17605734,2.175003,0.66989136,0.24001466,0.014868164,0.3451538,98.0
33101,-0.17605734,2.175003,0.66989136,0.21027832,-0.012744141,0.16779785,98.0
33102,0.0020372868,0.97180176,-0.18734741,0.21027832,-0.012744141,0.16779785,98.0
33103,0.0020372868,0.97180176,-0.18734741,0.4364868,0.0021240234,0.2177124,98.0
33104,0.22100258,-1.3379269,-0.68122864,0.4364868,0.0021240234,0.2177124,98.0
33105,0.22100258,-1.3379269,-0.68122864,0.65844727,0.03186035,0.4088745,98.0
33106,0.49290323,-4.293913,-0.40579224,0.65844727,0.03186035,0.4088745,98.0
33107,0.49290323,-4.293913,-0.40579224,1.1182984,-0.095581055,0.89208984,98.0
33108,0.215343,-3.3481312,-0.09603882,1.1182984,-0.095581055,0.89208984,98.0
33109,0.215343,-3.3481312,-0.09603882,1.0662597,-0.124255374,0.7975708,98.0
33110,-0.31864357,-0.97632027,0.31484985,1.0662597,-0.124255374,0.7975708,98.0
33111,-0.31864357,-0.97632027,0.31484985,1.2754761,-0.014868164,0.75296634,98.0
33112,-0.66083527,0.6519642,0.6281433,1.2754761,-0.014868164,0.75296634,98.0
33113,-0.66083527,0.6519642,0.6281433,1.1820191,0.11151123,0.57454836,98.0
33114,-0.79412246,0.9487934,0.657547,1.1820191,0.11151123,0.57454836,98.0
33115,-0.79412246,0.9487934,0.657547,0.44710693,0.1274414,0.34727785,98.0
33116,-0.7200391,0.2810564,0.37364197,0.44710693,0.1274414,0.34727785,98.0
33117,-0.7200391,0.2810564,0.37364197,0.16885987,0.10301514,0.2803711,98.0
33118,-0.5624938,-0.48157597,0.012451172,0.16885987,0.10301514,0.2803711,98.0
33119,-0.5624938,-0.48157597,0.012451172,0.35895997,0.05628662,0.22408448,98.0
33120,-0.44994617,-0.6467352,-0.28952026,0.35895997,0.05628662,0.22408448,98.0
33121,-0.44994617,-0.6467352,-0.28952026,0.6680054,0.04248047,0.16885987,98.0
33122,-0.48741055,-0.047002792,-0.42066956,0.6680054,0.04248047,0.16885987,98.0
33123,-0.48741055,-0.047002792,-0.42066956,0.544812,-0.028674318,0.118945315,98.0
33124,-0.5621085,0.6612263,-0.4106903,0.544812,-0.028674318,0.118945315,98.0
33125,-0.5621085,0.6612263,-0.4106903,0.41206056,-0.13062744,0.0,98.0
33126,-0.49271667,0.93974686,-0.39308167,0.41206056,-0.13062744,0.0,98.0
33127,-0.49271667,0.93974686,-0.39308167,0.32178956,-0.24957275,-0.16673584,98.0
33128,-0.25418317,0.9139557,-0.3611145,0.32178956,-0.24957275,-0.16673584,98.0
33129,-0.25418317,0.9139557,-0.3611145,0.41949463,-0.38763428,-0.3536499,98.0
33130,0.08491027,0.7811775,-0.37887573,0.41949463,-0.38763428,-0.3536499,98.0
33131,0.08491027,0.7811775,-0.37887573,0.5235718,-0.51826173,-0.5341919,98.0
33132,0.41306984,0.43270588,-0.5832977,0.5235718,-0.51826173,-0.5341919,98.0
33133,0.41306984,0.43270588,-0.5832977,0.46409914,-0.5479981,-0.6202149,98.0
33134,0.6385126,-0.1295681,-0.85865784,0.46409914,-0.5479981,-0.6202149,98.0
33135,0.6385126,-0.1295681,-0.85865784,0.41206056,-0.56605226,-0.66481936,98.0
33136,0.74314666,-0.6985035,-0.9018707,0.41206056,-0.56605226,-0.66481936,98.0
33137,0.74314666,-0.6985035,-0.9018707,0.45454103,-0.4715332,-0.61065674,98.0
33138,0.705101,-1.022109,-0.5434418,0.45454103,-0.4715332,-0.61065674,98.0
33139,0.705101,-1.022109,-0.5434418,0.36427003,-0.46834716,-0.50870365,98.0
33140,0.48605347,-0.881835,-0.13131714,0.36427003,-0.46834716,-0.50870365,98.0
33141,0.48605347,-0.881835,-0.13131714,0.33771974,-0.4609131,-0.38763428,98.0
33142,0.06794429,-0.6954584,-0.12687683,0.33771974,-0.4609131,-0.38763428,98.0
33143,0.06794429,-0.6954584,-0.12687683,0.45029297,-0.45878908,-0.3345337,98.0
33144,-0.39161634,-0.6103344,-0.3368988,0.45029297,-0.45878908,-0.3345337,98.0
33145,-0.39161634,-0.6103344,-0.3368988,0.56605226,-0.48746338,-0.19647217,98.0
33146,-0.69538546,-0.13680267,-0.08377075,0.56605226,-0.48746338,-0.19647217,98.0
33147,-0.69538546,-0.13680267,-0.08377075,0.7975708,-0.727478,-0.16354981,98.0
33148,-0.5639379,1.0155334,0.46437073,0.7975708,-0.727478,-0.16354981,98.0
33149,-0.5639379,1.0155334,0.46437073,0.9770508,-0.82836914,-0.4354248,98.0
33150,-0.24853802,1.3854494,0.58296204,0.9770508,-0.82836914,-0.4354248,98.0
33151,-0.24853802,1.3854494,0.58296204,0.5533081,-0.88996583,-0.6796875,98.0
33152,-0.15114975,1.0008526,0.5679321,0.5533081,-0.88996583,-0.6796875,98.0
33153,-0.15114975,1.0008526,0.5679321,0.59260255,-0.9632446,-0.7805786,98.0
33154,-0.08654475,1.4306145,0.6250305,0.59260255,-0.9632446,-0.7805786,98.0
33155,-0.08654475,1.4306145,0.6250305,0.14974366,-1.1406006,-0.93350834,98.0
33156,0.08509779,1.990818,0.66059875,0.14974366,-1.1406006,-0.93350834,98.0
33157,0.08509779,1.990818,0.66059875,0.04248047,-1.2191895,-1.0099732,98.0
33158,0.2742672,1.80933,0.6912689,0.04248047,-1.2191895,-1.0099732,98.0
33159,0.2742672,1.80933,0.6912689,-0.26125488,-1.4358399,-1.1597168,98.0
33160,0.46765614,0.91887474,0.44470215,-0.26125488,-1.4358399,-1.1597168,98.0
33161,0.46765614,0.91887474,0.44470215,-0.26868898,-1.447522,-1.360437,98.0
33162,0.7926307,-0.6722002,0.12361145,-0.26868898,-1.447522,-1.360437,98.0
33163,0.7926307,-0.6722002,0.12361145,-0.14868164,-1.4921265,-1.5197388,98.0
33164,1.2085309,-2.5370522,0.16453552,-0.14868164,-1.4921265,-1.5197388,98.0
33165,1.2085309,-2.5370522,0.16453552,0.27506104,-1.2807862,-1.177771,98.0
33166,1.0366368,-2.4270172,-0.044021606,0.27506104,-1.2807862,-1.177771,98.0
33167,1.0366368,-2.4270172,-0.044021606,0.023364259,-1.2542359,-0.70198977,98.0
33168,1.0366368,-2.4270172,-0.044021606,0.023364259,-1.2542359,-0.70198977,98.0
33169,8.554969,8.43689,8.495758,0.023364259,-1.2542359,-0.70198977,98.0
33170,8.554969,8.43689,8.495758,-0.29417726,-1.2839721,-0.45560303,98.0
33171,6.6176567,7.6529293,5.8917694,-0.29417726,-1.2839721,-0.45560303,98.0
33172,6.6176567,7.6529293,5.8917694,-0.31435546,-1.363623,-0.41737062,98.0
33173,5.605978,6.0942917,4.18367,-0.31435546,-1.363623,-0.41737062,98.0
33174,5.605978,6.0942917,4.18367,-0.008496094,-1.3423828,-0.4428589,98.0
33175,5.1941814,4.700506,3.1460114,-0.008496094,-1.3423828,-0.4428589,98.0
33176,5.1941814,4.700506,3.1460114,0.34090576,-1.26167,-0.48215333,98.0
33177,4.6861687,3.9872112,2.6683044,0.34090576,-1.26167,-0.48215333,98.0
33178,4.6861687,3.9872112,2.6683044,0.08496094,-1.3349488,-0.41099855,98.0
33179,4.224167,3.5826397,1.989212,0.08496094,-1.3349488,-0.41099855,98.0
33180,4.224167,3.5826397,1.989212,-0.12000733,-1.3041505,-0.35577393,98.0
33181,3.8849125,3.0047474,1.3757324,-0.12000733,-1.3041505,-0.35577393,98.0
33182,3.8849125,3.0047474,1.3757324,-0.35471192,-1.2754761,-0.26444092,98.0
33183,3.5494947,2.2727432,0.9966736,-0.35471192,-1.2754761,-0.26444092,98.0
33184,3.5494947,2.2727432,0.9966736,-0.47790527,-1.2351197,-0.1720459,98.0
33185,3.099227,1.4942188,0.8076782,-0.47790527,-1.2351197,-0.1720459,98.0
33186,3.099227,1.4942188,0.8076782,-0.54375,-1.1915772,-0.11151123,98.0
33187,2.5330677,0.8720093,0.8522186,-0.54375,-1.1915772,-0.11151123,98.0
33188,2.5330677,0.8720093,0.8522186,-0.57454836,-1.0790039,-0.050976563,98.0
33189,1.8730602,0.43126297,1.0423431,-0.57454836,-1.0790039,-0.050976563,98.0
33190,1.8730602,0.43126297,1.0423431,-0.5246338,-1.0110352,-0.06478272,98.0
33191,1.2277327,0.24795151,1.1542206,-0.5246338,-1.0110352,-0.06478272,98.0
33192,1.2277327,0.24795151,1.1542206,-0.26975098,-0.8379273,-0.17841797,98.0
33193,0.79720116,0.48444557,1.0759125,-0.26975098,-0.8379273,-0.17841797,98.0
33194,0.79720116,0.48444557,1.0759125,-0.028674318,-0.7072998,-0.23682861,98.0
33195,0.48075485,1.0023022,0.93984985,-0.028674318,-0.7072998,-0.23682861,98.0
33196,0.48075485,1.0023022,0.93984985,0.052038576,-0.5777344,-0.36108398,98.0
33197,0.30745506,1.4772434,0.8890381,0.052038576,-0.5777344,-0.36108398,98.0
33198,0.30745506,1.4772434,0.8890381,0.022302246,-0.42799073,-0.44073486,98.0
33199,0.292387,1.7762394,0.85054016,0.022302246,-0.42799073,-0.44073486,98.0
33200,0.292387,1.7762394,0.85054016,-0.42799073,-0.3334717,-0.5012695,98.0
33201,0.2571144,1.7060509,0.6374359,-0.42799073,-0.3334717,-0.5012695,98.0
33202,0.2571144,1.7060509,0.6374359,-0.86978763,-0.4343628,-0.5161377,98.0
33203,0.25470352,1.2068577,0.17855835,-0.86978763,-0.4343628,-0.5161377,98.0
33204,0.25470352,1.2068577,0.17855835,-1.2276856,-0.5979126,-0.5777344,98.0
33205,0.36035347,0.42902374,-0.48617554,-1.2276856,-0.5979126,-0.5777344,98.0
33206,0.36035347,0.42902374,-0.48617554,-1.2521118,-0.70305175,-0.5692383,98.0
33207,0.48340034,-0.39080238,-1.1326447,-1.2521118,-0.70305175,-0.5692383,98.0
33208,0.48340034,-0.39080238,-1.1326447,-1.0651978,-0.85598147,-0.5065796,98.0
33209,0.60779,-0.9526062,-1.4134064,-1.0651978,-0.85598147,-0.5065796,98.0
33210,0.60779,-0.9526062,-1.4134064,-0.77526855,-0.9303223,-0.4248047,98.0
33211,0.65398026,-1.1130981,-1.1575317,-0.77526855,-0.9303223,-0.4248047,98.0
33212,0.65398026,-1.1130981,-1.1575317,-0.51932377,-0.93563235,-0.31435546,98.0
33213,0.4949131,-1.0108414,-0.69348145,-0.51932377,-0.93563235,-0.31435546,98.0
33214,0.4949131,-1.0108414,-0.69348145,-0.25700685,-0.8527954,-0.16673584,98.0
33215,0.106256485,-0.7716007,-0.4029541,-0.25700685,-0.8527954,-0.16673584,98.0
33216,0.106256485,-0.7716007,-0.4029541,-0.027612304,-0.70942384,-0.11151123,98.0
33217,-0.34696388,-0.4185753,-0.4445343,-0.027612304,-0.70942384,-0.11151123,98.0
33218,-0.34696388,-0.4185753,-0.4445343,0.0361084,-0.6701294,-0.027612304,98.0
33219,-0.59861565,-0.09767914,-0.80181885,0.0361084,-0.6701294,-0.027612304,98.0
33220,-0.59861565,-0.09767914,-0.80181885,0.1083252,-0.65844727,-0.0010620117,98.0
33221,-0.588768,0.1045475,-1.1737823,0.1083252,-0.65844727,-0.0010620117,98.0
33222,-0.588768,0.1045475,-1.1737823,0.10620117,-0.6903076,-0.025488282,98.0
33223,-0.4245186,0.21094513,-1.3336792,0.10620117,-0.6903076,-0.025488282,98.0
33224,-0.4245186,0.21094513,-1.3336792,0.020178223,-0.73809814,-0.057348635,98.0
33225,-0.24538994,0.2693653,-1.2914581,0.020178223,-0.73809814,-0.057348635,98.0
33226,-0.24538994,0.2693653,-1.2914581,-0.05628662,-0.79013675,-0.06584473,98.0
33227,-0.027610779,0.2890644,-1.1516571,-0.05628662,-0.79013675,-0.06584473,98.0
33228,-0.027610779,0.2890644,-1.1516571,-0.15505372,-0.8464233,-0.03079834,98.0
33229,0.21385002,0.25587273,-1.0439911,-0.15505372,-0.8464233,-0.03079834,98.0
33230,0.21385002,0.25587273,-1.0439911,-0.16885987,-0.8931519,-0.0180542,98.0
33231,0.3285141,0.23439789,-1.0378876,-0.16885987,-0.8931519,-0.0180542,98.0
33232,0.3285141,0.23439789,-1.0378876,-0.3058594,-0.9770508,0.09451904,98.0
33233,0.39131546,0.14813805,-1.0814514,-0.3058594,-0.9770508,0.09451904,98.0
33234,0.39131546,0.14813805,-1.0814514,-0.45666504,-1.1108643,0.17629395,98.0
33235,0.6296177,-0.045869827,-1.1015472,-0.45666504,-1.1108643,0.17629395,98.0
33236,0.6296177,-0.045869827,-1.1015472,-0.4258667,-1.174585,0.17947999,98.0
33237,0.96928215,-0.18659973,-1.1163635,-0.4258667,-1.174585,0.17947999,98.0
33238,0.96928215,-0.18659973,-1.1163635,-0.3791382,-1.2882203,0.20390625,98.0
33239,1.3291245,-0.26434326,-1.2313385,-0.3791382,-1.2882203,0.20390625,98.0
33240,1.3291245,-0.26434326,-1.2313385,-0.362146,-1.3827393,0.2824951,98.0
33241,1.7673779,-0.4385872,-1.487442,-0.362146,-1.3827393,0.2824951,98.0
33242,1.7673779,-0.4385872,-1.487442,-0.31329346,-1.4188477,0.4056885,98.0
33243,2.2086296,-0.62013245,-1.6714783,-0.31329346,-1.4188477,0.4056885,98.0
33244,2.2086296,-0.62013245,-1.6714783,-0.26444092,-1.4199097,0.5235718,98.0
33245,2.4315758,-0.68712234,-1.5050201,-0.26444092,-1.4199097,0.5235718,98.0
33246,2.4315758,-0.68712234,-1.5050201,-0.20496826,-1.4177856,0.61702883,98.0
33247,2.3010826,-0.61216164,-1.181839,-0.20496826,-1.4177856,0.61702883,98.0
33248,2.3010826,-0.61216164,-1.181839,-0.1178833,-1.4061035,0.7104859,98.0
33249,1.8894501,-0.58898544,-1.0860748,-0.1178833,-1.4061035,0.7104859,98.0
33250,1.8894501,-0.58898544,-1.0860748,-0.07434082,-1.3827393,0.8209351,98.0
33251,1.3091793,-0.749033,-1.2861786,-0.07434082,-1.3827393,0.8209351,98.0
33252,1.3091793,-0.749033,-1.2861786,-0.052038576,-1.3190186,0.90058595,98.0
33253,0.6346359,-0.8890457,-1.7142181,-0.052038576,-1.3190186,0.90058595,98.0
33254,0.6346359,-0.8890457,-1.7142181,-0.1359375,-1.2340577,0.94412845,98.0
33255,-0.08175659,-0.9995308,-2.271469,-0.1359375,-1.2340577,0.94412845,98.0
33256,-0.08175659,-0.9995308,-2.271469,-0.2548828,-1.1416626,0.97386473,98.0
33257,-0.5748787,-1.198391,-2.6154785,-0.2548828,-1.1416626,0.97386473,98.0
33258,-0.5748787,-1.198391,-2.6154785,-0.38338622,-1.081128,0.9781128,98.0
33259,-0.4963169,-1.4497166,-2.5378876,-0.38338622,-1.081128,0.9781128,98.0
33260,-0.4963169,-1.4497166,-2.5378876,-0.540564,-0.99722904,0.94412845,98.0
33261,0.06690025,-1.6155853,-2.199524,-0.540564,-0.99722904,0.94412845,98.0
33262,0.06690025,-1.6155853,-2.199524,-0.61915284,-0.9218262,0.88996583,98.0
33263,0.61907196,-1.6513062,-1.8140106,-0.61915284,-0.9218262,0.88996583,98.0
33264,0.61907196,-1.6513062,-1.8140106,-0.66588134,-0.8071289,0.8315552,98.0
33265,0.880682,-1.6187496,-1.47229,-0.66588134,-0.8071289,0.8315552,98.0
33266,0.880682,-1.6187496,-1.47229,-0.7412842,-0.7189819,0.77102053,98.0
33267,0.9148598,-1.6486263,-1.2327728,-0.7412842,-0.7189819,0.77102053,98.0
33268,0.9148598,-1.6486263,-1.2327728,-0.7497803,-0.59047854,0.75509036,98.0
33269,0.7927151,-1.6877365,-1.1394501,-0.7497803,-0.59047854,0.75509036,98.0
33270,0.7927151,-1.6877365,-1.1394501,-0.6839356,-0.49489745,0.79119873,98.0
33271,0.5649471,-1.5608826,-1.0682678,-0.6839356,-0.49489745,0.79119873,98.0
33272,0.5649471,-1.5608826,-1.0682678,-0.5957886,-0.36533204,0.8581055,98.0
33273,0.24935722,-1.2267094,-0.9298096,-0.5957886,-0.36533204,0.8581055,98.0
33274,0.24935722,-1.2267094,-0.9298096,-0.5968506,-0.271875,0.9143921,98.0
33275,-0.19399643,-0.8745308,-0.7610626,-0.5968506,-0.271875,0.9143921,98.0
33276,-0.19399643,-0.8745308,-0.7610626,-0.55968016,-0.21240234,0.95581055,98.0
33277,-0.6440754,-0.5970135,-0.5556946,-0.55968016,-0.21240234,0.95581055,98.0
33278,-0.6440754,-0.5970135,-0.5556946,-0.6552612,-0.17416993,0.9632446,98.0
33279,-0.88946724,-0.41757774,-0.33296204,-0.6552612,-0.17416993,0.9632446,98.0
33280,-0.88946724,-0.41757774,-0.33296204,-0.87403566,-0.15080567,0.90908206,98.0
33281,-0.901062,-0.51818085,-0.10643005,-0.87403566,-0.15080567,0.90908206,98.0
33282,-0.901062,-0.51818085,-0.10643005,-1.0428956,-0.21027832,0.85491943,98.0
33283,-0.7709961,-0.9107113,0.018295288,-1.0428956,-0.21027832,0.85491943,98.0
33284,-0.7709961,-0.9107113,0.018295288,-1.2043213,-0.2548828,0.79332274,98.0
33285,-0.5617809,-1.354559,0.0016021729,-1.2043213,-0.2548828,0.79332274,98.0
33286,-0.5617809,-1.354559,0.0016021729,-1.2510499,-0.2814331,0.7072998,98.0
33287,-0.30042648,-1.5626278,-0.030029297,-1.2510499,-0.2814331,0.7072998,98.0
33288,-0.30042648,-1.5626278,-0.030029297,-1.356189,-0.30373535,0.62127686,98.0
33289,-0.30042648,-1.5626278,-0.030029297,-1.356189,-0.30373535,0.62127686,98.0
33290,0.1104393,-1.490057,-0.24861145,-1.356189,-0.30373535,0.62127686,98.0
33291,0.1104393,-1.490057,-0.24861145,-1.5707153,-0.3079834,0.45666504,98.0
33292,0.5805397,-1.4500542,-0.7797699,-1.5707153,-0.3079834,0.45666504,98.0
33293,0.5805397,-1.4500542,-0.7797699,-1.5590333,-0.3451538,0.27612305,98.0
33294,0.8694,-1.6286831,-1.1410065,-1.5590333,-0.3451538,0.27612305,98.0
33295,0.8694,-1.6286831,-1.1410065,-1.3243287,-0.43967286,0.13381349,98.0
33296,0.8440666,-1.7391529,-0.9009094,-1.3243287,-0.43967286,0.13381349,98.0
33297,0.8440666,-1.7391529,-0.9009094,-0.9547486,-0.5533081,0.11257324,98.0
33298,0.44760513,-1.35536,-0.24716187,-0.9547486,-0.5533081,0.11257324,98.0
33299,0.44760513,-1.35536,-0.24716187,-0.5299439,-0.70942384,0.19541016,98.0
33300,-0.116989136,-0.2608509,0.25422668,-0.5299439,-0.70942384,0.19541016,98.0
33301,-0.116989136,-0.2608509,0.25422668,-0.41843262,-0.81881106,0.3345337,98.0
33302,-0.5256729,1.1811028,0.25083923,-0.41843262,-0.81881106,0.3345337,98.0
33303,-0.5256729,1.1811028,0.25083923,-0.5936646,-0.90908206,0.35683593,98.0
33304,-0.6300602,2.148386,-0.024871826,-0.5936646,-0.90908206,0.35683593,98.0
33305,-0.6300602,2.148386,-0.024871826,-1.0110352,-0.996167,0.3727661,98.0
33306,-0.5140953,2.1488724,-0.1529541,-1.0110352,-0.996167,0.3727661,98.0
33307,-0.5140953,2.1488724,-0.1529541,-1.2967163,-1.080066,0.26868898,98.0
33308,-0.31045914,1.4419746,-0.075653076,-1.2967163,-1.080066,0.26868898,98.0
33309,-0.31045914,1.4419746,-0.075653076,-1.5940796,-1.2032593,0.16567384,98.0
33310,0.07299423,0.6868553,0.009109497,-1.5940796,-1.2032593,0.16567384,98.0
33311,0.07299423,0.6868553,0.009109497,-1.806482,-1.2383057,0.15717773,98.0
33312,0.86859894,-0.051259995,0.46975708,-1.806482,-1.2383057,0.15717773,98.0
33313,0.86859894,-0.051259995,0.46975708,-1.992334,-0.8612915,0.34940186,98.0
33314,1.8033981,-0.6537895,1.4071045,-1.992334,-0.8612915,0.34940186,98.0
33315,1.8033981,-0.6537895,1.4071045,-2.5105958,-0.33134767,0.80394286,98.0
33316,1.516779,-0.9126072,1.7412872,-2.5105958,-0.33134767,0.80394286,98.0
33317,1.516779,-0.9126072,1.7412872,-4.252295,0.027612304,1.8340943,98.0
33318,0.6628494,-4.032503,0.8386688,-4.252295,0.027612304,1.8340943,98.0
33319,0.6628494,-4.032503,0.8386688,-3.8572266,0.3695801,2.1983643,98.0
33320,0.4106865,-8.469606,0.2768402,-3.8572266,0.3695801,2.1983643,98.0
33321,0.4106865,-8.469606,0.2768402,-1.4655762,0.99510497,1.905249,98.0
33322,0.029903412,-8.79933,0.60017395,-1.4655762,0.99510497,1.905249,98.0
33323,0.029903412,-8.79933,0.60017395,0.9685547,1.2351197,1.5186768,98.0
33324,-0.69812393,-5.150182,0.5961304,0.9685547,1.2351197,1.5186768,98.0
33325,-0.69812393,-5.150182,0.5961304,3.2306397,1.2744141,0.87191164,98.0
33326,-1.1564369,-0.6246624,0.25559998,3.2306397,1.2744141,0.87191164,98.0
33327,-1.1564369,-0.6246624,0.25559998,4.6590457,1.1990112,0.25806886,98.0
33328,-0.3113804,2.0408583,0.43830872,4.6590457,1.1990112,0.25806886,98.0
33329,-0.3113804,2.0408583,0.43830872,5.717871,1.3285767,-0.3090454,98.0
33330,1.2842941,2.8931484,1.0906982,5.717871,1.3285767,-0.3090454,98.0
33331,1.2842941,2.8931484,1.0906982,5.9090333,1.8776368,-0.52250975,98.0
33332,1.9687576,3.0879927,1.7091064,5.9090333,1.8776368,-0.52250975,98.0
33333,1.9687576,3.0879927,1.7091064,5.1050906,2.1845582,-0.48427734,98.0
33334,1.2893372,2.8485804,2.1399078,5.1050906,2.1845582,-0.48427734,98.0
33335,1.2893372,2.8485804,2.1399078,3.7765138,2.090039,-0.3971924,98.0
33336,0.3125229,1.9996166,2.2940063,3.7765138,2.090039,-0.3971924,98.0
33337,0.3125229,1.9996166,2.2940063,3.4568481,1.9296753,-0.21983643,98.0
33338,-0.17095375,1.1211891,2.2059937,3.4568481,1.9296753,-0.21983643,98.0
33339,-0.17095375,1.1211891,2.2059937,3.2051513,1.9795898,0.052038576,98.0
33340,-0.5150337,0.66838646,1.95018,3.2051513,1.9795898,0.052038576,98.0
33341,-0.5150337,0.66838646,1.95018,2.444751,1.9477295,0.22514649,98.0
33342,-0.90599823,0.17842293,1.6712646,2.444751,1.9477295,0.22514649,98.0
33343,-0.90599823,0.17842293,1.6712646,1.8903809,1.7055908,0.22196046,98.0
33344,-1.066925,-0.43898773,1.5705109,1.8903809,1.7055908,0.22196046,98.0
33345,-1.066925,-0.43898773,1.5705109,1.5600952,1.531421,0.14761963,98.0
33346,-1.1031361,-0.98015785,1.4384918,1.5600952,1.531421,0.14761963,98.0
33347,-1.1031361,-0.98015785,1.4384918,1.536731,1.5335449,-0.13275146,98.0
33348,-1.2459488,-1.2008495,0.98765564,1.536731,1.5335449,-0.13275146,98.0
33349,-1.2459488,-1.2008495,0.98765564,1.5473511,1.4443359,-0.23258057,98.0
33350,-1.3567562,-0.78937817,0.5626068,1.5473511,1.4443359,-0.23258057,98.0
33351,-1.3567562,-0.78937817,0.5626068,1.5080566,1.3285767,-0.2357666,98.0
33352,-1.3007622,0.0586586,0.6063385,1.5080566,1.3285767,-0.2357666,98.0
33353,-1.3007622,0.0586586,0.6063385,1.1565307,1.2340577,-0.1083252,98.0
33354,-1.2944183,0.71754456,0.95080566,1.1565307,1.2340577,-0.1083252,98.0
33355,-1.2944183,0.71754456,0.95080566,0.49171144,1.0248413,0.08283692,98.0
33356,-1.3500977,0.6316652,1.1432953,0.49171144,1.0248413,0.08283692,98.0
33357,-1.3500977,0.6316652,1.1432953,0.11044922,0.72216797,0.22939454,98.0
33358,-1.2736702,-0.09073734,1.0005798,0.11044922,0.72216797,0.22939454,98.0
33359,-1.2736702,-0.09073734,1.0005798,0.3058594,0.5777344,0.3971924,98.0
33360,-1.1678257,-0.65159416,0.80752563,0.3058594,0.5777344,0.3971924,98.0
33361,-1.1678257,-0.65159416,0.80752563,0.4343628,0.43011475,0.5713623,98.0
33362,-1.1497383,-0.5635729,0.83821106,0.4343628,0.43011475,0.5713623,98.0
33363,-1.1497383,-0.5635729,0.83821106,0.26337892,0.18585205,0.721106,98.0
33364,-1.1260033,-0.2754917,0.93844604,0.26337892,0.18585205,0.721106,98.0
33365,-1.1260033,-0.2754917,0.93844604,0.11363526,-0.12531738,0.7975708,98.0
33366,-0.90317154,-0.20845413,0.81692505,0.11363526,-0.12531738,0.7975708,98.0
33367,-0.90317154,-0.20845413,0.81692505,0.10407715,-0.39188233,0.7975708,98.0
33368,-0.40587425,-0.3727808,0.45014954,0.10407715,-0.39188233,0.7975708,98.0
33369,-0.40587425,-0.3727808,0.45014954,0.271875,-0.56817627,0.73703617,98.0
33370,0.1611042,-0.6760807,0.0730896,0.271875,-0.56817627,0.73703617,98.0
33371,0.1611042,-0.6760807,0.0730896,0.63720703,-0.7104859,0.634021,98.0
33372,0.52370834,-0.93397903,-0.1265564,0.63720703,-0.7104859,0.634021,98.0
33373,0.52370834,-0.93397903,-0.1265564,1.09281,-0.8485474,0.49064943,98.0
33374,0.6087246,-1.0150299,-0.17330933,1.09281,-0.8485474,0.49064943,98.0
33375,0.6087246,-1.0150299,-0.17330933,1.5940796,-0.93775636,0.35895997,98.0
33376,0.42996025,-0.8682499,-0.18618774,1.5940796,-0.93775636,0.35895997,98.0
33377,0.42996025,-0.8682499,-0.18618774,2.1250856,-0.9494385,0.29099122,98.0
33378,0.10564995,-0.4970293,-0.2448883,2.1250856,-0.9494385,0.29099122,98.0
33379,0.10564995,-0.4970293,-0.2448883,2.5732543,-0.94412845,0.28674316,98.0
33380,-0.11541939,0.036593437,-0.32217407,2.5732543,-0.94412845,0.28674316,98.0
33381,-0.11541939,0.036593437,-0.32217407,2.805835,-0.90058595,0.34940186,98.0
33382,-0.13361931,0.5965481,-0.3847046,2.805835,-0.90058595,0.34940186,98.0
33383,-0.13361931,0.5965481,-0.3847046,2.8164551,-0.8251831,0.41737062,98.0
33384,-0.03494644,0.9749317,-0.46131897,2.8164551,-0.8251831,0.41737062,98.0
33385,-0.03494644,0.9749317,-0.46131897,2.7060058,-0.68924564,0.46622315,98.0
33386,-0.03494644,0.9749317,-0.46131897,2.7060058,-0.68924564,0.46622315,99.0
33387,0.12922096,1.0835953,-0.5623779,2.7060058,-0.68924564,0.46622315,99.0
33388,0.12922096,1.0835953,-0.5623779,2.5010376,-0.541626,0.47578126,99.0
33389,0.33333206,1.0258732,-0.68115234,2.5010376,-0.541626,0.47578126,99.0
33390,0.33333206,1.0258732,-0.68115234,2.1781862,-0.36639404,0.45135498,99.0
33391,0.54953957,0.9042549,-0.79737854,2.1781862,-0.36639404,0.45135498,99.0
33392,0.54953957,0.9042549,-0.79737854,1.7278931,-0.19222413,0.4088745,99.0
33393,0.77438545,0.7624912,-0.85310364,1.7278931,-0.19222413,0.4088745,99.0
33394,0.77438545,0.7624912,-0.85310364,1.2053833,-0.06159668,0.36320803,99.0
33395,1.0228767,0.568367,-0.81521606,1.2053833,-0.06159668,0.36320803,99.0
33396,1.0228767,0.568367,-0.81521606,0.6414551,0.05522461,0.35789797,99.0
33397,1.1583042,0.27444458,-0.71788025,0.6414551,0.05522461,0.35789797,99.0
33398,1.1583042,0.27444458,-0.71788025,0.14230958,0.13062744,0.3971924,99.0
33399,1.0618725,-0.10620117,-0.6181793,0.14230958,0.13062744,0.3971924,99.0
33400,1.0618725,-0.10620117,-0.6181793,-0.21558838,0.13806152,0.4598511,99.0
33401,0.8498268,-0.4878292,-0.5293884,-0.21558838,0.13806152,0.4598511,99.0
33402,0.8498268,-0.4878292,-0.5293884,-0.40250245,0.06690674,0.54375,99.0
33403,0.7330589,-0.82118416,-0.45629883,-0.40250245,0.06690674,0.54375,99.0
33404,0.7330589,-0.82118416,-0.45629883,-0.3355957,-0.06159668,0.634021,99.0
33405,0.75548935,-1.0587168,-0.36994934,-0.3355957,-0.06159668,0.634021,99.0
33406,0.75548935,-1.0587168,-0.36994934,0.028674318,-0.20921631,0.7306641,99.0
33407,0.7100811,-1.1452036,-0.22439575,0.028674318,-0.20921631,0.7306641,99.0
33408,0.7100811,-1.1452036,-0.22439575,0.6573853,-0.38763428,0.8326172,99.0
33409,0.45926285,-1.028821,-0.015945435,0.6573853,-0.38763428,0.8326172,99.0
33410,0.45926285,-1.028821,-0.015945435,1.3901733,-0.5894165,0.93138427,99.0
33411,0.16914368,-0.7154274,0.1683197,1.3901733,-0.5894165,0.93138427,99.0
33412,0.16914368,-0.7154274,0.1683197,2.0380006,-0.7805786,1.0280274,99.0
33413,0.033483505,-0.34487534,0.27020264,2.0380006,-0.7805786,1.0280274,99.0
33414,0.033483505,-0.34487534,0.27020264,2.6614015,-0.93775636,1.0906861,99.0
33415,0.06266403,0.0018100739,0.34124756,2.6614015,-0.93775636,1.0906861,99.0
33416,0.06266403,0.0018100739,0.34124756,3.1870973,-1.0184692,1.1554688,99.0
33417,0.12698746,0.3385334,0.40901184,3.1870973,-1.0184692,1.1554688,99.0
33418,0.12698746,0.3385334,0.40901184,3.5747316,-1.0269654,1.2043213,99.0
33419,0.15801048,0.6545305,0.41134644,3.5747316,-1.0269654,1.2043213,99.0
33420,0.15801048,0.6545305,0.41134644,3.7712038,-0.95581055,1.2425537,99.0
33421,0.1553154,0.9578285,0.33358765,3.7712038,-0.95581055,1.2425537,99.0
33422,0.1553154,0.9578285,0.33358765,3.7011108,-0.8251831,1.260608,99.0
33423,0.1126194,1.2250891,0.21839905,3.7011108,-0.8251831,1.260608,99.0
33424,0.1126194,1.2250891,0.21839905,3.3793213,-0.6510132,1.2191895,99.0
33425,0.074653625,1.4007006,0.13476562,3.3793213,-0.6510132,1.2191895,99.0
33426,0.074653625,1.4007006,0.13476562,2.8132691,-0.42799073,1.1374146,99.0
33427,0.016777039,1.433672,0.09979248,2.8132691,-0.42799073,1.1374146,99.0
33428,0.016777039,1.433672,0.09979248,2.0879152,-0.18479005,1.0248413,99.0
33429,-0.094781876,1.279335,0.08328247,2.0879152,-0.18479005,1.0248413,99.0
33430,-0.094781876,1.279335,0.08328247,1.3243287,0.047790527,0.88996583,99.0
33431,-0.20983315,0.9689274,0.05392456,1.3243287,0.047790527,0.88996583,99.0
33432,-0.20983315,0.9689274,0.05392456,0.6287109,0.25806886,0.74447024,99.0
33433,-0.27249336,0.5846386,0.0154418945,0.6287109,0.25806886,0.74447024,99.0
33434,-0.27249336,0.5846386,0.0154418945,0.07752686,0.4258667,0.6000366,99.0
33435,-0.24460602,0.17513275,0.003692627,0.07752686,0.4258667,0.6000366,99.0
33436,-0.24460602,0.17513275,0.003692627,-0.22727051,0.542688,0.44816896,99.0
33437,-0.108356476,-0.17855835,0.051986694,-0.22727051,0.542688,0.44816896,99.0
33438,-0.108356476,-0.17855835,0.051986694,-0.3812622,0.630835,0.3058594,99.0
33439,0.06715965,-0.3811531,0.14213562,-0.3812622,0.630835,0.3058594,99.0
33440,0.06715965,-0.3811531,0.14213562,-0.47365722,0.6711914,0.16461182,99.0
33441,0.20488739,-0.4430809,0.22979736,-0.47365722,0.6711914,0.16461182,99.0
33442,0.20488739,-0.4430809,0.22979736,-0.544812,0.6414551,0.026550293,99.0
33443,0.2229557,-0.44144058,0.3169403,-0.544812,0.6414551,0.026550293,99.0
33444,0.2229557,-0.44144058,0.3169403,-0.56392825,0.5787964,-0.06796875,99.0
33445,-0.017925262,-0.42311096,0.39360046,-0.56392825,0.5787964,-0.06796875,99.0
33446,-0.017925262,-0.42311096,0.39360046,-0.47471926,0.48427734,-0.13487549,99.0
33447,-0.5290375,-0.3743534,0.48526,-0.47471926,0.48427734,-0.13487549,99.0
33448,-0.5290375,-0.3743534,0.48526,-0.3090454,0.35471192,-0.17735596,99.0
33449,-1.0590096,-0.2760334,0.5626373,-0.3090454,0.35471192,-0.17735596,99.0
33450,-1.0590096,-0.2760334,0.5626373,-0.11151123,0.19541016,-0.21983643,99.0
33451,-1.2617588,-0.11115837,0.5576477,-0.11151123,0.19541016,-0.21983643,99.0
33452,-1.2617588,-0.11115837,0.5576477,0.06584473,0.0361084,-0.30054933,99.0
33453,-1.0160351,0.11939812,0.49342346,0.06584473,0.0361084,-0.30054933,99.0
33454,-1.0160351,0.11939812,0.49342346,0.19222413,-0.09133301,-0.43754885,99.0
33455,-0.5476551,0.36517143,0.43556213,0.19222413,-0.09133301,-0.43754885,99.0
33456,-0.5476551,0.36517143,0.43556213,0.2538208,-0.18372802,-0.62764895,99.0
33457,-0.13056755,0.5599098,0.39898682,0.2538208,-0.18372802,-0.62764895,99.0
33458,-0.13056755,0.5599098,0.39898682,0.17416993,-0.23364258,-0.84748536,99.0
33459,0.1077652,0.65774345,0.34178162,0.17416993,-0.23364258,-0.84748536,99.0
33460,0.1077652,0.65774345,0.34178162,-0.020178223,-0.24532472,-1.0641358,99.0
33461,0.14265823,0.66189957,0.25257874,-0.020178223,-0.24532472,-1.0641358,99.0
33462,0.14265823,0.66189957,0.25257874,-0.270813,-0.24638672,-1.2393677,99.0
33463,0.07106018,0.6101837,0.17700195,-0.270813,-0.24638672,-1.2393677,99.0
33464,0.07106018,0.6101837,0.17700195,-0.50020754,-0.2538208,-1.358313,99.0
33465,0.024133682,0.503809,0.1721344,-0.50020754,-0.2538208,-1.358313,99.0
33466,0.024133682,0.503809,0.1721344,-0.6138428,-0.25063476,-1.4252198,99.0
33467,0.026741028,0.37688828,0.20628357,-0.6138428,-0.25063476,-1.4252198,99.0
33468,0.026741028,0.37688828,0.20628357,-0.60109866,-0.23895264,-1.4432739,99.0
33469,0.06893921,0.3465786,0.20249939,-0.60109866,-0.23895264,-1.4432739,99.0
33470,0.06893921,0.3465786,0.20249939,-0.5713623,-0.22727051,-1.44115,99.0
33471,0.13103104,0.41298103,0.123916626,-0.5713623,-0.22727051,-1.44115,99.0
33472,0.13103104,0.41298103,0.123916626,-0.5671143,-0.20496826,-1.4230957,99.0
33473,0.1591835,0.5002079,0.017623901,-0.5671143,-0.20496826,-1.4230957,99.0
33474,0.1591835,0.5002079,0.017623901,-0.6053467,-0.17735596,-1.4039795,99.0
33475,0.14914703,0.55662346,-0.03239441,-0.6053467,-0.17735596,-1.4039795,99.0
33476,0.14914703,0.55662346,-0.03239441,-0.6860596,-0.14230958,-1.3614991,99.0
33477,0.13603973,0.56651497,-0.01524353,-0.6860596,-0.14230958,-1.3614991,99.0
33478,0.13603973,0.56651497,-0.01524353,-0.7858887,-0.09451904,-1.2807862,99.0
33479,0.1031189,0.52277946,0.025177002,-0.7858887,-0.09451904,-1.2807862,99.0
33480,0.1031189,0.52277946,0.025177002,-0.85704345,-0.045666505,-1.1618408,99.0
33481,-0.035827637,0.440197,0.045928955,-0.85704345,-0.045666505,-1.1618408,99.0
33482,-0.035827637,0.440197,0.045928955,-0.8814697,0.015930176,-1.0014771,99.0
33483,-0.31035233,0.34876442,0.05607605,-0.8814697,0.015930176,-1.0014771,99.0
33484,-0.31035233,0.34876442,0.05607605,-0.8729736,0.060534667,-0.7986328,99.0
33485,-0.5944004,0.28920555,0.043685913,-0.8729736,0.060534667,-0.7986328,99.0
33486,-0.5944004,0.28920555,0.043685913,-0.8241211,0.07115479,-0.59472656,99.0
33487,-0.6900215,0.2724285,0.047821045,-0.8241211,0.07115479,-0.59472656,99.0
33488,-0.6900215,0.2724285,0.047821045,-0.73809814,0.08071289,-0.41843262,99.0
33489,-0.6174469,0.24098969,0.121017456,-0.73809814,0.08071289,-0.41843262,99.0
33490,-0.6174469,0.24098969,0.121017456,-0.6488892,0.1083252,-0.26975098,99.0
33491,-0.4850216,0.21709633,0.21755981,-0.6488892,0.1083252,-0.26975098,99.0
33492,-0.4850216,0.21709633,0.21755981,-0.60322267,0.15505372,-0.15717773,99.0
33493,-0.37078094,0.25536728,0.24949646,-0.60322267,0.15505372,-0.15717773,99.0
33494,-0.37078094,0.25536728,0.24949646,-0.6403931,0.21134034,-0.027612304,99.0
33495,-0.312006,0.31911278,0.1902008,-0.6403931,0.21134034,-0.027612304,99.0
33496,-0.312006,0.31911278,0.1902008,-0.72641605,0.24107666,0.10938721,99.0
33497,-0.2702217,0.30735397,0.13729858,-0.72641605,0.24107666,0.10938721,99.0
33498,-0.2702217,0.30735397,0.13729858,-0.814563,0.270813,0.26975098,99.0
33499,-0.21783829,0.17206764,0.16770935,-0.814563,0.270813,0.26975098,99.0
33500,-0.21783829,0.17206764,0.16770935,-0.814563,0.270813,0.26975098,100.0
33501,-0.21783829,0.17206764,0.16770935,-0.86341554,0.25594482,0.41312256,100.0
33502,-0.14497375,-0.036857605,0.27252197,-0.86341554,0.25594482,0.41312256,100.0
33503,-0.14497375,-0.036857605,0.27252197,-0.79969484,0.22089843,0.5320679,100.0
33504,-0.068042755,-0.21737671,0.37983704,-0.79969484,0.22089843,0.5320679,100.0
33505,-0.068042755,-0.21737671,0.37983704,-0.630835,0.17735596,0.62764895,100.0
33506,-0.02856636,-0.2849121,0.46762085,-0.630835,0.17735596,0.62764895,100.0
33507,-0.02856636,-0.2849121,0.46762085,-0.41524658,0.083898924,0.6754395,100.0
33508,0.030809402,-0.2592411,0.5606842,-0.41524658,0.083898924,0.6754395,100.0
33509,0.030809402,-0.2592411,0.5606842,-0.15717773,-0.004248047,0.6775635,100.0
33510,0.10772896,-0.17082024,0.6826782,-0.15717773,-0.004248047,0.6775635,100.0
33511,0.10772896,-0.17082024,0.6826782,0.09664307,-0.06265869,0.6616333,100.0
33512,0.0979023,-0.03606987,0.76675415,0.09664307,-0.06265869,0.6616333,100.0
33513,0.0979023,-0.03606987,0.76675415,0.29630128,-0.10301514,0.62977296,100.0
33514,-0.005332947,0.14151764,0.6985626,0.29630128,-0.10301514,0.62977296,100.0
33515,-0.005332947,0.14151764,0.6985626,0.38444826,-0.13062744,0.59472656,100.0
33516,-0.060113907,0.34287643,0.48605347,0.38444826,-0.13062744,0.59472656,100.0
33517,-0.060113907,0.34287643,0.48605347,0.33878174,-0.16673584,0.54587406,100.0
33518,0.02716446,0.49410057,0.25561523,0.33878174,-0.16673584,0.54587406,100.0
33519,0.02716446,0.49410057,0.25561523,0.18372802,-0.20072022,0.4980835,100.0
33520,0.16777611,0.49977303,0.15812683,0.18372802,-0.20072022,0.4980835,100.0
33521,0.16777611,0.49977303,0.15812683,0.008496094,-0.25806886,0.44604492,100.0
33522,0.24538994,0.328907,0.24638367,0.008496094,-0.25806886,0.44604492,100.0
33523,0.24538994,0.328907,0.24638367,-0.07540283,-0.33984375,0.39082032,100.0
33524,0.20839691,0.04024887,0.3801117,-0.07540283,-0.33984375,0.39082032,100.0
33525,0.20839691,0.04024887,0.3801117,0.0,-0.42905274,0.3430298,100.0
33526,0.08710289,-0.2041893,0.40449524,0.0,-0.42905274,0.3430298,100.0
33527,0.08710289,-0.2041893,0.40449524,0.1985962,-0.5097656,0.3345337,100.0
33528,-0.08023262,-0.2631321,0.25700378,0.1985962,-0.5097656,0.3345337,100.0
33529,-0.08023262,-0.2631321,0.25700378,0.41206056,-0.56180423,0.35152587,100.0
33530,-0.31599236,-0.15407372,-0.014343262,0.41206056,-0.56180423,0.35152587,100.0
33531,-0.31599236,-0.15407372,-0.014343262,0.55755615,-0.6064087,0.36002198,100.0
33532,-0.5535507,0.00415802,-0.28381348,0.55755615,-0.6064087,0.36002198,100.0
33533,-0.5535507,0.00415802,-0.28381348,0.6138428,-0.64782715,0.32922363,100.0
33534,-0.6848812,0.08311081,-0.4697113,0.6138428,-0.64782715,0.32922363,100.0
33535,-0.6848812,0.08311081,-0.4697113,0.61702883,-0.7062378,0.2442627,100.0
33536,-0.6290455,0.036153793,-0.54026794,0.61702883,-0.7062378,0.2442627,100.0
33537,-0.6290455,0.036153793,-0.54026794,0.56180423,-0.73703617,0.13275146,100.0
33538,-0.4275036,-0.10567093,-0.5496521,0.56180423,-0.73703617,0.13275146,100.0
33539,-0.4275036,-0.10567093,-0.5496521,0.47684327,-0.7858887,-0.007434082,100.0
33540,-0.05589485,-0.23454857,-0.6108551,0.47684327,-0.7858887,-0.007434082,100.0
33541,-0.05589485,-0.23454857,-0.6108551,0.32709962,-0.83474123,-0.16036378,100.0
33542,0.6169529,-0.3000908,-0.77134705,0.32709962,-0.83474123,-0.16036378,100.0
33543,0.6169529,-0.3000908,-0.77134705,0.09239502,-0.92926025,-0.36745605,100.0
33544,1.6743603,-0.3699684,-0.94055176,0.09239502,-0.92926025,-0.36745605,100.0
33545,1.6743603,-0.3699684,-0.94055176,-0.1444336,-0.98129886,-0.632959,100.0
33546,2.6150875,-0.58074,-0.99105835,-0.1444336,-0.98129886,-0.632959,100.0
33547,2.6150875,-0.58074,-0.99105835,-0.22089843,-0.86766356,-0.8219971,100.0
33548,2.5105019,-0.90825653,-0.96380615,-0.22089843,-0.86766356,-0.8219971,100.0
33549,2.5105019,-0.90825653,-0.96380615,-0.090270996,-0.7126099,-0.90058595,100.0
33550,1.3509293,-1.0970402,-1.0150299,-0.090270996,-0.7126099,-0.90058595,100.0
33551,1.3509293,-1.0970402,-1.0150299,0.08496094,-0.634021,-0.904834,100.0
33552,0.020599365,-0.97232246,-1.1044617,0.08496094,-0.634021,-0.904834,100.0
33553,0.020599365,-0.97232246,-1.1044617,0.29736328,-0.5777344,-0.7604004,100.0
33554,-0.69251823,-0.61667633,-1.1461945,0.29736328,-0.5777344,-0.7604004,100.0
33555,-0.69251823,-0.61667633,-1.1461945,0.48640138,-0.58304447,-0.6775635,100.0
33556,-0.6216278,-0.32774162,-1.1060333,0.48640138,-0.58304447,-0.6775635,100.0
33557,-0.6216278,-0.32774162,-1.1060333,0.55968016,-0.55543214,-0.6403931,100.0
33558,0.31931114,-0.22255707,-1.297821,0.55968016,-0.55543214,-0.6403931,100.0
33559,0.31931114,-0.22255707,-1.297821,0.7317261,-0.4725952,-0.66588134,100.0
33560,0.714201,-0.16570473,-1.1944427,0.7317261,-0.4725952,-0.66588134,100.0
33561,0.714201,-0.16570473,-1.1944427,0.7699585,-0.43754885,-0.72216797,100.0
33562,1.8619862,-0.4284134,-1.0381775,0.7699585,-0.43754885,-0.72216797,100.0
33563,1.8619862,-0.4284134,-1.0381775,0.8527954,-0.24638672,-0.9143921,100.0
33564,1.696291,-0.34063148,-0.8831177,0.8527954,-0.24638672,-0.9143921,100.0
33565,1.696291,-0.34063148,-0.8831177,0.88040775,-0.18372802,-0.9589966,100.0
33566,1.1443138,-0.6019974,-0.8566437,0.88040775,-0.18372802,-0.9589966,100.0
33567,1.1443138,-0.6019974,-0.8566437,0.9876709,0.0,-0.9260742,100.0
33568,0.6055622,-0.47078133,-0.77867126,0.9876709,0.0,-0.9260742,100.0
33569,0.6055622,-0.47078133,-0.77867126,1.0407715,0.0541626,-0.8623535,100.0
33570,-0.4672966,-0.45756912,-0.7883301,1.0407715,0.0541626,-0.8623535,100.0
33571,-0.4672966,-0.45756912,-0.7883301,1.2595459,0.20390625,-0.5628662,100.0
33572,-0.64242935,-0.2621975,-0.69485474,1.2595459,0.20390625,-0.5628662,100.0
33573,-0.64242935,-0.2621975,-0.69485474,1.3349488,0.26444092,-0.43967286,100.0
33574,-1.0392609,0.05348587,-0.8186035,1.3349488,0.26444092,-0.43967286,100.0
33575,-1.0392609,0.05348587,-0.8186035,1.4974365,0.45878908,-0.04248047,100.0
33576,-0.95502853,0.17417336,-0.768692,1.4974365,0.45878908,-0.04248047,100.0
33577,-0.95502853,0.17417336,-0.768692,1.4953126,0.51082766,0.083898924,100.0
33578,-0.9203224,0.503109,-0.8487549,1.4953126,0.51082766,0.083898924,100.0
33579,-0.9203224,0.503109,-0.8487549,1.2446778,0.6786255,0.40250245,100.0
33580,-0.7055702,0.45674706,-0.65960693,1.2446778,0.6786255,0.40250245,100.0
33581,-0.7055702,0.45674706,-0.65960693,1.0981201,0.7349121,0.48533937,100.0
33582,-0.36689758,0.44120407,-0.5160675,1.0981201,0.7349121,0.48533937,100.0
33583,-0.36689758,0.44120407,-0.5160675,0.6435791,0.8612915,0.65207523,100.0
33584,-0.22028923,0.25268364,-0.34223938,0.6435791,0.8612915,0.65207523,100.0
33585,-0.22028923,0.25268364,-0.34223938,0.5171997,0.89208984,0.6860596,100.0
33586,-0.08299446,-0.012073517,-0.24873352,0.5171997,0.89208984,0.6860596,100.0
33587,-0.08299446,-0.012073517,-0.24873352,0.32816163,0.9398804,0.7317261,100.0
33588,-0.04186058,-0.32079124,-0.20243835,0.32816163,0.9398804,0.7317261,100.0
33589,-0.04186058,-0.32079124,-0.20243835,0.22302246,0.9483765,0.7508423,100.0
33590,-0.04278946,-0.5845871,-0.18287659,0.22302246,0.9483765,0.7508423,100.0
33591,-0.04278946,-0.5845871,-0.18287659,0.21134034,0.9281983,0.7625244,100.0
33592,-0.037368774,-0.7683773,-0.17053223,0.21134034,0.9281983,0.7625244,100.0
33593,-0.037368774,-0.7683773,-0.17053223,0.29736328,0.8708496,0.7827026,100.0
33594,0.076013565,-0.9467449,-0.20491028,0.29736328,0.8708496,0.7827026,100.0
33595,0.076013565,-0.9467449,-0.20491028,0.5150757,0.73703617,0.84748536,100.0
33596,0.117572784,-0.9220085,-0.12313843,0.5150757,0.73703617,0.84748536,100.0
33597,0.117572784,-0.9220085,-0.12313843,0.6064087,0.6903076,0.88040775,100.0
33598,0.19493675,-0.9044771,-0.112075806,0.6064087,0.6903076,0.88040775,100.0
33599,0.19493675,-0.9044771,-0.112075806,0.8071289,0.5671143,0.9632446,100.0
33600,0.18724823,-0.81308365,-0.11489868,0.8071289,0.5671143,0.9632446,100.0
33601,0.18724823,-0.81308365,-0.11489868,1.0354614,0.42692873,1.0662597,100.0
33602,0.10442352,-0.66719055,-0.08332825,1.0354614,0.42692873,1.0662597,100.0
33603,0.10442352,-0.66719055,-0.08332825,1.2999023,0.26444092,1.174585,100.0
33604,0.023101807,-0.5206175,-0.031829834,1.2999023,0.26444092,1.174585,100.0
33605,0.023101807,-0.5206175,-0.031829834,1.5760254,0.09451904,1.269104,100.0
33606,0.064561844,-0.4293852,-0.022705078,1.5760254,0.09451904,1.269104,100.0
33607,0.064561844,-0.4293852,-0.022705078,1.8415283,-0.09239502,1.3147706,100.0
33608,0.35180855,-0.41988754,-0.11012268,1.8415283,-0.09239502,1.3147706,100.0
33609,0.35180855,-0.41988754,-0.11012268,2.1484497,-0.2623169,1.3009644,100.0
33610,0.6693115,-0.48340797,-0.13748169,2.1484497,-0.2623169,1.3009644,100.0
33611,0.6693115,-0.48340797,-0.13748169,2.529712,-0.3706421,1.2776002,100.0
33612,0.59514046,-0.50027657,-0.017105103,2.529712,-0.3706421,1.2776002,100.0
33613,0.59514046,-0.50027657,-0.017105103,2.8801758,-0.46834716,1.2839721,100.0
33614,0.078847885,-0.3924942,0.17610168,2.8801758,-0.46834716,1.2839721,100.0
33615,0.078847885,-0.3924942,0.17610168,3.2200196,-0.5522461,1.3179566,100.0
33616,-0.4769249,-0.17704487,0.35447693,3.2200196,-0.5522461,1.3179566,100.0
33617,-0.4769249,-0.17704487,0.35447693,3.531189,-0.60216063,1.4188477,100.0
33618,-0.4769249,-0.17704487,0.35447693,3.531189,-0.60216063,1.4188477,100.0
33619,-0.6968365,0.040908813,0.512619,3.531189,-0.60216063,1.4188477,100.0
33620,-0.6968365,0.040908813,0.512619,3.7712038,-0.5564942,1.5282348,100.0
33621,-0.59072113,0.22128868,0.53756714,3.7712038,-0.5564942,1.5282348,100.0
33622,-0.59072113,0.22128868,0.53756714,3.8189943,-0.42799073,1.6110718,100.0
33623,-0.34166908,0.4196329,0.35836792,3.8189943,-0.42799073,1.6110718,100.0
33624,-0.34166908,0.4196329,0.35836792,3.5503051,-0.29311523,1.6503662,100.0
33625,-0.11375427,0.585083,0.12939453,3.5503051,-0.29311523,1.6503662,100.0
33626,-0.11375427,0.585083,0.12939453,3.0575318,-0.13062744,1.632312,100.0
33627,-0.029090881,0.61724854,0.075912476,3.0575318,-0.13062744,1.632312,100.0
33628,-0.029090881,0.61724854,0.075912476,2.4744873,0.011682129,1.5898316,100.0
33629,-0.16842651,0.503747,0.318573,2.4744873,0.011682129,1.5898316,100.0
33630,-0.16842651,0.503747,0.318573,1.9615357,0.0998291,1.540979,100.0
33631,-0.43645096,0.30424213,0.61672974,1.9615357,0.0998291,1.540979,100.0
33632,-0.43645096,0.30424213,0.61672974,1.4953126,0.16779785,1.4804443,100.0
33633,-0.69355774,0.061167717,0.7030182,1.4953126,0.16779785,1.4804443,100.0
33634,-0.69355774,0.061167717,0.7030182,1.0917481,0.14124756,1.4071655,100.0
33635,-0.8144779,-0.2473793,0.67500305,1.0917481,0.14124756,1.4071655,100.0
33636,-0.8144779,-0.2473793,0.67500305,0.8581055,-0.007434082,1.3020264,100.0
33637,-0.6848469,-0.60654545,0.7149048,0.8581055,-0.007434082,1.3020264,100.0
33638,-0.6848469,-0.60654545,0.7149048,0.83686525,-0.18372802,1.170337,100.0
33639,-0.31754303,-0.9476757,0.75331116,0.83686525,-0.18372802,1.170337,100.0
33640,-0.31754303,-0.9476757,0.75331116,1.0343994,-0.40144044,1.0216553,100.0
33641,0.12784958,-1.1746073,0.7836151,1.0343994,-0.40144044,1.0216553,100.0
33642,0.12784958,-1.1746073,0.7836151,1.5144287,-0.67225343,0.8687256,100.0
33643,0.44119644,-1.2046766,0.99954224,1.5144287,-0.67225343,0.8687256,100.0
33644,0.44119644,-1.2046766,0.99954224,2.2323487,-0.93775636,0.7189819,100.0
33645,0.52850723,-1.0024614,1.3821259,2.2323487,-0.93775636,0.7189819,100.0
33646,0.52850723,-1.0024614,1.3821259,3.0384157,-1.1416626,0.5979126,100.0
33647,0.42696762,-0.5928259,1.6304321,3.0384157,-1.1416626,0.5979126,100.0
33648,0.42696762,-0.5928259,1.6304321,3.6766846,-1.2563599,0.5363159,100.0
33649,0.18084335,-0.020501137,1.6074371,3.6766846,-1.2563599,0.5363159,100.0
33650,0.18084335,-0.020501137,1.6074371,3.9995363,-1.26698,0.54375,100.0
33651,-0.15412903,0.66271305,1.4659729,3.9995363,-1.26698,0.54375,100.0
33652,-0.15412903,0.66271305,1.4659729,3.9358156,-1.1682129,0.5872925,100.0
33653,-0.45573807,1.3678417,1.3102722,3.9358156,-1.1682129,0.5872925,100.0
33654,-0.45573807,1.3678417,1.3102722,3.4642823,-0.994043,0.6552612,100.0
33655,-0.64022636,1.8825788,1.0726471,3.4642823,-0.994043,0.6552612,100.0
33656,-0.64022636,1.8825788,1.0726471,2.805835,-0.7540283,0.72960204,100.0
33657,-0.75795746,2.0391922,0.7848053,2.805835,-0.7540283,0.72960204,100.0
33658,-0.75795746,2.0391922,0.7848053,2.1357057,-0.542688,0.78376466,100.0
33659,-0.84918785,1.8214664,0.5765228,2.1357057,-0.542688,0.78376466,100.0
33660,-0.84918785,1.8214664,0.5765228,1.5877075,-0.35152587,0.73703617,100.0
33661,-0.8005543,1.3182449,0.44425964,1.5877075,-0.35152587,0.73703617,100.0
33662,-0.8005543,1.3182449,0.44425964,1.2574219,-0.16461182,0.62340087,100.0
33663,-0.6651268,0.710516,0.38975525,1.2574219,-0.16461182,0.62340087,100.0
33664,-0.6651268,0.710516,0.38975525,1.1299804,-0.012744141,0.47365722,100.0
33665,-0.58608055,0.18850517,0.47851562,1.1299804,-0.012744141,0.47365722,100.0
33666,-0.58608055,0.18850517,0.47851562,1.1915772,0.12956543,0.26125488,100.0
33667,-0.6136513,-0.1507225,0.6309509,1.1915772,0.12956543,0.26125488,100.0
33668,-0.6136513,-0.1507225,0.6309509,1.2298096,0.24001466,0.057348635,100.0
33669,-0.7477932,-0.32714462,0.8526764,1.2298096,0.24001466,0.057348635,100.0
33670,-0.7477932,-0.32714462,0.8526764,1.4326538,0.3536499,-0.07327881,100.0
33671,-0.74160576,-0.27192116,1.2325134,1.4326538,0.3536499,-0.07327881,100.0
33672,-0.74160576,-0.27192116,1.2325134,1.6631104,0.5607422,-0.17947999,100.0
33673,-0.5430527,0.022514343,1.6792297,1.6631104,0.5607422,-0.17947999,100.0
33674,-0.5430527,0.022514343,1.6792297,1.635498,0.7338501,-0.24638672,100.0
33675,-0.40808678,0.17777634,1.908493,1.635498,0.7338501,-0.24638672,100.0
33676,-0.40808678,0.17777634,1.908493,1.6641724,0.8708496,-0.32922363,100.0
33677,-0.33102226,0.041793823,1.7716522,1.6641724,0.8708496,-0.32922363,100.0
33678,-0.33102226,0.041793823,1.7716522,1.7682495,1.1140503,-0.31010744,100.0
33679,-0.22205734,-0.11888504,1.5321503,1.7682495,1.1140503,-0.31010744,100.0
33680,-0.22205734,-0.11888504,1.5321503,1.4910644,1.3030884,-0.25700685,100.0
33681,0.15753555,-0.2949257,1.4182587,1.4910644,1.3030884,-0.25700685,100.0
33682,0.15753555,-0.2949257,1.4182587,1.1342286,1.44115,-0.2347046,100.0
33683,0.7836571,-0.5059242,1.3637543,1.1342286,1.44115,-0.2347046,100.0
33684,0.7836571,-0.5059242,1.3637543,0.8400513,1.5972656,-0.121069334,100.0
33685,1.2220917,-0.7122345,1.2273102,0.8400513,1.5972656,-0.121069334,100.0
33686,1.2220917,-0.7122345,1.2273102,0.48533937,1.6185058,-0.1178833,100.0
33687,1.3708,-0.9725342,1.026947,0.48533937,1.6185058,-0.1178833,100.0
33688,1.3708,-0.9725342,1.026947,0.35683593,1.6174439,-0.015930176,100.0
33689,0.8088474,-1.0456295,1.0900269,0.35683593,1.6174439,-0.015930176,100.0
33690,0.8088474,-1.0456295,1.0900269,0.4598511,1.5632813,0.090270996,100.0
33691,-0.60821915,-0.6928272,1.4645996,0.4598511,1.5632813,0.090270996,100.0
33692,-0.60821915,-0.6928272,1.4645996,0.65632325,1.4432739,0.19328614,100.0
33693,-1.9364414,-0.16291714,1.6678619,0.65632325,1.4432739,0.19328614,100.0
33694,-1.9364414,-0.16291714,1.6678619,0.87191164,1.3445069,0.20709229,100.0
33695,-2.449751,0.11560154,1.4601288,0.87191164,1.3445069,0.20709229,100.0
33696,-2.449751,0.11560154,1.4601288,1.1023682,1.263794,0.23895264,100.0
33697,-2.2986813,0.2080698,1.1279144,1.1023682,1.263794,0.23895264,100.0
33698,-2.2986813,0.2080698,1.1279144,1.0959961,1.170337,0.23045655,100.0
33699,-1.9208908,0.26234245,0.7871094,1.0959961,1.170337,0.23045655,100.0
33700,-1.9208908,0.26234245,0.7871094,0.9568726,1.1119263,0.19116211,100.0
33701,-1.463335,0.22092152,0.33314514,0.9568726,1.1119263,0.19116211,100.0
33702,-1.463335,0.22092152,0.33314514,0.9674927,1.1034302,0.1539917,100.0
33703,-1.0130024,0.24175167,0.13555908,0.9674927,1.1034302,0.1539917,100.0
33704,-1.0130024,0.24175167,0.13555908,0.9388184,1.1310425,0.14761963,100.0
33705,-0.7794571,0.424078,0.35472107,0.9388184,1.1310425,0.14761963,100.0
33706,-0.7794571,0.424078,0.35472107,0.69986576,1.1108643,0.13381349,100.0
33707,-0.6948185,0.45826912,0.5301819,0.69986576,1.1108643,0.13381349,100.0
33708,-0.6948185,0.45826912,0.5301819,0.5883545,1.0259033,0.12000733,100.0
33709,-0.6948185,0.45826912,0.5301819,0.5883545,1.0259033,0.12000733,100.0
33710,-0.56049347,0.28286266,0.48184204,0.5883545,1.0259033,0.12000733,100.0
33711,-0.56049347,0.28286266,0.48184204,0.50233155,0.9589966,0.107263185,100.0
33712,-0.43294048,0.1794157,0.28520203,0.50233155,0.9589966,0.107263185,100.0
33713,-0.43294048,0.1794157,0.28520203,0.3334717,0.8995239,0.12319336,100.0
33714,-0.43653774,0.13119125,0.18623352,0.3334717,0.8995239,0.12319336,100.0
33715,-0.43653774,0.13119125,0.18623352,0.33240968,0.85491943,0.16142578,100.0
33716,-0.6229973,0.08925438,0.41322327,0.33240968,0.85491943,0.16142578,100.0
33717,-0.6229973,0.08925438,0.41322327,0.31435546,0.6573853,0.20178223,100.0
33718,-0.8383751,0.16460419,0.47862244,0.31435546,0.6573853,0.20178223,100.0
33719,-0.8383751,0.16460419,0.47862244,0.33878174,0.44710693,0.27506104,100.0
33720,-1.0199795,0.3695011,0.11155701,0.33878174,0.44710693,0.27506104,100.0
33721,-1.0199795,0.3695011,0.11155701,0.4619751,0.19541016,0.33134767,100.0
33722,-1.2162285,0.54664993,-0.18722534,0.4619751,0.19541016,0.33134767,100.0
33723,-1.2162285,0.54664993,-0.18722534,0.7476563,-0.14974366,0.2814331,100.0
33724,-1.2385101,0.72411156,-0.21478271,0.7476563,-0.14974366,0.2814331,100.0
33725,-1.2385101,0.72411156,-0.21478271,0.95368654,-0.6138428,0.18691407,100.0
33726,-0.90516376,1.0396404,-0.1772461,0.95368654,-0.6138428,0.18691407,100.0
33727,-0.90516376,1.0396404,-0.1772461,1.1820191,-1.1076783,0.10089111,100.0
33728,-0.34072018,1.3813705,-0.50538635,1.1820191,-1.1076783,0.10089111,100.0
33729,-0.34072018,1.3813705,-0.50538635,1.4634522,-1.5038086,0.06796875,100.0
33730,0.2731762,1.555378,-0.81347656,1.4634522,-1.5038086,0.06796875,100.0
33731,0.2731762,1.555378,-0.81347656,1.7416992,-1.9583496,0.046728518,100.0
33732,0.86852837,1.4689846,-0.56192017,1.7416992,-1.9583496,0.046728518,100.0
33733,0.86852837,1.4689846,-0.56192017,1.8234742,-2.5222778,-0.0063720704,100.0
33734,2.1570778,0.70261574,0.36006165,1.8234742,-2.5222778,-0.0063720704,100.0
33735,2.1570778,0.70261574,0.36006165,2.2440307,-1.8171021,0.16992188,100.0
33736,3.354764,-0.030107498,2.3645325,2.2440307,-1.8171021,0.16992188,100.0
33737,3.354764,-0.030107498,2.3645325,2.5562623,-1.0598878,0.27612305,100.0
33738,2.672104,1.2368393,2.4817505,2.5562623,-1.0598878,0.27612305,100.0
33739,2.672104,1.2368393,2.4817505,1.4230957,-1.1809571,0.22089843,100.0
33740,1.0938225,2.615631,-0.4250183,1.4230957,-1.1809571,0.22089843,100.0
33741,1.0938225,2.615631,-0.4250183,1.454956,-0.9122681,0.3175415,100.0
33742,0.22847557,2.454235,-2.631958,1.454956,-0.9122681,0.3175415,100.0
33743,0.22847557,2.454235,-2.631958,1.449646,-0.9526245,0.18479005,100.0
33744,0.24065399,2.3963108,-2.5109406,1.449646,-0.9526245,0.18479005,100.0
33745,0.24065399,2.3963108,-2.5109406,1.1002442,-0.901648,0.011682129,100.0
33746,0.5156307,2.1958942,-1.4373627,1.1002442,-0.901648,0.011682129,100.0
33747,0.5156307,2.1958942,-1.4373627,0.30054933,-0.6818115,0.19647217,100.0
33748,0.44784355,1.4689713,-0.74508667,0.30054933,-0.6818115,0.19647217,100.0
33749,0.44784355,1.4689713,-0.74508667,0.026550293,-0.5809204,0.046728518,100.0
33750,0.18566704,0.9259453,-1.0382233,0.026550293,-0.5809204,0.046728518,100.0
33751,0.18566704,0.9259453,-1.0382233,-0.14018555,-0.72216797,-0.1996582,100.0
33752,0.3418808,0.38518906,-1.1200256,-0.14018555,-0.72216797,-0.1996582,100.0
33753,0.3418808,0.38518906,-1.1200256,0.7317261,-0.45347902,0.02442627,100.0
33754,0.9682064,0.6898651,0.45265198,0.7317261,-0.45347902,0.02442627,100.0
33755,0.9682064,0.6898651,0.45265198,0.5501221,0.27612305,-0.7072998,100.0
33756,1.2028484,2.6886234,1.8595581,0.5501221,0.27612305,-0.7072998,100.0
33757,1.2028484,2.6886234,1.8595581,0.9228882,0.21983643,-0.28461915,100.0
33758,0.8357887,4.3579063,1.7902222,0.9228882,0.21983643,-0.28461915,100.0
33759,0.8357887,4.3579063,1.7902222,-0.30373535,0.20390625,-0.24320069,100.0
33760,0.54449844,3.702633,0.38362122,-0.30373535,0.20390625,-0.24320069,100.0
33761,0.54449844,3.702633,0.38362122,-0.41524658,-0.18691407,0.004248047,100.0
33762,0.55324936,1.2968483,-1.4816132,-0.41524658,-0.18691407,0.004248047,100.0
33763,0.55324936,1.2968483,-1.4816132,-0.11363526,-0.12000733,0.06159668,100.0
33764,0.5217018,-0.86133766,-2.5895844,-0.11363526,-0.12000733,0.06159668,100.0
33765,0.5217018,-0.86133766,-2.5895844,-0.124255374,-0.14549561,0.19541016,100.0
33766,0.2998314,-1.9760704,-2.7801056,-0.124255374,-0.14549561,0.19541016,100.0
33767,0.2998314,-1.9760704,-2.7801056,-0.039294433,0.045666505,0.21346436,100.0
33768,0.13455582,-2.2210293,-2.0088196,-0.039294433,0.045666505,0.21346436,100.0
33769,0.13455582,-2.2210293,-2.0088196,0.2527588,0.23789063,0.18054199,100.0
33770,-0.099313736,-1.3843422,-0.8892517,0.2527588,0.23789063,0.18054199,100.0
33771,-0.099313736,-1.3843422,-0.8892517,0.1709839,0.32391357,0.1444336,100.0
33772,-0.6360054,0.05288887,-0.43678284,0.1709839,0.32391357,0.1444336,100.0
33773,-0.6360054,0.05288887,-0.43678284,-0.3345337,0.16461182,0.0998291,100.0
33774,-0.9452915,0.44975662,-0.3326416,-0.3345337,0.16461182,0.0998291,100.0
33775,-0.9452915,0.44975662,-0.3326416,-0.53100586,0.13275146,0.115759276,100.0
33776,-0.6848583,-0.32094383,0.17320251,-0.53100586,0.13275146,0.115759276,100.0
33777,-0.6848583,-0.32094383,0.17320251,-0.6488892,0.16673584,0.14230958,100.0
33778,-0.27332687,-1.2130775,0.9458618,-0.6488892,0.16673584,0.14230958,100.0
33779,-0.27332687,-1.2130775,0.9458618,-0.74659425,0.22089843,0.15930176,100.0
33780,-0.047677994,-1.3858318,1.5062408,-0.74659425,0.22089843,0.15930176,100.0
33781,-0.047677994,-1.3858318,1.5062408,-0.91014403,0.270813,0.13912354,100.0
33782,0.018192291,-0.84324837,1.5690613,-0.91014403,0.270813,0.13912354,100.0
33783,0.018192291,-0.84324837,1.5690613,-0.97280276,0.3069214,0.16779785,100.0
33784,-0.055196762,-0.2933483,1.1114349,-0.97280276,0.3069214,0.16779785,100.0
33785,-0.055196762,-0.2933483,1.1114349,-1.1809571,0.3462158,0.20921631,100.0
33786,-0.13022995,-0.32107925,0.48410034,-1.1809571,0.3462158,0.20921631,100.0
33787,-0.13022995,-0.32107925,0.48410034,-1.3083985,0.3451538,0.2347046,100.0
33788,-0.10899353,-0.9318867,0.081710815,-1.3083985,0.3451538,0.2347046,100.0
33789,-0.10899353,-0.9318867,0.081710815,-1.1841431,0.37382814,0.28355715,100.0
33790,-0.04491043,-1.552454,0.21025085,-1.1841431,0.37382814,0.28355715,100.0
33791,-0.04491043,-1.552454,0.21025085,-0.74871826,0.41099855,0.3419678,100.0
33792,-0.08491516,-1.4160347,0.833725,-0.74871826,0.41099855,0.3419678,100.0
33793,-0.08491516,-1.4160347,0.833725,-0.6988037,0.47365722,0.32922363,100.0
