,accx,accy,accz,gyrox,gyroy,gyroz,heart rate
18054,open,open,open,open,open,open,open
18055,0.2839594,0.1691103,0.21217346,-0.107263185,0.0180542,-0.23364258,153
18056,0.2839594,0.1691103,0.21217346,0.13381349,-0.0541626,0.07965088,153
18057,0.21779251,0.1216898,0.17562866,0.13381349,-0.0541626,0.07965088,153
18058,0.21779251,0.1216898,0.17562866,0.15717773,-0.070092775,0.09770508,153
18059,0.1643095,0.083008766,0.14672852,0.15717773,-0.070092775,0.09770508,153
18060,0.1643095,0.083008766,0.14672852,0.20603028,-0.10513916,0.107263185,153
18061,4.206765,-0.24988937,-1.4009857,0.20603028,-0.10513916,0.107263185,153
18062,4.206765,-0.24988937,-1.4009857,0.2347046,-0.15823975,0.13699952,153
18063,3.381855,-0.12498474,-1.2044067,0.2347046,-0.15823975,0.13699952,153
18064,3.381855,-0.12498474,-1.2044067,0.19328614,-0.22302246,0.16036378,153
18065,2.782877,-0.06807804,-1.019104,0.19328614,-0.22302246,0.16036378,153
18066,2.782877,-0.06807804,-1.019104,0.090270996,-0.31010744,0.16354981,153
18067,2.32065,-0.068024635,-0.97265625,0.090270996,-0.31010744,0.16354981,153
18068,2.32065,-0.068024635,-0.97265625,-0.09133301,-0.37701416,0.19116211,153
18069,1.9443007,-0.118701935,-0.99443054,-0.09133301,-0.37701416,0.19116211,153
18070,1.9443007,-0.118701935,-0.99443054,-0.17735596,-0.46409914,0.270813,153
18071,1.629427,-0.255167,-0.9232178,-0.17735596,-0.46409914,0.270813,153
18072,1.629427,-0.255167,-0.9232178,-0.17416993,-0.5076416,0.20709229,153
18073,1.3008442,-0.45437813,-0.79299927,-0.17416993,-0.5076416,0.20709229,153
18074,1.3008442,-0.45437813,-0.79299927,-0.2262085,-0.5671143,0.21983643,153
18075,0.9855604,-0.53581715,-0.6785126,-0.2262085,-0.5671143,0.21983643,153
18076,0.9855604,-0.53581715,-0.6785126,-0.28780517,-0.57454836,0.28674316,153
18077,0.7708092,-0.42628574,-0.5818939,-0.28780517,-0.57454836,0.28674316,153
18078,0.7708092,-0.42628574,-0.5818939,-0.3069214,-0.48215333,0.19434814,153
18079,0.7708092,-0.42628574,-0.5818939,-0.025488282,-0.27506104,0.20921631,153
18080,0.6792574,-0.47707653,-0.56707764,-0.025488282,-0.27506104,0.20921631,153
18081,0.71547604,-0.7272787,-0.4985962,-0.025488282,-0.27506104,0.20921631,153
18082,0.71547604,-0.7272787,-0.4985962,0.37382814,-0.3090454,0.42905274,153
18083,0.99618435,-0.5973625,-0.18759155,0.37382814,-0.3090454,0.42905274,153
18084,0.99618435,-0.5973625,-0.18759155,0.5012695,-0.53100586,0.5161377,153
18085,1.232605,-0.090353966,0.16706848,0.5012695,-0.53100586,0.5161377,153
18086,1.232605,-0.090353966,0.16706848,0.46622315,-0.68712157,0.76677245,153
18087,0.792408,0.15735531,0.34875488,0.46622315,-0.68712157,0.76677245,153
18088,0.792408,0.15735531,0.34875488,0.31329346,-0.5883545,0.59472656,153
18089,0.078188896,-0.17821789,0.54693604,0.31329346,-0.5883545,0.59472656,153
18090,0.078188896,-0.17821789,0.54693604,0.2899292,-0.3334717,0.24001466,153
18091,-0.045541763,-0.9267664,0.81503296,0.2899292,-0.3334717,0.24001466,153
18092,-0.045541763,-0.9267664,0.81503296,0.6701294,-0.33984375,0.4258667,153
18093,0.12687206,-1.3445864,0.96791077,0.6701294,-0.33984375,0.4258667,153
18094,0.12687206,-1.3445864,0.96791077,1.0609497,-0.18585205,0.57561034,153
18095,0.15678406,-1.1933937,1.1620026,1.0609497,-0.18585205,0.57561034,153
18096,0.15678406,-1.1933937,1.1620026,1.6641724,-0.016992187,0.7593384,153
18097,0.043201447,-0.6768713,1.4124908,1.6641724,-0.016992187,0.7593384,153
18098,0.043201447,-0.6768713,1.4124908,1.99552,-0.06265869,0.99298096,153
18099,-0.2008276,0.21896458,1.4869232,1.99552,-0.06265869,0.99298096,153
18100,-0.2008276,0.21896458,1.4869232,1.6524903,0.13381349,1.1236085,153
18101,-0.47943687,0.967762,1.4799347,1.6524903,0.13381349,1.1236085,153
18102,-0.47943687,0.967762,1.4799347,1.3370727,0.2984253,1.2043213,153
18103,-0.7158375,1.0296535,1.4964294,1.3370727,0.2984253,1.2043213,153
18104,-0.7158375,1.0296535,1.4964294,1.1682129,0.4895874,1.2319336,153
18105,-0.7158375,1.0296535,1.4964294,1.26167,0.6669434,1.3190186,153
18106,-0.8817768,0.36820507,1.5061951,1.26167,0.6669434,1.3190186,153
18107,-1.0060444,-0.29418087,1.5667267,1.26167,0.6669434,1.3190186,153
18108,-1.0060444,-0.29418087,1.5667267,1.4953126,0.74871826,1.4029175,153
18109,-1.0638561,-0.3311329,1.603302,1.4953126,0.74871826,1.4029175,153
18110,-1.0638561,-0.3311329,1.603302,1.5250489,0.93775636,1.4390259,153
18111,-1.01859,-0.23789215,1.5310364,1.5250489,0.93775636,1.4390259,153
18112,-1.01859,-0.23789215,1.5310364,1.4942505,1.170337,1.5696534,153
18113,-0.9841099,-0.23726177,1.388794,1.4942505,1.170337,1.5696534,153
18114,-0.9841099,-0.23726177,1.388794,1.5282348,1.2436157,1.6726685,153
18115,-1.1216869,0.06476784,1.1865234,1.5282348,1.2436157,1.6726685,153
18116,-1.1216869,0.06476784,1.1865234,1.3689331,1.3625611,1.6981567,153
18117,-1.470726,0.3741045,0.9377594,1.3689331,1.3625611,1.6981567,153
18118,-1.470726,0.3741045,0.9377594,1.1140503,1.5091187,1.6885986,153
18119,-1.9618101,0.31289482,0.67048645,1.1140503,1.5091187,1.6885986,153
18120,-1.9618101,0.31289482,0.67048645,0.96643066,1.537793,1.6450561,153
18121,-2.3889675,0.12283707,0.44952393,0.96643066,1.537793,1.6450561,153
18122,-2.3889675,0.12283707,0.44952393,1.0067872,1.5473511,1.5547851,153
18123,-2.5611248,0.08258343,0.26089478,1.0067872,1.5473511,1.5547851,153
18124,-2.5611248,0.08258343,0.26089478,1.0333375,1.5038086,1.4326538,153
18125,-2.558092,0.2604761,-0.01625061,1.0333375,1.5038086,1.4326538,153
18126,-2.558092,0.2604761,-0.01625061,0.901648,1.4761963,1.2807862,153
18127,-2.5739756,0.48762894,-0.25909424,0.901648,1.4761963,1.2807862,153
18128,-2.5739756,0.48762894,-0.25909424,0.77526855,1.4145997,1.1480347,153
18129,-2.593153,0.53598976,-0.2292633,0.77526855,1.4145997,1.1480347,153
18130,-2.593153,0.53598976,-0.2292633,0.7041138,1.3402588,1.0248413,153
18131,-2.4728498,0.43776417,0.055419922,0.7041138,1.3402588,1.0248413,153
18132,-2.4728498,0.43776417,0.055419922,0.65844727,1.2818482,0.90058595,153
18133,-2.2321005,0.380167,0.316864,0.65844727,1.2818482,0.90058595,153
18134,-2.2321005,0.380167,0.316864,0.59897465,1.2191895,0.7805786,153
18135,-2.0266595,0.40641594,0.4112854,0.59897465,1.2191895,0.7805786,153
18136,-2.0266595,0.40641594,0.4112854,0.54375,1.1299804,0.69136965,153
18137,-1.9141254,0.47715855,0.40441895,0.54375,1.1299804,0.69136965,153
18138,-1.9141254,0.47715855,0.40441895,0.45560303,1.0195312,0.61065674,153
18139,-1.8234024,0.5190191,0.36773682,0.45560303,1.0195312,0.61065674,153
18140,-1.8234024,0.5190191,0.36773682,0.35789797,0.89421386,0.5256958,153
18141,-1.7413149,0.5127983,0.33000183,0.35789797,0.89421386,0.5256958,153
18142,-1.7413149,0.5127983,0.33000183,0.24744873,0.76464844,0.44498292,153
18143,-1.63762,0.36989403,0.45358276,0.24744873,0.76464844,0.44498292,153
18144,-1.63762,0.36989403,0.45358276,0.2548828,0.69986576,0.41737062,153
18145,-1.423902,0.13343906,0.68377686,0.2548828,0.69986576,0.41737062,153
18146,-1.423902,0.13343906,0.68377686,0.28355715,0.5777344,0.43117675,153
18147,-1.2032819,0.028199196,0.67889404,0.28355715,0.5777344,0.43117675,153
18148,-1.2032819,0.028199196,0.67889404,0.26444092,0.48427734,0.4333008,153
18149,-1.0980504,0.1040287,0.48361206,0.26444092,0.48427734,0.4333008,153
18150,-1.0980504,0.1040287,0.48361206,0.29417726,0.35789797,0.4439209,153
18151,-0.99979043,0.2242384,0.41908264,0.29417726,0.35789797,0.4439209,153
18152,-0.99979043,0.2242384,0.41908264,0.2984253,0.30054933,0.44498292,153
18153,-0.8336458,0.25951767,0.5298004,0.2984253,0.30054933,0.44498292,153
18154,-0.8336458,0.25951767,0.5298004,0.29205322,0.22514649,0.43011475,153
18155,-0.70218277,0.26717186,0.60983276,0.29205322,0.22514649,0.43011475,153
18156,-0.70218277,0.26717186,0.60983276,0.24320069,0.1720459,0.38975832,153
18157,-0.66199017,0.31090546,0.5450134,0.24320069,0.1720459,0.38975832,153
18158,-0.66199017,0.31090546,0.5450134,0.13381349,0.12531738,0.32922363,153
18159,-0.6725364,0.2985897,0.37954712,0.13381349,0.12531738,0.32922363,153
18160,-0.6725364,0.2985897,0.37954712,0.03186035,0.087084964,0.2803711,153
18161,-0.6659343,0.18457508,0.19013977,0.03186035,0.087084964,0.2803711,153
18162,-0.6659343,0.18457508,0.19013977,-0.012744141,0.029736329,0.26019287,153
18163,-0.6515219,0.076114655,0.008361816,-0.012744141,0.029736329,0.26019287,153
18164,-0.6515219,0.076114655,0.008361816,-0.021240234,-0.023364259,0.22939454,153
18165,-0.6306658,0.021914482,-0.014587402,-0.021240234,-0.023364259,0.22939454,153
18166,-0.6306658,0.021914482,-0.014587402,0.0541626,-0.043542482,0.21027832,153
18167,-0.5368569,0.011281014,0.16114807,0.0541626,-0.043542482,0.21027832,153
18168,-0.5368569,0.011281014,0.16114807,0.047790527,-0.07115479,0.19222413,153
18169,-0.39960265,0.049246788,0.36964417,0.047790527,-0.07115479,0.19222413,153
18170,-0.39960265,0.049246788,0.36964417,0.008496094,-0.0637207,0.15505372,153
18171,-0.26976752,0.034318924,0.52433777,0.008496094,-0.0637207,0.15505372,153
18172,-0.26976752,0.034318924,0.52433777,-0.026550293,-0.045666505,0.13699952,153
18173,-0.17294288,-0.012145042,0.55444336,-0.026550293,-0.045666505,0.13699952,153
18174,-0.17294288,-0.012145042,0.55444336,-0.07434082,-0.052038576,0.09770508,153
18175,-0.123058796,-0.041710854,0.49256897,-0.07434082,-0.052038576,0.09770508,153
18176,-0.123058796,-0.041710854,0.49256897,-0.107263185,-0.016992187,0.06478272,153
18177,-0.09618878,-0.07775307,0.4417572,-0.107263185,-0.016992187,0.06478272,153
18178,-0.09618878,-0.07775307,0.4417572,-0.12213135,0.001062012,0.060534667,153
18179,-0.083799124,-0.11608505,0.37934875,-0.12213135,0.001062012,0.060534667,153
18180,-0.083799124,-0.11608505,0.37934875,-0.13699952,0.03717041,0.047790527,153
18181,-0.09069657,-0.16028786,0.25906372,-0.13699952,0.03717041,0.047790527,153
18182,-0.09069657,-0.16028786,0.25906372,-0.11044922,0.033984374,0.059472658,153
18183,-0.09787464,-0.16325188,0.17292786,-0.11044922,0.033984374,0.059472658,153
18184,-0.09787464,-0.16325188,0.17292786,-0.09664307,0.038232423,0.07327881,153
18185,-0.10099256,-0.0694685,0.18110657,-0.09664307,0.038232423,0.07327881,153
18186,-0.10099256,-0.0694685,0.18110657,-0.09451904,0.03717041,0.07752686,153
18187,-0.08867979,8.09E-04,0.21691895,-0.09451904,0.03717041,0.07752686,153
18188,-0.08867979,8.09E-04,0.21691895,-0.10513916,0.06690674,0.06690674,153
18189,-0.047433138,-0.05875206,0.26504517,-0.10513916,0.06690674,0.06690674,153
18190,-0.047433138,-0.05875206,0.26504517,-0.0637207,0.08602295,0.07646485,153
18191,-0.035114527,-0.093437195,0.240448,-0.0637207,0.08602295,0.07646485,153
18192,-0.035114527,-0.093437195,0.240448,-0.057348635,0.08920898,0.08071289,153
18193,-0.07776213,-0.015691757,0.04574585,-0.057348635,0.08920898,0.08071289,153
18194,-0.07776213,-0.015691757,0.04574585,-0.083898924,0.081774905,0.07540283,153
18195,-0.13586688,0.030122757,-0.18440247,-0.083898924,0.081774905,0.07540283,153
18196,-0.13586688,0.030122757,-0.18440247,-0.087084964,0.04991455,0.070092775,153
18197,-0.18790495,-0.03649807,-0.24409485,-0.087084964,0.04991455,0.070092775,153
18198,-0.18790495,-0.03649807,-0.24409485,-0.03186035,0.0361084,0.070092775,153
18199,-0.20132494,-0.09040451,-0.18379211,-0.03186035,0.0361084,0.070092775,153
18200,-0.20132494,-0.09040451,-0.18379211,-0.0180542,0.008496094,0.07540283,153
18201,-0.20502973,-0.03152752,-0.21421814,-0.0180542,0.008496094,0.07540283,153
18202,-0.20502973,-0.03152752,-0.21421814,-0.029736329,-0.023364259,0.06796875,153
18203,-0.236619,0.062766075,-0.36868286,-0.029736329,-0.023364259,0.06796875,153
18204,-0.236619,0.062766075,-0.36868286,-0.06478272,-0.0637207,0.04885254,153
18205,-0.28784263,0.10399723,-0.50331116,-0.06478272,-0.0637207,0.04885254,153
18206,-0.28784263,0.10399723,-0.50331116,-0.043542482,-0.10938721,0.04460449,153
18207,-0.29635072,0.10921097,-0.47650146,-0.043542482,-0.10938721,0.04460449,153
18208,-0.29635072,0.10921097,-0.47650146,-0.009558106,-0.14230958,0.026550293,153
18209,-0.22224903,0.081728935,-0.2632141,-0.009558106,-0.14230958,0.026550293,153
18210,-0.22224903,0.081728935,-0.2632141,0.015930176,-0.17629395,0.013806152,153
18211,-0.09011614,-0.001194,0.053497314,0.015930176,-0.17629395,0.013806152,153
18212,-0.09011614,-0.001194,0.053497314,0.013806152,-0.16354981,-0.020178223,153
18213,0.05151558,-0.07135391,0.30511475,0.013806152,-0.16354981,-0.020178223,153
18214,0.05151558,-0.07135391,0.30511475,-0.04141846,-0.15080567,-0.032922365,153
18215,0.12934732,-0.115688324,0.34414673,-0.04141846,-0.15080567,-0.032922365,153
18216,0.12934732,-0.115688324,0.34414673,-0.06478272,-0.1263794,-0.04141846,153
18217,0.17963755,-0.18979168,0.29997253,-0.06478272,-0.1263794,-0.04141846,153
18218,0.17963755,-0.18979168,0.29997253,-0.016992187,-0.0998291,-0.019116212,153
18219,0.24262357,-0.26518822,0.30734253,-0.016992187,-0.0998291,-0.019116212,153
18220,0.24262357,-0.26518822,0.30734253,0.010620117,-0.09133301,0.007434082,153
18221,0.2697947,-0.22394276,0.27223206,0.010620117,-0.09133301,0.007434082,153
18222,0.2697947,-0.22394276,0.27223206,-0.026550293,-0.0722168,0.02442627,153
18223,0.21023273,-0.08487892,0.12960815,-0.026550293,-0.0722168,0.02442627,153
18224,0.21023273,-0.08487892,0.12960815,-0.07965088,-0.057348635,0.046728518,153
18225,0.08561778,0.0154953,-0.033416748,-0.07965088,-0.057348635,0.046728518,153
18226,0.08561778,0.0154953,-0.033416748,-0.047790527,-0.07115479,0.04991455,153
18227,0.006885409,0.028277397,-0.1217041,-0.047790527,-0.07115479,0.04991455,153
18228,0.006885409,0.028277397,-0.1217041,0.003186035,-0.09451904,0.04885254,153
18229,0.039761186,0.02643013,-0.13571167,0.003186035,-0.09451904,0.04885254,153
18230,0.039761186,0.02643013,-0.13571167,-0.014868164,-0.10301514,0.025488282,153
18231,0.1252172,0.037831306,-0.1505127,-0.014868164,-0.10301514,0.025488282,153
18232,0.1252172,0.037831306,-0.1505127,-0.043542482,-0.11151123,0.019116212,153
18233,0.17506385,0.044363976,-0.18534851,-0.043542482,-0.11151123,0.019116212,153
18234,0.17506385,0.044363976,-0.18534851,-0.07434082,-0.12319336,-0.010620117,153
18235,0.21536851,-0.047272682,-0.11526489,-0.07434082,-0.12319336,-0.010620117,153
18236,0.21536851,-0.047272682,-0.11526489,-0.07646485,-0.07965088,-0.029736329,153
18237,0.29148436,-0.2177124,0.066986084,-0.07646485,-0.07965088,-0.029736329,153
18238,0.29148436,-0.2177124,0.066986084,-0.04460449,-0.04885254,-0.04248047,153
18239,0.3071499,-0.25738525,0.16433716,-0.04460449,-0.04885254,-0.04248047,153
18240,0.3071499,-0.25738525,0.16433716,-0.04460449,-0.03079834,-0.057348635,153
18241,0.2609055,-0.13825607,0.13142395,-0.04460449,-0.03079834,-0.057348635,153
18242,0.2609055,-0.13825607,0.13142395,-0.07752686,0,-0.06584473,153
18243,0.22569203,-0.061556816,0.09640503,-0.07752686,0,-0.06584473,153
18244,0.22569203,-0.061556816,0.09640503,-0.11151123,0.033984374,-0.07115479,153
18245,0.20590758,-0.0983057,0.10510254,-0.11151123,0.033984374,-0.07115479,153
18246,0.20590758,-0.0983057,0.10510254,-0.07752686,0.050976563,-0.058410645,153
18247,0.16937685,-0.11332512,0.07421875,-0.07752686,0.050976563,-0.058410645,153
18248,0.16937685,-0.11332512,0.07421875,-0.0541626,0.04991455,-0.052038576,153
18249,0.13948107,-0.0653429,-0.006057739,-0.0541626,0.04991455,-0.052038576,153
18250,0.13948107,-0.0653429,-0.006057739,-0.078588866,0.04991455,-0.04248047,153
18251,0.110913515,-0.019535065,-0.05532837,-0.078588866,0.04991455,-0.04248047,153
18252,0.110913515,-0.019535065,-0.05532837,-0.06903076,0.047790527,-0.038232423,153
18253,0.0520854,0.011288643,-0.0574646,-0.06903076,0.047790527,-0.038232423,153
18254,0.0520854,0.011288643,-0.0574646,-0.047790527,0.047790527,-0.022302246,153
18255,-0.026739836,0.014291763,-0.080200195,-0.047790527,0.047790527,-0.022302246,153
18256,-0.026739836,0.014291763,-0.080200195,-0.033984374,0.03079834,-0.011682129,153
18257,-0.026739836,0.014291763,-0.080200195,-0.033984374,0.03079834,-0.011682129,0
18258,-0.08037615,0.007087708,-0.1300354,-0.033984374,0.03079834,-0.011682129,0
18259,-0.08037615,0.007087708,-0.1300354,-0.012744141,0.009558106,-0.005310059,0
18260,-0.079633,0.02432251,-0.17756653,-0.012744141,0.009558106,-0.005310059,0
18261,-0.079633,0.02432251,-0.17756653,-0.021240234,-0.00637207,-0.002124023,0
18262,-0.06905317,0.03288555,-0.2062378,-0.021240234,-0.00637207,-0.002124023,0
18263,-0.06905317,0.03288555,-0.2062378,-0.035046387,-0.035046387,-0.005310059,0
18264,-0.07763028,0.00863266,-0.20692444,-0.035046387,-0.035046387,-0.005310059,0
18265,-0.07763028,0.00863266,-0.20692444,-0.0361084,-0.058410645,-0.00637207,0
18266,-0.110236645,-0.010452271,-0.17637634,-0.0361084,-0.058410645,-0.00637207,0
18267,-0.110236645,-0.010452271,-0.17637634,-0.03079834,-0.06690674,-0.00637207,0
18268,-0.13949537,0.011425972,-0.1709137,-0.03079834,-0.06690674,-0.00637207,0
18269,-0.13949537,0.011425972,-0.1709137,0.005310059,-0.087084964,0.001062012,0
18270,-0.1637814,0.06469536,-0.2527771,0.005310059,-0.087084964,0.001062012,0
18271,-0.1637814,0.06469536,-0.2527771,0.008496094,-0.12531738,-0.00637207,0
18272,-0.20883274,0.14393234,-0.47244263,0.008496094,-0.12531738,-0.00637207,0
18273,-0.20883274,0.14393234,-0.47244263,-0.078588866,-0.20178223,-0.04885254,0
18274,-0.2959603,0.25787067,-0.8183441,-0.078588866,-0.20178223,-0.04885254,0
18275,-0.2959603,0.25787067,-0.8183441,-0.20921631,-0.2623169,-0.14018555,0
18276,-0.40504217,0.31681824,-1.0892029,-0.20921631,-0.2623169,-0.14018555,0
18277,-0.40504217,0.31681824,-1.0892029,-0.24851075,-0.38657227,-0.17629395,0
18278,-0.4163066,0.29213905,-1.1994629,-0.24851075,-0.38657227,-0.17629395,0
18279,-0.4163066,0.29213905,-1.1994629,-0.22514649,-0.56392825,-0.23258057,0
18280,-0.0889169,0.09403801,-0.74638367,-0.22514649,-0.56392825,-0.23258057,0
18281,-0.0889169,0.09403801,-0.74638367,0.012744141,-0.6244629,-0.2538208,0
18282,0.67477703,-0.21585846,0.4026184,0.012744141,-0.6244629,-0.2538208,0
18283,0.67477703,-0.21585846,0.4026184,0.046728518,-0.60109866,-0.28568116,0
18284,1.03771,-0.27680016,0.92588806,0.046728518,-0.60109866,-0.28568116,0
18285,1.03771,-0.27680016,0.92588806,-0.009558106,-0.53950197,-0.33134767,0
18286,1.9024701,-0.4358816,2.121048,-0.009558106,-0.53950197,-0.33134767,0
18287,1.9024701,-0.4358816,2.121048,-0.070092775,-0.2888672,-0.3695801,0
18288,1.8101475,-0.41992092,1.9153595,-0.070092775,-0.2888672,-0.3695801,0
18289,1.8101475,-0.41992092,1.9153595,-0.13487549,-0.19116211,-0.36002198,0
18290,1.5922587,-0.42070198,1.3620148,-0.13487549,-0.19116211,-0.36002198,0
18291,1.5922587,-0.42070198,1.3620148,-0.35683593,0.033984374,-0.31116945,0
18292,1.1022861,-0.33479118,0.74890137,-0.35683593,0.033984374,-0.31116945,0
18293,1.1022861,-0.33479118,0.74890137,-0.36002198,0.057348635,-0.28461915,0
18294,-0.086444855,-0.12977123,-0.50427246,-0.36002198,0.057348635,-0.28461915,0
18295,-0.086444855,-0.12977123,-0.50427246,-0.31860352,0.07327881,-0.25700685,0
18296,-0.35113835,-0.10401249,-0.64437866,-0.31860352,0.07327881,-0.25700685,0
18297,-0.35113835,-0.10401249,-0.64437866,-0.24320069,0.060534667,-0.23151855,0
18298,-0.61836195,-0.16116428,-0.5278473,-0.24320069,0.060534667,-0.23151855,0
18299,-0.61836195,-0.16116428,-0.5278473,-0.107263185,0.033984374,-0.15930176,0
18300,-0.42380333,-0.14100456,-0.38127136,-0.107263185,0.033984374,-0.15930176,0
18301,-0.42380333,-0.14100456,-0.38127136,-0.13912354,0.0541626,-0.1444336,0
18302,-0.21064901,-0.13674164,-0.66459656,-0.13912354,0.0541626,-0.1444336,0
18303,-0.21064901,-0.13674164,-0.66459656,-0.25913087,0,-0.124255374,0
18304,-0.24155378,-0.15054321,-0.86424255,-0.25913087,0,-0.124255374,0
18305,-0.24155378,-0.15054321,-0.86424255,-0.31223145,-0.038232423,-0.12956543,0
18306,-0.8129573,-0.32020187,-1.5197754,-0.31223145,-0.038232423,-0.12956543,0
18307,-0.8129573,-0.32020187,-1.5197754,-0.2516968,-0.17735596,-0.098767094,0
18308,-0.9072385,-0.32878113,-1.3804474,-0.2516968,-0.17735596,-0.098767094,0
18309,-0.9072385,-0.32878113,-1.3804474,-0.22408448,-0.29417726,-0.095581055,0
18310,-1.283884,-0.16422081,-1.5211487,-0.22408448,-0.29417726,-0.095581055,0
18311,-1.283884,-0.16422081,-1.5211487,-0.40250245,-0.57454836,-0.14655761,0
18312,-1.5020461,0.19032764,-1.9616241,-0.40250245,-0.57454836,-0.14655761,0
18313,-1.5020461,0.19032764,-1.9616241,-0.41524658,-0.73809814,-0.19328614,0
18314,-1.3985608,0.2128582,-1.9763489,-0.41524658,-0.73809814,-0.19328614,0
18315,-1.3985608,0.2128582,-1.9763489,0.027612304,-1.1278565,-0.19753419,0
18316,-0.62485445,-0.055971146,-0.9373779,0.027612304,-1.1278565,-0.19753419,0
18317,-0.62485445,-0.055971146,-0.9373779,0.62127686,-1.4443359,-0.25700685,0
18318,0.94424486,-0.19707203,0.51498413,0.62127686,-1.4443359,-0.25700685,0
18319,0.94424486,-0.19707203,0.51498413,0.727478,-1.6206299,-0.2347046,0
18320,2.412537,-0.1487341,1.0539246,0.727478,-1.6206299,-0.2347046,0
18321,2.412537,-0.1487341,1.0539246,0.3334717,-1.6641724,-0.19434814,0
18322,3.005457,-0.16121101,0.46673584,0.3334717,-1.6641724,-0.19434814,0
18323,3.005457,-0.16121101,0.46673584,0.22833252,-1.7544434,-0.15186767,0
18324,3.1322222,-0.3042612,-0.4295349,0.22833252,-1.7544434,-0.15186767,0
18325,3.1322222,-0.3042612,-0.4295349,0.4630371,-1.8627685,-0.10301514,0
18326,3.3362951,-0.28221512,-0.63793945,0.4630371,-1.8627685,-0.10301514,0
18327,3.3362951,-0.28221512,-0.63793945,0.7412842,-1.8702027,0.015930176,0
18328,3.3769827,0.42897606,0.5107727,0.7412842,-1.8702027,0.015930176,0
18329,3.3769827,0.42897606,0.5107727,0.67225343,-1.8457764,-0.13275146,0
18330,3.056872,1.1970625,1.8138123,0.67225343,-1.8457764,-0.13275146,0
18331,3.056872,1.1970625,1.8138123,0.36745605,-1.5144287,-0.21240234,0
18332,2.6147604,1.2783899,1.6965485,0.36745605,-1.5144287,-0.21240234,0
18333,2.6147604,1.2783899,1.6965485,-0.13699952,-1.2977784,-0.41843262,0
18334,2.0872307,1.1418524,-0.24473572,-0.13699952,-1.2977784,-0.41843262,0
18335,2.0872307,1.1418524,-0.24473572,-0.35046387,-1.2871583,-0.4333008,0
18336,1.7390718,0.8363333,-2.5624542,-0.35046387,-1.2871583,-0.4333008,0
18337,1.7390718,0.8363333,-2.5624542,0.4630371,-1.0917481,-0.56392825,0
18338,1.9174175,0.71838284,-1.5887756,0.4630371,-1.0917481,-0.56392825,0
18339,1.9174175,0.71838284,-1.5887756,1.4708862,-1.7321411,-0.4343628,0
18340,2.696165,0.8430166,1.6766205,1.4708862,-1.7321411,-0.4343628,0
18341,2.696165,0.8430166,1.6766205,0.47578126,-1.0875,-0.17841797,0
18342,3.209179,0.5528679,3.022644,0.47578126,-1.0875,-0.17841797,0
18343,3.209179,0.5528679,3.022644,0.50870365,-0.9568726,0.28568116,0
18344,2.8449554,-0.35643578,1.5857544,0.50870365,-0.9568726,0.28568116,0
18345,2.8449554,-0.35643578,1.5857544,1.9392334,-1.1968873,0.64570314,0
18346,2.0341434,-0.805974,-1.1349792,1.9392334,-1.1968873,0.64570314,0
18347,2.0341434,-0.805974,-1.1349792,3.5460572,-1.8617066,0.81243896,0
18348,0.8228836,0.2873497,-2.7805634,3.5460572,-1.8617066,0.81243896,0
18349,0.8228836,0.2873497,-2.7805634,4.986145,-2.2493408,0.8612915,0
18350,-0.33550453,2.5348606,-2.3969727,4.986145,-2.2493408,0.8612915,0
18351,-0.33550453,2.5348606,-2.3969727,5.0976562,-2.2971313,0.6223389,0
18352,-0.28516388,4.1116657,-1.5954285,5.0976562,-2.2971313,0.6223389,0
18353,-0.28516388,4.1116657,-1.5954285,3.2476318,-1.3264526,0.4343628,0
18354,1.2247257,3.254652,-1.1148376,3.2476318,-1.3264526,0.4343628,0
18355,1.2247257,3.254652,-1.1148376,2.7198122,-1.0099732,0.35152587,0
18356,2.996296,1.4724474,1.6997833,2.7198122,-1.0099732,0.35152587,0
18357,2.996296,1.4724474,1.6997833,2.3980224,-0.6414551,0.38657227,0
18358,4.3153963,1.0908003,4.7324677,2.3980224,-0.6414551,0.38657227,0
18359,4.3153963,1.0908003,4.7324677,-0.6711914,0.5479981,0.13168946,0
18360,3.6204205,1.6179895,2.8496094,-0.6711914,0.5479981,0.13168946,0
18361,3.6204205,1.6179895,2.8496094,-1.4815063,0.9239502,0.3812622,0
18362,3.6204205,1.6179895,2.8496094,-1.4815063,0.9239502,0.3812622,0
18363,0.7752056,2.5286808,-1.3145447,-1.4815063,0.9239502,0.3812622,0
18364,0.7752056,2.5286808,-1.3145447,0.6117188,0.025488282,0.11363526,0
18365,-0.84521675,3.3049278,-2.5327606,0.6117188,0.025488282,0.11363526,0
18366,-0.84521675,3.3049278,-2.5327606,0.36320803,-0.008496094,0.02442627,0
18367,0.050792694,2.4868011,-1.0361786,0.36320803,-0.008496094,0.02442627,0
18368,0.050792694,2.4868011,-1.0361786,-1.2552979,0.6595093,-0.004248047,0
18369,1.0661707,-0.13707352,-0.75224304,-1.2552979,0.6595093,-0.004248047,0
18370,1.0661707,-0.13707352,-0.75224304,-2.4245727,1.3073364,-0.081774905,0
18371,0.5810013,-3.0658226,-1.9733429,-2.4245727,1.3073364,-0.081774905,0
18372,0.5810013,-3.0658226,-1.9733429,-1.5792115,1.1586548,0.060534667,0
18373,-0.70368004,-3.086996,-1.3684387,-1.5792115,1.1586548,0.060534667,0
18374,-0.70368004,-3.086996,-1.3684387,-0.85598147,0.74447024,-0.0180542,0
18375,-1.7743092,-0.5772152,0.76675415,-0.85598147,0.74447024,-0.0180542,0
18376,-1.7743092,-0.5772152,0.76675415,-1.8362182,1.1066163,-0.17416993,0
18377,-2.3798962,-0.28801727,1.7234497,-1.8362182,1.1066163,-0.17416993,0
18378,-2.3798962,-0.28801727,1.7234497,-2.0210083,1.3126465,0.07965088,0
18379,-2.6555529,-1.7203913,1.2206421,-2.0210083,1.3126465,0.07965088,0
18380,-2.6555529,-1.7203913,1.2206421,-0.93563235,0.8750977,0.2262085,0
18381,-2.033121,-1.5472975,0.84054565,-0.93563235,0.8750977,0.2262085,0
18382,-2.033121,-1.5472975,0.84054565,-1.2627319,0.8485474,0.16885987,0
18383,-0.5362749,-0.5533037,0.50660706,-1.2627319,0.8485474,0.16885987,0
18384,-0.5362749,-0.5533037,0.50660706,-2.4160767,1.5197388,0.087084964,0
18385,0.32757187,-1.266716,-0.2640381,-2.4160767,1.5197388,0.087084964,0
18386,0.32757187,-1.266716,-0.2640381,-2.4097047,1.7066529,0.4619751,0
18387,0.025362968,-1.9047794,-0.61927795,-2.4097047,1.7066529,0.4619751,0
18388,0.025362968,-1.9047794,-0.61927795,-1.621692,1.360437,0.5479981,0
18389,-0.4417572,-0.8342848,-0.45507812,-1.621692,1.360437,0.5479981,0
18390,-0.4417572,-0.8342848,-0.45507812,-2.2482789,1.5898316,0.3727661,0
18391,-0.8315544,-0.7924404,-0.41123962,-2.2482789,1.5898316,0.3727661,0
18392,-0.8315544,-0.7924404,-0.41123962,-2.893982,1.993396,0.51932377,0
18393,-1.9823208,-2.3683758,-0.5126648,-2.893982,1.993396,0.51932377,0
18394,-1.9823208,-2.3683758,-0.5126648,-2.3162477,1.6248779,0.813501,0
18395,-2.901885,-3.017784,-0.45951843,-2.3162477,1.6248779,0.813501,0
18396,-2.901885,-3.017784,-0.45951843,-2.092163,1.5282348,0.84323734,0
18397,-2.487463,-2.5053892,-0.5140686,-2.092163,1.5282348,0.84323734,0
18398,-2.487463,-2.5053892,-0.5140686,-2.4118288,1.7438233,0.92076415,0
18399,-1.9713669,-2.158657,-1.1840973,-2.4118288,1.7438233,0.92076415,0
18400,-1.9713669,-2.158657,-1.1840973,-2.4192626,1.4793824,1.0959961,0
18401,-3.045331,-1.8288918,-2.810913,-2.4192626,1.4793824,1.0959961,0
18402,-3.045331,-1.8288918,-2.810913,-1.6089478,1.0036011,1.2106934,0
18403,-4.7632427,-2.1126003,-3.4509888,-1.6089478,1.0036011,1.2106934,0
18404,-4.7632427,-2.1126003,-3.4509888,-0.6977417,0.540564,1.3413209,0
18405,-4.4560413,-2.9720507,-1.6089172,-0.6977417,0.540564,1.3413209,0
18406,-4.4560413,-2.9720507,-1.6089172,-0.15823975,0.38763428,1.5590333,0
18407,-2.3552136,-3.3606482,0.9459381,-0.15823975,0.38763428,1.5590333,0
18408,-2.3552136,-3.3606482,0.9459381,-0.26444092,0.5320679,1.8723267,0
18409,-0.5570226,-2.732049,2.2325592,-0.26444092,0.5320679,1.8723267,0
18410,-0.5570226,-2.732049,2.2325592,-0.48640138,0.6573853,2.1845582,0
18411,0.09389591,-1.04842,1.6782684,-0.48640138,0.6573853,2.1845582,0
18412,0.09389591,-1.04842,1.6782684,-0.724292,0.6616333,2.3937745,0
18413,-0.23380661,0.60661316,0.3045807,-0.724292,0.6616333,2.3937745,0
18414,-0.23380661,0.60661316,0.3045807,-0.7880127,0.5055176,2.3810303,0
18415,-0.66304636,0.8772459,-0.34547424,-0.7880127,0.5055176,2.3810303,0
18416,-0.66304636,0.8772459,-0.34547424,-0.57242435,0.21134034,2.3194337,0
18417,-0.666265,-0.30313492,0.45069885,-0.57242435,0.21134034,2.3194337,0
18418,-0.666265,-0.30313492,0.45069885,-0.42799073,-0.025488282,2.4872315,0
18419,-0.732255,-1.3835602,1.7250977,-0.42799073,-0.025488282,2.4872315,0
18420,-0.732255,-1.3835602,1.7250977,-0.47471926,0.002124023,2.7930908,0
18421,-1.5250497,-0.82702637,1.6751251,-0.47471926,0.002124023,2.7930908,0
18422,-1.5250497,-0.82702637,1.6751251,-0.36002198,0.02442627,2.812207,0
18423,-2.9127645,0.850574,0.44032288,-0.36002198,0.02442627,2.812207,0
18424,-2.9127645,0.850574,0.44032288,-0.20390625,-0.07434082,2.7506104,0
18425,-3.9528437,1.5756865,-0.13774109,-0.20390625,-0.07434082,2.7506104,0
18426,-3.9528437,1.5756865,-0.13774109,-0.632959,0.004248047,2.7601686,0
18427,-4.0486517,1.2614651,0.098846436,-0.632959,0.004248047,2.7601686,0
18428,-4.0486517,1.2614651,0.098846436,-1.2744141,-0.10089111,2.5838745,0
18429,-3.685113,1.7618332,-0.06422424,-1.2744141,-0.10089111,2.5838745,0
18430,-3.685113,1.7618332,-0.06422424,-2.524402,0.009558106,2.1983643,0
18431,-3.782795,2.8097353,-0.8764801,-2.524402,0.009558106,2.1983643,0
18432,-3.782795,2.8097353,-0.8764801,-3.8200562,0.19222413,1.7979859,0
18433,-4.346048,2.8067236,-1.6852722,-3.8200562,0.19222413,1.7979859,0
18434,-4.346048,2.8067236,-1.6852722,-4.4477053,0.44604492,1.2882203,0
18435,-4.85771,1.7667046,-2.4244232,-4.4477053,0.44604492,1.2882203,0
18436,-4.85771,1.7667046,-2.4244232,-4.911804,0.046728518,1.4677002,0
18437,-5.0236926,-0.28945637,-3.6788635,-4.911804,0.046728518,1.4677002,0
18438,-5.0236926,-0.28945637,-3.6788635,-5.0339355,0.4258667,1.3041505,0
18439,-4.4676723,-3.4062605,-4.4502106,-5.0339355,0.4258667,1.3041505,0
18440,-4.4676723,-3.4062605,-4.4502106,-2.805835,0.41949463,0.75509036,0
18441,-3.7015061,-5.1432333,-3.894867,-2.805835,0.41949463,0.75509036,0
18442,-3.7015061,-5.1432333,-3.894867,-0.3706421,0.23364258,0.39613038,0
18443,-3.8123646,-3.8857412,-2.9225922,-0.3706421,0.23364258,0.39613038,0
18444,-3.8123646,-3.8857412,-2.9225922,0.7880127,0.18797608,0.043542482,0
18445,-4.3238297,-1.504333,-2.178238,0.7880127,0.18797608,0.043542482,0
18446,-4.3238297,-1.504333,-2.178238,1.6949707,0.25063476,-0.11151123,0
18447,-4.2229795,0.12064266,-1.5757599,1.6949707,0.25063476,-0.11151123,0
18448,-4.2229795,0.12064266,-1.5757599,2.5881226,0.15717773,-0.16248779,0
18449,-3.8471947,0.94800377,-1.129242,2.5881226,0.15717773,-0.16248779,0
18450,-3.8471947,0.94800377,-1.129242,2.5148437,-0.115759276,-0.32391357,0
18451,-3.7073822,0.9420943,-1.18013,2.5148437,-0.115759276,-0.32391357,0
18452,-3.7073822,0.9420943,-1.18013,1.7470093,-0.03717041,-0.4056885,0
18453,-3.1590328,-0.51751614,-1.9664459,1.7470093,-0.03717041,-0.4056885,0
18454,-3.1590328,-0.51751614,-1.9664459,1.448584,-0.26337892,-0.21134034,0
18455,-1.8304853,-2.8319817,-2.6497345,1.448584,-0.26337892,-0.21134034,0
18456,-1.8304853,-2.8319817,-2.6497345,2.078357,-0.48533937,0.19328614,0
18457,-0.47966003,-4.1177335,-1.4845886,2.078357,-0.48533937,0.19328614,0
18458,-0.47966003,-4.1177335,-1.4845886,3.528003,-0.99722904,0.5320679,0
18459,0.22938251,-3.434165,0.9998932,3.528003,-0.99722904,0.5320679,0
18460,0.22938251,-3.434165,0.9998932,4.55072,-1.9551636,1.171399,0
18461,0.7066994,-2.1064873,2.9483185,4.55072,-1.9551636,1.171399,0
18462,0.7066994,-2.1064873,2.9483185,3.6416383,-2.4787354,1.8808228,0
18463,0.7066994,-2.1064873,2.9483185,3.6416383,-2.4787354,1.8808228,0
18464,1.6266384,-1.4592257,3.8672333,3.6416383,-2.4787354,1.8808228,0
18465,1.6266384,-1.4592257,3.8672333,3.2805543,-2.52334,2.4001465,0
18466,2.9371014,-1.2759988,3.8423615,3.2805543,-2.52334,2.4001465,0
18467,2.9371014,-1.2759988,3.8423615,4.4062867,-2.6582153,3.1286867,0
18468,4.5824575,0.24154234,4.2873077,4.4062867,-2.6582153,3.1286867,0
18469,4.5824575,0.24154234,4.2873077,5.1911135,-3.270996,3.2157714,0
18470,5.804272,5.2052336,4.905014,5.1911135,-3.270996,3.2157714,0
18471,5.804272,5.2052336,4.905014,4.884192,-2.5552003,2.272705,0
18472,5.4224095,10.096853,4.2243195,4.884192,-2.5552003,2.272705,0
18473,5.4224095,10.096853,4.2243195,3.1945312,-2.061365,2.262085,0
18474,4.448621,10.06895,3.5788422,3.1945312,-2.061365,2.262085,0
18475,4.448621,10.06895,3.5788422,1.6450561,-1.3211426,1.8680786,0
18476,3.3983254,6.4843473,3.88826,1.6450561,-1.3211426,1.8680786,0
18477,3.3983254,6.4843473,3.88826,1.1480347,-0.86341554,1.8468384,0
18478,2.1443927,2.2574482,3.9148712,1.1480347,-0.86341554,1.8468384,0
18479,2.1443927,2.2574482,3.9148712,1.2595459,-0.4694092,2.0422485,0
18480,2.287963,-0.8326149,3.0356903,1.2595459,-0.4694092,2.0422485,0
18481,2.287963,-0.8326149,3.0356903,1.360437,-0.43967286,2.7622926,0
18482,3.6267207,-1.3775301,1.940094,1.360437,-0.43967286,2.7622926,0
18483,3.6267207,-1.3775301,1.940094,1.1119263,-0.047790527,3.0384157,0
18484,3.9471407,1.099123,1.4359894,1.1119263,-0.047790527,3.0384157,0
18485,3.9471407,1.099123,1.4359894,0.77526855,0.19753419,3.0692139,0
18486,2.8760843,4.509633,1.0693817,0.77526855,0.19753419,3.0692139,0
18487,2.8760843,4.509633,1.0693817,-0.06265869,0.71154785,2.6890137,0
18488,1.3325568,6.29893,-0.09197998,-0.06265869,0.71154785,2.6890137,0
18489,1.3325568,6.29893,-0.09197998,-0.58198243,0.9589966,2.4989135,0
18490,-0.28478462,5.740572,-1.5904999,-0.58198243,0.9589966,2.4989135,0
18491,-0.28478462,5.740572,-1.5904999,-0.9589966,0.90802,2.4213867,0
18492,-2.1212237,3.6004524,-2.1521149,-0.9589966,0.90802,2.4213867,0
18493,-2.1212237,3.6004524,-2.1521149,-1.3381348,0.6414551,2.524402,0
18494,-4.292243,1.5148468,-0.68933105,-1.3381348,0.6414551,2.524402,0
18495,-4.292243,1.5148468,-0.68933105,-1.3954834,0.3802002,2.34386,0
18496,-5.2784476,0.263134,2.311203,-1.3954834,0.3802002,2.34386,0
18497,-5.2784476,0.263134,2.311203,-0.8421753,0.39506838,2.272705,0
18498,-3.5355878,-0.32147598,4.2892,-0.8421753,0.39506838,2.272705,0
18499,-3.5355878,-0.32147598,4.2892,-0.14655761,0.2357666,2.350232,0
18500,-0.43043566,0.277462,3.3393707,-0.14655761,0.2357666,2.350232,0
18501,-0.43043566,0.277462,3.3393707,0.31010744,-0.21134034,2.1973023,0
18502,1.7796137,1.6972866,0.69091797,0.31010744,-0.21134034,2.1973023,0
18503,1.7796137,1.6972866,0.69091797,-0.06690674,-0.32922363,2.0326905,0
18504,2.502744,2.5779457,-1.2606354,-0.06690674,-0.32922363,2.0326905,0
18505,2.502744,2.5779457,-1.2606354,-0.6796875,-0.3058594,1.896753,0
18506,1.9791727,2.441494,-1.6674957,-0.6796875,-0.3058594,1.896753,0
18507,1.9791727,2.441494,-1.6674957,-0.77951664,-0.5671143,1.9424194,0
18508,0.6578741,1.3454819,-0.7944336,-0.77951664,-0.5671143,1.9424194,0
18509,0.6578741,1.3454819,-0.7944336,-0.38657227,-0.67650145,1.8818848,0
18510,-0.2780831,-0.02968216,0.5738983,-0.38657227,-0.67650145,1.8818848,0
18511,-0.2780831,-0.02968216,0.5738983,0.0722168,-0.6818115,1.9296753,0
18512,-0.001421452,-0.3989296,1.0609741,0.0722168,-0.6818115,1.9296753,0
18513,-0.001421452,-0.3989296,1.0609741,0.16567384,-0.6552612,1.9424194,0
18514,0.6648662,0.33292007,0.14770508,0.16567384,-0.6552612,1.9424194,0
18515,0.6648662,0.33292007,0.14770508,-0.19647217,-0.47578126,1.9498535,0
18516,0.86151934,0.91684914,-0.92037964,-0.19647217,-0.47578126,1.9498535,0
18517,0.86151934,0.91684914,-0.92037964,-0.15505372,-0.29736328,2.0305665,0
18518,0.6846256,1.2290726,-1.2577667,-0.15505372,-0.29736328,2.0305665,0
18519,0.6846256,1.2290726,-1.2577667,-0.04460449,-0.3727661,1.8553345,0
18520,0.5142288,1.2307568,-1.0212708,-0.04460449,-0.3727661,1.8553345,0
18521,0.5142288,1.2307568,-1.0212708,-0.2793091,-0.2782471,1.8266602,0
18522,0.3541808,0.33843803,-0.40942383,-0.2793091,-0.2782471,1.8266602,0
18523,0.3541808,0.33843803,-0.40942383,-0.15186767,-0.49064943,1.9349854,0
18524,0.12862062,-0.47096062,0.28605652,-0.15186767,-0.49064943,1.9349854,0
18525,0.12862062,-0.47096062,0.28605652,0.27399904,-0.7476563,2.0252564,0
18526,0.23445165,-0.271801,0.6971741,0.27399904,-0.7476563,2.0252564,0
18527,0.23445165,-0.271801,0.6971741,0.55755615,-0.7869507,1.9668458,0
18528,0.7219974,0.383255,0.5661316,0.55755615,-0.7869507,1.9668458,0
18529,0.7219974,0.383255,0.5661316,0.5809204,-0.81668705,1.9211792,0
18530,1.1800271,0.4827881,0.18508911,0.5809204,-0.81668705,1.9211792,0
18531,1.1800271,0.4827881,0.18508911,0.5363159,-0.725354,1.9732178,0
18532,1.3545076,0.06077957,-0.18637085,0.5363159,-0.725354,1.9732178,0
18533,1.3545076,0.06077957,-0.18637085,0.5533081,-0.7678345,2.071985,0
18534,1.2597902,-0.072444916,-0.6092987,0.5533081,-0.7678345,2.071985,0
18535,1.2597902,-0.072444916,-0.6092987,0.44498292,-0.74447024,2.088977,0
18536,1.0576979,0.13973618,-1.0066986,0.44498292,-0.74447024,2.088977,0
18537,1.0576979,0.13973618,-1.0066986,0.25913087,-0.76677245,2.1165893,0
18538,0.890775,0.23149109,-1.0593567,0.25913087,-0.76677245,2.1165893,0
18539,0.890775,0.23149109,-1.0593567,0.07540283,-0.7720825,2.2185426,0
18540,0.61054486,0.11638069,-0.2577362,0.07540283,-0.7720825,2.2185426,0
18541,0.61054486,0.11638069,-0.2577362,0.20496826,-0.7827026,2.3162477,0
18542,0.23036703,0.043312073,1.065628,0.20496826,-0.7827026,2.3162477,0
18543,0.23036703,0.043312073,1.065628,0.28674316,-0.76358646,2.2886353,0
18544,0.60193276,-0.003667831,1.3946686,0.28674316,-0.76358646,2.2886353,0
18545,0.60193276,-0.003667831,1.3946686,0.0637207,-0.630835,2.2716432,0
18546,1.6876864,0.14975166,0.46931458,0.0637207,-0.630835,2.2716432,0
18547,1.6876864,0.14975166,0.46931458,0.12319336,-0.68924564,2.1282716,0
18548,2.4685574,0.826355,-0.34580994,0.12319336,-0.68924564,2.1282716,0
18549,2.4685574,0.826355,-0.34580994,0.009558106,-0.82836914,1.8521484,0
18550,2.7144945,1.2336788,-0.40493774,0.009558106,-0.82836914,1.8521484,0
18551,2.7144945,1.2336788,-0.40493774,-0.362146,-0.5628662,1.6195679,0
18552,2.5232434,0.010221481,-0.1038208,-0.362146,-0.5628662,1.6195679,0
18553,2.5232434,0.010221481,-0.1038208,-0.39188233,-0.4725952,1.8330323,0
18554,1.9572668,-1.1119404,0.025970459,-0.39188233,-0.4725952,1.8330323,0
18555,1.9572668,-1.1119404,0.025970459,0.20390625,-0.8973999,1.7916138,0
18556,1.0928764,-0.645998,-0.041381836,0.20390625,-0.8973999,1.7916138,0
18557,1.0928764,-0.645998,-0.041381836,-0.15186767,-0.7126099,1.6078857,0
18558,0.1888032,-0.8888817,-0.06266785,-0.15186767,-0.7126099,1.6078857,0
18559,0.1888032,-0.8888817,-0.06266785,-0.13168946,-0.68499756,1.7470093,0
18560,-0.58838606,-1.6132793,0.23326111,-0.13168946,-0.68499756,1.7470093,0
18561,-0.58838606,-1.6132793,0.23326111,0.56180423,-1.0343994,1.8224121,0
18562,-0.23720074,-0.9546013,0.38580322,0.56180423,-1.0343994,1.8224121,0
18563,-0.23720074,-0.9546013,0.38580322,0.8612915,-0.7497803,1.6981567,0
18564,1.5982277,0.049282074,-0.37490845,0.8612915,-0.7497803,1.6981567,0
18565,1.5982277,0.049282074,-0.37490845,1.0184692,-0.7784546,1.7555054,0
18566,2.7268,1.0229454,-1.252655,1.0184692,-0.7784546,1.7555054,0
18567,2.7268,1.0229454,-1.252655,1.1915772,-0.9855469,1.5048707,0
18568,2.502009,2.1229458,-1.2329712,1.1915772,-0.9855469,1.5048707,0
18569,2.502009,2.1229458,-1.2329712,0.90058595,-0.9228882,1.2510499,0
18570,2.2446856,2.0503101,-0.6874237,0.90058595,-0.9228882,1.2510499,0
18571,2.2446856,2.0503101,-0.6874237,0.4725952,-0.91120607,0.91864014,0
18572,2.1180139,0.8687897,-0.009140015,0.4725952,-0.91120607,0.91864014,0
18573,2.1180139,0.8687897,-0.009140015,0.1178833,-0.95581055,0.5979126,0
18574,1.6512346,-0.07539177,0.8524933,0.1178833,-0.95581055,0.5979126,0
18575,1.6512346,-0.07539177,0.8524933,-0.36639404,-0.66269535,0.51932377,0
18576,0.9482336,-0.50304985,1.3065796,-0.36639404,-0.66269535,0.51932377,0
18577,0.9482336,-0.50304985,1.3065796,-0.6977417,-0.29205322,0.59047854,0
18578,0.40486383,-0.49740982,0.45692444,-0.6977417,-0.29205322,0.59047854,0
18579,0.40486383,-0.49740982,0.45692444,-0.27612305,-0.26975098,0.727478,0
18580,0.78359604,-0.6142731,-1.2148438,-0.27612305,-0.26975098,0.727478,0
18581,0.78359604,-0.6142731,-1.2148438,0.21134034,-0.49064943,0.7763306,0
18582,1.6418667,-0.71551514,-1.7231903,0.21134034,-0.49064943,0.7763306,0
18583,1.6418667,-0.71551514,-1.7231903,0.40356445,-0.53950197,0.9611206,0
18584,1.7388964,0.38801193,-0.6840515,0.40356445,-0.53950197,0.9611206,0
18585,1.7388964,0.38801193,-0.6840515,0.8209351,-0.6881836,0.905896,0
18586,1.1683388,1.9045258,0.29322815,0.8209351,-0.6881836,0.905896,0
18587,1.1683388,1.9045258,0.29322815,0.33771974,-0.5033936,0.83686525,0
18588,0.5891504,1.7608261,0.36505127,0.33771974,-0.5033936,0.83686525,0
18589,0.5891504,1.7608261,0.36505127,-0.02442627,-0.38551027,0.811377,0
18590,0.3079176,-0.029144287,-0.06594849,-0.02442627,-0.38551027,0.811377,0
18591,0.3079176,-0.029144287,-0.06594849,0.26550293,-0.38975832,0.8772217,0
18592,0.31056786,-1.4394283,-0.3856659,0.26550293,-0.38975832,0.8772217,0
18593,0.31056786,-1.4394283,-0.3856659,0.7954468,-0.56605226,0.96643066,0
18594,0.53453827,-1.048296,-0.41360474,0.7954468,-0.56605226,0.96643066,0
18595,0.53453827,-1.048296,-0.41360474,0.998291,-0.66481936,0.88040775,0
18596,0.9698305,0.3603363,-0.30187988,0.998291,-0.66481936,0.88040775,0
18597,0.9698305,0.3603363,-0.30187988,0.71367186,-0.4609131,0.8007569,0
18598,1.2335796,0.95152664,-0.42578125,0.71367186,-0.4609131,0.8007569,0
18599,1.2335796,0.95152664,-0.42578125,0.5522461,-0.4354248,0.81987303,0
18600,0.97389984,0.5602684,-0.7633667,0.5522461,-0.4354248,0.81987303,0
18601,0.97389984,0.5602684,-0.7633667,0.61278075,-0.4598511,0.71791995,0
18602,0.6668148,0.06498718,-0.849411,0.61278075,-0.4598511,0.71791995,0
18603,0.6668148,0.06498718,-0.849411,0.56605226,-0.4333008,0.6244629,0
18604,0.72147655,-0.10539627,-0.5523224,0.56605226,-0.4333008,0.6244629,0
18605,0.72147655,-0.10539627,-0.5523224,0.44710693,-0.2984253,0.5522461,0
18606,0.7689171,-0.026700974,-0.25160217,0.44710693,-0.2984253,0.5522461,0
18607,0.7689171,-0.026700974,-0.25160217,0.31435546,-0.17416993,0.4630371,0
18608,0.555295,-0.0353508,-0.1975708,0.31435546,-0.17416993,0.4630371,0
18609,0.555295,-0.0353508,-0.1975708,0.15930176,-0.090270996,0.36320803,0
18610,0.42052937,-0.056453705,-0.269989,0.15930176,-0.090270996,0.36320803,0
18611,0.42052937,-0.056453705,-0.269989,-0.07752686,0.010620117,0.24851075,0
18612,0.5105686,0.013027191,-0.42636108,-0.07752686,0.010620117,0.24851075,0
18613,0.5105686,0.013027191,-0.42636108,-0.22089843,0.11151123,0.18266602,0
18614,0.5105686,0.013027191,-0.42636108,-0.22089843,0.11151123,0.18266602,99
18615,0.5541096,-0.014432907,-0.6509247,-0.22089843,0.11151123,0.18266602,99
18616,0.5541096,-0.014432907,-0.6509247,-0.3802002,0.1731079,0.14018555,99
18617,0.5247326,-0.1792717,-0.67533875,-0.3802002,0.1731079,0.14018555,99
18618,0.5247326,-0.1792717,-0.67533875,-0.33028564,0.28674316,0.13381349,99
18619,0.53621674,-0.31347275,-0.42913818,-0.33028564,0.28674316,0.13381349,99
18620,0.53621674,-0.31347275,-0.42913818,-0.11151123,0.26337892,0.0361084,99
18621,0.5339174,-0.18992615,-0.11691284,-0.11151123,0.26337892,0.0361084,99
18622,0.5339174,-0.18992615,-0.11691284,-0.1539917,0.20178223,-0.08283692,99
18623,0.26956558,0.07718468,0.08979797,-0.1539917,0.20178223,-0.08283692,99
18624,0.26956558,0.07718468,0.08979797,-0.16567384,0.21346436,-0.2262085,99
18625,-0.27586365,0.17220879,0.33181763,-0.16567384,0.21346436,-0.2262085,99
18626,-0.27586365,0.17220879,0.33181763,0.019116212,0.10938721,-0.32922363,99
18627,-0.60811806,0.17230034,0.71585083,0.019116212,0.10938721,-0.32922363,99
18628,-0.60811806,0.17230034,0.71585083,0.045666505,0.032922365,-0.49383545,99
18629,-0.5821495,0.44091606,1.0331879,0.045666505,0.032922365,-0.49383545,99
18630,-0.5821495,0.44091606,1.0331879,-0.093457036,0.059472658,-0.6754395,99
18631,-0.5056734,0.8390236,1.1062622,-0.093457036,0.059472658,-0.6754395,99
18632,-0.5056734,0.8390236,1.1062622,-0.23151855,0.14549561,-0.7943848,99
18633,-0.5072365,0.9195595,0.9616089,-0.23151855,0.14549561,-0.7943848,99
18634,-0.5072365,0.9195595,0.9616089,-0.21240234,0.18266602,-0.80819094,99
18635,-0.54814816,0.6779709,0.60975647,-0.21240234,0.18266602,-0.80819094,99
18636,-0.54814816,0.6779709,0.60975647,-0.21558838,0.13381349,-0.7880127,99
18637,-0.6045828,0.2379818,0.1444397,-0.21558838,0.13381349,-0.7880127,99
18638,-0.6045828,0.2379818,0.1444397,-0.28780517,0.12850343,-0.6159668,99
18639,-0.6556139,-0.11831665,-0.20397949,-0.28780517,0.12850343,-0.6159668,99
18640,-0.6556139,-0.11831665,-0.20397949,-0.046728518,0.04460449,-0.4725952,99
18641,-0.5514927,0.04949951,-0.30465698,-0.046728518,0.04460449,-0.4725952,99
18642,-0.5514927,0.04949951,-0.30465698,0.2548828,-0.057348635,-0.44073486,99
18643,-0.2794752,0.63699913,-0.20610046,0.2548828,-0.057348635,-0.44073486,99
18644,-0.2794752,0.63699913,-0.20610046,0.18054199,-0.14337158,-0.46728516,99
18645,-0.06385136,0.90073776,-0.019989014,0.18054199,-0.14337158,-0.46728516,99
18646,-0.06385136,0.90073776,-0.019989014,-0.11363526,-0.14549561,-0.40250245,99
18647,-0.022711754,0.43271065,0.057739258,-0.11363526,-0.14549561,-0.40250245,99
18648,-0.022711754,0.43271065,0.057739258,-0.05628662,-0.16673584,-0.3058594,99
18649,-0.10593796,-0.07485199,-0.0569458,-0.05628662,-0.16673584,-0.3058594,99
18650,-0.10593796,-0.07485199,-0.0569458,0.20390625,-0.31010744,-0.29417726,99
18651,-0.1360197,0.023235321,-0.11488342,0.20390625,-0.31010744,-0.29417726,99
18652,-0.1360197,0.023235321,-0.11488342,0.21877442,-0.33771974,-0.31223145,99
18653,-0.09201908,0.34999847,-0.10913086,0.21877442,-0.33771974,-0.31223145,99
18654,-0.09201908,0.34999847,-0.10913086,0.058410645,-0.31435546,-0.24957275,99
18655,-0.075494766,0.4197197,-0.27746582,0.058410645,-0.31435546,-0.24957275,99
18656,-0.075494766,0.4197197,-0.27746582,0.026550293,-0.3812622,-0.16248779,99
18657,0.11992645,0.41783142,-0.48719788,0.026550293,-0.3812622,-0.16248779,99
18658,0.11992645,0.41783142,-0.48719788,0.043542482,-0.35895997,-0.18372802,99
18659,0.50362015,0.5479851,-0.48002625,0.043542482,-0.35895997,-0.18372802,99
18660,0.50362015,0.5479851,-0.48002625,0.107263185,-0.31329346,-0.18797608,99
18661,0.65334797,0.6649513,-0.49183655,0.107263185,-0.31329346,-0.18797608,99
18662,0.65334797,0.6649513,-0.49183655,0.13275146,-0.28674316,-0.1539917,99
18663,0.55025387,0.5912628,-0.6988373,0.13275146,-0.28674316,-0.1539917,99
18664,0.55025387,0.5912628,-0.6988373,0.30373535,-0.24638672,-0.0541626,99
18665,0.5176077,0.3676014,-0.73513794,0.30373535,-0.24638672,-0.0541626,99
18666,0.5176077,0.3676014,-0.73513794,0.7147339,-0.2347046,-0.002124023,99
18667,0.541564,0.37890816,-0.47232056,0.7147339,-0.2347046,-0.002124023,99
18668,0.541564,0.37890816,-0.47232056,0.76464844,-0.32072756,0.04460449,99
18669,0.4192009,0.38543892,-0.010498047,0.76464844,-0.32072756,0.04460449,99
18670,0.4192009,0.38543892,-0.010498047,0.53525394,-0.20072022,0.16673584,99
18671,0.12913513,-0.041576385,0.5141449,0.53525394,-0.20072022,0.16673584,99
18672,0.12913513,-0.041576385,0.5141449,0.31329346,-0.1083252,0.22514649,99
18673,-0.1877079,-0.47507095,0.64826965,0.31329346,-0.1083252,0.22514649,99
18674,-0.1877079,-0.47507095,0.64826965,0.18160401,0.020178223,0.32178956,99
18675,-0.34767628,-0.64471817,0.22198486,0.18160401,0.020178223,0.32178956,99
18676,-0.34767628,-0.64471817,0.22198486,0.081774905,0.003186035,0.39506838,99
18677,-0.2461338,-0.5152359,-0.35987854,0.081774905,0.003186035,0.39506838,99
18678,-0.2461338,-0.5152359,-0.35987854,0.107263185,0.025488282,0.3345337,99
18679,0.18624687,-0.22199059,-0.5506897,0.107263185,0.025488282,0.3345337,99
18680,0.18624687,-0.22199059,-0.5506897,-0.004248047,0.00637207,0.3419678,99
18681,0.5575056,0.08804321,-0.31097412,-0.004248047,0.00637207,0.3419678,99
18682,0.5575056,0.08804321,-0.31097412,-0.08814698,-0.005310059,0.3164795,99
18683,0.46297264,0.18619537,-0.042999268,-0.08814698,-0.005310059,0.3164795,99
18684,0.46297264,0.18619537,-0.042999268,-0.15823975,-0.005310059,0.3154175,99
18685,0.18468475,-0.07407951,-0.028045654,-0.15823975,-0.005310059,0.3154175,99
18686,0.18468475,-0.07407951,-0.028045654,-0.2262085,-0.022302246,0.31329346,99
18687,0.11006451,-0.23509216,-0.20115662,-0.2262085,-0.022302246,0.31329346,99
18688,0.11006451,-0.23509216,-0.20115662,-0.22196046,-0.03186035,0.2793091,99
18689,0.22629642,-0.21982384,-0.2996521,-0.22196046,-0.03186035,0.2793091,99
18690,0.22629642,-0.21982384,-0.2996521,-0.2538208,-0.038232423,0.29736328,99
18691,0.24944496,-0.26066208,-0.09101868,-0.2538208,-0.038232423,0.29736328,99
18692,0.24944496,-0.26066208,-0.09101868,-0.22939454,-0.027612304,0.32603762,99
18693,0.071125984,-0.28150368,0.20526123,-0.22939454,-0.027612304,0.32603762,99
18694,0.071125984,-0.28150368,0.20526123,-0.19222413,-0.014868164,0.36108398,99
18695,-0.101070404,-0.2533512,0.0716095,-0.19222413,-0.014868164,0.36108398,99
18696,-0.101070404,-0.2533512,0.0716095,-0.22939454,-0.004248047,0.37807617,99
18697,-0.087020874,-0.31681633,-0.25889587,-0.22939454,-0.004248047,0.37807617,99
18698,-0.087020874,-0.31681633,-0.25889587,-0.2081543,0.060534667,0.34833986,99
18699,-0.041259766,-0.45301437,-0.17424011,-0.2081543,0.060534667,0.34833986,99
18700,-0.041259766,-0.45301437,-0.17424011,-0.06478272,0.025488282,0.33771974,99
18701,0.08669472,-0.43769264,0.037841797,-0.06478272,0.025488282,0.33771974,99
18702,0.08669472,-0.43769264,0.037841797,-0.1720459,0.06159668,0.2824951,99
18703,0.2768383,-0.30291176,-0.0975647,-0.1720459,0.06159668,0.2824951,99
18704,0.2768383,-0.30291176,-0.0975647,-0.1444336,0.020178223,0.2984253,99
18705,0.15400314,-0.06369209,-0.2545166,-0.1444336,0.020178223,0.2984253,99
18706,0.15400314,-0.06369209,-0.2545166,-0.011682129,-0.14230958,0.23895264,99
18707,-0.17280579,0.16127777,-0.25627136,-0.011682129,-0.14230958,0.23895264,99
18708,-0.17280579,0.16127777,-0.25627136,-0.28461915,-0.18691407,0.08071289,99
18709,-0.32590294,-0.3576851,-0.18864441,-0.28461915,-0.18691407,0.08071289,99
18710,-0.32590294,-0.3576851,-0.18864441,-0.6435791,-0.12000733,0.16567384,99
18711,-0.6661663,-0.5306778,0.549057,-0.6435791,-0.12000733,0.16567384,99
18712,-0.6661663,-0.5306778,0.549057,-0.3175415,-0.18691407,-0.10407715,99
18713,-0.55762863,0.005645752,1.4346008,-0.3175415,-0.18691407,-0.10407715,99
18714,-0.55762863,0.005645752,1.4346008,-0.18372802,-0.121069334,-0.1274414,99
18715,-0.55762863,0.005645752,1.4346008,-0.18372802,-0.121069334,-0.1274414,98
18716,0.5751858,0.03942871,1.3031921,-0.18372802,-0.121069334,-0.1274414,98
18717,0.5751858,0.03942871,1.3031921,-0.61702883,0.013806152,0.059472658,98
18718,0.66694736,0.90644646,0.18103027,-0.61702883,0.013806152,0.059472658,98
18719,0.66694736,0.90644646,0.18103027,-0.49171144,-0.0722168,-0.38551027,98
18720,-0.6262932,1.3601055,-1.3608093,-0.49171144,-0.0722168,-0.38551027,98
18721,-0.6262932,1.3601055,-1.3608093,-0.94625247,-0.121069334,-0.44923097,98
18722,-1.66008,0.15533257,-2.535965,-0.94625247,-0.121069334,-0.44923097,98
18723,-1.66008,0.15533257,-2.535965,-1.1448487,-0.6244629,-0.5883545,98
18724,-1.75741,-0.9200096,-3.1086273,-1.1448487,-0.6244629,-0.5883545,98
18725,-1.75741,-0.9200096,-3.1086273,-2.0369384,-1.0513916,-0.61702883,98
18726,-1.0928907,-1.3686142,-2.6800385,-2.0369384,-1.0513916,-0.61702883,98
18727,-1.0928907,-1.3686142,-2.6800385,-2.4734254,-0.98129886,-0.6223389,98
18728,-0.5956745,-1.220356,-1.1086273,-2.4734254,-0.98129886,-0.6223389,98
18729,-0.5956745,-1.220356,-1.1086273,-2.5424562,-1.3445069,-0.66588134,98
18730,-0.33285046,-0.901762,0.34313965,-2.5424562,-1.3445069,-0.66588134,98
18731,-0.33285046,-0.901762,0.34313965,-3.5078247,-1.0821899,-0.725354,98
18732,0.2886753,-1.8738766,0.83721924,-3.5078247,-1.0821899,-0.725354,98
18733,0.2886753,-1.8738766,0.83721924,-3.5726075,-0.4970215,-0.725354,98
18734,1.4150715,-3.8332443,0.76179504,-3.5726075,-0.4970215,-0.725354,98
18735,1.4150715,-3.8332443,0.76179504,-2.077295,-0.84111327,-0.7083618,98
18736,3.2055311,-4.774456,1.4035797,-2.077295,-0.84111327,-0.7083618,98
18737,3.2055311,-4.774456,1.4035797,-1.7024049,-0.52888185,-0.6287109,98
18738,4.8371296,-4.6455173,2.0885925,-1.7024049,-0.52888185,-0.6287109,98
18739,4.8371296,-4.6455173,2.0885925,-1.8277222,0.002124023,-0.43754885,98
18740,5.1780043,-4.662117,1.6508942,-1.8277222,0.002124023,-0.43754885,98
18741,5.1780043,-4.662117,1.6508942,-1.720459,0.30161133,-0.08283692,98
18742,4.4747276,-3.1541195,1.0361938,-1.720459,0.30161133,-0.08283692,98
18743,4.4747276,-3.1541195,1.0361938,-1.350879,0.6818115,-0.20284425,98
18744,3.626193,0.00198555,1.533432,-1.350879,0.6818115,-0.20284425,98
18745,3.626193,0.00198555,1.533432,-0.3812622,0.7072998,-0.10089111,98
18746,1.6127949,1.2559223,1.8829498,-0.3812622,0.7072998,-0.10089111,98
18747,1.6127949,1.2559223,1.8829498,-0.29736328,0.541626,0.057348635,98
18748,-1.869628,0.4774189,0.7240753,-0.29736328,0.541626,0.057348635,98
18749,-1.869628,0.4774189,0.7240753,-0.35471192,0.5129517,-0.025488282,98
18750,-4.0008173,-0.14714241,-0.51464844,-0.35471192,0.5129517,-0.025488282,98
18751,-4.0008173,-0.14714241,-0.51464844,0.06690674,0.3802002,-0.16036378,98
18752,-3.5454168,0.12000656,-0.8043823,0.06690674,0.3802002,-0.16036378,98
18753,-3.5454168,0.12000656,-0.8043823,0.09664307,0.37807617,-0.16142578,98
18754,-1.8759575,0.035629272,-0.6841278,0.09664307,0.37807617,-0.16142578,98
18755,-1.8759575,0.035629272,-0.6841278,0.04885254,0.47365722,-0.15505372,98
18756,-0.5380583,-0.83509445,-0.5336914,0.04885254,0.47365722,-0.15505372,98
18757,-0.5380583,-0.83509445,-0.5336914,-0.058410645,0.48746338,-0.1539917,98
18758,-0.0680809,-0.87555885,-0.025741577,-0.058410645,0.48746338,-0.1539917,98
18759,-0.0680809,-0.87555885,-0.025741577,-0.10301514,0.544812,-0.2548828,98
18760,-0.24316025,0.028362274,0.59472656,-0.10301514,0.544812,-0.2548828,98
18761,-0.24316025,0.028362274,0.59472656,0.050976563,0.53525394,-0.30267334,98
18762,-0.5626192,0.50689316,0.8714447,0.050976563,0.53525394,-0.30267334,98
18763,-0.5626192,0.50689316,0.8714447,0.13381349,0.50870365,-0.33240968,98
18764,-0.6420021,0.41901588,0.7882843,0.13381349,0.50870365,-0.33240968,98
18765,-0.6420021,0.41901588,0.7882843,0.19753419,0.41418457,-0.41843262,98
18766,-0.5189724,0.24472237,0.5424042,0.19753419,0.41418457,-0.41843262,98
18767,-0.5189724,0.24472237,0.5424042,0.17735596,0.38444826,-0.4248047,98
18768,-0.42635918,0.12726021,0.42378235,0.17735596,0.38444826,-0.4248047,98
18769,-0.42635918,0.12726021,0.42378235,0.35895997,0.3058594,-0.4428589,98
18770,-0.4686756,0.10390854,0.34832764,0.35895997,0.3058594,-0.4428589,98
18771,-0.4686756,0.10390854,0.34832764,0.7306641,0.124255374,-0.4163086,98
18772,-0.63635445,0.56536484,0.23374939,0.7306641,0.124255374,-0.4163086,98
18773,-0.63635445,0.56536484,0.23374939,0.9281983,-0.001062012,-0.48215333,98
18774,-0.72901726,1.2945042,0.19238281,0.9281983,-0.001062012,-0.48215333,98
18775,-0.72901726,1.2945042,0.19238281,1.2404298,-0.093457036,-0.540564,98
18776,-0.47859955,1.5812092,0.15507507,1.2404298,-0.093457036,-0.540564,98
18777,-0.47859955,1.5812092,0.15507507,1.6461182,-0.16779785,-0.74659425,98
18778,0.24469566,1.2868309,0.002593994,1.6461182,-0.16779785,-0.74659425,98
18779,0.24469566,1.2868309,0.002593994,1.6609863,-0.16567384,-0.7423462,98
18780,0.91399384,0.76851463,-0.4230194,1.6609863,-0.16567384,-0.7423462,98
18781,0.91399384,0.76851463,-0.4230194,1.1586548,-0.15080567,-0.544812,98
18782,0.6458683,1.0271893,-0.7428589,1.1586548,-0.15080567,-0.544812,98
18783,0.6458683,1.0271893,-0.7428589,0.7869507,-0.05628662,-0.4258667,98
18784,-0.30460644,2.1909409,-0.4708557,0.7869507,-0.05628662,-0.4258667,98
18785,-0.30460644,2.1909409,-0.4708557,1.0545777,0.007434082,-0.45454103,98
18786,-0.7455158,2.6492004,-0.1611023,1.0545777,0.007434082,-0.45454103,98
18787,-0.7455158,2.6492004,-0.1611023,1.1841431,0.035046387,-0.41737062,98
18788,-0.36084175,1.807972,-0.227005,1.1841431,0.035046387,-0.41737062,98
18789,-0.36084175,1.807972,-0.227005,1.0651978,0.093457036,-0.22833252,98
18790,0.23771858,0.9322052,-0.27986145,1.0651978,0.093457036,-0.22833252,98
18791,0.23771858,0.9322052,-0.27986145,0.98873293,0.23789063,-0.11682129,98
18792,0.97406197,0.8334732,-0.031143188,0.98873293,0.23789063,-0.11682129,98
18793,0.97406197,0.8334732,-0.031143188,1.0705079,0.45772704,0.10195313,98
18794,1.6466818,1.2918262,0.4100952,1.0705079,0.45772704,0.10195313,98
18795,1.6466818,1.2918262,0.4100952,1.0577637,0.71791995,0.39506838,98
18796,1.6440668,1.7468395,0.80921936,1.0577637,0.71791995,0.39506838,98
18797,1.6440668,1.7468395,0.80921936,0.95581055,1.0089111,0.632959,98
18798,0.8539009,1.5219707,1.063324,0.95581055,1.0089111,0.632959,98
18799,0.8539009,1.5219707,1.063324,0.7147339,1.3168945,1.0004151,98
18800,-0.19928932,0.80944633,1.2149658,0.7147339,1.3168945,1.0004151,98
18801,-0.19928932,0.80944633,1.2149658,0.5363159,1.4889405,1.1161743,98
18802,-1.2213945,0.2962742,1.1457672,0.5363159,1.4889405,1.1161743,98
18803,-1.2213945,0.2962742,1.1457672,0.39082032,1.5569092,1.26167,98
18804,-1.5820713,0.01184845,0.9353485,0.39082032,1.5569092,1.26167,98
18805,-1.5820713,0.01184845,0.9353485,0.3430298,1.5123047,1.3126465,98
18806,-2.9947948,-0.94904137,0.39826965,0.3430298,1.5123047,1.3126465,98
18807,-2.9947948,-0.94904137,0.39826965,0.36639404,1.2595459,1.3041505,98
18808,-2.8176136,-0.9748707,0.08843994,0.36639404,1.2595459,1.3041505,98
18809,-2.8176136,-0.9748707,0.08843994,0.2814331,1.171399,1.2000732,98
18810,-3.299367,-0.23719788,-1.484436,0.2814331,1.171399,1.2000732,98
18811,-3.299367,-0.23719788,-1.484436,0.07965088,0.97492677,0.94731444,98
18812,-2.9101353,0.033996582,-1.7355194,0.07965088,0.97492677,0.94731444,98
18813,-2.9101353,0.033996582,-1.7355194,0.11044922,0.90058595,0.97492677,98
18814,-3.1595778,1.55719,-3.5285645,0.11044922,0.90058595,0.97492677,98
18815,-3.1595778,1.55719,-3.5285645,-0.5278198,-0.052038576,0.37595215,98
18816,-3.1595778,1.55719,-3.5285645,-0.5278198,-0.052038576,0.37595215,96
18817,-2.4384289,1.6428356,-3.558075,-0.5278198,-0.052038576,0.37595215,96
18818,-2.4384289,1.6428356,-3.558075,-0.51932377,0.15186767,0.53950197,96
18819,0.5211196,0.16752625,-2.366394,-0.51932377,0.15186767,0.53950197,96
18820,0.5211196,0.16752625,-2.366394,1.2266235,-0.61915284,0.4980835,96
18821,1.5497079,-0.34553337,-1.027771,1.2266235,-0.61915284,0.4980835,96
18822,1.5497079,-0.34553337,-1.027771,1.2213135,-0.6149048,0.4598511,96
18823,3.288948,-0.55534554,2.035492,1.2213135,-0.6149048,0.4598511,96
18824,3.288948,-0.55534554,2.035492,0.15186767,-0.50870365,0.2888672,96
18825,2.7338324,-0.30283356,2.1794891,0.15186767,-0.50870365,0.2888672,96
18826,2.7338324,-0.30283356,2.1794891,-0.23682861,-0.4067505,0.2166504,96
18827,0.9616995,-0.04418373,1.6469421,-0.23682861,-0.4067505,0.2166504,96
18828,0.9616995,-0.04418373,1.6469421,-0.6573853,-0.24320069,0.008496094,96
18829,0.28377628,-0.28697014,0.94155884,-0.6573853,-0.24320069,0.008496094,96
18830,0.28377628,-0.28697014,0.94155884,-0.6085327,-0.22727051,-0.060534667,96
18831,-0.71008873,-1.1480217,-0.29167175,-0.6085327,-0.22727051,-0.060534667,96
18832,-0.71008873,-1.1480217,-0.29167175,-0.3536499,-0.2347046,-0.1274414,96
18833,-0.6812668,-1.0988007,-0.290802,-0.3536499,-0.2347046,-0.1274414,96
18834,-0.6812668,-1.0988007,-0.290802,-0.26975098,-0.17841797,-0.12531738,96
18835,-0.5897646,-0.8420162,0.25683594,-0.26975098,-0.17841797,-0.12531738,96
18836,-0.5897646,-0.8420162,0.25683594,-0.22833252,-0.046728518,-0.1529297,96
18837,-0.42355728,-0.6415081,0.37060547,-0.22833252,-0.046728518,-0.1529297,96
18838,-0.42355728,-0.6415081,0.37060547,-0.3079834,0.02442627,-0.19753419,96
18839,-0.060073853,-0.62537766,0.3974762,-0.3079834,0.02442627,-0.19753419,96
18840,-0.060073853,-0.62537766,0.3974762,-0.41206056,0.20390625,-0.24957275,96
18841,0.30892277,-0.6423321,0.29785156,-0.41206056,0.20390625,-0.24957275,96
18842,0.30892277,-0.6423321,0.29785156,-0.33665773,0.22196046,-0.3717041,96
18843,0.42457962,-0.3375721,0.21139526,-0.33665773,0.22196046,-0.3717041,96
18844,0.42457962,-0.3375721,0.21139526,-0.5033936,0.2793091,-0.50445557,96
18845,0.22994709,-0.17895699,0.08352661,-0.5033936,0.2793091,-0.50445557,96
18846,0.22994709,-0.17895699,0.08352661,-0.6488892,0.34090576,-0.55543214,96
18847,-0.3752098,-0.6649914,0.11218262,-0.6488892,0.34090576,-0.55543214,96
18848,-0.3752098,-0.6649914,0.11218262,-0.52038574,0.271875,-0.5479981,96
18849,-0.4981289,-0.6480942,0.2102356,-0.52038574,0.271875,-0.5479981,96
18850,-0.4981289,-0.6480942,0.2102356,-0.53525394,0.2347046,-0.544812,96
18851,-0.62235546,-0.48235512,0.08943176,-0.53525394,0.2347046,-0.544812,96
18852,-0.62235546,-0.48235512,0.08943176,-0.7604004,0.11682129,-0.48109132,96
18853,-0.5929041,-0.32414246,0.031158447,-0.7604004,0.11682129,-0.48109132,96
18854,-0.5929041,-0.32414246,0.031158447,-0.80819094,0.04885254,-0.47578126,96
18855,-0.55888176,0.16837311,0.14016724,-0.80819094,0.04885254,-0.47578126,96
18856,-0.55888176,0.16837311,0.14016724,-0.8315552,0.16673584,-0.6180908,96
18857,-0.40405083,0.1400814,0.77659607,-0.8315552,0.16673584,-0.6180908,96
18858,-0.40405083,0.1400814,0.77659607,-0.8219971,0.4078125,-0.63720703,96
18859,-0.32581615,-0.7125683,1.3017426,-0.8219971,0.4078125,-0.63720703,96
18860,-0.32581615,-0.7125683,1.3017426,-0.71154785,0.49489745,-0.5692383,96
18861,-0.24380684,-1.095604,1.2201538,-0.71154785,0.49489745,-0.5692383,96
18862,-0.24380684,-1.095604,1.2201538,-0.55755615,0.6117188,-0.5798584,96
18863,-0.00603199,-0.5984554,0.60775757,-0.55755615,0.6117188,-0.5798584,96
18864,-0.00603199,-0.5984554,0.60775757,-0.5161377,0.6159668,-0.5766724,96
18865,0.10856533,0.121004105,-0.011428833,-0.5161377,0.6159668,-0.5766724,96
18866,0.10856533,0.121004105,-0.011428833,-0.19541016,0.6637573,-0.57242435,96
18867,-0.009827614,0.19505692,0.03112793,-0.19541016,0.6637573,-0.57242435,96
18868,-0.009827614,0.19505692,0.03112793,-0.012744141,0.6966797,-0.56180423,96
18869,-0.44868279,-0.1344204,0.5157623,-0.012744141,0.6966797,-0.56180423,96
18870,-0.44868279,-0.1344204,0.5157623,0.1529297,0.65844727,-0.5798584,96
18871,-1.0196638,0.022249222,0.80892944,0.1529297,0.65844727,-0.5798584,96
18872,-1.0196638,0.022249222,0.80892944,0.002124023,0.68074954,-0.7051758,96
18873,-1.2636681,0.34635162,0.727005,0.002124023,0.68074954,-0.7051758,96
18874,-1.2636681,0.34635162,0.727005,-0.3334717,0.7720825,-0.8527954,96
18875,-1.1585908,0.09586716,0.4202881,-0.3334717,0.7720825,-0.8527954,96
18876,-1.1585908,0.09586716,0.4202881,-0.43117675,0.8336792,-0.94731444,96
18877,-0.93127966,-0.25766945,-0.011001587,-0.43117675,0.8336792,-0.94731444,96
18878,-0.93127966,-0.25766945,-0.011001587,-0.33028564,0.8336792,-1.1034302,96
18879,-0.7977948,-0.052387238,-0.4846344,-0.33028564,0.8336792,-1.1034302,96
18880,-0.7977948,-0.052387238,-0.4846344,-0.544812,0.8729736,-1.2181275,96
18881,-0.8772373,-0.029214859,-0.6855316,-0.544812,0.8729736,-1.2181275,96
18882,-0.8772373,-0.029214859,-0.6855316,-0.9568726,0.99298096,-1.3869873,96
18883,-1.2622881,-0.97501945,-0.3037262,-0.9568726,0.99298096,-1.3869873,96
18884,-1.2622881,-0.97501945,-0.3037262,-0.8963379,1.1214844,-1.453894,96
18885,-1.7996984,-1.8259029,0.40026855,-0.8963379,1.1214844,-1.453894,96
18886,-1.7996984,-1.8259029,0.40026855,-0.40356445,1.0471436,-1.532483,96
18887,-2.0077643,-1.3824635,0.75064087,-0.40356445,1.0471436,-1.532483,96
18888,-2.0077643,-1.3824635,0.75064087,-0.46834716,0.9876709,-1.7565674,96
18889,-1.5580916,-0.5420799,0.5190735,-0.46834716,0.9876709,-1.7565674,96
18890,-1.5580916,-0.5420799,0.5190735,-0.8315552,1.2011353,-2.0528686,96
18891,-1.0707164,-0.47026062,0.15779114,-0.8315552,1.2011353,-2.0528686,96
18892,-1.0707164,-0.47026062,0.15779114,-0.7455322,1.26698,-2.0358765,96
18893,-1.1561093,-0.7255745,-0.13279724,-0.7455322,1.26698,-2.0358765,96
18894,-1.1561093,-0.7255745,-0.13279724,-0.18372802,0.8591675,-2.061365,96
18895,-1.2562594,-0.7275181,-0.26367188,-0.18372802,0.8591675,-2.061365,96
18896,-1.2562594,-0.7275181,-0.26367188,0.32922363,0.5511841,-2.163318,96
18897,-1.1521144,-0.50717354,-0.035751343,0.32922363,0.5511841,-2.163318,96
18898,-1.1521144,-0.50717354,-0.035751343,1.075818,-0.08496094,-2.1229615,96
18899,-1.211865,0.2939682,0.33140564,1.075818,-0.08496094,-2.1229615,96
18900,-1.211865,0.2939682,0.33140564,1.7448853,-0.725354,-2.2302246,96
18901,-1.3738499,1.5097103,0.89245605,1.7448853,-0.725354,-2.2302246,96
18902,-1.3738499,1.5097103,0.89245605,1.8404664,-1.0790039,-2.4723632,96
18903,-1.4458694,2.3718433,1.8823547,1.8404664,-1.0790039,-2.4723632,96
18904,-1.4458694,2.3718433,1.8823547,1.0694458,-1.4921265,-2.913098,96
18905,-0.84664917,2.0735493,2.826828,1.0694458,-1.4921265,-2.913098,96
18906,-0.84664917,2.0735493,2.826828,-0.02442627,-1.3954834,-3.0139892,96
18907,0.5302367,0.69270325,2.9225311,-0.02442627,-1.3954834,-3.0139892,96
18908,0.5302367,0.69270325,2.9225311,-0.14018555,-1.273352,-2.7251222,96
18909,1.6853957,-0.24151611,1.389679,-0.14018555,-1.273352,-2.7251222,96
18910,1.6853957,-0.24151611,1.389679,0.38338622,-1.1554688,-2.2111084,96
18911,1.8665662,0.5008545,-1.4242554,0.38338622,-1.1554688,-2.2111084,96
18912,1.8665662,0.5008545,-1.4242554,1.173523,-1.2372437,-1.8468384,96
18913,0.88037443,2.9019413,-4.0858307,1.173523,-1.2372437,-1.8468384,96
18914,0.88037443,2.9019413,-4.0858307,1.0205933,-1.4730103,-1.8457764,96
18915,-0.34772682,4.772274,-5.004715,1.0205933,-1.4730103,-1.8457764,96
18916,-0.34772682,4.772274,-5.004715,0.26337892,-1.3391968,-1.989148,96
18917,-0.52226114,3.7564545,-3.1989136,0.26337892,-1.3391968,-1.989148,96
18918,-0.52226114,3.7564545,-3.1989136,0.15823975,-1.3243287,-2.0156982,96
18919,0.52011824,0.7769642,-0.32424927,0.15823975,-1.3243287,-2.0156982,96
18920,0.52011824,0.7769642,-0.32424927,0.22727051,-1.2499878,-1.9126831,96
18921,0.52011824,0.7769642,-0.32424927,0.22727051,-1.2499878,-1.9126831,96
18922,1.9010067,-1.266674,0.94770813,0.22727051,-1.2499878,-1.9126831,96
18923,1.9010067,-1.266674,0.94770813,0.43117675,-1.1597168,-1.6716064,96
18924,2.298674,-1.0227013,0.46022034,0.43117675,-1.1597168,-1.6716064,96
18925,2.298674,-1.0227013,0.46022034,0.53950197,-0.94625247,-1.44115,96
18926,1.6545157,0.31860542,-0.38357544,0.53950197,-0.94625247,-1.44115,96
18927,1.6545157,0.31860542,-0.38357544,0.80606693,-0.811377,-1.085376,96
18928,1.0240035,1.2141132,-0.71333313,0.80606693,-0.811377,-1.085376,96
18929,1.0240035,1.2141132,-0.71333313,0.9451904,-0.6701294,-0.95581055,96
18930,1.329896,0.2203865,-0.015991211,0.9451904,-0.6701294,-0.95581055,96
18931,1.329896,0.2203865,-0.015991211,1.5292969,-0.3355957,-0.5363159,96
18932,2.314454,-2.1937962,2.1881104,1.5292969,-0.3355957,-0.5363159,96
18933,2.314454,-2.1937962,2.1881104,2.241907,0.032922365,0.007434082,96
18934,2.839796,-3.0651455,4.31102,2.241907,0.032922365,0.007434082,96
18935,2.839796,-3.0651455,4.31102,1.2776002,0.83686525,-0.047790527,96
18936,2.6323228,-0.59593964,4.2701416,1.2776002,0.83686525,-0.047790527,96
18937,2.6323228,-0.59593964,4.2701416,-0.76464844,1.8192261,0.060534667,96
18938,1.0863028,2.9641285,2.1484375,-0.76464844,1.8192261,0.060534667,96
18939,1.0863028,2.9641285,2.1484375,-2.5201538,2.5775025,0.16992188,96
18940,-1.7057505,5.066372,-0.67555237,-2.5201538,2.5775025,0.16992188,96
18941,-1.7057505,5.066372,-0.67555237,-3.6703126,2.71875,0.1274414,96
18942,-4.47981,5.749447,-3.0192108,-3.6703126,2.71875,0.1274414,96
18943,-4.47981,5.749447,-3.0192108,-5.4226317,2.8472536,-0.0541626,96
18944,-6.460667,4.4036713,-4.708786,-5.4226317,2.8472536,-0.0541626,96
18945,-6.460667,4.4036713,-4.708786,-6.531372,2.7198122,-0.022302246,96
18946,-7.192008,1.1982174,-5.3754272,-6.531372,2.7198122,-0.022302246,96
18947,-7.192008,1.1982174,-5.3754272,-6.412427,2.5020998,0.095581055,96
18948,-6.7484794,-2.1363602,-4.8800507,-6.412427,2.5020998,0.095581055,96
18949,-6.7484794,-2.1363602,-4.8800507,-5.538391,2.4288208,0.18585205,96
18950,-5.9411297,-4.8354435,-3.719574,-5.538391,2.4288208,0.18585205,96
18951,-5.9411297,-4.8354435,-3.719574,-3.0182374,2.3682861,0.38232422,96
18952,-5.4643784,-5.4447956,-2.1029358,-3.0182374,2.3682861,0.38232422,96
18953,-5.4643784,-5.4447956,-2.1029358,-0.23682861,1.8394043,0.07434082,96
18954,-4.827948,-2.9800434,-0.22801208,-0.23682861,1.8394043,0.07434082,96
18955,-4.827948,-2.9800434,-0.22801208,1.6121339,1.7714356,-0.6414551,96
18956,-3.7515552,0.22493744,1.565445,1.6121339,1.7714356,-0.6414551,96
18957,-3.7515552,0.22493744,1.565445,2.2334106,1.7916138,-1.2436157,96
18958,-2.8411121,1.8900585,2.9512482,2.2334106,1.7916138,-1.2436157,96
18959,-2.8411121,1.8900585,2.9512482,1.7841797,1.6726685,-2.0634887,96
18960,-1.5772843,1.553978,3.764862,1.7841797,1.6726685,-2.0634887,96
18961,-1.5772843,1.553978,3.764862,0.996167,1.5643433,-2.8440673,96
18962,0.11516237,-0.3131771,3.852829,0.996167,1.5643433,-2.8440673,96
18963,0.11516237,-0.3131771,3.852829,0.1274414,1.454956,-3.243384,96
18964,0.92608976,-2.0611,2.7385254,0.1274414,1.454956,-3.243384,96
18965,0.92608976,-2.0611,2.7385254,-0.72004396,1.1586548,-3.6395142,96
18966,1.3134549,-3.025797,1.0361938,-0.72004396,1.1586548,-3.6395142,96
18967,1.3134549,-3.025797,1.0361938,-1.268042,1.3328247,-3.9135132,96
18968,2.4251168,-3.6915607,0.3965149,-1.268042,1.3328247,-3.9135132,96
18969,2.4251168,-3.6915607,0.3965149,-0.3451538,0.70942384,-3.8625367,96
18970,5.5017147,-4.9579487,0.6918793,-0.3451538,0.70942384,-3.8625367,96
18971,5.5017147,-4.9579487,0.6918793,-0.9122681,-0.540564,-7.5615234,96
18972,6.3127975,-4.1583138,0.6535187,-0.9122681,-0.540564,-7.5615234,96
18973,6.3127975,-4.1583138,0.6535187,3.2306397,0.23151855,-6.931751,96
18974,-2.2313173,2.88237,-0.49046326,3.2306397,0.23151855,-6.931751,96
18975,-2.2313173,2.88237,-0.49046326,-3.153113,-0.54587406,1.5919555,96
18976,-2.165425,2.4173584,-1.6671295,-3.153113,-0.54587406,1.5919555,96
18977,-2.165425,2.4173584,-1.6671295,-3.99104,1.3115845,-4.1152954,96
18978,5.893222,-6.2934456,0.4428711,-3.99104,1.3115845,-4.1152954,96
18979,5.893222,-6.2934456,0.4428711,-0.814563,-0.44179687,-1.447522,96
18980,5.4505024,-9.074442,3.513031,-0.814563,-0.44179687,-1.447522,96
18981,5.4505024,-9.074442,3.513031,2.2047365,-0.6818115,-1.7321411,96
18982,2.3521256,-5.779915,3.9103394,2.2047365,-0.6818115,-1.7321411,96
18983,2.3521256,-5.779915,3.9103394,-0.25063476,0.6202149,0.03186035,96
18984,-0.6304209,-2.071332,1.8770142,-0.25063476,0.6202149,0.03186035,96
18985,-0.6304209,-2.071332,1.8770142,-2.6815796,1.2244996,0.2824951,96
18986,-3.2184238,-1.3624735,-1.8620148,-2.6815796,1.2244996,0.2824951,96
18987,-3.2184238,-1.3624735,-1.8620148,-1.3360108,0.8708496,-0.63720703,96
18988,-3.702437,-1.9248419,-4.2643585,-1.3360108,0.8708496,-0.63720703,96
18989,-3.702437,-1.9248419,-4.2643585,-0.10195313,0.29523927,-1.0450195,96
18990,-2.6140246,-2.180975,-3.8985138,-0.10195313,0.29523927,-1.0450195,96
18991,-2.6140246,-2.180975,-3.8985138,-1.8776368,1.1140503,-0.811377,96
18992,-1.6295743,-2.5542164,-1.9226685,-1.8776368,1.1140503,-0.811377,96
18993,-1.6295743,-2.5542164,-1.9226685,-0.5936646,0.44604492,-0.8772217,96
18994,-1.022556,-2.4688492,-0.589859,-0.5936646,0.44604492,-0.8772217,96
18995,-1.022556,-2.4688492,-0.589859,-0.6000366,0.5649902,-0.6818115,96
18996,-0.70364046,-1.5507994,-0.8398895,-0.6000366,0.5649902,-0.6818115,96
18997,-0.70364046,-1.5507994,-0.8398895,-0.53525394,0.55543214,-0.6531372,96
18998,-0.34252667,-0.9092436,-1.507843,-0.53525394,0.55543214,-0.6531372,96
18999,-0.34252667,-0.9092436,-1.507843,-0.3971924,0.635083,-0.72854006,96
19000,0.058986425,-0.7114277,-1.4726868,-0.3971924,0.635083,-0.72854006,96
19001,0.058986425,-0.7114277,-1.4726868,-0.10089111,0.63720703,-0.81987303,96
19002,0.11857581,-0.87816334,-0.8272705,-0.10089111,0.63720703,-0.81987303,96
19003,0.11857581,-0.87816334,-0.8272705,-0.2262085,0.5363159,-0.8230591,96
19004,-0.054638863,-1.2135782,-0.5076752,-0.2262085,0.5363159,-0.8230591,96
19005,-0.054638863,-1.2135782,-0.5076752,-0.20072022,0.38657227,-1.0694458,96
19006,-0.09130633,-1.1038218,-0.4296112,-0.20072022,0.38657227,-1.0694458,96
19007,-0.09130633,-1.1038218,-0.4296112,-0.10513916,0.26550293,-1.2213135,96
19008,-0.107310176,-0.65377235,-0.08828735,-0.10513916,0.26550293,-1.2213135,96
19009,-0.107310176,-0.65377235,-0.08828735,-0.15930176,0.19647217,-1.2531738,96
19010,-0.1558677,-0.3629961,0.08444214,-0.15930176,0.19647217,-1.2531738,96
19011,-0.1558677,-0.3629961,0.08444214,-0.016992187,0.14655761,-1.4220337,96
19012,0.09478831,-0.078409195,-0.031066895,-0.016992187,0.14655761,-1.4220337,96
19013,0.09478831,-0.078409195,-0.031066895,0.09770508,0.20178223,-1.635498,96
19014,0.4826666,-0.11143303,-0.29278564,0.09770508,0.20178223,-1.635498,96
19015,0.4826666,-0.11143303,-0.29278564,-0.002124023,0.20072022,-1.5781494,96
19016,0.13076222,-0.7038679,-0.6310272,-0.002124023,0.20072022,-1.5781494,96
19017,0.13076222,-0.7038679,-0.6310272,-0.015930176,0.19753419,-1.4326538,96
19018,-0.7197677,-1.0044155,-0.55378723,-0.015930176,0.19753419,-1.4326538,96
19019,-0.7197677,-1.0044155,-0.55378723,0.5331299,0.07327881,-1.540979,96
19020,-0.8948083,-0.595171,0.18869019,0.5331299,0.07327881,-1.540979,96
19021,-0.8948083,-0.595171,0.18869019,0.721106,0.2166504,-1.5346069,96
19022,-0.18612254,-0.5895643,0.8332977,0.721106,0.2166504,-1.5346069,96
19023,-0.18612254,-0.5895643,0.8332977,0.62127686,0.3164795,-1.4135376,96
19024,-0.18612254,-0.5895643,0.8332977,0.62127686,0.3164795,-1.4135376,98
19025,0.5987339,-0.9060383,0.8735199,0.62127686,0.3164795,-1.4135376,98
19026,0.5987339,-0.9060383,0.8735199,0.98448485,0.21134034,-1.4124756,98
19027,1.0252519,-0.41048717,0.6606903,0.98448485,0.21134034,-1.4124756,98
19028,1.0252519,-0.41048717,0.6606903,1.268042,0.02442627,-1.450708,98
19029,1.3702625,0.5453901,0.40930176,1.268042,0.02442627,-1.450708,98
19030,1.3702625,0.5453901,0.40930176,1.0821899,-0.038232423,-1.5261109,98
19031,1.6730167,1.137167,0.124191284,1.0821899,-0.038232423,-1.5261109,98
19032,1.6730167,1.137167,0.124191284,0.8092529,-0.11682129,-1.5484132,98
19033,1.7495096,1.1546068,0.010864258,0.8092529,-0.11682129,-1.5484132,98
19034,1.7495096,1.1546068,0.010864258,0.6690674,-0.21346436,-1.5792115,98
19035,1.4630964,0.9832554,-0.015014648,0.6690674,-0.21346436,-1.5792115,98
19036,1.4630964,0.9832554,-0.015014648,0.5150757,-0.26868898,-1.6556762,98
19037,0.9322448,0.7373123,-0.29634094,0.5150757,-0.26868898,-1.6556762,98
19038,0.9322448,0.7373123,-0.29634094,0.32603762,-0.36745605,-1.5006226,98
19039,0.7442333,0.2500553,-0.7475128,0.32603762,-0.36745605,-1.5006226,98
19040,0.7442333,0.2500553,-0.7475128,0.22833252,-0.42799073,-1.3190186,98
19041,1.0211557,0.35700226,-0.85188293,0.22833252,-0.42799073,-1.3190186,98
19042,1.0211557,0.35700226,-0.85188293,0.53737795,-0.75721437,-1.264856,98
19043,1.4926937,1.2083073,-0.3343811,0.53737795,-0.75721437,-1.264856,98
19044,1.4926937,1.2083073,-0.3343811,0.52888185,-0.71579593,-1.1522827,98
19045,2.1277487,1.7312574,0.5610199,0.52888185,-0.71579593,-1.1522827,98
19046,2.1277487,1.7312574,0.5610199,0.5065796,-0.5522461,-1.1098022,98
19047,2.5866838,1.5406208,1.091507,0.5065796,-0.5522461,-1.1098022,98
19048,2.5866838,1.5406208,1.091507,0.30479738,-0.56392825,-1.0779419,98
19049,2.650365,1.1543837,0.96936035,0.30479738,-0.56392825,-1.0779419,98
19050,2.650365,1.1543837,0.96936035,-0.0998291,-0.50445557,-1.0768799,98
19051,2.4587197,1.06036,0.600235,-0.0998291,-0.50445557,-1.0768799,98
19052,2.4587197,1.06036,0.600235,-0.2824951,-0.4959595,-1.179895,98
19053,2.054305,0.77632713,0.43034363,-0.2824951,-0.4959595,-1.179895,98
19054,2.054305,0.77632713,0.43034363,-0.2442627,-0.32497558,-1.0471436,98
19055,1.3889523,-0.037592888,0.57666016,-0.2442627,-0.32497558,-1.0471436,98
19056,1.3889523,-0.037592888,0.57666016,0.22727051,-0.39400634,-0.9451904,98
19057,0.7179127,-0.47548485,0.69033813,0.22727051,-0.39400634,-0.9451904,98
19058,0.7179127,-0.47548485,0.69033813,0.24213867,-0.40250245,-0.87615967,98
19059,0.36345387,-0.039909363,0.47799683,0.24213867,-0.40250245,-0.87615967,98
19060,0.36345387,-0.039909363,0.47799683,0.095581055,-0.40250245,-0.8687256,98
19061,0.4293127,0.31395817,0.1882782,0.095581055,-0.40250245,-0.8687256,98
19062,0.4293127,0.31395817,0.1882782,0.08602295,-0.27399904,-0.76677245,98
19063,0.7348566,-0.050017357,0.20213318,0.08602295,-0.27399904,-0.76677245,98
19064,0.7348566,-0.050017357,0.20213318,0.23682861,-0.21983643,-0.67225343,98
19065,0.79436684,-0.19224739,-0.04309082,0.23682861,-0.21983643,-0.67225343,98
19066,0.79436684,-0.19224739,-0.04309082,0.15505372,-0.2442627,-0.62764895,98
19067,0.58567667,0.3426981,-0.7091522,0.15505372,-0.2442627,-0.62764895,98
19068,0.58567667,0.3426981,-0.7091522,0.10089111,-0.21027832,-0.6414551,98
19069,0.55401516,0.52398777,-0.9757385,0.10089111,-0.21027832,-0.6414551,98
19070,0.55401516,0.52398777,-0.9757385,0.19434814,-0.18797608,-0.53950197,98
19071,0.7228141,0.18365574,-0.6789093,0.19434814,-0.18797608,-0.53950197,98
19072,0.7228141,0.18365574,-0.6789093,0.3993164,-0.29948732,-0.50445557,98
19073,0.777946,0.1807375,-0.14175415,0.3993164,-0.29948732,-0.50445557,98
19074,0.777946,0.1807375,-0.14175415,0.43117675,-0.27718505,-0.49171144,98
19075,0.9229913,0.49516296,0.29840088,0.43117675,-0.27718505,-0.49171144,98
19076,0.9229913,0.49516296,0.29840088,0.2782471,-0.2166504,-0.4609131,98
19077,1.0863543,0.6521721,0.45336914,0.2782471,-0.2166504,-0.4609131,98
19078,1.0863543,0.6521721,0.45336914,0.22727051,-0.21027832,-0.37807617,98
19079,0.8649454,0.5714569,0.5122986,0.22727051,-0.21027832,-0.37807617,98
19080,0.8649454,0.5714569,0.5122986,0.2357666,-0.19647217,-0.35471192,98
19081,0.47928524,0.54221153,0.52944946,0.2357666,-0.19647217,-0.35471192,98
19082,0.47928524,0.54221153,0.52944946,0.31223145,-0.24851075,-0.38444826,98
19083,0.2435236,0.7244797,0.3588562,0.31223145,-0.24851075,-0.38444826,98
19084,0.2435236,0.7244797,0.3588562,0.15717773,-0.22408448,-0.39188233,98
19085,0.09063196,0.62763023,-0.10270691,0.15717773,-0.22408448,-0.39188233,98
19086,0.09063196,0.62763023,-0.10270691,0.04141846,-0.1996582,-0.2984253,98
19087,0.040584087,0.23284149,-0.4274292,0.04141846,-0.1996582,-0.2984253,98
19088,0.040584087,0.23284149,-0.4274292,0.31116945,-0.26550293,-0.31223145,98
19089,0.22649813,0.26688862,-0.30389404,0.31116945,-0.26550293,-0.31223145,98
19090,0.22649813,0.26688862,-0.30389404,0.32497558,-0.26444092,-0.3706421,98
19091,0.43843746,0.26410866,-0.27772522,0.32497558,-0.26444092,-0.3706421,98
19092,0.43843746,0.26410866,-0.27772522,0.1985962,-0.21134034,-0.26868898,98
19093,0.53283024,-0.24539089,-0.36799622,0.1985962,-0.21134034,-0.26868898,98
19094,0.53283024,-0.24539089,-0.36799622,0.4439209,-0.25913087,-0.19116211,98
19095,0.53853226,-0.23410606,-0.14500427,0.4439209,-0.25913087,-0.19116211,98
19096,0.53853226,-0.23410606,-0.14500427,0.67225343,-0.38869628,-0.23789063,98
19097,0.5568147,0.40835667,0.2585144,0.67225343,-0.38869628,-0.23789063,98
19098,0.5568147,0.40835667,0.2585144,0.4333008,-0.24638672,-0.23045655,98
19099,0.7136278,0.8089123,0.4922638,0.4333008,-0.24638672,-0.23045655,98
19100,0.7136278,0.8089123,0.4922638,0.39188233,-0.18585205,-0.1539917,98
19101,0.9541054,0.96922493,0.4055481,0.39188233,-0.18585205,-0.1539917,98
19102,0.9541054,0.96922493,0.4055481,0.53737795,-0.1529297,-0.0637207,98
19103,1.3672762,0.67152214,0.2411499,0.53737795,-0.1529297,-0.0637207,98
19104,1.3672762,0.67152214,0.2411499,0.63720703,-0.12000733,0.29311523,98
19105,1.3376684,0.5549669,-0.15203857,0.63720703,-0.12000733,0.29311523,98
19106,1.3376684,0.5549669,-0.15203857,0.5235718,-0.16461182,0.14018555,98
19107,0.5654106,0.64006805,-0.4593048,0.5235718,-0.16461182,0.14018555,98
19108,0.5654106,0.64006805,-0.4593048,0.49489745,-0.11044922,0.16992188,98
19109,0.1023283,-0.28370953,0.0790863,0.49489745,-0.11044922,0.16992188,98
19110,0.1023283,-0.28370953,0.0790863,0.8612915,-0.17523193,0.5171997,98
19111,-0.04440689,-0.7674093,0.81163025,0.8612915,-0.17523193,0.5171997,98
19112,-0.04440689,-0.7674093,0.81163025,0.9483765,-0.11151123,0.60216063,98
19113,-0.40292072,-0.27123928,0.6766205,0.9483765,-0.11151123,0.60216063,98
19114,-0.40292072,-0.27123928,0.6766205,0.76358646,0.41843262,0.7869507,98
19115,-0.8947859,-0.19273567,-0.22285461,0.76358646,0.41843262,0.7869507,98
19116,-0.8947859,-0.19273567,-0.22285461,1.893567,0.3993164,1.1597168,98
19117,-1.3897419,0.20544243,-0.39398193,1.893567,0.3993164,1.1597168,98
19118,-1.3897419,0.20544243,-0.39398193,4.100427,-0.5543701,1.2319336,98
19119,-1.690114,1.9380236,0.3390503,4.100427,-0.5543701,1.2319336,98
19120,-1.690114,1.9380236,0.3390503,4.528418,-0.92076415,1.1501588,98
19121,-1.690114,1.9380236,0.3390503,4.528418,-0.92076415,1.1501588,102
19122,-1.8545818,3.3030796,0.6572571,4.528418,-0.92076415,1.1501588,102
19123,-1.8545818,3.3030796,0.6572571,3.5025146,-0.6605713,1.2436157,102
19124,-1.3555651,3.5121174,0.87557983,3.5025146,-0.6605713,1.2436157,102
19125,-1.3555651,3.5121174,0.87557983,3.08302,-0.44710693,1.0524536,102
19126,0.37339687,3.9852924,2.1983185,3.08302,-0.44710693,1.0524536,102
19127,0.37339687,3.9852924,2.1983185,2.1728761,-0.09451904,0.58198243,102
19128,2.546752,4.692213,2.5368042,2.1728761,-0.09451904,0.58198243,102
19129,2.546752,4.692213,2.5368042,-0.053100586,0.87191164,0.38551027,102
19130,3.1244373,3.4818707,-0.4140625,-0.053100586,0.87191164,0.38551027,102
19131,3.1244373,3.4818707,-0.4140625,-1.2935303,1.1437867,0.3440918,102
19132,1.8220959,0.2553444,-3.7107544,-1.2935303,1.1437867,0.3440918,102
19133,1.8220959,0.2553444,-3.7107544,-0.44498292,0.8326172,0.57454836,102
19134,0.6768904,-1.1039524,-4.013382,-0.44498292,0.8326172,0.57454836,102
19135,0.6768904,-1.1039524,-4.013382,0.0722168,0.44710693,0.544812,102
19136,0.74228096,0.2700615,-2.1610718,0.0722168,0.44710693,0.544812,102
19137,0.74228096,0.2700615,-2.1610718,-1.0439576,0.7827026,0.3717041,102
19138,1.3036022,1.0885963,-0.72605896,-1.0439576,0.7827026,0.3717041,102
19139,1.3036022,1.0885963,-0.72605896,-1.6418701,0.96643066,0.41524658,102
19140,0.8234234,-0.06930733,-0.3574829,-1.6418701,0.96643066,0.41524658,102
19141,0.8234234,-0.06930733,-0.3574829,-1.3986695,0.8687256,0.6924316,102
19142,-0.212636,-1.4146614,0.7565155,-1.3986695,0.8687256,0.6924316,102
19143,-0.212636,-1.4146614,0.7565155,-1.2383057,0.85598147,0.65844727,102
19144,-1.0219889,-0.8729286,2.469696,-1.2383057,0.85598147,0.65844727,102
19145,-1.0219889,-0.8729286,2.469696,-1.8383423,1.2160034,0.3791382,102
19146,-2.597742,0.19598007,2.3343506,-1.8383423,1.2160034,0.3791382,102
19147,-2.597742,0.19598007,2.3343506,-2.1728761,1.2722901,0.18372802,102
19148,-3.9210525,-1.2444496,1.3875122,-2.1728761,1.2722901,0.18372802,102
19149,-3.9210525,-1.2444496,1.3875122,-1.5069946,1.0609497,0.23895264,102
19150,-3.4945445,-2.8056068,1.731781,-1.5069946,1.0609497,0.23895264,102
19151,-3.4945445,-2.8056068,1.731781,-1.2967163,0.904834,0.1359375,102
19152,-2.3167782,-2.5848427,1.804184,-1.2967163,0.904834,0.1359375,102
19153,-2.3167782,-2.5848427,1.804184,-2.0380006,1.3487549,0.0722168,102
19154,-1.396709,-2.7713652,0.70555115,-2.0380006,1.3487549,0.0722168,102
19155,-1.396709,-2.7713652,0.70555115,-1.5622193,1.1034302,0.21877442,102
19156,-0.79026747,-2.5359268,-0.115219116,-1.5622193,1.1034302,0.21877442,102
19157,-0.79026747,-2.5359268,-0.115219116,-1.539917,1.1023682,0.1178833,102
19158,-0.33043194,-1.7679749,-0.46098328,-1.539917,1.1023682,0.1178833,102
19159,-0.33043194,-1.7679749,-0.46098328,-2.170752,1.4369019,0.15080567,102
19160,-0.5703268,-1.8961306,-1.1759949,-2.170752,1.4369019,0.15080567,102
19161,-0.5703268,-1.8961306,-1.1759949,-2.061365,1.3062744,0.3993164,102
19162,-1.2617178,-2.141697,-1.8216858,-2.061365,1.3062744,0.3993164,102
19163,-1.2617178,-2.141697,-1.8216858,-1.6450561,0.90695804,0.48427734,102
19164,-1.5332632,-1.7033596,-1.7267303,-1.6450561,0.90695804,0.48427734,102
19165,-1.5332632,-1.7033596,-1.7267303,-2.2450929,0.94412845,0.630835,102
19166,-1.555944,-2.0898485,-1.372406,-2.2450929,0.94412845,0.630835,102
19167,-1.555944,-2.0898485,-1.372406,-2.9184082,1.1448487,0.8326172,102
19168,-2.3411665,-2.2861614,-1.5055695,-2.9184082,1.1448487,0.8326172,102
19169,-2.3411665,-2.2861614,-1.5055695,-2.4957275,0.47578126,0.724292,102
19170,-3.6618738,-1.8454208,-1.6475525,-2.4957275,0.47578126,0.724292,102
19171,-3.6618738,-1.8454208,-1.6475525,-2.5127199,0.64782715,1.0588257,102
19172,-3.607978,-2.375373,-0.92092896,-2.5127199,0.64782715,1.0588257,102
19173,-3.607978,-2.375373,-0.92092896,-2.0581787,0.49064943,0.9324463,102
19174,-2.348736,-3.111187,-0.26153564,-2.0581787,0.49064943,0.9324463,102
19175,-2.348736,-3.111187,-0.26153564,-2.613611,0.5734863,1.3253907,102
19176,-0.56871057,-4.125705,-0.50064087,-2.613611,0.5734863,1.3253907,102
19177,-0.56871057,-4.125705,-0.50064087,-2.6667116,0.6287109,1.6578003,102
19178,1.7200072,-4.763296,-0.99038696,-2.6667116,0.6287109,1.6578003,102
19179,1.7200072,-4.763296,-0.99038696,-1.4082276,0.26868898,2.2450929,102
19180,3.3109667,-4.295549,-1.131546,-1.4082276,0.26868898,2.2450929,102
19181,3.3109667,-4.295549,-1.131546,-0.814563,0.14018555,2.807959,102
19182,2.9293032,-2.7845836,-0.65371704,-0.814563,0.14018555,2.807959,102
19183,2.9293032,-2.7845836,-0.65371704,-0.16673584,-0.24320069,3.1711671,102
19184,1.317002,0.2899847,0.42826843,-0.16673584,-0.24320069,3.1711671,102
19185,1.317002,0.2899847,0.42826843,-0.1274414,-0.25913087,3.0394776,102
19186,-0.42759943,3.98388,1.5999603,-0.1274414,-0.25913087,3.0394776,102
19187,-0.42759943,3.98388,1.5999603,-0.74871826,-0.04460449,2.6868896,102
19188,-2.4983785,6.797077,1.9719238,-0.74871826,-0.04460449,2.6868896,102
19189,-2.4983785,6.797077,1.9719238,-1.2786621,0.17735596,1.803296,102
19190,-4.4747405,8.100784,1.5016327,-1.2786621,0.17735596,1.803296,102
19191,-4.4747405,8.100784,1.5016327,-1.803296,0.44710693,0.72960204,102
19192,-5.87469,7.3763676,0.48532104,-1.803296,0.44710693,0.72960204,102
19193,-5.87469,7.3763676,0.48532104,-2.6996338,0.32072756,0.1731079,102
19194,-6.2882895,3.9168777,-0.9983673,-2.6996338,0.32072756,0.1731079,102
19195,-6.2882895,3.9168777,-0.9983673,-4.8693237,0.7720825,-0.03186035,102
19196,-5.382182,-1.5265932,-2.6049347,-4.8693237,0.7720825,-0.03186035,102
19197,-5.382182,-1.5265932,-2.6049347,-4.331946,1.2468017,-0.8506714,102
19198,-4.27806,-6.0520115,-3.962494,-4.331946,1.2468017,-0.8506714,102
19199,-4.27806,-6.0520115,-3.962494,-0.3791382,1.3689331,-1.6747925,102
19200,-3.8882685,-7.212263,-4.597702,-0.3791382,1.3689331,-1.6747925,102
19201,-3.8882685,-7.212263,-4.597702,2.6380372,0.78376466,-1.9190552,102
19202,-3.611384,-5.4233265,-4.689789,2.6380372,0.78376466,-1.9190552,102
19203,-3.611384,-5.4233265,-4.689789,3.720227,0.29523927,-1.8224121,102
19204,-3.0843706,-3.6644182,-4.495804,3.720227,0.29523927,-1.8224121,102
19205,-3.0843706,-3.6644182,-4.495804,4.321326,-0.14549561,-1.718335,102
19206,-2.4531412,-3.437211,-3.6390686,4.321326,-0.14549561,-1.718335,102
19207,-2.4531412,-3.437211,-3.6390686,5.248462,-0.5883545,-1.5101807,102
19208,-1.4302502,-3.3161993,-1.8878326,5.248462,-0.5883545,-1.5101807,102
19209,-1.4302502,-3.3161993,-1.8878326,5.4109497,-0.8814697,-0.9897949,102
19210,-0.118003845,-1.5431085,0.14152527,5.4109497,-0.8814697,-0.9897949,102
19211,-0.118003845,-1.5431085,0.14152527,3.896521,-0.89102787,-0.081774905,102
19212,1.0247374,0.58777857,1.6750946,3.896521,-0.89102787,-0.081774905,102
19213,1.0247374,0.58777857,1.6750946,2.1484497,-0.45454103,0.80394286,102
19214,1.2583642,1.0900345,2.5862122,2.1484497,-0.45454103,0.80394286,102
19215,1.2583642,1.0900345,2.5862122,1.2244996,-0.16142578,1.4846925,102
19216,0.29521656,0.7569885,3.2699585,1.2244996,-0.16142578,1.4846925,102
19217,0.29521656,0.7569885,3.2699585,1.1660889,-0.54906005,1.8298463,102
19218,-0.58570194,0.9290037,3.6155243,1.1660889,-0.54906005,1.8298463,102
19219,-0.58570194,0.9290037,3.6155243,1.2106934,-0.7742066,2.337488,102
19220,-0.15515804,1.3279929,3.4302216,1.2106934,-0.7742066,2.337488,102
19221,-0.15515804,1.3279929,3.4302216,1.3445069,-0.7965088,2.6943238,102
19222,-0.15515804,1.3279929,3.4302216,1.3445069,-0.7965088,2.6943238,101
19223,1.0857248,1.3740883,2.8894043,1.3445069,-0.7965088,2.6943238,101
19224,1.0857248,1.3740883,2.8894043,1.6535523,-0.9388184,3.0352294,101
19225,2.1659307,1.5803499,2.2563934,1.6535523,-0.9388184,3.0352294,101
19226,2.1659307,1.5803499,2.2563934,2.1463258,-1.3137085,3.3325927,101
19227,2.9536676,2.3449802,1.8808899,2.1463258,-1.3137085,3.3325927,101
19228,2.9536676,2.3449802,1.8808899,2.2546508,-1.4889405,3.435608,101
19229,3.5854073,3.4273024,1.9751434,2.2546508,-1.4889405,3.435608,101
19230,3.5854073,3.4273024,1.9751434,2.0114503,-1.2255615,3.2954223,101
19231,3.905289,5.1131306,2.370575,2.0114503,-1.2255615,3.2954223,101
19232,3.905289,5.1131306,2.370575,2.1930542,-1.5855836,2.6518433,101
19233,3.8404543,7.084486,2.555725,2.1930542,-1.5855836,2.6518433,101
19234,3.8404543,7.084486,2.555725,1.3498169,-0.82730716,2.253589,101
19235,3.5161014,7.136217,2.3501892,1.3498169,-0.82730716,2.253589,101
19236,3.5161014,7.136217,2.3501892,1.0375855,-0.65632325,1.9392334,101
19237,3.0532863,4.868972,2.0997772,1.0375855,-0.65632325,1.9392334,101
19238,3.0532863,4.868972,2.0997772,0.78376466,-0.3069214,1.6822265,101
19239,2.0390768,2.33313,1.7043304,0.78376466,-0.3069214,1.6822265,101
19240,2.0390768,2.33313,1.7043304,0.6042847,-0.04991455,1.7640015,101
19241,0.62156904,0.84841347,0.8463135,0.6042847,-0.04991455,1.7640015,101
19242,0.62156904,0.84841347,0.8463135,0.41737062,0.026550293,1.725769,101
19243,-0.072410285,0.66869736,-0.015655518,0.41737062,0.026550293,1.725769,101
19244,-0.072410285,0.66869736,-0.015655518,0.16992188,0.06690674,1.7703736,101
19245,-0.24675882,1.5079556,-0.68855286,0.16992188,0.06690674,1.7703736,101
19246,-0.24675882,1.5079556,-0.68855286,-0.1720459,0.058410645,1.6662964,101
19247,-0.7000316,2.6293144,-1.3120728,-0.1720459,0.058410645,1.6662964,101
19248,-0.7000316,2.6293144,-1.3120728,-0.84111327,0.13806152,1.4910644,101
19249,-1.387247,2.5659275,-1.494873,-0.84111327,0.13806152,1.4910644,101
19250,-1.387247,2.5659275,-1.494873,-1.9721558,0.29099122,1.4889405,101
19251,-1.8455276,0.26984406,-0.9180145,-1.9721558,0.29099122,1.4889405,101
19252,-1.8455276,0.26984406,-0.9180145,-2.4893556,0.634021,1.3413209,101
19253,-2.0913148,-3.5007744,0.29336548,-2.4893556,0.634021,1.3413209,101
19254,-2.0913148,-3.5007744,0.29336548,-1.3869873,0.6754395,1.8383423,101
19255,-2.3290942,-5.282444,1.5138855,-1.3869873,0.6754395,1.8383423,101
19256,-2.3290942,-5.282444,1.5138855,-0.2442627,0.29205322,2.0167603,101
19257,-2.1965394,-3.322074,1.5382538,-0.2442627,0.29205322,2.0167603,101
19258,-2.1965394,-3.322074,1.5382538,-0.19541016,0.41418457,2.3651001,101
19259,-1.5210378,-0.17312527,0.213974,-0.19541016,0.41418457,2.3651001,101
19260,-1.5210378,-0.17312527,0.213974,-0.124255374,0.32178956,2.4797974,101
19261,-0.30270672,1.6214123,-1.1324463,-0.124255374,0.32178956,2.4797974,101
19262,-0.30270672,1.6214123,-1.1324463,0.24107666,0.10195313,2.5105958,101
19263,1.3430519,1.7911854,-1.201355,0.24107666,0.10195313,2.5105958,101
19264,1.3430519,1.7911854,-1.201355,0.49064943,-0.004248047,2.707068,101
19265,2.6811922,2.3578625,-0.19250488,0.49064943,-0.004248047,2.707068,101
19266,2.6811922,2.3578625,-0.19250488,0.6637573,-0.24001466,2.622107,101
19267,2.893904,4.039585,0.559433,0.6637573,-0.24001466,2.622107,101
19268,2.893904,4.039585,0.559433,-0.3706421,0.08283692,2.529712,101
19269,2.0737414,4.2499657,0.6752014,-0.3706421,0.08283692,2.529712,101
19270,2.0737414,4.2499657,0.6752014,-1.075818,0.25806886,2.531836,101
19271,1.2445523,1.8240204,0.40750122,-1.075818,0.25806886,2.531836,101
19272,1.2445523,1.8240204,0.40750122,-0.991919,-0.045666505,2.889734,101
19273,0.5013059,-0.40264893,-0.29441833,-0.991919,-0.045666505,2.889734,101
19274,0.5013059,-0.40264893,-0.29441833,-0.57454836,-0.5543701,3.155237,101
19275,-1.144573,-0.43574142,-0.3475647,-0.57454836,-0.5543701,3.155237,101
19276,-1.144573,-0.43574142,-0.3475647,-0.52250975,-0.75296634,3.169043,101
19277,-2.6684783,0.40930557,0.40652466,-0.52250975,-0.75296634,3.169043,101
19278,-2.6684783,0.40930557,0.40652466,-0.67331547,-0.84748536,3.0097413,101
19279,-2.6949024,0.07800484,0.68492126,-0.67331547,-0.84748536,3.0097413,101
19280,-2.6949024,0.07800484,0.68492126,-0.815625,-0.8973999,3.0585938,101
19281,-1.4747453,-0.9772091,0.5575714,-0.815625,-0.8973999,3.0585938,101
19282,-1.4747453,-0.9772091,0.5575714,-0.33878174,-1.3784913,2.716626,101
19283,0.50367546,-1.2741127,0.35766602,-0.33878174,-1.3784913,2.716626,101
19284,0.50367546,-1.2741127,0.35766602,-0.2793091,-1.6418701,2.5116577,101
19285,1.7825179,-1.1668243,-0.04248047,-0.2793091,-1.6418701,2.5116577,101
19286,1.7825179,-1.1668243,-0.04248047,-0.29099122,-1.7300171,2.5488281,101
19287,1.2502575,-1.2275753,-0.4439087,-0.29099122,-1.7300171,2.5488281,101
19288,1.2502575,-1.2275753,-0.4439087,-0.22514649,-1.8585205,2.5074098,101
19289,0.25785983,-1.2896767,-0.39346313,-0.22514649,-1.8585205,2.5074098,101
19290,0.25785983,-1.2896767,-0.39346313,0.023364259,-1.7470093,2.2185426,101
19291,0.7064465,-1.0223427,-0.29400635,0.023364259,-1.7470093,2.2185426,101
19292,0.7064465,-1.0223427,-0.29400635,-0.05628662,-1.5622193,1.9371094,101
19293,2.2816,-0.6417637,-0.83932495,-0.05628662,-1.5622193,1.9371094,101
19294,2.2816,-0.6417637,-0.83932495,0.36108398,-1.4326538,1.9041871,101
19295,3.2395134,0.030462265,-1.3427887,0.36108398,-1.4326538,1.9041871,101
19296,3.2395134,0.030462265,-1.3427887,0.74871826,-1.5229248,1.8691406,101
19297,2.8245575,1.0130177,-1.1374054,0.74871826,-1.5229248,1.8691406,101
19298,2.8245575,1.0130177,-1.1374054,0.85491943,-1.447522,1.7268311,101
19299,1.9941554,1.3618908,-0.5305786,0.85491943,-1.447522,1.7268311,101
19300,1.9941554,1.3618908,-0.5305786,0.61915284,-1.1990112,1.6376221,101
19301,1.6833127,0.881443,0.035217285,0.61915284,-1.1990112,1.6376221,101
19302,1.6833127,0.881443,0.035217285,0.68499756,-1.0715698,1.5707153,101
19303,1.6830516,0.73763657,0.448349,0.68499756,-1.0715698,1.5707153,101
19304,1.6830516,0.73763657,0.448349,0.95368654,-1.1002442,1.4825684,101
19305,1.6661069,1.394907,0.6755066,0.95368654,-1.1002442,1.4825684,101
19306,1.6661069,1.394907,0.6755066,0.39506838,-0.9133301,1.3710572,101
19307,1.6920164,1.6075516,0.2974701,0.39506838,-0.9133301,1.3710572,101
19308,1.6920164,1.6075516,0.2974701,-0.010620117,-0.91120607,1.2436157,101
19309,1.7332397,0.8406067,-0.3399353,-0.010620117,-0.91120607,1.2436157,101
19310,1.7332397,0.8406067,-0.3399353,0.21558838,-0.8527954,1.2234375,101
19311,1.7079663,0.1786995,-0.106781006,0.21558838,-0.8527954,1.2234375,101
19312,1.7079663,0.1786995,-0.106781006,0.6956177,-0.97280276,1.171399,101
19313,1.7109165,0.25404358,0.69584656,0.6956177,-0.97280276,1.171399,101
19314,1.7109165,0.25404358,0.69584656,0.38975832,-0.78164065,0.991919,101
19315,1.6554642,0.33205605,0.75650024,0.38975832,-0.78164065,0.991919,101
19316,1.6554642,0.33205605,0.75650024,0.26868898,-0.6818115,1.0046631,101
19317,0.992218,0.35287666,0.2903595,0.26868898,-0.6818115,1.0046631,101
19318,0.992218,0.35287666,0.2903595,0.38657227,-0.7848267,0.8496094,101
19319,0.6664915,0.08132553,0.13108826,0.38657227,-0.7848267,0.8496094,101
19320,0.6664915,0.08132553,0.13108826,0.4248047,-0.45454103,0.8963379,101
19321,0.84507084,-0.16335678,0.034500122,0.4248047,-0.45454103,0.8963379,101
19322,0.84507084,-0.16335678,0.034500122,0.6244629,-0.45454103,0.83898926,101
19323,1.3602123,-0.70916367,-0.31921387,0.6244629,-0.45454103,0.83898926,101
19324,1.3602123,-0.70916367,-0.31921387,0.6244629,-0.45454103,0.83898926,106
19325,1.3602123,-0.70916367,-0.31921387,0.9866089,-0.21877442,0.77314454,106
19326,1.1467028,-0.15050888,-0.57225037,0.9866089,-0.21877442,0.77314454,106
19327,1.1467028,-0.15050888,-0.57225037,0.8315552,-0.45772704,0.6701294,106
19328,0.5730872,1.6140404,-1.2281799,0.8315552,-0.45772704,0.6701294,106
19329,0.5730872,1.6140404,-1.2281799,0.60322267,-0.31010744,0.814563,106
19330,0.73503256,1.4555874,-0.98480225,0.60322267,-0.31010744,0.814563,106
19331,0.73503256,1.4555874,-0.98480225,0.7858887,-0.38338622,0.7519043,106
19332,1.3070812,1.5084877,0.05140686,0.7858887,-0.38338622,0.7519043,106
19333,1.3070812,1.5084877,0.05140686,0.2793091,-0.2516968,0.8209351,106
19334,1.2312365,1.2345257,0.042816162,0.2793091,-0.2516968,0.8209351,106
19335,1.2312365,1.2345257,0.042816162,0.13806152,-0.20178223,0.8878418,106
19336,1.0678749,0.4942608,-0.823822,0.13806152,-0.20178223,0.8878418,106
19337,1.0678749,0.4942608,-0.823822,0.41206056,-0.33240968,0.9420044,106
19338,0.8674469,0.23326302,-0.8594055,0.41206056,-0.33240968,0.9420044,106
19339,0.8674469,0.23326302,-0.8594055,0.44498292,-0.36745605,0.9483765,106
19340,0.28259277,0.07137489,0.003585815,0.44498292,-0.36745605,0.9483765,106
19341,0.28259277,0.07137489,0.003585815,0.3079834,-0.24957275,0.86766356,106
19342,0.28310537,-0.10150528,0.24787903,0.3079834,-0.24957275,0.86766356,106
19343,0.28310537,-0.10150528,0.24787903,0.13062744,-0.15186767,0.8230591,106
19344,0.48209953,-0.8806782,-0.025756836,0.13062744,-0.15186767,0.8230591,106
19345,0.48209953,-0.8806782,-0.025756836,0.62340087,-0.28355715,0.63720703,106
19346,0.43851185,-0.67020416,-0.09086609,0.62340087,-0.28355715,0.63720703,106
19347,0.43851185,-0.67020416,-0.09086609,0.7327881,-0.3525879,0.5777344,106
19348,0.38060665,0.48353958,0.763031,0.7327881,-0.3525879,0.5777344,106
19349,0.38060665,0.48353958,0.763031,0.2442627,-0.41206056,0.35895997,106
19350,0.6037407,0.5849533,0.6893463,0.2442627,-0.41206056,0.35895997,106
19351,0.6037407,0.5849533,0.6893463,0.18903808,-0.51932377,0.24107666,106
19352,0.9893646,0.32604408,0.6008301,0.18903808,-0.51932377,0.24107666,106
19353,0.9893646,0.32604408,0.6008301,0.3791382,-0.75296634,0.09770508,106
19354,0.7171879,0.3280239,0.5949707,0.3791382,-0.75296634,0.09770508,106
19355,0.7171879,0.3280239,0.5949707,0.33665773,-0.8591675,0.21452637,106
19356,-0.012992859,0.92510223,0.40686035,0.33665773,-0.8591675,0.21452637,106
19357,-0.012992859,0.92510223,0.40686035,0.027612304,-0.6818115,0.40250245,106
19358,0.031280518,1.3049984,-0.76109314,0.027612304,-0.6818115,0.40250245,106
19359,0.031280518,1.3049984,-0.76109314,-0.115759276,-0.62977296,0.69136965,106
19360,1.4630489,0.7573166,-2.0861053,-0.115759276,-0.62977296,0.69136965,106
19361,1.4630489,0.7573166,-2.0861053,0.26337892,-0.66269535,0.5012695,106
19362,2.1357098,0.4708805,-2.285736,0.26337892,-0.66269535,0.5012695,106
19363,2.1357098,0.4708805,-2.285736,0.19647217,-0.69986576,0.4248047,106
19364,1.2489243,0.58815575,-1.4148712,0.19647217,-0.69986576,0.4248047,106
19365,1.2489243,0.58815575,-1.4148712,-0.15823975,-0.7062378,0.38338622,106
19366,0.22444439,0.3635788,-0.4792328,-0.15823975,-0.7062378,0.38338622,106
19367,0.22444439,0.3635788,-0.4792328,-0.58410645,-0.6488892,0.32709962,106
19368,0.12260914,-0.7085743,-0.043045044,-0.58410645,-0.6488892,0.32709962,106
19369,0.12260914,-0.7085743,-0.043045044,-0.3440918,-0.63614506,0.33771974,106
19370,0.43617344,-0.81650543,-0.122406006,-0.3440918,-0.63614506,0.33771974,106
19371,0.43617344,-0.81650543,-0.122406006,-0.28674316,-0.6903076,0.2814331,106
19372,1.4310799,-0.098968506,-0.49510193,-0.28674316,-0.6903076,0.2814331,106
19373,1.4310799,-0.098968506,-0.49510193,-0.3069214,-0.631897,0.23682861,106
19374,1.4861727,0.17895508,-0.4519043,-0.3069214,-0.631897,0.23682861,106
19375,1.4861727,0.17895508,-0.4519043,-0.29736328,-0.6117188,0.24107666,106
19376,1.3342628,0.33081055,-0.28678894,-0.29736328,-0.6117188,0.24107666,106
19377,1.3342628,0.33081055,-0.28678894,-0.2814331,-0.5936646,0.21346436,106
19378,0.61844826,-0.12150955,-0.035507202,-0.2814331,-0.5936646,0.21346436,106
19379,0.61844826,-0.12150955,-0.035507202,-0.15823975,-0.6064087,0.33134767,106
19380,-0.07537079,-0.55691147,0.39448547,-0.15823975,-0.6064087,0.33134767,106
19381,-0.07537079,-0.55691147,0.39448547,0.023364259,-0.630835,0.45454103,106
19382,-0.23007202,-0.45271873,0.5905762,0.023364259,-0.630835,0.45454103,106
19383,-0.23007202,-0.45271873,0.5905762,-0.03717041,-0.6202149,0.5065796,106
19384,0.27750206,0.016475677,-0.519104,-0.03717041,-0.6202149,0.5065796,106
19385,0.27750206,0.016475677,-0.519104,-0.2888672,-0.7338501,0.50233155,106
19386,0.5077925,-0.056741714,-0.94470215,-0.2888672,-0.7338501,0.50233155,106
19387,0.5077925,-0.056741714,-0.94470215,-0.1731079,-0.74659425,0.5033936,106
19388,0.87773037,-0.5186367,-1.2147522,-0.1731079,-0.74659425,0.5033936,106
19389,0.87773037,-0.5186367,-1.2147522,0.53950197,-0.8400513,0.50870365,106
19390,1.1157827,-0.934782,-0.36862183,0.53950197,-0.8400513,0.50870365,106
19391,1.1157827,-0.934782,-0.36862183,0.93350834,-0.9494385,0.51826173,106
19392,1.0728264,-0.37999153,0.6241913,0.93350834,-0.9494385,0.51826173,106
19393,1.0728264,-0.37999153,0.6241913,-0.38869628,-1.0418335,0.52675784,106
19394,0.8602629,-0.03686714,1.009201,-0.38869628,-1.0418335,0.52675784,106
19395,0.8602629,-0.03686714,1.009201,-1.7629395,-0.47578126,0.65419924,106
19396,0.52286625,-1.195303,0.7370758,-1.7629395,-0.47578126,0.65419924,106
19397,0.52286625,-1.195303,0.7370758,-1.2765381,-0.542688,0.540564,106
19398,0.31697464,-2.2637997,0.16522217,-1.2765381,-0.542688,0.540564,106
19399,0.31697464,-2.2637997,0.16522217,-0.53950197,-0.7126099,0.5171997,106
19400,0.69739056,-1.696392,-0.468338,-0.53950197,-0.7126099,0.5171997,106
19401,0.69739056,-1.696392,-0.468338,-0.24001466,-0.6786255,0.44498292,106
19402,1.2676296,-0.34332085,-1.1525574,-0.24001466,-0.6786255,0.44498292,106
19403,1.2676296,-0.34332085,-1.1525574,-0.1263794,-0.6903076,0.41312256,106
19404,1.2568283,0.56518745,-1.594574,-0.1263794,-0.6903076,0.41312256,106
19405,1.2568283,0.56518745,-1.594574,-0.26337892,-0.62340087,0.35046387,106
19406,0.64194965,0.74690056,-1.5794983,-0.26337892,-0.62340087,0.35046387,106
19407,0.64194965,0.74690056,-1.5794983,-0.15717773,-0.634021,0.28355715,106
19408,0.19589615,0.49528694,-1.5121918,-0.15717773,-0.634021,0.28355715,106
19409,0.19589615,0.49528694,-1.5121918,-0.11682129,-0.57561034,0.22196046,106
19410,0.13226604,0.3036766,-1.4592743,-0.11682129,-0.57561034,0.22196046,106
19411,0.13226604,0.3036766,-1.4592743,-0.1083252,-0.73597413,0.17523193,106
19412,0.060207367,1.0336876,-1.2272949,-0.1083252,-0.73597413,0.17523193,106
19413,0.060207367,1.0336876,-1.2272949,-0.5649902,-0.92501223,-0.11682129,106
19414,-0.11186886,1.5541458,-1.1305542,-0.5649902,-0.92501223,-0.11682129,106
19415,-0.11186886,1.5541458,-1.1305542,-0.4715332,-0.79226077,-0.36533204,106
19416,-0.32731247,-0.17700958,-0.5854492,-0.4715332,-0.79226077,-0.36533204,106
19417,-0.32731247,-0.17700958,-0.5854492,-0.06159668,-0.9526245,-0.28461915,106
19418,-0.082980156,-2.4936352,0.5402527,-0.06159668,-0.9526245,-0.28461915,106
19419,-0.082980156,-2.4936352,0.5402527,-0.36002198,-0.8666016,-0.24107666,106
19420,0.9488869,-3.3273544,0.6742096,-0.36002198,-0.8666016,-0.24107666,106
19421,0.9488869,-3.3273544,0.6742096,-0.22833252,-0.63614506,-0.21877442,106
19422,1.6367702,-3.2445488,0.26078796,-0.22833252,-0.63614506,-0.21877442,106
19423,1.6367702,-3.2445488,0.26078796,0.2516968,-0.70198977,-0.012744141,106
19424,1.7662392,-1.8775978,0.21708679,0.2516968,-0.70198977,-0.012744141,106
19425,1.7662392,-1.8775978,0.21708679,0.24851075,-0.70305175,-0.10938721,106
19426,2.1196442,0.4501686,0.016784668,0.24851075,-0.70305175,-0.10938721,106
19427,2.1196442,0.4501686,0.016784668,-0.30267334,-0.42268068,-0.08071289,106
19428,2.1180182,1.6555443,-0.31959534,-0.30267334,-0.42268068,-0.08071289,106
19429,2.1180182,1.6555443,-0.31959534,-0.7349121,-0.2814331,-0.07327881,106
19430,1.2973938,1.0606289,-0.4449463,-0.7349121,-0.2814331,-0.07327881,106
19431,1.2973938,1.0606289,-0.4449463,-0.62764895,-0.22302246,0.047790527,106
19432,0.4585209,-0.4413662,-0.44354248,-0.62764895,-0.22302246,0.047790527,106
19433,0.4585209,-0.4413662,-0.44354248,-0.5065796,-0.24532472,0.29311523,106
19434,0.37023544,-1.3153744,-0.3680725,-0.5065796,-0.24532472,0.29311523,106
19435,0.37023544,-1.3153744,-0.3680725,-0.3451538,-0.23151855,0.53950197,106
19436,0.7315035,-0.99040985,-0.31721497,-0.3451538,-0.23151855,0.53950197,106
19437,0.7315035,-0.99040985,-0.31721497,-0.4694092,-0.18160401,0.65207523,106
19438,0.6507788,-0.20505905,-0.69851685,-0.4694092,-0.18160401,0.65207523,106
19439,0.6507788,-0.20505905,-0.69851685,-0.9855469,-0.13381349,0.6467652,106
19440,0.6507788,-0.20505905,-0.69851685,-0.9855469,-0.13381349,0.6467652,114
19441,-0.2675848,-0.105062485,-1.4132996,-0.9855469,-0.13381349,0.6467652,114
19442,-0.2675848,-0.105062485,-1.4132996,-1.0375855,-0.095581055,0.43754885,114
19443,-1.293951,-1.138298,-1.6956482,-1.0375855,-0.095581055,0.43754885,114
19444,-1.293951,-1.138298,-1.6956482,-0.811377,-0.15930176,0.39506838,114
19445,-1.3372965,-2.3173409,-1.2261505,-0.811377,-0.15930176,0.39506838,114
19446,-1.3372965,-2.3173409,-1.2261505,-0.3355957,-0.25913087,0.36320803,114
19447,-0.41038895,-2.2509193,-0.53292847,-0.3355957,-0.25913087,0.36320803,114
19448,-0.41038895,-2.2509193,-0.53292847,-0.081774905,-0.26125488,0.3525879,114
19449,0.38501835,-0.9859657,-0.21003723,-0.081774905,-0.26125488,0.3525879,114
19450,0.38501835,-0.9859657,-0.21003723,-0.24744873,-0.121069334,0.20390625,114
19451,0.46813488,0.35821152,-0.24177551,-0.24744873,-0.121069334,0.20390625,114
19452,0.46813488,0.35821152,-0.24177551,-0.32285157,0.003186035,0.10513916,114
19453,0.23338223,0.5763645,-0.34953308,-0.32285157,0.003186035,0.10513916,114
19454,0.23338223,0.5763645,-0.34953308,-0.32816163,0.007434082,0.16567384,114
19455,0.08945274,0.003694534,-0.36257935,-0.32816163,0.007434082,0.16567384,114
19456,0.08945274,0.003694534,-0.36257935,-0.11151123,-0.06478272,0.11682129,114
19457,-0.023139954,-0.36530495,-0.16389465,-0.11151123,-0.06478272,0.11682129,114
19458,-0.023139954,-0.36530495,-0.16389465,-0.08814698,-0.015930176,0.14655761,114
19459,-0.206707,-0.5580025,0.020309448,-0.08814698,-0.015930176,0.14655761,114
19460,-0.206707,-0.5580025,0.020309448,-0.015930176,-0.038232423,0.18903808,114
19461,-0.3396454,-0.5951576,-0.020141602,-0.015930176,-0.038232423,0.18903808,114
19462,-0.3396454,-0.5951576,-0.020141602,0.098767094,-0.078588866,0.17629395,114
19463,-0.37364483,-0.40863323,-0.15966797,0.098767094,-0.078588866,0.17629395,114
19464,-0.37364483,-0.40863323,-0.15966797,0.17523193,-0.10089111,0.14124756,114
19465,-0.1751728,-0.36449242,-0.4241333,0.17523193,-0.10089111,0.14124756,114
19466,-0.1751728,-0.36449242,-0.4241333,0.22514649,-0.1709839,0.16992188,114
19467,0.33127308,-0.7283373,-0.50434875,0.22514649,-0.1709839,0.16992188,114
19468,0.33127308,-0.7283373,-0.50434875,0.26550293,-0.22514649,0.24851075,114
19469,0.72245216,-0.93011856,-0.13815308,0.26550293,-0.22514649,0.24851075,114
19470,0.72245216,-0.93011856,-0.13815308,0.15186767,-0.21346436,0.24957275,114
19471,0.6640339,-0.7120266,0.09616089,0.15186767,-0.21346436,0.24957275,114
19472,0.6640339,-0.7120266,0.09616089,-0.21452637,-0.13168946,0.2814331,114
19473,0.4492445,-0.66400623,-0.25474548,-0.21452637,-0.13168946,0.2814331,114
19474,0.4492445,-0.66400623,-0.25474548,-0.67225343,-0.1529297,0.4056885,114
19475,0.35938263,-1.1903362,-0.37358093,-0.67225343,-0.1529297,0.4056885,114
19476,0.35938263,-1.1903362,-0.37358093,-0.80606693,-0.10089111,0.5734863,114
19477,0.18826294,-1.1846294,0.5002899,-0.80606693,-0.10089111,0.5734863,114
19478,0.18826294,-1.1846294,0.5002899,-0.69349366,-0.08496094,0.3717041,114
19479,0.0413332,-0.049045563,1.1695099,-0.69349366,-0.08496094,0.3717041,114
19480,0.0413332,-0.049045563,1.1695099,-0.96643066,-0.023364259,0.28355715,114
19481,-0.012014389,1.0301847,0.4337921,-0.96643066,-0.023364259,0.28355715,114
19482,-0.012014389,1.0301847,0.4337921,-0.97280276,0.019116212,0.21452637,114
19483,-0.33897018,1.0718412,-0.529068,-0.97280276,0.019116212,0.21452637,114
19484,-0.33897018,1.0718412,-0.529068,-0.50020754,0.087084964,0.18479005,114
19485,-0.738595,0.24792671,-0.42492676,-0.50020754,0.087084964,0.18479005,114
19486,-0.738595,0.24792671,-0.42492676,-0.2824951,0.09451904,0.13062744,114
19487,-0.6845894,-0.85035324,0.21272278,-0.2824951,0.09451904,0.13062744,114
19488,-0.6845894,-0.85035324,0.21272278,0.012744141,0.1985962,0.26019287,114
19489,-0.2518463,-1.7062712,0.37893677,0.012744141,0.1985962,0.26019287,114
19490,-0.2518463,-1.7062712,0.37893677,0.5256958,0.26762697,0.31116945,114
19491,0.23715878,-1.7244167,-0.015960693,0.5256958,0.26762697,0.31116945,114
19492,0.23715878,-1.7244167,-0.015960693,0.8379273,0.40356445,0.32178956,114
19493,0.67810535,-1.0302906,-0.19511414,0.8379273,0.40356445,0.32178956,114
19494,0.67810535,-1.0302906,-0.19511414,0.97492677,0.66481936,0.38657227,114
19495,0.48536777,0.44941235,-0.3748169,0.97492677,0.66481936,0.38657227,114
19496,0.48536777,0.44941235,-0.3748169,0.7604004,0.63826907,0.17416993,114
19497,-0.7581043,2.4000816,-1.3938446,0.7604004,0.63826907,0.17416993,114
19498,-0.7581043,2.4000816,-1.3938446,0.724292,0.6977417,-0.2442627,114
19499,-2.6186543,3.1412086,-2.6957092,0.724292,0.6977417,-0.2442627,114
19500,-2.6186543,3.1412086,-2.6957092,0.68499756,0.33240968,-0.5065796,114
19501,-3.850648,1.1674833,-2.4454803,0.68499756,0.33240968,-0.5065796,114
19502,-3.850648,1.1674833,-2.4454803,1.1257324,0.19434814,-0.57242435,114
19503,-3.1864014,-1.4613256,-0.22503662,1.1257324,0.19434814,-0.57242435,114
19504,-3.1864014,-1.4613256,-0.22503662,1.358313,-0.56817627,-0.54693604,114
19505,-0.8399172,-0.7680359,1.5562439,1.358313,-0.56817627,-0.54693604,114
19506,-0.8399172,-0.7680359,1.5562439,0.64782715,-0.40356445,-0.9366943,114
19507,1.35812,1.3436766,1.4432068,0.64782715,-0.40356445,-0.9366943,114
19508,1.35812,1.3436766,1.4432068,0.44073486,-0.2538208,-0.7391602,114
19509,2.131259,1.5955353,0.9951935,0.44073486,-0.2538208,-0.7391602,114
19510,2.131259,1.5955353,0.9951935,0.8867798,-0.3345337,-0.6860596,114
19511,2.1747332,0.4045906,1.2027893,0.8867798,-0.3345337,-0.6860596,114
19512,2.1747332,0.4045906,1.2027893,0.79332274,-0.31966552,-0.3345337,114
19513,1.8260651,-0.45746708,1.4111481,0.79332274,-0.31966552,-0.3345337,114
19514,1.8260651,-0.45746708,1.4111481,0.27399904,-0.2516968,-0.32603762,114
19515,1.0906258,-0.07179642,1.1814575,0.27399904,-0.2516968,-0.32603762,114
19516,1.0906258,-0.07179642,1.1814575,0.115759276,-0.2623169,-0.29099122,114
19517,0.4700718,0.541769,0.8171997,0.115759276,-0.2623169,-0.29099122,114
19518,0.4700718,0.541769,0.8171997,0.41206056,-0.32391357,-0.29630128,114
19519,0.30353546,0.83577156,0.5925751,0.41206056,-0.32391357,-0.29630128,114
19520,0.30353546,0.83577156,0.5925751,0.6064087,-0.3058594,-0.39294434,114
19521,0.4852848,1.1053238,0.34495544,0.6064087,-0.3058594,-0.39294434,114
19522,0.4852848,1.1053238,0.34495544,0.43861085,-0.25913087,-0.4163086,114
19523,0.61690235,1.0833435,-0.113586426,0.43861085,-0.25913087,-0.4163086,114
19524,0.61690235,1.0833435,-0.113586426,0.540564,-0.2081543,-0.35046387,114
19525,0.45570374,0.6273079,-0.7928314,0.540564,-0.2081543,-0.35046387,114
19526,0.45570374,0.6273079,-0.7928314,0.7720825,-0.31116945,-0.23682861,114
19527,-0.049793243,0.45219994,-1.3686676,0.7720825,-0.31116945,-0.23682861,114
19528,-0.049793243,0.45219994,-1.3686676,0.63933104,-0.32603762,-0.24107666,114
19529,-0.63971233,0.45000458,-1.4497681,0.63933104,-0.32603762,-0.24107666,114
19530,-0.63971233,0.45000458,-1.4497681,0.35046387,-0.4078125,-0.2081543,114
19531,-1.0048485,0.5792427,-1.0592194,0.35046387,-0.4078125,-0.2081543,114
19532,-1.0048485,0.5792427,-1.0592194,0.35046387,-0.4078125,-0.2081543,109
19533,-1.0048485,0.5792427,-1.0592194,0.046728518,-0.5671143,-0.29523927,109
19534,-1.2863007,1.1684113,-0.66744995,0.046728518,-0.5671143,-0.29523927,109
19535,-1.2863007,1.1684113,-0.66744995,-0.17947999,-0.56180423,-0.48109132,109
19536,-1.0599365,1.3024769,-0.26882935,-0.17947999,-0.56180423,-0.48109132,109
19537,-1.0599365,1.3024769,-0.26882935,-0.0722168,-0.5012695,-0.5957886,109
19538,-0.024121284,0.71593094,0.1658783,-0.0722168,-0.5012695,-0.5957886,109
19539,-0.024121284,0.71593094,0.1658783,-0.3536499,-0.4619751,-0.540564,109
19540,1.0770168,0.1460247,0.016098022,-0.3536499,-0.4619751,-0.540564,109
19541,1.0770168,0.1460247,0.016098022,-0.5331299,-0.14761963,-0.57242435,109
19542,1.9556923,-0.057619095,-0.29693604,-0.5331299,-0.14761963,-0.57242435,109
19543,1.9556923,-0.057619095,-0.29693604,-0.46728516,-0.060534667,-0.29311523,109
19544,2.451871,0.2903309,0.10095215,-0.46728516,-0.060534667,-0.29311523,109
19545,2.451871,0.2903309,0.10095215,-0.68287355,0.16461182,-0.24851075,109
19546,2.3005848,0.99043083,0.91044617,-0.68287355,0.16461182,-0.24851075,109
19547,2.3005848,0.99043083,0.91044617,-0.43011475,0.24638672,-0.22833252,109
19548,1.6499519,1.4269276,1.2545471,-0.43011475,0.24638672,-0.22833252,109
19549,1.6499519,1.4269276,1.2545471,-0.30373535,0.31435546,-0.19541016,109
19550,0.64951515,1.0913105,0.89941406,-0.30373535,0.31435546,-0.19541016,109
19551,0.64951515,1.0913105,0.89941406,-0.1274414,0.32285157,-0.12531738,109
19552,-0.45085907,0.5034313,0.43011475,-0.1274414,0.32285157,-0.12531738,109
19553,-0.45085907,0.5034313,0.43011475,-0.0541626,0.3440918,-0.17523193,109
19554,-1.1277771,-0.041334152,0.014251709,-0.0541626,0.3440918,-0.17523193,109
19555,-1.1277771,-0.041334152,0.014251709,-0.078588866,0.3451538,-0.18266602,109
19556,-1.1396351,-0.60189056,-0.33551025,-0.078588866,0.3451538,-0.18266602,109
19557,-1.1396351,-0.60189056,-0.33551025,-0.059472658,0.3079834,-0.26550293,109
19558,-0.70498085,-0.6911812,-0.41867065,-0.059472658,0.3079834,-0.26550293,109
19559,-0.70498085,-0.6911812,-0.41867065,-0.27718505,0.35577393,-0.33240968,109
19560,-0.31496048,-0.2471466,-0.19194031,-0.27718505,0.35577393,-0.33240968,109
19561,-0.31496048,-0.2471466,-0.19194031,-0.41206056,0.41524658,-0.39294434,109
19562,-0.25580215,0.18670654,0.17259216,-0.41206056,0.41524658,-0.39294434,109
19563,-0.25580215,0.18670654,0.17259216,-0.37701416,0.42799073,-0.40250245,109
19564,-0.33431625,0.45920372,0.53741455,-0.37701416,0.42799073,-0.40250245,109
19565,-0.33431625,0.45920372,0.53741455,-0.22408448,0.41524658,-0.44073486,109
19566,-0.3608122,0.59843063,0.7015228,-0.22408448,0.41524658,-0.44073486,109
19567,-0.3608122,0.59843063,0.7015228,-0.32178956,0.362146,-0.42161867,109
19568,-0.3598652,0.4584694,0.66822815,-0.32178956,0.362146,-0.42161867,109
19569,-0.3598652,0.4584694,0.66822815,-0.25700685,0.3154175,-0.4694092,109
19570,-0.3900776,0.30643654,0.6047363,-0.25700685,0.3154175,-0.4694092,109
19571,-0.3900776,0.30643654,0.6047363,-0.19753419,0.2782471,-0.53950197,109
19572,-0.38408375,0.26073837,0.42448425,-0.19753419,0.2782471,-0.53950197,109
19573,-0.38408375,0.26073837,0.42448425,-0.15080567,0.2442627,-0.542688,109
19574,-0.26493263,0.21624374,0.22901917,-0.15080567,0.2442627,-0.542688,109
19575,-0.26493263,0.21624374,0.22901917,-0.16885987,0.24213867,-0.54587406,109
19576,-0.1331129,0.30430603,0.24945068,-0.16885987,0.24213867,-0.54587406,109
19577,-0.1331129,0.30430603,0.24945068,-0.09770508,0.23789063,-0.50233155,109
19578,-0.13485909,0.6545162,0.48292542,-0.09770508,0.23789063,-0.50233155,109
19579,-0.13485909,0.6545162,0.48292542,0.16142578,0.22727051,-0.5320679,109
19580,-0.24205494,0.82476044,0.54185486,0.16142578,0.22727051,-0.5320679,109
19581,-0.24205494,0.82476044,0.54185486,0.21346436,0.271875,-0.55543214,109
19582,-0.19753742,0.43831253,0.23622131,0.21346436,0.271875,-0.55543214,109
19583,-0.19753742,0.43831253,0.23622131,0.06690674,0.32391357,-0.5522461,109
19584,0.033987045,0.014541626,-0.11424255,0.06690674,0.32391357,-0.5522461,109
19585,0.033987045,0.014541626,-0.11424255,-0.014868164,0.38657227,-0.48109132,109
19586,0.29586697,0.013965607,-0.20991516,-0.014868164,0.38657227,-0.48109132,109
19587,0.29586697,0.013965607,-0.20991516,-0.0541626,0.45135498,-0.4609131,109
19588,0.47712326,0.36815453,0.022659302,-0.0541626,0.45135498,-0.4609131,109
19589,0.47712326,0.36815453,0.022659302,-0.18054199,0.5479981,-0.29311523,109
19590,0.370224,0.8013725,0.25894165,-0.18054199,0.5479981,-0.29311523,109
19591,0.370224,0.8013725,0.25894165,-0.24001466,0.6616333,-0.38444826,109
19592,0.14255333,0.79444313,0.4553833,-0.24001466,0.6616333,-0.38444826,109
19593,0.14255333,0.79444313,0.4553833,-0.5256958,0.81881106,-0.32391357,109
19594,-0.16901398,0.22625351,0.70391846,-0.5256958,0.81881106,-0.32391357,109
19595,-0.16901398,0.22625351,0.70391846,-0.7540283,0.8708496,-0.30267334,109
19596,-0.6249695,-0.12408638,0.8686676,-0.7540283,0.8708496,-0.30267334,109
19597,-0.6249695,-0.12408638,0.8686676,-0.8889038,0.9228882,-0.33134767,109
19598,-1.0141602,-0.09765625,0.8552246,-0.8889038,0.9228882,-0.33134767,109
19599,-1.0141602,-0.09765625,0.8552246,-0.80394286,0.8995239,-0.3462158,109
19600,-1.3491821,-0.31023026,0.7229309,-0.80394286,0.8995239,-0.3462158,109
19601,-1.3491821,-0.31023026,0.7229309,-0.7423462,0.8602295,-0.31010744,109
19602,-1.5274048,-0.66306496,0.68614197,-0.7423462,0.8602295,-0.31010744,109
19603,-1.5274048,-0.66306496,0.68614197,-0.7434082,0.81987303,-0.28355715,109
19604,-1.4276485,-0.6482868,0.738678,-0.7434082,0.81987303,-0.28355715,109
19605,-1.4276485,-0.6482868,0.738678,-0.84748536,0.89102787,-0.2177124,109
19606,-1.1540089,-0.3337536,0.70184326,-0.84748536,0.89102787,-0.2177124,109
19607,-1.1540089,-0.3337536,0.70184326,-0.7412842,1.0004151,-0.1263794,109
19608,-0.88061714,-0.13934135,0.6321106,-0.7412842,1.0004151,-0.1263794,109
19609,-0.88061714,-0.13934135,0.6321106,-0.53737795,1.0545777,-0.008496094,109
19610,-0.7676897,-0.2493267,0.6990814,-0.53737795,1.0545777,-0.008496094,109
19611,-0.7676897,-0.2493267,0.6990814,-0.41737062,1.0322754,0.08071289,109
19612,-0.88254833,-0.38024712,0.87524414,-0.41737062,1.0322754,0.08071289,109
19613,-0.88254833,-0.38024712,0.87524414,-0.44923097,1.0428956,0.15823975,109
19614,-1.1320524,-0.297472,1.0939789,-0.44923097,1.0428956,0.15823975,109
19615,-1.1320524,-0.297472,1.0939789,-0.42692873,1.1034302,0.21877442,109
19616,-1.3144073,-0.26527214,1.0676422,-0.42692873,1.1034302,0.21877442,109
19617,-1.3144073,-0.26527214,1.0676422,-0.4715332,1.1724609,0.25594482,109
19618,-1.2942629,-0.5007057,0.71035767,-0.4715332,1.1724609,0.25594482,109
19619,-1.2942629,-0.5007057,0.71035767,-0.5341919,1.1278565,0.3717041,109
19620,-1.1394386,-0.8075466,0.36740112,-0.5341919,1.1278565,0.3717041,109
19621,-1.1394386,-0.8075466,0.36740112,-0.53950197,1.0375855,0.43754885,109
19622,-0.9820347,-1.0767021,0.16326904,-0.53950197,1.0375855,0.43754885,109
19623,-0.9820347,-1.0767021,0.16326904,-0.53950197,0.86341554,0.542688,109
19624,-1.0156574,-1.0742779,-0.07354736,-0.53950197,0.86341554,0.542688,109
19625,-1.0156574,-1.0742779,-0.07354736,-0.48109132,0.6860596,0.5533081,109
19626,-1.2135153,-0.6541481,-0.33277893,-0.48109132,0.6860596,0.5533081,109
19627,-1.2135153,-0.6541481,-0.33277893,-0.5150757,0.52888185,0.49064943,109
19628,-1.3220215,-0.008230209,-0.57450867,-0.5150757,0.52888185,0.49064943,109
19629,-1.3220215,-0.008230209,-0.57450867,-0.7827026,0.23682861,0.4056885,109
19630,-1.1549559,0.48075676,-0.6255951,-0.7827026,0.23682861,0.4056885,109
19631,-1.1549559,0.48075676,-0.6255951,-0.64995116,0.42374268,0.16673584,109
19632,-1.1549559,0.48075676,-0.6255951,-0.64995116,0.42374268,0.16673584,104
19633,-0.76831245,-0.053333282,-0.21601868,-0.64995116,0.42374268,0.16673584,104
19634,-0.76831245,-0.053333282,-0.21601868,-0.22196046,0.43011475,0.3164795,104
19635,-0.4384899,-1.0999413,0.1275177,-0.22196046,0.43011475,0.3164795,104
19636,-0.4384899,-1.0999413,0.1275177,-0.083898924,0.30267334,0.3525879,104
19637,-0.33575344,-1.4716148,-0.017028809,-0.083898924,0.30267334,0.3525879,104
19638,-0.33575344,-1.4716148,-0.017028809,0.003186035,0.30161133,0.2793091,104
19639,-0.43475342,-1.2158413,0.053146362,0.003186035,0.30161133,0.2793091,104
19640,-0.43475342,-1.2158413,0.053146362,0.15611573,0.26337892,0.3058594,104
19641,-0.5137577,-0.7464886,0.8358612,0.15611573,0.26337892,0.3058594,104
19642,-0.5137577,-0.7464886,0.8358612,0.18266602,0.2548828,0.33134767,104
19643,-0.44452667,-0.4543934,1.7979736,0.18266602,0.2548828,0.33134767,104
19644,-0.44452667,-0.4543934,1.7979736,0.12000733,0.22408448,0.24744873,104
19645,-0.19863892,-0.65838814,2.350647,0.12000733,0.22408448,0.24744873,104
19646,-0.19863892,-0.65838814,2.350647,0.3345337,0.027612304,0.18054199,104
19647,0.07982159,-0.8999157,2.5754852,0.3345337,0.027612304,0.18054199,104
19648,0.07982159,-0.8999157,2.5754852,0.5278198,-0.107263185,0.15717773,104
19649,0.19793892,-0.3201027,2.5357666,0.5278198,-0.107263185,0.15717773,104
19650,0.19793892,-0.3201027,2.5357666,-0.04248047,-0.098767094,0.13806152,104
19651,0.06853199,0.7572975,1.7894592,-0.04248047,-0.098767094,0.13806152,104
19652,0.06853199,0.7572975,1.7894592,-0.7540283,-0.009558106,0.07646485,104
19653,-0.189291,1.1148586,0.23396301,-0.7540283,-0.009558106,0.07646485,104
