,accx,accy,accz,gyrox,gyroy,gyroz,heart rate
22237,open,open,open,open,open,open,open
22238,-0.25675058,-0.30080414,-0.06145096,-0.028674318,-0.027612304,0.045666505,171.0
22239,-0.25675058,-0.30080414,-0.06145096,0.04141846,-0.032922365,0.0053100586,171.0
22240,-0.2041676,-0.23849487,-0.051761627,0.04141846,-0.032922365,0.0053100586,171.0
22241,-0.2041676,-0.23849487,-0.051761627,0.053100586,-0.039294433,-0.004248047,171.0
22242,-0.16240633,-0.18717194,-0.04083252,0.053100586,-0.039294433,-0.004248047,171.0
22243,-0.16240633,-0.18717194,-0.04083252,0.029736329,-0.009558106,-0.026550293,171.0
22244,0.05803883,-4.427803,0.43084717,0.029736329,-0.009558106,-0.026550293,171.0
22245,0.05803883,-4.427803,0.43084717,-0.013806152,-0.004248047,-0.015930176,171.0
22246,0.029560924,-3.4772415,0.34915543,-0.013806152,-0.004248047,-0.015930176,171.0
22247,0.029560924,-3.4772415,0.34915543,-0.087084964,-0.014868164,0.038232423,171.0
22248,-0.07100463,-2.792183,0.35908508,-0.087084964,-0.014868164,0.038232423,171.0
22249,-0.07100463,-2.792183,0.35908508,-0.08071289,-0.050976563,-0.008496094,171.0
22250,-0.07100463,-2.792183,0.35908508,0.04885254,-0.04991455,-0.004248047,171.0
22251,-0.116386175,-2.3248672,0.34981918,0.04885254,-0.04991455,-0.004248047,171.0
22252,-0.03303814,-1.9200897,0.29781342,0.04885254,-0.04991455,-0.004248047,171.0
22253,-0.03303814,-1.9200897,0.29781342,0.08602295,-0.07327881,-0.035046387,171.0
22254,0.062229156,-1.4536362,0.18052292,0.08602295,-0.07327881,-0.035046387,171.0
22255,0.062229156,-1.4536362,0.18052292,0.0010620117,-0.098767094,-0.0361084,171.0
22256,0.062229156,-1.4536362,0.18052292,-0.052038576,-0.118945315,0.0031860352,171.0
22257,0.13746643,-1.0810089,0.05343628,-0.052038576,-0.118945315,0.0031860352,171.0
22258,0.14067388,-0.95630646,0.025917053,-0.052038576,-0.118945315,0.0031860352,171.0
22259,0.14067388,-0.95630646,0.025917053,0.028674318,-0.12213135,-0.014868164,171.0
22260,0.104812026,-0.9021759,0.06725311,0.028674318,-0.12213135,-0.014868164,171.0
22261,0.104812026,-0.9021759,0.06725311,0.1083252,-0.10089111,-0.028674318,171.0
22262,0.07551217,-0.70119476,0.093647,0.1083252,-0.10089111,-0.028674318,171.0
22263,0.07551217,-0.70119476,0.093647,0.12531738,-0.043542482,-0.047790527,171.0
22264,0.03902304,-0.36213684,0.04153061,0.12531738,-0.043542482,-0.047790527,171.0
22265,0.03902304,-0.36213684,0.04153061,0.035046387,-0.04460449,-0.0031860352,171.0
22266,-0.010956883,-0.14308167,-0.025138855,0.035046387,-0.04460449,-0.0031860352,171.0
22267,-0.010956883,-0.14308167,-0.025138855,-0.0021240234,-0.06903076,0.04460449,171.0
22268,-0.0581429,-0.21136475,-0.009590149,-0.0021240234,-0.06903076,0.04460449,171.0
22269,-0.0581429,-0.21136475,-0.009590149,0.10301514,-0.090270996,0.03717041,171.0
22270,-0.065117836,-0.3320923,0.061065674,0.10301514,-0.090270996,0.03717041,171.0
22271,-0.065117836,-0.3320923,0.061065674,0.21877442,-0.052038576,0.021240234,171.0
22272,-0.028925419,-0.2878418,0.07339859,0.21877442,-0.052038576,0.021240234,171.0
22273,-0.028925419,-0.2878418,0.07339859,0.19647217,-0.0180542,-0.009558106,171.0
22274,-0.0072345734,-0.096725464,-0.00466156,0.19647217,-0.0180542,-0.009558106,171.0
22275,-0.0072345734,-0.096725464,-0.00466156,0.058410645,-0.022302246,-0.0180542,171.0
22276,-0.0103286505,0.006668091,-0.088630676,0.058410645,-0.022302246,-0.0180542,171.0
22277,-0.0103286505,0.006668091,-0.088630676,0.027612304,-0.046728518,-0.07115479,171.0
22278,0.010377169,-0.03845215,-0.07689667,0.027612304,-0.046728518,-0.07115479,171.0
22279,0.010377169,-0.03845215,-0.07689667,0.12213135,-0.04885254,-0.040356446,171.0
22280,0.03660977,-0.06678772,-0.051361084,0.12213135,-0.04885254,-0.040356446,171.0
22281,0.03660977,-0.06678772,-0.051361084,0.2166504,-0.025488282,-0.029736329,171.0
22282,0.03660977,-0.06678772,-0.051361084,0.1996582,0.020178223,-0.06690674,171.0
22283,0.08730781,0.05204773,0.01620102,0.1996582,0.020178223,-0.06690674,171.0
22284,0.060727596,0.15943909,0.051353455,0.1996582,0.020178223,-0.06690674,171.0
22285,0.060727596,0.15943909,0.051353455,0.12213135,0.011682129,-0.07965088,171.0
22286,-0.028627396,0.27087402,0.047981262,0.12213135,0.011682129,-0.07965088,171.0
22287,-0.028627396,0.27087402,0.047981262,0.10513916,0.015930176,-0.1083252,171.0
22288,-0.0460099,0.19636536,-7.4768066E-4,0.10513916,0.015930176,-0.1083252,171.0
22289,-0.0460099,0.19636536,-7.4768066E-4,0.16461182,0.020178223,-0.12000733,171.0
22290,-0.052054524,0.07029724,-0.05842209,0.16461182,0.020178223,-0.12000733,171.0
22291,-0.052054524,0.07029724,-0.05842209,0.35046387,0.053100586,-0.10938721,171.0
22292,-0.024382949,0.12551117,0.030921936,0.35046387,0.053100586,-0.10938721,171.0
22293,-0.024382949,0.12551117,0.030921936,0.20603028,0.004248047,0.035046387,171.0
22294,0.22392619,0.30530548,0.2445488,0.20603028,0.004248047,0.035046387,171.0
22295,0.22392619,0.30530548,0.2445488,-0.03186035,0.004248047,-0.040356446,171.0
22296,0.27347684,0.1952362,0.1844101,-0.03186035,0.004248047,-0.040356446,171.0
22297,0.27347684,0.1952362,0.1844101,0.047790527,0.060534667,-0.029736329,171.0
22298,0.18803203,-0.028579712,-0.054080963,0.047790527,0.060534667,-0.029736329,171.0
22299,0.18803203,-0.028579712,-0.054080963,0.0637207,0.0637207,-0.06796875,171.0
22300,0.18803203,-0.028579712,-0.054080963,0.09133301,0.07540283,-0.04460449,171.0
22301,0.09158778,-0.010665894,-0.050575256,0.09133301,0.07540283,-0.04460449,171.0
22302,0.043362975,0.13210297,0.087020874,0.09133301,0.07540283,-0.04460449,171.0
22303,0.043362975,0.13210297,0.087020874,0.050976563,0.07965088,-0.009558106,171.0
22304,0.027805567,0.14682007,0.12786865,0.050976563,0.07965088,-0.009558106,171.0
22305,0.027805567,0.14682007,0.12786865,0.07115479,0.083898924,-0.019116212,171.0
22306,-0.040548563,0.11354828,0.18308258,0.07115479,0.083898924,-0.019116212,171.0
22307,-0.040548563,0.11354828,0.18308258,0.19434814,0.0998291,-0.06584473,171.0
22308,-0.15139627,0.063583374,0.2137146,0.19434814,0.0998291,-0.06584473,171.0
22309,-0.15139627,0.063583374,0.2137146,0.24001466,0.07434082,-0.07752686,171.0
22310,-0.18162727,0.23866272,0.22240067,0.24001466,0.07434082,-0.07752686,171.0
22311,-0.18162727,0.23866272,0.22240067,0.06796875,0.023364259,-0.06265869,171.0
22312,-0.14333653,0.2553482,0.18906403,0.06796875,0.023364259,-0.06265869,171.0
22313,-0.14333653,0.2553482,0.18906403,0.027612304,0.010620117,-0.07540283,171.0
22314,-0.123714566,0.19434357,0.16654587,0.027612304,0.010620117,-0.07540283,171.0
22315,-0.123714566,0.19434357,0.16654587,0.08920898,-0.0053100586,-0.07540283,171.0
22316,-0.096334934,0.08946228,0.13779068,0.08920898,-0.0053100586,-0.07540283,171.0
22317,-0.096334934,0.08946228,0.13779068,0.21027832,0.0063720704,-0.08071289,171.0
22318,-0.060039163,0.1758194,0.06634903,0.21027832,0.0063720704,-0.08071289,171.0
22319,-0.060039163,0.1758194,0.06634903,0.18585205,0.012744141,-0.0722168,171.0
22320,-0.03431058,0.39230347,-0.033504486,0.18585205,0.012744141,-0.0722168,171.0
22321,-0.03431058,0.39230347,-0.033504486,0.03079834,0.004248047,-0.07115479,171.0
22322,-0.044086695,0.40446472,-0.06109619,0.03079834,0.004248047,-0.07115479,171.0
22323,-0.044086695,0.40446472,-0.06109619,0.046728518,-0.014868164,-0.070092775,171.0
22324,-0.06753254,0.19599915,0.010120392,0.046728518,-0.014868164,-0.070092775,171.0
22325,-0.06753254,0.19599915,0.010120392,0.23895264,-0.0021240234,-0.07115479,171.0
22326,-0.0066384077,0.039009094,0.11793518,0.23895264,-0.0021240234,-0.07115479,171.0
22327,-0.0066384077,0.039009094,0.11793518,0.42799073,0.022302246,-0.07434082,171.0
22328,0.018969059,0.09751892,0.1276474,0.42799073,0.022302246,-0.07434082,171.0
22329,0.018969059,0.09751892,0.1276474,0.45454103,0.03079834,-0.08283692,171.0
22330,0.024769902,0.30567932,0.1365509,0.45454103,0.03079834,-0.08283692,171.0
22331,0.024769902,0.30567932,0.1365509,0.36745605,0.022302246,-0.10513916,171.0
22332,0.0010659695,0.4818573,0.09411621,0.36745605,0.022302246,-0.10513916,171.0
22333,0.0010659695,0.4818573,0.09411621,0.27399904,-0.016992187,-0.1178833,171.0
22334,9.5045567E-4,0.3517685,0.06186676,0.27399904,-0.016992187,-0.1178833,171.0
22335,9.5045567E-4,0.3517685,0.06186676,0.39400634,-0.022302246,-0.095581055,171.0
22336,0.027835488,0.08930969,0.15148163,0.39400634,-0.022302246,-0.095581055,171.0
22337,0.027835488,0.08930969,0.15148163,0.5692383,-0.04141846,-0.08920898,171.0
22338,0.08457315,0.052452087,0.27775192,0.5692383,-0.04141846,-0.08920898,171.0
22339,0.08457315,0.052452087,0.27775192,0.5511841,-0.06159668,-0.0998291,171.0
22340,0.13512683,0.26085663,0.2698593,0.5511841,-0.06159668,-0.0998291,171.0
22341,0.13512683,0.26085663,0.2698593,0.45772704,-0.06796875,-0.124255374,171.0
22342,0.11933184,0.46620178,0.1090889,0.45772704,-0.06796875,-0.124255374,171.0
22343,0.11933184,0.46620178,0.1090889,0.4067505,-0.09770508,-0.1444336,171.0
22344,0.12929118,0.5349045,-0.09983826,0.4067505,-0.09770508,-0.1444336,171.0
22345,0.12929118,0.5349045,-0.09983826,0.4609131,-0.07115479,-0.15186767,171.0
22346,0.17782259,0.54961395,-0.20968246,0.4609131,-0.07115479,-0.15186767,171.0
22347,0.17782259,0.54961395,-0.20968246,0.47684327,-0.043542482,-0.12850343,171.0
22348,0.19251442,0.54483795,-0.18862152,0.47684327,-0.043542482,-0.12850343,171.0
22349,0.19251442,0.54483795,-0.18862152,0.53525394,-0.0063720704,-0.14868164,171.0
22350,0.21870875,0.5196457,-0.09005737,0.53525394,-0.0063720704,-0.14868164,171.0
22351,0.21870875,0.5196457,-0.09005737,0.6531372,0.04141846,-0.17629395,171.0
22352,0.25233507,0.61096954,0.061180115,0.6531372,0.04141846,-0.17629395,171.0
22353,0.25233507,0.61096954,0.061180115,0.6956177,0.10407715,-0.17523193,171.0
22354,0.17835724,0.77949524,0.18224335,0.6956177,0.10407715,-0.17523193,171.0
22355,0.17835724,0.77949524,0.18224335,0.631897,0.10195313,-0.15823975,171.0
22356,0.013181448,0.83854675,0.19068909,0.631897,0.10195313,-0.15823975,171.0
22357,0.013181448,0.83854675,0.19068909,0.5543701,0.058410645,-0.16036378,171.0
22358,-0.091517806,0.7320175,0.11696625,0.5543701,0.058410645,-0.16036378,171.0
22359,-0.091517806,0.7320175,0.11696625,0.5533081,0.052038576,-0.15823975,171.0
22360,-0.11902726,0.62039185,0.017009735,0.5533081,0.052038576,-0.15823975,171.0
22361,-0.11902726,0.62039185,0.017009735,0.4980835,0.07327881,-0.14337158,171.0
22362,-0.1847359,0.5397568,-0.14054108,0.4980835,0.07327881,-0.14337158,171.0
22363,-0.1847359,0.5397568,-0.14054108,0.4364868,0.11151123,-0.14230958,171.0
22364,-0.35956848,0.45386505,-0.4482956,0.4364868,0.11151123,-0.14230958,171.0
22365,-0.35956848,0.45386505,-0.4482956,0.4694092,0.18691407,-0.124255374,171.0
22366,-0.5883261,0.40135956,-0.9310379,0.4694092,0.18691407,-0.124255374,171.0
22367,-0.5883261,0.40135956,-0.9310379,0.50870365,0.3058594,-0.15611573,171.0
22368,-0.75053144,0.44740295,-1.3808517,0.50870365,0.3058594,-0.15611573,171.0
22369,-0.75053144,0.44740295,-1.3808517,0.4343628,0.4598511,-0.2081543,171.0
22370,-0.8555521,0.47509766,-1.5898018,0.4343628,0.4598511,-0.2081543,171.0
22371,-0.8555521,0.47509766,-1.5898018,0.31435546,0.65844727,-0.18479005,171.0
22372,-1.0076594,0.38824463,-1.5213394,0.31435546,0.65844727,-0.18479005,171.0
22373,-1.0076594,0.38824463,-1.5213394,0.1359375,0.90270996,-0.14868164,171.0
22374,-1.2301388,0.06916809,-1.2377625,0.1359375,0.90270996,-0.14868164,171.0
22375,-1.2301388,0.06916809,-1.2377625,0.078588866,1.0949341,-0.16779785,171.0
22376,-1.3344284,-0.3327484,-0.7692871,0.078588866,1.0949341,-0.16779785,171.0
22377,-1.3344284,-0.3327484,-0.7692871,0.2888672,1.2914063,-0.21134034,171.0
22378,-1.2021863,-0.29651642,-0.26974106,0.2888672,1.2914063,-0.21134034,171.0
22379,-1.2021863,-0.29651642,-0.26974106,0.3802002,1.538855,-0.25700685,171.0
22380,-1.1760924,0.15072632,0.16711807,0.3802002,1.538855,-0.25700685,171.0
22381,-1.1760924,0.15072632,0.16711807,0.28461915,1.7544434,-0.2814331,171.0
22382,-1.4493945,0.5305176,0.62711334,0.28461915,1.7544434,-0.2814331,171.0
22383,-1.4493945,0.5305176,0.62711334,0.0180542,1.8563966,-0.24851075,171.0
22384,-1.844623,0.49894714,1.0716858,0.0180542,1.8563966,-0.24851075,171.0
22385,-1.844623,0.49894714,1.0716858,-0.23045655,1.9211792,-0.14230958,171.0
22386,-2.2505152,0.022865295,1.4112549,-0.23045655,1.9211792,-0.14230958,171.0
22387,-2.2505152,0.022865295,1.4112549,-0.26337892,1.989148,-0.08071289,171.0
22388,-2.5244722,-0.4209671,1.5510483,-0.26337892,1.989148,-0.08071289,171.0
22389,-2.5244722,-0.4209671,1.5510483,-0.47471926,1.9625977,-0.043542482,171.0
22390,-2.405259,-0.40251923,1.4105873,-0.47471926,1.9625977,-0.043542482,171.0
22391,-2.405259,-0.40251923,1.4105873,-0.84748536,2.0454347,-0.014868164,171.0
22392,-2.0655403,-0.1820221,1.1079483,-0.84748536,2.0454347,-0.014868164,171.0
22393,-2.0655403,-0.1820221,1.1079483,-1.2956543,2.2334106,0.033984374,171.0
22394,-1.9925566,-0.3046112,1.0749474,-1.2956543,2.2334106,0.033984374,171.0
22395,-1.9925566,-0.3046112,1.0749474,-1.4730103,2.4086425,0.12531738,171.0
22396,-2.3473902,-0.76704407,1.778965,-1.4730103,2.4086425,0.12531738,171.0
22397,-2.3473902,-0.76704407,1.778965,-1.3168945,2.4203248,0.16036378,171.0
22398,-2.6232247,-1.0020981,2.8490372,-1.3168945,2.4203248,0.16036378,171.0
22399,-2.6232247,-1.0020981,2.8490372,-1.3328247,2.2026124,0.05628662,171.0
22400,-2.3902788,-0.8125763,3.4152145,-1.3328247,2.2026124,0.05628662,171.0
22401,-2.3902788,-0.8125763,3.4152145,-1.3784913,2.165442,0.028674318,171.0
22402,-2.0461826,-0.33164215,3.2361526,-1.3784913,2.165442,0.028674318,171.0
22403,-2.0461826,-0.33164215,3.2361526,-1.3710572,2.1080933,0.03079834,171.0
22404,-1.9836502,0.0013885498,2.7017632,-1.3710572,2.1080933,0.03079834,171.0
22405,-1.9836502,0.0013885498,2.7017632,-1.5069946,2.0156982,0.10513916,171.0
22406,-2.1145449,-0.26023102,2.1856422,-1.5069946,2.0156982,0.10513916,171.0
22407,-2.1145449,-0.26023102,2.1856422,-1.7650635,1.8319702,0.17416993,171.0
22408,-2.177988,-1.028923,1.8685074,-1.7650635,1.8319702,0.17416993,171.0
22409,-2.177988,-1.028923,1.8685074,-1.9307374,1.4761963,0.24213867,171.0
22410,-2.0907183,-1.4741135,1.9359818,-1.9307374,1.4761963,0.24213867,171.0
22411,-2.0907183,-1.4741135,1.9359818,-1.5505371,0.97067875,0.32816163,171.0
22412,-1.5341349,-1.0805511,1.8415947,-1.5505371,0.97067875,0.32816163,171.0
22413,-1.5341349,-1.0805511,1.8415947,-1.1947632,0.38657227,0.3717041,171.0
22414,-0.51035213,0.21866608,1.3795891,-1.1947632,0.38657227,0.3717041,171.0
22415,-0.51035213,0.21866608,1.3795891,-1.2945923,0.16779785,0.68287355,171.0
22416,0.31516838,1.2633514,0.8862152,-1.2945923,0.16779785,0.68287355,171.0
22417,0.31516838,1.2633514,0.8862152,-1.545227,-0.18797608,0.7540283,171.0
22418,0.72043324,0.5045395,0.46256256,-1.545227,-0.18797608,0.7540283,171.0
22419,0.72043324,0.5045395,0.46256256,-1.083252,-0.38657227,0.6977417,171.0
22420,0.7588787,-1.4341965,0.28539658,-1.083252,-0.38657227,0.6977417,171.0
22421,0.7588787,-1.4341965,0.28539658,-0.48215333,-0.5766724,0.57454836,171.0
22422,0.62195873,-2.9112015,0.06328964,-0.48215333,-0.5766724,0.57454836,171.0
22423,0.62195873,-2.9112015,0.06328964,-0.16567384,-0.7880127,0.48215333,171.0
22424,0.6618862,-2.7732697,-0.6694946,-0.16567384,-0.7880127,0.48215333,171.0
22425,0.6618862,-2.7732697,-0.6694946,0.011682129,-0.8485474,0.35046387,171.0
22426,0.75309277,-1.4031372,-1.6310577,0.011682129,-0.8485474,0.35046387,171.0
22427,0.75309277,-1.4031372,-1.6310577,-0.14974366,-0.904834,0.21134034,171.0
22428,0.658761,-0.4914093,-2.144909,-0.14974366,-0.904834,0.21134034,171.0
22429,0.658761,-0.4914093,-2.144909,-0.27718505,-1.0046631,-0.025488282,171.0
22430,0.50728226,-0.8749466,-2.052391,-0.27718505,-1.0046631,-0.025488282,171.0
22431,0.50728226,-0.8749466,-2.052391,-0.06796875,-1.1416626,-0.26868898,171.0
22432,0.527823,-1.5946808,-1.710495,-0.06796875,-1.1416626,-0.26868898,171.0
22433,0.527823,-1.5946808,-1.710495,0.32285157,-1.2011353,-0.40993652,171.0
22434,0.73973894,-1.5014267,-1.5091057,0.32285157,-1.2011353,-0.40993652,171.0
22435,0.73973894,-1.5014267,-1.5091057,0.37489015,-1.2595459,-0.5246338,171.0
22436,1.0082583,-0.73275757,-1.4842262,0.37489015,-1.2595459,-0.5246338,171.0
22437,1.0082583,-0.73275757,-1.4842262,0.3345337,-1.2765381,-0.6881836,171.0
22438,1.1467314,-0.065322876,-1.4277992,0.3345337,-1.2765381,-0.6881836,171.0
22439,1.1467314,-0.065322876,-1.4277992,0.24001466,-1.2542359,-0.8092529,171.0
22440,1.0676904,0.17647552,-1.2325478,0.24001466,-1.2542359,-0.8092529,171.0
22441,1.0676904,0.17647552,-1.2325478,0.18266602,-1.2138795,-0.88996583,171.0
22442,0.8062277,0.13618469,-0.9519806,0.18266602,-1.2138795,-0.88996583,171.0
22443,0.8062277,0.13618469,-0.9519806,0.27612305,-1.1459106,-0.9388184,171.0
22444,0.8062277,0.13618469,-0.9519806,0.27612305,-1.1459106,-0.9388184,0.0
22445,0.48161554,0.13520813,-0.74577713,0.27612305,-1.1459106,-0.9388184,0.0
22446,0.48161554,0.13520813,-0.74577713,0.2516968,-1.0662597,-0.92713624,0.0
22447,0.20686245,0.22253418,-0.6476364,0.2516968,-1.0662597,-0.92713624,0.0
22448,0.20686245,0.22253418,-0.6476364,0.2081543,-0.9802368,-0.8729736,0.0
22449,0.0013666153,0.2645111,-0.5815506,0.2081543,-0.9802368,-0.8729736,0.0
22450,0.0013666153,0.2645111,-0.5815506,0.1178833,-0.8963379,-0.79332274,0.0
22451,-0.13931179,0.1926651,-0.49121857,0.1178833,-0.8963379,-0.79332274,0.0
22452,-0.13931179,0.1926651,-0.49121857,0.021240234,-0.87403566,-0.72960204,0.0
22453,-0.19457912,-0.0019836426,-0.3897133,0.021240234,-0.87403566,-0.72960204,0.0
22454,-0.19457912,-0.0019836426,-0.3897133,0.0722168,-0.88996583,-0.7126099,0.0
22455,-0.10799456,-0.047462463,-0.2841835,0.0722168,-0.88996583,-0.7126099,0.0
22456,-0.10799456,-0.047462463,-0.2841835,0.093457036,-0.94625247,-0.6988037,0.0
22457,0.15109205,0.18331909,-0.23443604,0.093457036,-0.94625247,-0.6988037,0.0
22458,0.15109205,0.18331909,-0.23443604,0.046728518,-1.0046631,-0.7147339,0.0
22459,0.63829327,0.4328003,-0.28625488,0.046728518,-1.0046631,-0.7147339,0.0
22460,0.63829327,0.4328003,-0.28625488,0.012744141,-1.0205933,-0.75615233,0.0
22461,1.3719258,0.4681244,-0.19119644,0.012744141,-1.0205933,-0.75615233,0.0
22462,1.3719258,0.4681244,-0.19119644,0.16248779,-1.0004151,-0.7391602,0.0
22463,1.9793887,0.3007431,0.2776184,0.16248779,-1.0004151,-0.7391602,0.0
22464,1.9793887,0.3007431,0.2776184,0.5936646,-0.98448485,-0.7582764,0.0
22465,2.1260767,0.27664185,0.8074341,0.5936646,-0.98448485,-0.7582764,0.0
22466,2.1260767,0.27664185,0.8074341,0.7965088,-1.1406006,-0.93563235,0.0
22467,2.162458,0.5842743,0.86035156,0.7965088,-1.1406006,-0.93563235,0.0
22468,2.162458,0.5842743,0.86035156,0.8071289,-1.3179566,-1.1076783,0.0
22469,2.4130964,0.8839493,0.40679932,0.8071289,-1.3179566,-1.1076783,0.0
22470,2.4130964,0.8839493,0.40679932,0.95368654,-1.3423828,-1.1660889,0.0
22471,2.5102015,0.8428421,-0.075416565,0.95368654,-1.3423828,-1.1660889,0.0
22472,2.5102015,0.8428421,-0.075416565,1.2818482,-1.2945923,-1.2149414,0.0
22473,2.1516428,0.64411163,-0.29652786,1.2818482,-1.2945923,-1.2149414,0.0
22474,2.1516428,0.64411163,-0.29652786,1.4889405,-1.354065,-1.2584839,0.0
22475,1.6821299,0.75762177,-0.3882599,1.4889405,-1.354065,-1.2584839,0.0
22476,1.6821299,0.75762177,-0.3882599,1.6386842,-1.4103516,-1.2765381,0.0
22477,1.5262214,1.3437958,-0.60572815,1.6386842,-1.4103516,-1.2765381,0.0
22478,1.5262214,1.3437958,-0.60572815,1.4634522,-1.4369019,-1.2839721,0.0
22479,1.7195122,1.9787445,-0.9339256,1.4634522,-1.4369019,-1.2839721,0.0
22480,1.7195122,1.9787445,-0.9339256,1.2807862,-1.363623,-1.1894531,0.0
22481,1.823144,2.1016846,-1.050827,1.2807862,-1.363623,-1.1894531,0.0
22482,1.823144,2.1016846,-1.050827,1.270166,-1.2499878,-1.0067872,0.0
22483,1.419941,1.7345963,-0.8746834,1.270166,-1.2499878,-1.0067872,0.0
22484,1.419941,1.7345963,-0.8746834,1.2351197,-1.2329956,-0.8464233,0.0
22485,0.88227844,1.431282,-0.959404,1.2351197,-1.2329956,-0.8464233,0.0
22486,0.88227844,1.431282,-0.959404,1.0715698,-1.3041505,-0.7423462,0.0
22487,0.839917,1.4538116,-1.6729813,1.0715698,-1.3041505,-0.7423462,0.0
22488,0.839917,1.4538116,-1.6729813,0.8814697,-1.270166,-0.6595093,0.0
22489,1.1595069,1.5512772,-2.549057,0.8814697,-1.270166,-0.6595093,0.0
22490,1.1595069,1.5512772,-2.549057,0.8294312,-1.1225464,-0.630835,0.0
22491,1.3512871,1.6743622,-2.793129,0.8294312,-1.1225464,-0.630835,0.0
22492,1.3512871,1.6743622,-2.793129,0.7327881,-0.9600586,-0.59260255,0.0
22493,1.2430048,1.9232941,-2.1817093,0.7327881,-0.9600586,-0.59260255,0.0
22494,1.2430048,1.9232941,-2.1817093,0.49383545,-0.84323734,-0.38763428,0.0
22495,0.98695755,1.9669647,-1.344368,0.49383545,-0.84323734,-0.38763428,0.0
22496,0.98695755,1.9669647,-1.344368,0.16142578,-0.8241211,-0.22939454,0.0
22497,0.9114288,1.4416122,-0.95978165,0.16142578,-0.8241211,-0.22939454,0.0
22498,0.9114288,1.4416122,-0.95978165,0.083898924,-0.75296634,-0.1083252,0.0
22499,1.0933886,0.66143036,-0.997879,0.083898924,-0.75296634,-0.1083252,0.0
22500,1.0933886,0.66143036,-0.997879,0.17629395,-0.6149048,-0.040356446,0.0
22501,1.204911,0.23137665,-1.0501099,0.17629395,-0.6149048,-0.040356446,0.0
22502,1.204911,0.23137665,-1.0501099,0.28780517,-0.44073486,-0.013806152,0.0
22503,1.0420172,0.26174927,-0.84615326,0.28780517,-0.44073486,-0.013806152,0.0
22504,1.0420172,0.26174927,-0.84615326,0.24638672,-0.32816163,-0.039294433,0.0
22505,0.7414384,0.45095062,-0.4094696,0.24638672,-0.32816163,-0.039294433,0.0
22506,0.7414384,0.45095062,-0.4094696,0.16354981,-0.26656494,-0.04460449,0.0
22507,0.54584837,0.55493927,0.07730484,0.16354981,-0.26656494,-0.04460449,0.0
22508,0.54584837,0.55493927,0.07730484,0.09664307,-0.20390625,-0.0361084,0.0
22509,0.47712064,0.38819885,0.49105453,0.09664307,-0.20390625,-0.0361084,0.0
22510,0.47712064,0.38819885,0.49105453,0.23364258,-0.1263794,0.0,0.0
22511,0.36364245,0.05605316,0.87864685,0.23364258,-0.1263794,0.0,0.0
22512,0.36364245,0.05605316,0.87864685,0.42692873,-0.039294433,0.010620117,0.0
22513,0.20678306,-0.030601501,1.1611938,0.42692873,-0.039294433,0.010620117,0.0
22514,0.20678306,-0.030601501,1.1611938,0.46834716,0.012744141,-0.0053100586,0.0
22515,0.087545395,0.26561737,1.3614731,0.46834716,0.012744141,-0.0053100586,0.0
22516,0.087545395,0.26561737,1.3614731,0.33134767,0.040356446,-0.06690674,0.0
22517,-0.062153816,0.64824677,1.3664246,0.33134767,0.040356446,-0.06690674,0.0
22518,-0.062153816,0.64824677,1.3664246,0.05522461,-0.09770508,-0.16779785,0.0
22519,-0.09380269,0.76226044,0.7844353,0.05522461,-0.09770508,-0.16779785,0.0
22520,-0.09380269,0.76226044,0.7844353,-0.10938721,-0.21877442,-0.24744873,0.0
22521,0.028851986,0.51353455,-0.09902573,-0.10938721,-0.21877442,-0.24744873,0.0
22522,0.028851986,0.51353455,-0.09902573,0.0637207,-0.16992188,-0.28568116,0.0
22523,-0.046803474,0.22576904,-0.47520447,0.0637207,-0.16992188,-0.28568116,0.0
22524,-0.046803474,0.22576904,-0.47520447,0.3090454,-0.07752686,-0.26868898,0.0
22525,-0.2942543,0.21720886,-0.29180908,0.3090454,-0.07752686,-0.26868898,0.0
22526,-0.2942543,0.21720886,-0.29180908,0.34940186,-0.078588866,-0.20284425,0.0
22527,-0.36670232,0.3939438,-0.23252106,0.34940186,-0.078588866,-0.20284425,0.0
22528,-0.36670232,0.3939438,-0.23252106,0.2814331,-0.10513916,-0.07115479,0.0
22529,-0.27782226,0.67045593,-0.65447235,0.2814331,-0.10513916,-0.07115479,0.0
22530,-0.27782226,0.67045593,-0.65447235,0.31010744,-0.15080567,-0.057348635,0.0
22531,-0.11077094,0.9296646,-1.2299156,0.31010744,-0.15080567,-0.057348635,0.0
22532,-0.11077094,0.9296646,-1.2299156,0.1731079,-0.17416993,-0.06690674,0.0
22533,0.08475971,0.8500061,-1.5951271,0.1731079,-0.17416993,-0.06690674,0.0
22534,0.08475971,0.8500061,-1.5951271,0.22939454,-0.1178833,0.0063720704,0.0
22535,0.24383307,0.49736023,-1.6303253,0.22939454,-0.1178833,0.0063720704,0.0
22536,0.24383307,0.49736023,-1.6303253,0.24001466,-0.060534667,0.15930176,0.0
22537,0.40119433,0.21164703,-1.2574348,0.24001466,-0.060534667,0.15930176,0.0
22538,0.40119433,0.21164703,-1.2574348,0.1529297,-0.0031860352,0.32391357,0.0
22539,0.5366292,0.18848419,-0.6243439,0.1529297,-0.0031860352,0.32391357,0.0
22540,0.5366292,0.18848419,-0.6243439,-0.11151123,0.04248047,0.42799073,0.0
22541,0.56923246,0.28060913,-0.1149292,-0.11151123,0.04248047,0.42799073,0.0
22542,0.56923246,0.28060913,-0.1149292,-0.34940186,0.07646485,0.50870365,0.0
22543,0.46379662,0.00907135,0.073913574,-0.34940186,0.07646485,0.50870365,0.0
22544,0.46379662,0.00907135,0.073913574,-0.43967286,0.10938721,0.4694092,0.0
22545,0.33077836,-0.617363,0.05311203,-0.43967286,0.10938721,0.4694092,0.0
22546,0.33077836,-0.617363,0.05311203,-0.30054933,0.19116211,0.39082032,0.0
22547,0.278502,-0.9991913,0.14328384,-0.30054933,0.19116211,0.39082032,0.0
22548,0.278502,-0.9991913,0.14328384,-0.08071289,0.3164795,0.29630128,0.0
22549,0.187572,-0.8413086,0.59272766,-0.08071289,0.3164795,0.29630128,0.0
22550,0.187572,-0.8413086,0.59272766,-0.0541626,0.35683593,0.17841797,0.0
22551,0.05649066,-0.45529938,1.1323738,-0.0541626,0.35683593,0.17841797,0.0
22552,0.05649066,-0.45529938,1.1323738,-0.16673584,0.31116945,0.1529297,0.0
22553,-0.071177006,-0.32087708,1.3558846,-0.16673584,0.31116945,0.1529297,0.0
22554,-0.071177006,-0.32087708,1.3558846,-0.1539917,0.28355715,0.16248779,0.0
22555,-0.24622393,-0.41235352,1.2639046,-0.1539917,0.28355715,0.16248779,0.0
22556,-0.24622393,-0.41235352,1.2639046,-0.16885987,0.23151855,0.12319336,0.0
22557,-0.31775546,-0.42368317,0.9096832,-0.16885987,0.23151855,0.12319336,0.0
22558,-0.31775546,-0.42368317,0.9096832,-0.24957275,0.18054199,0.03079834,0.0
22559,-0.20378923,-0.3196869,0.4755745,-0.24957275,0.18054199,0.03079834,0.0
22560,-0.20378923,-0.3196869,0.4755745,-0.24638672,0.21027832,-0.027612304,0.0
22561,-0.15634203,-0.22841644,0.2903099,-0.24638672,0.21027832,-0.027612304,0.0
22562,-0.15634203,-0.22841644,0.2903099,-0.22302246,0.20390625,-0.14018555,0.0
22563,-0.2266972,-0.19459534,0.44137955,-0.22302246,0.20390625,-0.14018555,0.0
22564,-0.2266972,-0.19459534,0.44137955,-0.13806152,0.19647217,-0.21134034,0.0
22565,-0.23733926,-0.012023926,0.64237213,-0.13806152,0.19647217,-0.21134034,0.0
22566,-0.23733926,-0.012023926,0.64237213,-0.14124756,0.15717773,-0.23789063,0.0
22567,-0.09204435,0.34532166,0.4655838,-0.14124756,0.15717773,-0.23789063,0.0
22568,-0.09204435,0.34532166,0.4655838,-0.23151855,0.13168946,-0.21558838,0.0
22569,0.11995578,0.47869873,-0.011920929,-0.23151855,0.13168946,-0.21558838,0.0
22570,0.11995578,0.47869873,-0.011920929,-0.19328614,0.14974366,-0.20284425,0.0
22571,0.2004323,0.20593262,-0.26065826,-0.19328614,0.14974366,-0.20284425,0.0
22572,0.2004323,0.20593262,-0.26065826,-0.027612304,0.2166504,-0.17735596,0.0
22573,0.030279875,-0.1497345,-0.033931732,-0.027612304,0.2166504,-0.17735596,0.0
22574,0.030279875,-0.1497345,-0.033931732,0.18691407,0.2527588,-0.16461182,0.0
22575,-0.2968576,-0.06300354,0.37181854,0.18691407,0.2527588,-0.16461182,0.0
22576,-0.2968576,-0.06300354,0.37181854,0.17416993,0.20072022,-0.14655761,0.0
22577,-0.2968576,-0.06300354,0.37181854,0.17416993,0.20072022,-0.14655761,0.0
22578,-0.4566269,0.3761444,0.49396515,0.17416993,0.20072022,-0.14655761,0.0
22579,-0.4566269,0.3761444,0.49396515,-0.06584473,0.10620117,-0.107263185,0.0
22580,-0.3373108,0.5287323,0.22587204,-0.06584473,0.10620117,-0.107263185,0.0
22581,-0.3373108,0.5287323,0.22587204,-0.1985962,0.06478272,-0.058410645,0.0
22582,-0.07552481,0.21162415,-0.12627411,-0.1985962,0.06478272,-0.058410645,0.0
22583,-0.07552481,0.21162415,-0.12627411,-0.23895264,0.038232423,0.0010620117,0.0
22584,0.1535449,-0.37005615,-0.19896698,-0.23895264,0.038232423,0.0010620117,0.0
22585,0.1535449,-0.37005615,-0.19896698,-0.004248047,0.05522461,0.023364259,0.0
22586,0.14466214,-0.7317352,0.066474915,-0.004248047,0.05522461,0.023364259,0.0
22587,0.14466214,-0.7317352,0.066474915,0.24744873,0.06265869,0.0063720704,0.0
22588,-0.032744408,-0.30937195,0.34458542,0.24744873,0.06265869,0.0063720704,0.0
22589,-0.032744408,-0.30937195,0.34458542,0.07115479,-0.038232423,0.052038576,0.0
22590,-0.060228586,0.47387695,0.2431488,0.07115479,-0.038232423,0.052038576,0.0
22591,-0.060228586,0.47387695,0.2431488,-0.3164795,-0.13168946,0.10938721,0.0
22592,0.1836288,0.62635803,-0.19792557,-0.3164795,-0.13168946,0.10938721,0.0
22593,0.1836288,0.62635803,-0.19792557,-0.5384399,-0.1720459,0.13381349,0.0
22594,0.4479649,-0.07344055,-0.5079117,-0.5384399,-0.1720459,0.13381349,0.0
22595,0.4479649,-0.07344055,-0.5079117,-0.4088745,-0.14230958,0.18372802,0.0
22596,0.44014668,-0.9197769,-0.38993835,-0.4088745,-0.14230958,0.18372802,0.0
22597,0.44014668,-0.9197769,-0.38993835,-0.13806152,-0.107263185,0.1720459,0.0
22598,0.22609186,-1.1060715,-0.015640259,-0.13806152,-0.107263185,0.1720459,0.0
22599,0.22609186,-1.1060715,-0.015640259,-0.052038576,-0.093457036,0.13699952,0.0
22600,-0.003379345,-0.5907898,0.21617508,-0.052038576,-0.093457036,0.13699952,0.0
22601,-0.003379345,-0.5907898,0.21617508,-0.19647217,-0.09770508,0.08496094,0.0
22602,-0.14583111,-0.07912445,0.18182755,-0.19647217,-0.09770508,0.08496094,0.0
22603,-0.14583111,-0.07912445,0.18182755,-0.30267334,-0.090270996,0.013806152,0.0
22604,-0.2110498,0.00554657,0.07476807,-0.30267334,-0.090270996,0.013806152,0.0
22605,-0.2110498,0.00554657,0.07476807,-0.35046387,-0.06159668,0.0021240234,0.0
22606,-0.24348593,-0.12010956,-0.046230316,-0.35046387,-0.06159668,0.0021240234,0.0
22607,-0.24348593,-0.12010956,-0.046230316,-0.38657227,-0.08496094,0.032922365,0.0
22608,-0.23446155,-0.23609161,-0.21614456,-0.38657227,-0.08496094,0.032922365,0.0
22609,-0.23446155,-0.23609161,-0.21614456,-0.34940186,-0.10301514,0.028674318,0.0
22610,-0.11639023,-0.26094055,-0.36361694,-0.34940186,-0.10301514,0.028674318,0.0
22611,-0.11639023,-0.26094055,-0.36361694,-0.29099122,-0.08920898,0.0180542,0.0
22612,0.07273245,-0.18959045,-0.33712006,-0.29099122,-0.08920898,0.0180542,0.0
22613,0.07273245,-0.18959045,-0.33712006,-0.21558838,-0.0361084,0.0053100586,0.0
22614,0.2000804,-0.13201904,-0.14249802,-0.21558838,-0.0361084,0.0053100586,0.0
22615,0.2000804,-0.13201904,-0.14249802,-0.1731079,-0.008496094,-0.0053100586,0.0
22616,0.21791339,-0.1476593,0.040859222,-0.1731079,-0.008496094,-0.0053100586,0.0
22617,0.21791339,-0.1476593,0.040859222,-0.124255374,0.0063720704,0.029736329,0.0
22618,0.1668477,-0.18574524,0.07966232,-0.124255374,0.0063720704,0.029736329,0.0
22619,0.1668477,-0.18574524,0.07966232,-0.05628662,0.029736329,0.04991455,0.0
22620,0.10618305,-0.1487503,0.0017089844,-0.05628662,0.029736329,0.04991455,0.0
22621,0.10618305,-0.1487503,0.0017089844,-0.06478272,0.07646485,0.060534667,0.0
22622,0.007016659,-0.03781891,-0.060401917,-0.06478272,0.07646485,0.060534667,0.0
22623,0.007016659,-0.03781891,-0.060401917,-0.07327881,0.118945315,0.07540283,0.0
22624,-0.14481401,-0.023086548,0.040985107,-0.07327881,0.118945315,0.07540283,0.0
22625,-0.14481401,-0.023086548,0.040985107,-0.115759276,0.08496094,0.07965088,0.0
22626,-0.15405917,-0.18202972,0.17564392,-0.115759276,0.08496094,0.07965088,0.0
22627,-0.15405917,-0.18202972,0.17564392,-0.13487549,0.035046387,0.08920898,0.0
22628,0.087812185,-0.3365631,0.11843109,-0.13487549,0.035046387,0.08920898,0.0
22629,0.087812185,-0.3365631,0.11843109,-0.093457036,0.05522461,0.13168946,0.0
22630,0.2538314,-0.34709167,0.028030396,-0.093457036,0.05522461,0.13168946,0.0
22631,0.2538314,-0.34709167,0.028030396,-0.06159668,0.08602295,0.13275146,0.0
22632,0.11456418,-0.24118805,0.15179443,-0.06159668,0.08602295,0.13275146,0.0
22633,0.11456418,-0.24118805,0.15179443,-0.12213135,0.04885254,0.070092775,0.0
22634,-0.12355852,-0.13886261,0.39551926,-0.12213135,0.04885254,0.070092775,0.0
22635,-0.12355852,-0.13886261,0.39551926,-0.10195313,0.0541626,0.035046387,0.0
22636,-0.24086332,-0.020004272,0.45607758,-0.10195313,0.0541626,0.035046387,0.0
22637,-0.24086332,-0.020004272,0.45607758,-0.1720459,0.012744141,0.02442627,0.0
22638,-0.18812513,0.13706207,0.2609558,-0.1720459,0.012744141,0.02442627,0.0
22639,-0.18812513,0.13706207,0.2609558,-0.25700685,-0.035046387,0.032922365,0.0
22640,-0.026293516,0.16094208,0.022594452,-0.25700685,-0.035046387,0.032922365,0.0
22641,-0.026293516,0.16094208,0.022594452,-0.29630128,-0.06478272,0.040356446,0.0
22642,0.17593789,-0.05492401,-0.10404205,-0.29630128,-0.06478272,0.040356446,0.0
22643,0.17593789,-0.05492401,-0.10404205,-0.17841797,-0.05522461,0.027612304,0.0
22644,0.32514977,-0.31645203,-0.11223984,-0.17841797,-0.05522461,0.027612304,0.0
22645,0.32514977,-0.31645203,-0.11223984,0.057348635,-0.0021240234,0.013806152,0.0
22646,0.2943604,-0.2386322,-0.053268433,0.057348635,-0.0021240234,0.013806152,0.0
22647,0.2943604,-0.2386322,-0.053268433,0.087084964,0.012744141,0.009558106,0.0
22648,0.163064,0.11773682,-0.05609131,0.087084964,0.012744141,0.009558106,0.0
22649,0.163064,0.11773682,-0.05609131,-0.070092775,-0.03186035,-0.015930176,0.0
22650,0.09617376,0.32613373,-0.16439056,-0.070092775,-0.03186035,-0.015930176,0.0
22651,0.09617376,0.32613373,-0.16439056,-0.14761963,-0.007434082,-0.011682129,0.0
22652,0.042576313,0.18904114,-0.20404816,-0.14761963,-0.007434082,-0.011682129,0.0
22653,0.042576313,0.18904114,-0.20404816,-0.19753419,-0.019116212,-0.02442627,0.0
22654,-0.05762601,-0.18952942,-0.07079315,-0.19753419,-0.019116212,-0.02442627,0.0
22655,-0.05762601,-0.18952942,-0.07079315,-0.08920898,-0.027612304,-0.057348635,0.0
22656,-0.14511204,-0.41599274,0.09699249,-0.08920898,-0.027612304,-0.057348635,0.0
22657,-0.14511204,-0.41599274,0.09699249,-0.0053100586,-0.058410645,-0.06796875,0.0
22658,-0.15780115,-0.28914642,0.14736938,-0.0053100586,-0.058410645,-0.06796875,0.0
22659,-0.15780115,-0.28914642,0.14736938,0.02442627,-0.040356446,-0.06159668,0.0
22660,-0.15672183,-0.045806885,0.101364136,0.02442627,-0.040356446,-0.06159668,0.0
22661,-0.15672183,-0.045806885,0.101364136,-0.0031860352,-0.038232423,-0.07540283,0.0
22662,-0.20175695,0.12132263,0.016563416,-0.0031860352,-0.038232423,-0.07540283,0.0
22663,-0.20175695,0.12132263,0.016563416,-0.070092775,-0.053100586,-0.10513916,0.0
22664,-0.20333672,0.14896393,-0.07466507,-0.070092775,-0.053100586,-0.10513916,0.0
22665,-0.20333672,0.14896393,-0.07466507,-0.1263794,-0.057348635,-0.11363526,0.0
22666,-0.136168,0.07457733,-0.0956192,-0.1263794,-0.057348635,-0.11363526,0.0
22667,-0.136168,0.07457733,-0.0956192,-0.090270996,-0.0361084,-0.14018555,0.0
22668,-0.037096024,0.020492554,-0.022346497,-0.090270996,-0.0361084,-0.14018555,0.0
22669,-0.037096024,0.020492554,-0.022346497,-0.047790527,-0.026550293,-0.16248779,0.0
22670,0.042027235,0.057876587,0.038570404,-0.047790527,-0.026550293,-0.16248779,0.0
22671,0.042027235,0.057876587,0.038570404,-0.014868164,-0.009558106,-0.118945315,0.0
22672,0.07117081,0.17030334,-0.042751312,-0.014868164,-0.009558106,-0.118945315,0.0
22673,0.07117081,0.17030334,-0.042751312,-0.04991455,-0.0180542,-0.09133301,0.0
22674,0.10254216,0.21461487,-0.2049408,-0.04991455,-0.0180542,-0.09133301,0.0
22675,0.10254216,0.21461487,-0.2049408,-0.08602295,-0.023364259,-0.07965088,0.0
22676,0.16975355,0.06413269,-0.245327,-0.08602295,-0.023364259,-0.07965088,0.0
22677,0.16975355,0.06413269,-0.245327,-0.04141846,-0.009558106,-0.058410645,0.0
22678,0.18117619,-0.15132141,-0.10971451,-0.04141846,-0.009558106,-0.058410645,0.0
22679,0.18117619,-0.15132141,-0.10971451,0.050976563,0.020178223,-0.027612304,0.0
22680,0.07162547,-0.2172699,0.07534027,0.050976563,0.020178223,-0.027612304,0.0
22681,0.07162547,-0.2172699,0.07534027,0.05628662,0.011682129,-0.02442627,0.0
22682,0.07162547,-0.2172699,0.07534027,0.05628662,0.011682129,-0.02442627,0.0
22683,-0.07678175,-0.13841248,0.14786911,0.05628662,0.011682129,-0.02442627,0.0
22684,-0.07678175,-0.13841248,0.14786911,0.028674318,-0.0021240234,-0.021240234,0.0
22685,-0.14184523,-0.02494812,0.086704254,0.028674318,-0.0021240234,-0.021240234,0.0
22686,-0.14184523,-0.02494812,0.086704254,-0.03186035,-0.016992187,-0.022302246,0.0
22687,-0.10933781,-0.0065841675,-0.033615112,-0.03186035,-0.016992187,-0.022302246,0.0
22688,-0.10933781,-0.0065841675,-0.033615112,-0.046728518,-0.028674318,-0.029736329,0.0
22689,-0.037445784,-0.11064148,-0.10247803,-0.046728518,-0.028674318,-0.029736329,0.0
22690,-0.037445784,-0.11064148,-0.10247803,0.0063720704,-0.019116212,-0.022302246,0.0
22691,-0.026135683,-0.18361664,-0.06530762,0.0063720704,-0.019116212,-0.022302246,0.0
22692,-0.026135683,-0.18361664,-0.06530762,0.04460449,-0.015930176,-0.039294433,0.0
22693,-0.047849655,-0.09402466,0.013866425,0.04460449,-0.015930176,-0.039294433,0.0
22694,-0.047849655,-0.09402466,0.013866425,0.0,-0.019116212,-0.059472658,0.0
22695,-0.027317762,0.06163025,0.034347534,0.0,-0.019116212,-0.059472658,0.0
22696,-0.027317762,0.06163025,0.034347534,-0.04141846,-0.0063720704,-0.053100586,0.0
22697,0.016121864,0.14082336,-0.021755219,-0.04141846,-0.0063720704,-0.053100586,0.0
22698,0.016121864,0.14082336,-0.021755219,-0.06478272,0.004248047,-0.0361084,0.0
22699,0.024201155,0.12390137,-0.08093262,-0.06478272,0.004248047,-0.0361084,0.0
22700,0.024201155,0.12390137,-0.08093262,-0.07646485,0.007434082,-0.021240234,0.0
22701,0.0076298714,0.032943726,-0.10438156,-0.07646485,0.007434082,-0.021240234,0.0
22702,0.0076298714,0.032943726,-0.10438156,-0.053100586,0.008496094,-0.0180542,0.0
22703,-0.00959444,-0.037902832,-0.046676636,-0.053100586,0.008496094,-0.0180542,0.0
22704,-0.00959444,-0.037902832,-0.046676636,-0.008496094,0.012744141,-0.025488282,0.0
22705,-0.015769005,-0.020751953,0.072143555,-0.008496094,0.012744141,-0.025488282,0.0
22706,-0.015769005,-0.020751953,0.072143555,-0.011682129,0.010620117,-0.023364259,0.0
22707,-0.012932539,0.051734924,0.12950134,-0.011682129,0.010620117,-0.023364259,0.0
22708,-0.012932539,0.051734924,0.12950134,-0.04885254,0.011682129,-0.015930176,0.0
22709,-0.006842613,0.08641052,0.09129715,-0.04885254,0.011682129,-0.015930176,0.0
22710,-0.006842613,0.08641052,0.09129715,-0.05522461,0.014868164,-0.008496094,0.0
22711,0.024872541,0.04447937,0.03408432,-0.05522461,0.014868164,-0.008496094,0.0
22712,0.024872541,0.04447937,0.03408432,-0.03717041,0.015930176,0.0010620117,0.0
22713,0.0616951,-0.024177551,0.023468018,-0.03717041,0.015930176,0.0010620117,0.0
22714,0.0616951,-0.024177551,0.023468018,0.023364259,0.028674318,0.007434082,0.0
22715,0.033560276,-0.029380798,0.062000275,0.023364259,0.028674318,0.007434082,0.0
22716,0.033560276,-0.029380798,0.062000275,0.04141846,0.027612304,0.011682129,0.0
22717,-0.030451536,0.038093567,0.08092499,0.04141846,0.027612304,0.011682129,0.0
22718,-0.030451536,0.038093567,0.08092499,-0.015930176,-0.010620117,0.013806152,0.0
22719,-0.015913963,0.06985474,0.051029205,-0.015930176,-0.010620117,0.013806152,0.0
22720,-0.015913963,0.06985474,0.051029205,-0.04248047,-0.019116212,0.03186035,0.0
22721,0.04527664,-0.013160706,0.021717072,-0.04248047,-0.019116212,0.03186035,0.0
22722,0.04527664,-0.013160706,0.021717072,0.0021240234,-0.009558106,0.038232423,0.0
22723,0.040676832,-0.11595154,0.031181335,0.0021240234,-0.009558106,0.038232423,0.0
22724,0.040676832,-0.11595154,0.031181335,0.05628662,-0.014868164,0.03079834,0.0
22725,-0.0013818741,-0.12031555,0.042282104,0.05628662,-0.014868164,0.03079834,0.0
22726,-0.0013818741,-0.12031555,0.042282104,0.06478272,-0.015930176,0.028674318,0.0
22727,-0.019635916,-0.03176117,0.016162872,0.06478272,-0.015930176,0.028674318,0.0
22728,-0.019635916,-0.03176117,0.016162872,0.028674318,-0.013806152,0.019116212,0.0
22729,-0.0035994053,0.053596497,-0.031078339,0.028674318,-0.013806152,0.019116212,0.0
22730,-0.0035994053,0.053596497,-0.031078339,-0.029736329,-0.015930176,0.02442627,0.0
22731,0.017042398,0.04346466,-0.05386734,-0.029736329,-0.015930176,0.02442627,0.0
22732,0.017042398,0.04346466,-0.05386734,-0.0541626,-0.020178223,0.029736329,0.0
22733,0.018443584,-0.054244995,-0.053741455,-0.0541626,-0.020178223,0.029736329,0.0
22734,0.018443584,-0.054244995,-0.053741455,-0.022302246,-0.025488282,0.04248047,0.0
22735,0.027144909,-0.112205505,-0.06137848,-0.022302246,-0.025488282,0.04248047,0.0
22736,0.027144909,-0.112205505,-0.06137848,-0.0053100586,-0.021240234,0.033984374,0.0
22737,0.056664467,-0.10391235,-0.053253174,-0.0053100586,-0.021240234,0.033984374,0.0
22738,0.056664467,-0.10391235,-0.053253174,0.027612304,0.0010620117,0.035046387,0.0
22739,0.08030462,-0.044311523,-0.016052246,0.027612304,0.0010620117,0.035046387,0.0
22740,0.08030462,-0.044311523,-0.016052246,0.010620117,-0.007434082,0.03717041,0.0
22741,0.072434664,0.02494812,-0.0012969971,0.010620117,-0.007434082,0.03717041,0.0
22742,0.072434664,0.02494812,-0.0012969971,-0.021240234,-0.010620117,0.043542482,0.0
22743,0.0356822,0.014175415,-0.021045685,-0.021240234,-0.010620117,0.043542482,0.0
22744,0.0356822,0.014175415,-0.021045685,-0.010620117,-0.014868164,0.052038576,0.0
22745,0.010406256,-0.024902344,-0.05079651,-0.010620117,-0.014868164,0.052038576,0.0
22746,0.010406256,-0.024902344,-0.05079651,-0.013806152,-0.025488282,0.04885254,0.0
22747,0.03204322,-0.03792572,-0.05303955,-0.013806152,-0.025488282,0.04885254,0.0
22748,0.03204322,-0.03792572,-0.05303955,-0.014868164,0.0,0.05628662,0.0
22749,0.03367901,-0.04059601,-0.021530151,-0.014868164,0.0,0.05628662,0.0
22750,0.03367901,-0.04059601,-0.021530151,-0.016992187,0.008496094,0.052038576,0.0
22751,-0.010861874,-0.038383484,0.013805389,-0.016992187,0.008496094,0.052038576,0.0
22752,-0.010861874,-0.038383484,0.013805389,-0.06690674,-0.004248047,0.04141846,0.0
22753,-0.023484468,-0.07379913,0.014572144,-0.06690674,-0.004248047,0.04141846,0.0
22754,-0.023484468,-0.07379913,0.014572144,-0.07752686,-0.014868164,0.032922365,0.0
22755,0.012523413,-0.15454865,0.013534546,-0.07752686,-0.014868164,0.032922365,0.0
22756,0.012523413,-0.15454865,0.013534546,-0.04248047,-0.0180542,0.029736329,0.0
22757,0.052792072,-0.17605591,0.03156662,-0.04248047,-0.0180542,0.029736329,0.0
22758,0.052792072,-0.17605591,0.03156662,-0.0180542,-0.0180542,0.027612304,0.0
22759,0.0543797,-0.08644867,0.007713318,-0.0180542,-0.0180542,0.027612304,0.0
22760,0.0543797,-0.08644867,0.007713318,-0.04141846,-0.019116212,0.03186035,0.0
22761,0.036277294,0.008468628,-0.04424286,-0.04141846,-0.019116212,0.03186035,0.0
22762,0.036277294,0.008468628,-0.04424286,-0.05522461,-0.008496094,0.022302246,0.0
22763,0.017742634,-0.009605408,-0.04273987,-0.05522461,-0.008496094,0.022302246,0.0
22764,0.017742634,-0.009605408,-0.04273987,-0.04141846,-0.008496094,0.012744141,0.0
22765,0.12582731,-0.16265106,0.11779785,-0.04141846,-0.008496094,0.012744141,0.0
22766,0.12582731,-0.16265106,0.11779785,-0.12000733,-0.0637207,-0.0541626,0.0
22767,0.6300075,-0.8344574,0.3110466,-0.12000733,-0.0637207,-0.0541626,0.0
22768,0.6300075,-0.8344574,0.3110466,-0.26550293,-0.23682861,0.13487549,0.0
22769,1.2115746,-1.6409454,0.20324326,-0.26550293,-0.23682861,0.13487549,0.0
22770,1.2115746,-1.6409454,0.20324326,0.23895264,-0.011682129,0.033984374,0.0
22771,0.58179617,-0.8156738,-0.2998085,0.23895264,-0.011682129,0.033984374,0.0
22772,0.58179617,-0.8156738,-0.2998085,-0.015930176,-0.026550293,-0.0637207,0.0
22773,-0.74684334,0.8784714,-0.8742676,-0.015930176,-0.026550293,-0.0637207,0.0
22774,-0.74684334,0.8784714,-0.8742676,-0.5076416,-0.23895264,-0.27399904,0.0
22775,-0.76318526,1.193573,-1.1397972,-0.5076416,-0.23895264,-0.27399904,0.0
22776,-0.76318526,1.193573,-1.1397972,-0.6414551,-0.05628662,-0.3706421,0.0
22777,0.24919319,-0.09775543,-0.8899994,-0.6414551,-0.05628662,-0.3706421,0.0
22778,0.24919319,-0.09775543,-0.8899994,-0.22302246,0.035046387,-0.14018555,0.0
22779,0.8027358,-1.2306213,0.04650879,-0.22302246,0.035046387,-0.14018555,0.0
22780,0.8027358,-1.2306213,0.04650879,0.3090454,0.12531738,0.0722168,0.0
22781,0.37834597,-0.51828766,1.0790634,0.3090454,0.12531738,0.0722168,0.0
22782,0.37834597,-0.51828766,1.0790634,-0.14124756,0.040356446,0.19116211,0.0
22783,-0.467587,0.9236908,1.0585022,-0.14124756,0.040356446,0.19116211,0.0
22784,-0.467587,0.9236908,1.0585022,-0.6637573,-0.045666505,-0.23682861,0.0
22785,-0.55391574,1.8413086,-0.04207611,-0.6637573,-0.045666505,-0.23682861,0.0
22786,-0.55391574,1.8413086,-0.04207611,-1.0598878,0.019116212,-0.42692873,0.0
22787,0.25259495,2.2921982,-0.8607979,-1.0598878,0.019116212,-0.42692873,0.0
22788,0.25259495,2.2921982,-0.8607979,-2.0677369,0.15186767,-0.21983643,0.0
22789,0.9878547,2.0013733,-0.75845337,-2.0677369,0.15186767,-0.21983643,0.0
22790,0.9878547,2.0013733,-0.75845337,-3.4133058,0.10620117,-0.060534667,0.0
22791,1.0705452,0.31056976,-0.37438965,-3.4133058,0.10620117,-0.060534667,0.0
22792,1.0705452,0.31056976,-0.37438965,-3.80625,0.16567384,-0.04248047,0.0
22793,0.59112835,-2.0192566,-0.3451805,-3.80625,0.16567384,-0.04248047,0.0
22794,0.59112835,-2.0192566,-0.3451805,-3.3209107,0.22939454,0.06690674,0.0
22795,0.25282192,-2.5415115,-0.43891144,-3.3209107,0.22939454,0.06690674,0.0
22796,0.25282192,-2.5415115,-0.43891144,-3.0320435,0.26125488,0.13699952,0.0
22797,-0.20640945,-2.6806717,-0.90053177,-3.0320435,0.26125488,0.13699952,0.0
22798,-0.20640945,-2.6806717,-0.90053177,-2.4553711,0.3058594,0.26656494,0.0
22799,-0.25076008,-2.2740936,-0.5832405,-2.4553711,0.3058594,0.26656494,0.0
22800,-0.25076008,-2.2740936,-0.5832405,-2.4723632,0.3525879,0.31329346,0.0
22801,-0.6092508,-2.8861847,0.36509705,-2.4723632,0.3525879,0.31329346,0.0
22802,-0.6092508,-2.8861847,0.36509705,-2.34386,0.35152587,0.39294434,0.0
22803,-0.6347885,-2.86409,0.5305519,-2.34386,0.35152587,0.39294434,0.0
22804,-0.6347885,-2.86409,0.5305519,-2.1314576,0.4088745,0.39400634,0.0
22805,-0.88049936,-3.2182999,0.632534,-2.1314576,0.4088745,0.39400634,0.0
22806,-0.88049936,-3.2182999,0.632534,-1.5887696,0.47684327,0.35152587,0.0
22807,-0.8597584,-2.9619675,0.609993,-1.5887696,0.47684327,0.35152587,0.0
22808,-0.8597584,-2.9619675,0.609993,-1.1427246,0.48533937,0.2888672,0.0
22809,-1.0945694,-3.9910965,0.7318077,-1.1427246,0.48533937,0.2888672,0.0
22810,-1.0945694,-3.9910965,0.7318077,0.50020754,0.46728516,-0.013806152,0.0
22811,-0.9149742,-3.5914612,0.5964813,0.50020754,0.46728516,-0.013806152,0.0
22812,-0.9149742,-3.5914612,0.5964813,0.9494385,0.362146,0.023364259,0.0
22813,-0.32118845,-2.5502777,-0.03860855,0.9494385,0.362146,0.023364259,0.0
22814,-0.32118845,-2.5502777,-0.03860855,1.7385132,0.4694092,-0.06690674,0.0
22815,-0.16851091,-1.4361038,-0.1522026,1.7385132,0.4694092,-0.06690674,0.0
22816,-0.16851091,-1.4361038,-0.1522026,1.725769,0.53100586,-0.115759276,0.0
22817,-0.24979901,0.3702469,-0.29075623,1.725769,0.53100586,-0.115759276,0.0
22818,-0.24979901,0.3702469,-0.29075623,1.2308716,0.53100586,-0.26656494,0.0
22819,-0.44593287,1.6102142,-0.076877594,1.2308716,0.53100586,-0.26656494,0.0
22820,-0.44593287,1.6102142,-0.076877594,0.49171144,0.53100586,-0.4088745,0.0
22821,-0.61984444,1.6009064,0.1627655,0.49171144,0.53100586,-0.4088745,0.0
22822,-0.61984444,1.6009064,0.1627655,0.30373535,0.53737795,-0.4970215,0.0
22823,-0.6867204,1.0164185,0.027915955,0.30373535,0.53737795,-0.4970215,0.0
22824,-0.6867204,1.0164185,0.027915955,0.4715332,0.51082766,-0.4056885,0.0
22825,-0.4250598,0.8129196,-0.280159,0.4715332,0.51082766,-0.4056885,0.0
22826,-0.4250598,0.8129196,-0.280159,0.6988037,0.53950197,-0.4088745,0.0
22827,-0.068246126,1.0715027,-0.16477966,0.6988037,0.53950197,-0.4088745,0.0
22828,-0.068246126,1.0715027,-0.16477966,0.8496094,0.71791995,-0.2782471,0.0
22829,-0.18874002,1.4030609,0.79267883,0.8496094,0.71791995,-0.2782471,0.0
22830,-0.18874002,1.4030609,0.79267883,0.90908206,0.8315552,-0.26125488,0.0
22831,-0.86455405,1.2834473,1.838562,0.90908206,0.8315552,-0.26125488,0.0
22832,-0.86455405,1.2834473,1.838562,0.90908206,0.8315552,-0.26125488,92.0
22833,-0.86455405,1.2834473,1.838562,0.7678345,0.71367186,-0.38869628,92.0
22834,-1.2575612,0.69075775,1.737503,0.7678345,0.71367186,-0.38869628,92.0
22835,-1.2575612,0.69075775,1.737503,1.3827393,0.52888185,-0.45135498,92.0
22836,-0.91184735,0.7491684,0.9365692,1.3827393,0.52888185,-0.45135498,92.0
22837,-0.91184735,0.7491684,0.9365692,2.0571167,0.75296634,-0.2166504,92.0
22838,-0.69741,2.1955109,0.64424896,2.0571167,0.75296634,-0.2166504,92.0
22839,-0.69741,2.1955109,0.64424896,1.4050416,0.79119873,-0.2357666,92.0
22840,-0.98982495,3.2317657,0.6263275,1.4050416,0.79119873,-0.2357666,92.0
22841,-0.98982495,3.2317657,0.6263275,0.33878174,0.5628662,-0.50870365,92.0
22842,-0.94227505,2.4103165,0.24983978,0.33878174,0.5628662,-0.50870365,92.0
22843,-0.94227505,2.4103165,0.24983978,0.69136965,0.6202149,-0.42905274,92.0
22844,-0.7343254,1.0189743,-0.091033936,0.69136965,0.6202149,-0.42905274,92.0
22845,-0.7343254,1.0189743,-0.091033936,1.5473511,0.97280276,-0.24320069,92.0
22846,-1.1527069,0.5713196,0.021347046,1.5473511,0.97280276,-0.24320069,92.0
22847,-1.1527069,0.5713196,0.021347046,1.4209718,0.93350834,-0.2888672,92.0
22848,-1.706333,0.82938385,0.39339447,1.4209718,0.93350834,-0.2888672,92.0
22849,-1.706333,0.82938385,0.39339447,0.95581055,0.8623535,-0.43861085,92.0
22850,-1.809561,0.8259735,0.48666382,0.95581055,0.8623535,-0.43861085,92.0
22851,-1.809561,0.8259735,0.48666382,0.6595093,0.8050049,-0.4970215,92.0
22852,-1.705852,0.12032318,0.16247559,0.6595093,0.8050049,-0.4970215,92.0
22853,-1.705852,0.12032318,0.16247559,1.0216553,0.83474123,-0.65844727,92.0
22854,-1.5899625,-0.4669342,0.048801422,1.0216553,0.83474123,-0.65844727,92.0
22855,-1.5899625,-0.4669342,0.048801422,1.1841431,0.9260742,-0.81668705,92.0
22856,-1.3719821,-0.11122894,0.67152405,1.1841431,0.9260742,-0.81668705,92.0
22857,-1.3719821,-0.11122894,0.67152405,1.2351197,0.8442993,-1.0089111,92.0
22858,-0.98547626,0.9391937,1.5014534,1.2351197,0.8442993,-1.0089111,92.0
22859,-0.98547626,0.9391937,1.5014534,1.0343994,0.86341554,-1.002539,92.0
22860,-0.81130576,1.7473145,1.58638,1.0343994,0.86341554,-1.002539,92.0
22861,-0.81130576,1.7473145,1.58638,0.7805786,0.6956177,-0.8687256,92.0
22862,-1.0954192,1.9610977,1.2042503,0.7805786,0.6956177,-0.8687256,92.0
22863,-1.0954192,1.9610977,1.2042503,0.65419924,0.5320679,-0.8251831,92.0
22864,-1.320488,2.1106033,1.0645714,0.65419924,0.5320679,-0.8251831,92.0
22865,-1.320488,2.1106033,1.0645714,0.44710693,0.34727785,-0.95581055,92.0
22866,-1.1871643,2.166481,1.1897278,0.44710693,0.34727785,-0.95581055,92.0
22867,-1.1871643,2.166481,1.1897278,0.18160401,0.1529297,-0.91864014,92.0
22868,-0.8649535,1.9178314,1.2791748,0.18160401,0.1529297,-0.91864014,92.0
22869,-0.8649535,1.9178314,1.2791748,0.26656494,0.060534667,-0.94625247,92.0
22870,-0.6015575,1.7790527,1.1559219,0.26656494,0.060534667,-0.94625247,92.0
22871,-0.6015575,1.7790527,1.1559219,0.08920898,-0.06796875,-0.77102053,92.0
22872,-0.30679536,1.9328384,0.6451111,0.08920898,-0.06796875,-0.77102053,92.0
22873,-0.30679536,1.9328384,0.6451111,-0.18479005,-0.22089843,-0.71154785,92.0
22874,0.30992246,1.8424835,-0.32413483,-0.18479005,-0.22089843,-0.71154785,92.0
22875,0.30992246,1.8424835,-0.32413483,-0.07327881,-0.17947999,-0.6053467,92.0
22876,1.0419078,1.5721588,-1.1044731,-0.07327881,-0.17947999,-0.6053467,92.0
22877,1.0419078,1.5721588,-1.1044731,0.44073486,0.047790527,-0.6818115,92.0
22878,1.2536068,1.447525,-1.2260971,0.44073486,0.047790527,-0.6818115,92.0
22879,1.2536068,1.447525,-1.2260971,0.73597413,0.18797608,-0.48427734,92.0
22880,0.83505106,1.6266251,-0.9066582,0.73597413,0.18797608,-0.48427734,92.0
22881,0.83505106,1.6266251,-0.9066582,0.4598511,0.13275146,-0.544812,92.0
22882,0.5539417,1.6151428,-0.51641464,0.4598511,0.13275146,-0.544812,92.0
22883,0.5539417,1.6151428,-0.51641464,0.17523193,0.19647217,-0.3536499,92.0
22884,0.5323014,0.83546066,-0.1405983,0.17523193,0.19647217,-0.3536499,92.0
22885,0.5323014,0.83546066,-0.1405983,0.10938721,0.3355957,-0.22727051,92.0
22886,0.24257708,-0.046207428,0.17238235,0.10938721,0.3355957,-0.22727051,92.0
22887,0.24257708,-0.046207428,0.17238235,0.18266602,0.40144044,-0.15717773,92.0
22888,-0.18932438,-0.18512344,0.12650299,0.18266602,0.40144044,-0.15717773,92.0
22889,-0.18932438,-0.18512344,0.12650299,-0.06690674,0.4067505,-0.09664307,92.0
22890,-0.32781458,-0.20453262,-0.31006622,-0.06690674,0.4067505,-0.09664307,92.0
22891,-0.32781458,-0.20453262,-0.31006622,-0.20390625,0.4364868,-0.22196046,92.0
22892,-0.29071832,-0.56542206,-0.62771606,-0.20390625,0.4364868,-0.22196046,92.0
22893,-0.29071832,-0.56542206,-0.62771606,-0.22408448,0.48215333,-0.24851075,92.0
22894,-0.32571435,-0.99458313,-0.5625839,-0.22408448,0.48215333,-0.24851075,92.0
22895,-0.32571435,-0.99458313,-0.5625839,-0.270813,0.45560303,-0.3164795,92.0
22896,-0.4887576,-1.050293,-0.10474014,-0.270813,0.45560303,-0.3164795,92.0
22897,-0.4887576,-1.050293,-0.10474014,-0.08283692,0.48109132,-0.24213867,92.0
22898,-0.77672386,-0.6490097,0.55311203,-0.08283692,0.48109132,-0.24213867,92.0
22899,-0.77672386,-0.6490097,0.55311203,-0.15611573,0.3791382,-0.20921631,92.0
22900,-0.9505539,-0.27809143,0.92256546,-0.15611573,0.3791382,-0.20921631,92.0
22901,-0.9505539,-0.27809143,0.92256546,-0.15611573,0.22514649,-0.23682861,92.0
22902,-0.88583374,-0.09588623,0.8701935,-0.15611573,0.22514649,-0.23682861,92.0
22903,-0.88583374,-0.09588623,0.8701935,-0.20284425,0.1720459,-0.23789063,92.0
22904,-0.7171755,-0.038330078,0.5790863,-0.20284425,0.1720459,-0.23789063,92.0
22905,-0.7171755,-0.038330078,0.5790863,-0.42161867,0.09239502,-0.31329346,92.0
22906,-0.48613048,0.026000977,0.17467117,-0.42161867,0.09239502,-0.31329346,92.0
22907,-0.48613048,0.026000977,0.17467117,-0.4354248,0.007434082,-0.271875,92.0
22908,-0.28553534,0.08023834,-0.19015884,-0.4354248,0.007434082,-0.271875,92.0
22909,-0.28553534,0.08023834,-0.19015884,-0.3525879,0.032922365,-0.28674316,92.0
22910,-0.15698051,0.1459198,-0.37294006,-0.3525879,0.032922365,-0.28674316,92.0
22911,-0.15698051,0.1459198,-0.37294006,-0.37382814,0.04991455,-0.270813,92.0
22912,-0.078550816,0.2807846,-0.35804367,-0.37382814,0.04991455,-0.270813,92.0
22913,-0.078550816,0.2807846,-0.35804367,-0.47684327,0.10301514,-0.15717773,92.0
22914,-0.064024925,0.2352829,-0.31764603,-0.47684327,0.10301514,-0.15717773,92.0
22915,-0.064024925,0.2352829,-0.31764603,-0.53525394,0.1444336,-0.04141846,92.0
22916,-0.120983124,-0.10814667,-0.46004868,-0.53525394,0.1444336,-0.04141846,92.0
22917,-0.120983124,-0.10814667,-0.46004868,-0.48533937,0.22514649,0.027612304,92.0
22918,-0.23405457,-0.53671265,-0.620018,-0.48533937,0.22514649,0.027612304,92.0
22919,-0.23405457,-0.53671265,-0.620018,-0.46834716,0.32922363,0.0031860352,92.0
22920,-0.36973858,-0.75408936,-0.3601036,-0.46834716,0.32922363,0.0031860352,92.0
22921,-0.36973858,-0.75408936,-0.3601036,-0.71154785,0.4078125,-0.007434082,92.0
22922,-0.53711176,-0.8257904,0.3462944,-0.71154785,0.4078125,-0.007434082,92.0
22923,-0.53711176,-0.8257904,0.3462944,-1.1650269,0.4056885,-0.0031860352,92.0
22924,-0.7214985,-1.2806168,1.007698,-1.1650269,0.4056885,-0.0031860352,92.0
22925,-0.7214985,-1.2806168,1.007698,-1.2542359,0.36002198,-0.059472658,92.0
22926,-0.7994642,-2.1626434,1.357441,-1.2542359,0.36002198,-0.059472658,92.0
22927,-0.7994642,-2.1626434,1.357441,-0.65207523,0.35152587,-0.07115479,92.0
22928,-0.7508874,-2.6084824,1.588871,-0.65207523,0.35152587,-0.07115479,92.0
22929,-0.7508874,-2.6084824,1.588871,-0.0998291,0.32072756,-0.06584473,92.0
22930,-0.6567645,-2.0277176,1.4929199,-0.0998291,0.32072756,-0.06584473,92.0
22931,-0.6567645,-2.0277176,1.4929199,-0.30373535,0.15717773,-0.08920898,92.0
22932,-0.44772625,-0.74272156,0.79312897,-0.30373535,0.15717773,-0.08920898,92.0
22933,-0.44772625,-0.74272156,0.79312897,-1.0981201,0.038232423,-0.039294433,92.0
22934,-0.15744829,0.23673248,0.11531067,-1.0981201,0.038232423,-0.039294433,92.0
22935,-0.15744829,0.23673248,0.11531067,-1.4677002,-0.11469727,0.0063720704,92.0
22936,0.0070858,0.16642761,-0.10799408,-1.4677002,-0.11469727,0.0063720704,92.0
22937,0.0070858,0.16642761,-0.10799408,-0.63826907,-0.0722168,0.13062744,92.0
22938,0.19613504,-0.076438904,-0.3615799,-0.63826907,-0.0722168,0.13062744,92.0
22939,0.19613504,-0.076438904,-0.3615799,-0.8442993,-0.0031860352,0.30054933,92.0
22940,0.60396624,0.034431458,-1.1960754,-0.8442993,-0.0031860352,0.30054933,92.0
22941,0.60396624,0.034431458,-1.1960754,-1.4825684,0.07752686,0.36108398,92.0
22942,0.5414982,-0.56461334,-1.3658943,-1.4825684,0.07752686,0.36108398,92.0
22943,0.5414982,-0.56461334,-1.3658943,-0.9197022,0.13275146,0.23682861,92.0
22944,0.5414982,-0.56461334,-1.3658943,-0.9197022,0.13275146,0.23682861,91.0
22945,-0.2955613,-1.3480759,-0.105911255,-0.9197022,0.13275146,0.23682861,91.0
22946,-0.2955613,-1.3480759,-0.105911255,-0.45029297,0.15080567,0.3451538,91.0
22947,-0.725255,-1.1913528,0.6853905,-0.45029297,0.15080567,0.3451538,91.0
22948,-0.725255,-1.1913528,0.6853905,-0.7476563,0.13487549,0.2888672,91.0
22949,-0.07967949,-0.22356415,0.1304779,-0.7476563,0.13487549,0.2888672,91.0
22950,-0.07967949,-0.22356415,0.1304779,-1.806482,0.22514649,0.46409914,91.0
22951,0.6352558,-0.017959595,-0.6730232,-1.806482,0.22514649,0.46409914,91.0
22952,0.6352558,-0.017959595,-0.6730232,-2.1442018,0.18691407,0.35046387,91.0
22953,0.633327,-1.5786743,-1.0248184,-2.1442018,0.18691407,0.35046387,91.0
22954,0.633327,-1.5786743,-1.0248184,-0.8326172,0.44179687,0.3355957,91.0
22955,0.25588036,-2.7209015,-0.7077713,-0.8326172,0.44179687,0.3355957,91.0
22956,0.25588036,-2.7209015,-0.7077713,-0.71154785,0.5320679,0.42268068,91.0
22957,-0.42151642,-2.144516,0.2911415,-0.71154785,0.5320679,0.42268068,91.0
22958,-0.42151642,-2.144516,0.2911415,-1.0906861,0.42268068,0.41737062,91.0
22959,-1.2311707,-1.5701065,0.8408966,-1.0906861,0.42268068,0.41737062,91.0
22960,-1.2311707,-1.5701065,0.8408966,-0.88253176,0.2516968,0.28674316,91.0
22961,-1.289978,-1.5817795,0.40356445,-0.88253176,0.2516968,0.28674316,91.0
22962,-1.289978,-1.5817795,0.40356445,-0.8814697,0.2623169,0.28674316,91.0
22963,-0.8066163,-1.5786438,-0.11689377,-0.8814697,0.2623169,0.28674316,91.0
22964,-0.8066163,-1.5786438,-0.11689377,-1.2797241,0.27612305,0.26337892,91.0
22965,-0.3980031,-1.7552109,-0.13376236,-1.2797241,0.27612305,0.26337892,91.0
22966,-0.3980031,-1.7552109,-0.13376236,-1.3296387,0.25806886,0.13381349,91.0
22967,-0.07019663,-1.8595428,0.1072731,-1.3296387,0.25806886,0.13381349,91.0
22968,-0.07019663,-1.8595428,0.1072731,-0.8400513,0.35683593,0.39613038,91.0
22969,-0.30916023,-1.7712021,0.2776413,-0.8400513,0.35683593,0.39613038,91.0
22970,-0.30916023,-1.7712021,0.2776413,-1.2298096,0.20603028,0.20178223,91.0
22971,-1.082643,-1.4319992,0.2398529,-1.2298096,0.20603028,0.20178223,91.0
22972,-1.082643,-1.4319992,0.2398529,-1.0768799,0.118945315,0.44498292,91.0
22973,-1.581141,-0.9693527,-0.14609528,-1.0768799,0.118945315,0.44498292,91.0
22974,-1.581141,-0.9693527,-0.14609528,-1.2776002,0.0031860352,0.21027832,91.0
22975,-1.3982258,-1.0203781,-0.6661453,-1.2776002,0.0031860352,0.21027832,91.0
22976,-1.3982258,-1.0203781,-0.6661453,-0.9855469,0.03186035,0.22727051,91.0
22977,-0.8829365,-1.2938614,-0.6685028,-0.9855469,0.03186035,0.22727051,91.0
22978,-0.8829365,-1.2938614,-0.6685028,-0.8973999,-0.014868164,0.16036378,91.0
22979,-0.5381851,-1.2326279,-0.26452637,-0.8973999,-0.014868164,0.16036378,91.0
22980,-0.5381851,-1.2326279,-0.26452637,-0.9366943,-0.16992188,0.16036378,91.0
22981,-0.26474,-0.957695,-0.15983963,-0.9366943,-0.16992188,0.16036378,91.0
22982,-0.26474,-0.957695,-0.15983963,-0.904834,-0.29099122,0.1444336,91.0
22983,0.113708496,-0.8678055,-0.425148,-0.904834,-0.29099122,0.1444336,91.0
22984,0.113708496,-0.8678055,-0.425148,-0.8421753,-0.28568116,0.14337158,91.0
22985,0.43499756,-1.036972,-0.5021324,-0.8421753,-0.28568116,0.14337158,91.0
22986,0.43499756,-1.036972,-0.5021324,-0.79119873,-0.26975098,0.22833252,91.0
22987,0.4711914,-1.2441483,-0.34177017,-0.79119873,-0.26975098,0.22833252,91.0
22988,0.4711914,-1.2441483,-0.34177017,-0.69986576,-0.30267334,0.31010744,91.0
22989,0.29472637,-1.1761322,-0.50603485,-0.69986576,-0.30267334,0.31010744,91.0
22990,0.29472637,-1.1761322,-0.50603485,-0.7423462,-0.29099122,0.39294434,91.0
22991,0.07203579,-0.98882294,-0.9162407,-0.7423462,-0.29099122,0.39294434,91.0
22992,0.07203579,-0.98882294,-0.9162407,-0.6637573,-0.26444092,0.4088745,91.0
22993,-0.056726933,-0.7368927,-0.93463135,-0.6637573,-0.26444092,0.4088745,91.0
22994,-0.056726933,-0.7368927,-0.93463135,-0.7455322,-0.26444092,0.4800293,91.0
22995,0.022209167,-0.46852112,-0.39009094,-0.7455322,-0.26444092,0.4800293,91.0
22996,0.022209167,-0.46852112,-0.39009094,-0.97280276,-0.4056885,0.37807617,91.0
22997,0.21138287,-0.33444977,-0.11765289,-0.97280276,-0.4056885,0.37807617,91.0
22998,0.21138287,-0.33444977,-0.11765289,-0.8315552,-0.4598511,0.43117675,91.0
22999,0.39095688,-0.2580719,-0.4663887,-0.8315552,-0.4598511,0.43117675,91.0
23000,0.39095688,-0.2580719,-0.4663887,-0.5055176,-0.4248047,0.38975832,91.0
23001,0.4436612,-0.35378265,-0.6906891,-0.5055176,-0.4248047,0.38975832,91.0
23002,0.4436612,-0.35378265,-0.6906891,-0.38975832,-0.3993164,0.44073486,91.0
23003,0.25771236,-0.68144226,-0.61657715,-0.38975832,-0.3993164,0.44073486,91.0
23004,0.25771236,-0.68144226,-0.61657715,-0.3706421,-0.43861085,0.45029297,91.0
23005,-0.074860096,-0.9644928,-0.62524414,-0.3706421,-0.43861085,0.45029297,91.0
23006,-0.074860096,-0.9644928,-0.62524414,-0.47578126,-0.48109132,0.51932377,91.0
23007,-0.29401875,-1.0325699,-0.6952629,-0.47578126,-0.48109132,0.51932377,91.0
23008,-0.29401875,-1.0325699,-0.6952629,-0.4163086,-0.5384399,0.540564,91.0
23009,-0.29134274,-0.8357849,-0.52523804,-0.4163086,-0.5384399,0.540564,91.0
23010,-0.29134274,-0.8357849,-0.52523804,-0.25700685,-0.5766724,0.635083,91.0
23011,-0.12715387,-0.5548248,-0.18720627,-0.25700685,-0.5766724,0.635083,91.0
23012,-0.12715387,-0.5548248,-0.18720627,-0.30267334,-0.67331547,0.60109866,91.0
23013,0.020701408,-0.34671783,-0.10960388,-0.30267334,-0.67331547,0.60109866,91.0
23014,0.020701408,-0.34671783,-0.10960388,-0.2782471,-0.7189819,0.6467652,91.0
23015,0.11407089,-0.22026825,-0.37223816,-0.2782471,-0.7189819,0.6467652,91.0
23016,0.11407089,-0.22026825,-0.37223816,-0.21558838,-0.7349121,0.6138428,91.0
23017,0.21253347,-0.1736145,-0.43811035,-0.21558838,-0.7349121,0.6138428,91.0
23018,0.21253347,-0.1736145,-0.43811035,0.039294433,-0.72216797,0.64570314,91.0
23019,0.23946047,0.057518005,-0.11823654,0.039294433,-0.72216797,0.64570314,91.0
23020,0.23946047,0.057518005,-0.11823654,0.04141846,-0.72641605,0.66481936,91.0
23021,0.047793865,0.15940857,0.11378479,0.04141846,-0.72641605,0.66481936,91.0
23022,0.047793865,0.15940857,0.11378479,0.090270996,-0.7168579,0.7189819,91.0
23023,-0.12933064,-0.24173737,-0.012096405,0.090270996,-0.7168579,0.7189819,91.0
23024,-0.12933064,-0.24173737,-0.012096405,0.121069334,-0.71367186,0.6701294,91.0
23025,-0.01619625,-0.65397644,-0.19510269,0.121069334,-0.71367186,0.6701294,91.0
23026,-0.01619625,-0.65397644,-0.19510269,0.24532472,-0.62552494,0.85598147,91.0
23027,0.15672112,-0.5105591,-0.09535217,0.24532472,-0.62552494,0.85598147,91.0
23028,0.15672112,-0.5105591,-0.09535217,0.21558838,-0.52250975,0.92501223,91.0
23029,0.28347015,0.014724731,0.22937012,0.21558838,-0.52250975,0.92501223,91.0
23030,0.28347015,0.014724731,0.22937012,0.24744873,-0.45029297,0.98873293,91.0
23031,0.35899067,0.4902954,0.4039421,0.24744873,-0.45029297,0.98873293,91.0
23032,0.35899067,0.4902954,0.4039421,0.3727661,-0.36108398,1.0375855,91.0
23033,0.17662144,0.6202545,0.4108963,0.3727661,-0.36108398,1.0375855,91.0
23034,0.17662144,0.6202545,0.4108963,0.44073486,-0.2984253,1.0397094,91.0
23035,-0.2780509,0.41070557,0.34822464,0.44073486,-0.2984253,1.0397094,91.0
23036,-0.2780509,0.41070557,0.34822464,0.635083,-0.2538208,1.0418335,91.0
23037,-0.5410075,0.3372345,0.050346375,0.635083,-0.2538208,1.0418335,91.0
23038,-0.5410075,0.3372345,0.050346375,0.68287355,-0.20072022,1.0683838,91.0
23039,-0.33596802,0.37514496,-0.057891846,0.68287355,-0.20072022,1.0683838,91.0
23040,-0.33596802,0.37514496,-0.057891846,0.48215333,-0.15186767,1.0630738,91.0
23041,-0.100011826,0.28269958,0.6152954,0.48215333,-0.15186767,1.0630738,91.0
23042,-0.100011826,0.28269958,0.6152954,0.6605713,-0.18479005,1.2000732,91.0
23043,-0.22364998,0.45748138,1.49646,0.6605713,-0.18479005,1.2000732,91.0
23044,-0.22364998,0.45748138,1.49646,0.89846194,-0.27718505,1.2563599,91.0
23045,-0.5619645,0.7014618,1.6852646,0.89846194,-0.27718505,1.2563599,91.0
23046,-0.5619645,0.7014618,1.6852646,1.1469727,-0.36002198,1.2181275,91.0
23047,-0.73554564,0.7455368,1.1925583,1.1469727,-0.36002198,1.2181275,91.0
23048,-0.73554564,0.7455368,1.1925583,1.6386842,-0.34833986,1.2372437,91.0
23049,-0.667758,0.80270386,0.95056915,1.6386842,-0.34833986,1.2372437,91.0
23050,-0.667758,0.80270386,0.95056915,1.8192261,-0.30161133,1.2404298,91.0
23051,-0.667758,0.80270386,0.95056915,1.8192261,-0.30161133,1.2404298,91.0
23052,-0.50584936,0.67679596,1.1087952,1.8192261,-0.30161133,1.2404298,91.0
23053,-0.50584936,0.67679596,1.1087952,2.2132325,-0.21558838,1.0736939,91.0
23054,-0.119706154,0.6821594,0.7218628,2.2132325,-0.21558838,1.0736939,91.0
23055,-0.119706154,0.6821594,0.7218628,2.4065187,0.007434082,1.0248413,91.0
23056,0.28566837,1.0435257,-0.10954285,2.4065187,0.007434082,1.0248413,91.0
23057,0.28566837,1.0435257,-0.10954285,2.4606812,0.19541016,1.0269654,91.0
23058,0.13675022,1.5648117,-0.5961151,2.4606812,0.19541016,1.0269654,91.0
23059,0.13675022,1.5648117,-0.5961151,2.70813,0.26868898,1.0397094,91.0
23060,-0.32748985,2.2772064,-0.3326912,2.70813,0.26868898,1.0397094,91.0
23061,-0.32748985,2.2772064,-0.3326912,2.5732543,0.21346436,1.0120972,91.0
23062,-0.5934491,2.4650726,0.61761093,2.5732543,0.21346436,1.0120972,91.0
23063,-0.5934491,2.4650726,0.61761093,2.1728761,0.07540283,1.0577637,91.0
23064,-0.66754484,1.931961,1.2370338,2.1728761,0.07540283,1.0577637,91.0
23065,-0.66754484,1.931961,1.2370338,2.2068603,0.05522461,1.1044922,91.0
23066,-0.43436527,1.3905029,0.145195,2.2068603,0.05522461,1.1044922,91.0
23067,-0.43436527,1.3905029,0.145195,1.9742798,0.37382814,1.0216553,91.0
23068,-0.27493382,1.3689957,-1.4668884,1.9742798,0.37382814,1.0216553,91.0
23069,-0.27493382,1.3689957,-1.4668884,1.8011719,0.48427734,1.4114136,91.0
23070,-0.7690315,1.6893005,-1.3891602,1.8011719,0.48427734,1.4114136,91.0
23071,-0.7690315,1.6893005,-1.3891602,1.4623902,0.57561034,1.2499878,91.0
23072,-1.2887363,1.7883759,0.008861542,1.4623902,0.57561034,1.2499878,91.0
23073,-1.2887363,1.7883759,0.008861542,0.8782837,0.4088745,1.2478638,91.0
23074,-1.2793169,1.4644394,1.2085304,0.8782837,0.4088745,1.2478638,91.0
23075,-1.2793169,1.4644394,1.2085304,0.47896728,0.3058594,1.2489258,91.0
23076,-1.0112219,1.1092377,1.1765518,0.47896728,0.3058594,1.2489258,91.0
23077,-1.0112219,1.1092377,1.1765518,-0.15823975,0.31966552,1.2924683,91.0
23078,-0.9440613,0.9638672,-0.0061950684,-0.15823975,0.31966552,1.2924683,91.0
23079,-0.9440613,0.9638672,-0.0061950684,-1.0004151,0.38975832,1.264856,91.0
23080,-1.0276976,0.4189453,-1.0891571,-1.0004151,0.38975832,1.264856,91.0
23081,-1.0276976,0.4189453,-1.0891571,-1.5908936,0.34833986,1.1257324,91.0
23082,-0.874197,-0.29216003,-0.957016,-1.5908936,0.34833986,1.1257324,91.0
23083,-0.874197,-0.29216003,-0.957016,-1.6397461,0.34090576,1.3402588,91.0
23084,-0.46066093,-0.6068115,-0.2571869,-1.6397461,0.34090576,1.3402588,91.0
23085,-0.46066093,-0.6068115,-0.2571869,-2.2801392,0.41206056,1.3827393,91.0
23086,-0.008787155,-0.78627014,0.06549072,-2.2801392,0.41206056,1.3827393,91.0
23087,-0.008787155,-0.78627014,0.06549072,-3.2189577,0.40993652,1.2446778,91.0
23088,0.436244,-1.1418839,-0.25743484,-3.2189577,0.40993652,1.2446778,91.0
23089,0.436244,-1.1418839,-0.25743484,-5.0381837,0.3462158,1.175647,91.0
23090,0.7696247,-2.133171,-1.007473,-5.0381837,0.3462158,1.175647,91.0
23091,0.7696247,-2.133171,-1.007473,-6.0885134,0.24532472,1.0673218,91.0
23092,0.8818741,-3.667694,-1.4796143,-6.0885134,0.24532472,1.0673218,91.0
23093,0.8818741,-3.667694,-1.4796143,-6.0205445,0.19647217,1.1533448,91.0
23094,0.80061626,-4.703041,-1.2048836,-6.0205445,0.19647217,1.1533448,91.0
23095,0.80061626,-4.703041,-1.2048836,-5.97063,0.070092775,1.0577637,91.0
23096,0.6537132,-4.962433,-0.9861145,-5.97063,0.070092775,1.0577637,91.0
23097,0.6537132,-4.962433,-0.9861145,-6.4676514,-0.10513916,0.7943848,91.0
23098,0.65021706,-4.9840546,-1.4969635,-6.4676514,-0.10513916,0.7943848,91.0
23099,0.65021706,-4.9840546,-1.4969635,-6.151172,-0.27612305,0.5511841,91.0
23100,0.82848644,-4.8524933,-2.232544,-6.151172,-0.27612305,0.5511841,91.0
23101,0.82848644,-4.8524933,-2.232544,-5.7168093,-0.52250975,0.45347902,91.0
23102,1.1955166,-4.499939,-3.1190796,-5.7168093,-0.52250975,0.45347902,91.0
23103,1.1955166,-4.499939,-3.1190796,-5.3727174,-0.5384399,0.38763428,91.0
23104,1.643755,-4.3680573,-4.130554,-5.3727174,-0.5384399,0.38763428,91.0
23105,1.643755,-4.3680573,-4.130554,-4.613379,-0.40144044,0.27506104,91.0
23106,1.8614764,-4.0596313,-4.375683,-4.613379,-0.40144044,0.27506104,91.0
23107,1.8614764,-4.0596313,-4.375683,-4.1970706,-0.4056885,0.22833252,91.0
23108,1.537509,-2.8950653,-3.4974937,-4.1970706,-0.4056885,0.22833252,91.0
23109,1.537509,-2.8950653,-3.4974937,-5.0912843,-0.5787964,0.19116211,91.0
23110,0.6480613,-1.2024765,-2.4304924,-5.0912843,-0.5787964,0.19116211,91.0
23111,0.6480613,-1.2024765,-2.4304924,-6.1968384,-0.9696167,0.18372802,91.0
23112,-0.47694874,-0.07064819,-2.2347717,-6.1968384,-0.9696167,0.18372802,91.0
23113,-0.47694874,-0.07064819,-2.2347717,-6.969983,-1.5197388,0.2803711,91.0
23114,-1.1476235,-1.3744888,-2.6809196,-6.969983,-1.5197388,0.2803711,91.0
23115,-1.1476235,-1.3744888,-2.6809196,-4.2321167,-1.7703736,0.20284425,91.0
23116,-0.9522786,-3.4527588,-3.214817,-4.2321167,-1.7703736,0.20284425,91.0
23117,-0.9522786,-3.4527588,-3.214817,-1.3976074,-1.7767457,0.23364258,91.0
23118,-0.8364687,-2.3424606,-3.7944145,-1.3976074,-1.7767457,0.23364258,91.0
23119,-0.8364687,-2.3424606,-3.7944145,-1.3232666,-1.5781494,0.55543214,91.0
23120,-1.3689919,0.753006,-4.645996,-1.3232666,-1.5781494,0.55543214,91.0
23121,-1.3689919,0.753006,-4.645996,-3.1998413,-1.4528321,0.14868164,91.0
23122,-1.8544588,1.483139,-5.156433,-3.1998413,-1.4528321,0.14868164,91.0
23123,-1.8544588,1.483139,-5.156433,-2.5955567,-1.1544068,0.08071289,91.0
23124,-1.8817854,-0.042160034,-4.325733,-2.5955567,-1.1544068,0.08071289,91.0
23125,-1.8817854,-0.042160034,-4.325733,-0.5936646,-1.1151123,0.29205322,91.0
23126,-1.8818073,-0.15224457,-2.6414833,-0.5936646,-1.1151123,0.29205322,91.0
23127,-1.8818073,-0.15224457,-2.6414833,-0.27293703,-1.1013062,0.635083,91.0
23128,-1.97892,0.94745636,-1.658596,-0.27293703,-1.1013062,0.635083,91.0
23129,-1.97892,0.94745636,-1.658596,-0.7455322,-1.1098022,0.42055663,91.0
23130,-1.9398375,1.3235397,-1.573494,-0.7455322,-1.1098022,0.42055663,91.0
23131,-1.9398375,1.3235397,-1.573494,-1.4963745,-1.2223755,0.5586182,91.0
23132,-1.7275543,0.50019836,-1.4692192,-1.4963745,-1.2223755,0.5586182,91.0
23133,-1.7275543,0.50019836,-1.4692192,-0.903772,-1.2999023,0.4715332,91.0
23134,-1.5772829,-0.6116333,-1.2535362,-0.903772,-1.2999023,0.4715332,91.0
23135,-1.5772829,-0.6116333,-1.2535362,-0.4364868,-1.3795532,0.5065796,91.0
23136,-1.6174049,-0.7161865,-1.3741913,-0.4364868,-1.3795532,0.5065796,91.0
23137,-1.6174049,-0.7161865,-1.3741913,-0.4333008,-1.2595459,0.6000366,91.0
23138,-1.74119,-0.19078064,-1.4949341,-0.4333008,-1.2595459,0.6000366,91.0
23139,-1.74119,-0.19078064,-1.4949341,-0.5522461,-1.2860962,0.6977417,91.0
23140,-1.7135944,0.35986328,-1.098732,-0.5522461,-1.2860962,0.6977417,91.0
23141,-1.7135944,0.35986328,-1.098732,-0.5957886,-1.2871583,0.8071289,91.0
23142,-1.5388565,0.515625,-0.54691696,-0.5957886,-1.2871583,0.8071289,91.0
23143,-1.5388565,0.515625,-0.54691696,-0.21983643,-1.26167,0.9218262,91.0
23144,-1.2607241,0.4822693,-0.50798035,-0.21983643,-1.26167,0.9218262,91.0
23145,-1.2607241,0.4822693,-0.50798035,0.1539917,-1.1140503,0.9611206,91.0
23146,-0.89404106,0.689476,-0.94295883,0.1539917,-1.1140503,0.9611206,91.0
23147,-0.89404106,0.689476,-0.94295883,0.15505372,-0.9345703,0.8729736,91.0
23148,-0.7539177,1.1899719,-1.148262,0.15505372,-0.9345703,0.8729736,91.0
23149,-0.7539177,1.1899719,-1.148262,0.009558106,-0.7890747,0.8219971,91.0
23150,-0.9811611,1.6234741,-0.8826599,0.009558106,-0.7890747,0.8219971,91.0
23151,-0.9811611,1.6234741,-0.8826599,0.14549561,-0.7083618,0.69986576,91.0
23152,-1.2477465,1.6504898,-0.48509598,0.14549561,-0.7083618,0.69986576,91.0
23153,-1.2477465,1.6504898,-0.48509598,0.4163086,-0.71367186,0.6977417,91.0
23154,-1.3165197,1.4301224,-0.2850113,0.4163086,-0.71367186,0.6977417,91.0
23155,-1.3165197,1.4301224,-0.2850113,0.38657227,-0.724292,0.67225343,91.0
23156,-1.4188528,0.96025085,-0.27458954,0.38657227,-0.724292,0.67225343,91.0
23157,-1.4188528,0.96025085,-0.27458954,0.38657227,-0.724292,0.67225343,91.0
23158,-1.4188528,0.96025085,-0.27458954,0.021240234,-0.77102053,0.544812,91.0
23159,-1.6438351,0.10355377,-0.24275589,0.021240234,-0.77102053,0.544812,91.0
23160,-1.6438351,0.10355377,-0.24275589,-0.44498292,-0.88253176,0.4343628,91.0
23161,-1.4926558,-0.7260437,-0.16545868,-0.44498292,-0.88253176,0.4343628,91.0
23162,-1.4926558,-0.7260437,-0.16545868,-0.26656494,-0.9589966,0.45560303,91.0
23163,-0.98513985,-0.5697632,0.028057098,-0.26656494,-0.9589966,0.45560303,91.0
23164,-0.98513985,-0.5697632,0.028057098,-0.21558838,-0.8400513,0.5511841,91.0
23165,-0.8604622,0.5596924,0.45222855,-0.21558838,-0.8400513,0.5511841,91.0
23166,-0.8604622,0.5596924,0.45222855,-0.5129517,-0.88040775,0.47471926,91.0
23167,-0.8333893,1.5105591,0.85630417,-0.5129517,-0.88040775,0.47471926,91.0
23168,-0.8333893,1.5105591,0.85630417,-0.5161377,-0.9759888,0.4163086,91.0
23169,-0.71655273,1.4663696,0.8606796,-0.5161377,-0.9759888,0.4163086,91.0
23170,-0.71655273,1.4663696,0.8606796,-0.0361084,-0.88040775,0.5235718,91.0
23171,-0.9389534,0.84562683,0.46118927,-0.0361084,-0.88040775,0.5235718,91.0
23172,-0.9389534,0.84562683,0.46118927,-0.10513916,-0.9420044,0.53525394,91.0
23173,-0.97450256,0.49515533,0.12075806,-0.10513916,-0.9420044,0.53525394,91.0
23174,-0.97450256,0.49515533,0.12075806,-0.4959595,-0.9568726,0.4694092,91.0
23175,-0.69428635,0.27644348,0.057006836,-0.4959595,-0.9568726,0.4694092,91.0
23176,-0.69428635,0.27644348,0.057006836,-0.60216063,-0.8241211,0.4970215,91.0
23177,-0.80174255,0.018074036,0.0896492,-0.60216063,-0.8241211,0.4970215,91.0
23178,-0.80174255,0.018074036,0.0896492,-0.817749,-0.905896,0.45878908,91.0
23179,-1.0755863,-0.0366745,0.059719086,-0.817749,-0.905896,0.45878908,91.0
23180,-1.0755863,-0.0366745,0.059719086,-0.5692383,-0.9165161,0.51932377,91.0
23181,-1.0343342,0.14059448,-0.06867981,-0.5692383,-0.9165161,0.51932377,91.0
23182,-1.0343342,0.14059448,-0.06867981,-0.54693604,-0.94625247,0.53100586,91.0
23183,-0.88411903,0.54512787,-0.11597824,-0.54693604,-0.94625247,0.53100586,91.0
23184,-0.88411903,0.54512787,-0.11597824,-0.84111327,-1.0471436,0.49171144,91.0
23185,-0.7121773,0.9435959,-0.13777924,-0.84111327,-1.0471436,0.49171144,91.0
23186,-0.7121773,0.9435959,-0.13777924,-1.4262818,-1.1544068,0.540564,91.0
23187,-0.6605263,0.8195343,-0.46321487,-1.4262818,-1.1544068,0.540564,91.0
23188,-0.6605263,0.8195343,-0.46321487,-1.992334,-1.2223755,0.4991455,91.0
23189,-0.7111244,-0.19724274,-0.72024155,-1.992334,-1.2223755,0.4991455,91.0
23190,-0.7111244,-0.19724274,-0.72024155,-1.357251,-1.3009644,0.36108398,91.0
23191,-0.5300083,-0.72875214,-0.3688202,-1.357251,-1.3009644,0.36108398,91.0
23192,-0.5300083,-0.72875214,-0.3688202,-0.3717041,-1.3784913,0.63933104,91.0
23193,-0.42226028,0.049468994,-0.0072746277,-0.3717041,-1.3784913,0.63933104,91.0
23194,-0.42226028,0.049468994,-0.0072746277,-0.098767094,-1.3083985,0.6180908,91.0
23195,-0.96003723,0.8279648,-0.34192657,-0.098767094,-1.3083985,0.6180908,91.0
23196,-0.96003723,0.8279648,-0.34192657,-0.083898924,-1.1575928,0.5522461,91.0
23197,-1.8378658,1.0250397,-1.0658035,-0.083898924,-1.1575928,0.5522461,91.0
23198,-1.8378658,1.0250397,-1.0658035,-0.3430298,-1.0014771,0.4715332,91.0
23199,-2.180828,0.6154938,-1.5724792,-0.3430298,-1.0014771,0.4715332,91.0
23200,-2.180828,0.6154938,-1.5724792,-0.632959,-0.89421386,0.38869628,91.0
23201,-1.4776459,-0.6940689,-1.844387,-0.632959,-0.89421386,0.38869628,91.0
23202,-1.4776459,-0.6940689,-1.844387,0.5033936,-0.58623046,0.32497558,91.0
23203,-0.3324585,-1.6560135,-1.7063332,0.5033936,-0.58623046,0.32497558,91.0
23204,-0.3324585,-1.6560135,-1.7063332,2.1112792,-0.31860352,0.4598511,91.0
23205,0.49905968,-0.7553177,-0.8630905,2.1112792,-0.31860352,0.4598511,91.0
23206,0.49905968,-0.7553177,-0.8630905,1.5569092,-0.27506104,0.5479981,91.0
23207,0.9534359,0.08924103,0.40458298,1.5569092,-0.27506104,0.5479981,91.0
23208,0.9534359,0.08924103,0.40458298,1.44115,-0.36851808,0.0021240234,91.0
23209,1.177372,-0.16350555,1.9103241,1.44115,-0.36851808,0.0021240234,91.0
23210,1.177372,-0.16350555,1.9103241,2.4851074,-0.452417,0.4800293,91.0
23211,1.4210472,-0.18195343,3.7305565,2.4851074,-0.452417,0.4800293,91.0
23212,1.4210472,-0.18195343,3.7305565,3.5821655,-0.45560303,0.5766724,91.0
23213,1.9862881,0.6667404,5.338745,3.5821655,-0.45560303,0.5766724,91.0
23214,1.9862881,0.6667404,5.338745,3.3325927,-0.21983643,0.7083618,91.0
23215,2.9172287,1.5901184,5.7626114,3.3325927,-0.21983643,0.7083618,91.0
23216,2.9172287,1.5901184,5.7626114,3.073462,0.04141846,0.5320679,91.0
23217,3.4911194,2.054947,5.3806458,3.073462,0.04141846,0.5320679,91.0
23218,3.4911194,2.054947,5.3806458,3.6554444,0.32072756,0.6510132,91.0
23219,3.155407,2.6596298,5.4178467,3.6554444,0.32072756,0.6510132,91.0
23220,3.155407,2.6596298,5.4178467,4.0919313,0.721106,0.92076415,91.0
23221,2.0768642,3.4722748,5.6621857,4.0919313,0.721106,0.92076415,91.0
23222,2.0768642,3.4722748,5.6621857,3.3251588,0.8814697,1.085376,91.0
23223,0.7112713,3.0260544,4.9447746,3.3251588,0.8814697,1.085376,91.0
23224,0.7112713,3.0260544,4.9447746,3.270996,0.8007569,1.2797241,91.0
23225,-0.57348824,2.3125534,3.8742752,3.270996,0.8007569,1.2797241,91.0
23226,-0.57348824,2.3125534,3.8742752,1.9997681,0.71154785,0.8814697,91.0
23227,-1.9399433,3.1037827,3.621746,1.9997681,0.71154785,0.8814697,91.0
23228,-1.9399433,3.1037827,3.621746,0.0,-0.24107666,1.1883911,91.0
23229,-2.7378063,2.992447,3.351963,0.0,-0.24107666,1.1883911,91.0
23230,-2.7378063,2.992447,3.351963,0.014868164,-0.74022216,0.6924316,91.0
23231,-2.4962387,1.6854019,2.006546,0.014868164,-0.74022216,0.6924316,91.0
23232,-2.4962387,1.6854019,2.006546,-0.22833252,-0.7890747,0.5979126,91.0
23233,-2.1935368,0.48566437,-0.23102951,-0.22833252,-0.7890747,0.5979126,91.0
23234,-2.1935368,0.48566437,-0.23102951,-0.540564,-0.57242435,0.5777344,91.0
23235,-2.8995075,-0.4019699,-2.346199,-0.540564,-0.57242435,0.5777344,91.0
23236,-2.8995075,-0.4019699,-2.346199,-0.23151855,-0.29099122,0.52250975,91.0
23237,-3.945156,-0.30319977,-3.0351105,-0.23151855,-0.29099122,0.52250975,91.0
23238,-3.945156,-0.30319977,-3.0351105,0.020178223,-0.3802002,0.23151855,91.0
23239,-3.312582,1.0690384,-1.9928436,0.020178223,-0.3802002,0.23151855,91.0
23240,-3.312582,1.0690384,-1.9928436,-0.5713623,-0.7126099,0.21027832,91.0
23241,-0.74702454,2.3803864,-0.30467606,-0.5713623,-0.7126099,0.21027832,91.0
23242,-0.74702454,2.3803864,-0.30467606,-0.8379273,-0.8294312,0.5150757,91.0
23243,1.613905,2.1254654,0.40275574,-0.8379273,-0.8294312,0.5150757,91.0
23244,1.613905,2.1254654,0.40275574,-0.7954468,-0.77314454,0.59260255,91.0
23245,2.0126686,0.53567505,-0.37745667,-0.7954468,-0.77314454,0.59260255,91.0
23246,2.0126686,0.53567505,-0.37745667,-0.544812,-0.5076416,0.6042847,91.0
23247,0.95505714,-1.0096817,-1.5578613,-0.544812,-0.5076416,0.6042847,91.0
23248,0.95505714,-1.0096817,-1.5578613,-0.18479005,-0.21558838,0.38551027,91.0
23249,0.005548477,-1.5428848,-1.8034897,-0.18479005,-0.21558838,0.38551027,91.0
23250,0.005548477,-1.5428848,-1.8034897,0.13168946,-0.011682129,0.13487549,91.0
23251,-0.5632858,-1.1277084,-0.87132263,0.13168946,-0.011682129,0.13487549,91.0
23252,-0.5632858,-1.1277084,-0.87132263,0.54587406,0.10620117,0.118945315,91.0
23253,-1.1724167,-0.13972473,0.24913406,0.54587406,0.10620117,0.118945315,91.0
23254,-1.1724167,-0.13972473,0.24913406,0.52888185,-0.15823975,0.04991455,91.0
23255,-1.0698681,1.0597992,0.812294,0.52888185,-0.15823975,0.04991455,91.0
23256,-1.0698681,1.0597992,0.812294,-0.1178833,-0.34833986,0.060534667,91.0
23257,-0.04621315,1.643631,0.6642494,-0.1178833,-0.34833986,0.060534667,91.0
23258,-0.04621315,1.643631,0.6642494,-0.39400634,-0.3695801,0.270813,91.0
23259,0.7894573,1.0439682,0.19719696,-0.39400634,-0.3695801,0.270813,91.0
23260,0.7894573,1.0439682,0.19719696,-0.35895997,-0.25806886,0.271875,91.0
23261,0.6792946,-0.1635437,0.0901413,-0.35895997,-0.25806886,0.271875,91.0
23262,0.6792946,-0.1635437,0.0901413,-0.1444336,-0.18266602,0.21877442,91.0
23263,0.026298523,-0.9160309,0.32707977,-0.1444336,-0.18266602,0.21877442,91.0
23264,0.026298523,-0.9160309,0.32707977,0.11151123,-0.1444336,0.09451904,91.0
23265,-0.34681892,-0.73657227,0.5336952,0.11151123,-0.1444336,0.09451904,91.0
23266,-0.34681892,-0.73657227,0.5336952,0.27718505,-0.098767094,0.023364259,91.0
23267,-0.3277855,-0.1372757,0.6239548,0.27718505,-0.098767094,0.023364259,91.0
23268,-0.3277855,-0.1372757,0.6239548,0.28674316,-0.098767094,-0.019116212,91.0
23269,-0.16520691,0.276474,0.5790596,0.28674316,-0.098767094,-0.019116212,91.0
23270,-0.16520691,0.276474,0.5790596,0.28674316,-0.098767094,-0.019116212,91.0
23271,-0.16520691,0.276474,0.5790596,0.3058594,-0.10089111,-0.03186035,91.0
23272,-0.019493103,0.43846893,0.38688278,0.3058594,-0.10089111,-0.03186035,91.0
23273,-0.019493103,0.43846893,0.38688278,0.26550293,-0.12213135,0.019116212,91.0
23274,-0.0050964355,0.39590454,0.08015823,0.26550293,-0.12213135,0.019116212,91.0
23275,-0.0050964355,0.39590454,0.08015823,0.16036378,-0.13699952,0.050976563,91.0
23276,-0.082128525,0.11634827,-0.2980461,0.16036378,-0.13699952,0.050976563,91.0
23277,-0.082128525,0.11634827,-0.2980461,0.06159668,-0.090270996,0.06690674,91.0
23278,-0.25123596,-0.35888672,-0.5986786,0.06159668,-0.090270996,0.06690674,91.0
23279,-0.25123596,-0.35888672,-0.5986786,0.0541626,0.06690674,0.09239502,91.0
23280,-0.4873886,-0.7024765,-0.35290527,0.0541626,0.06690674,0.09239502,91.0
23281,-0.4873886,-0.7024765,-0.35290527,0.098767094,0.22302246,0.09133301,91.0
23282,-0.5080128,-0.5923767,0.51878357,0.098767094,0.22302246,0.09133301,91.0
23283,-0.5080128,-0.5923767,0.51878357,-0.118945315,0.21240234,0.12319336,91.0
23284,-0.13855171,-0.14867401,1.3132057,-0.118945315,0.21240234,0.12319336,91.0
23285,-0.13855171,-0.14867401,1.3132057,-0.35895997,0.13275146,0.16461182,91.0
23286,0.368248,0.1874237,1.3254318,-0.35895997,0.13275146,0.16461182,91.0
23287,0.368248,0.1874237,1.3254318,-0.45560303,0.06796875,0.2347046,91.0
23288,0.6798897,0.118759155,0.5166168,-0.45560303,0.06796875,0.2347046,91.0
23289,0.6798897,0.118759155,0.5166168,-0.45347902,0.11682129,0.2782471,91.0
23290,0.6863327,-0.16856384,-0.51399994,-0.45347902,0.11682129,0.2782471,91.0
23291,0.6863327,-0.16856384,-0.51399994,-0.5097656,0.18691407,0.2803711,91.0
23292,0.4516182,-0.29400635,-1.1947327,-0.5097656,0.18691407,0.2803711,91.0
23293,0.4516182,-0.29400635,-1.1947327,-0.46834716,0.26762697,0.25806886,91.0
23294,0.10885239,-0.13484192,-1.3711929,-0.46834716,0.26762697,0.25806886,91.0
23295,0.10885239,-0.13484192,-1.3711929,-0.40462646,0.31116945,0.20284425,91.0
23296,-0.19814682,0.13960266,-1.2310715,-0.40462646,0.31116945,0.20284425,91.0
23297,-0.19814682,0.13960266,-1.2310715,-0.1985962,0.3451538,0.25063476,91.0
23298,-0.44690895,0.3856659,-0.76887894,-0.1985962,0.3451538,0.25063476,91.0
23299,-0.44690895,0.3856659,-0.76887894,-0.19541016,0.3164795,0.1985962,91.0
23300,-0.48698235,0.48402405,-0.13637924,-0.19541016,0.3164795,0.1985962,91.0
23301,-0.48698235,0.48402405,-0.13637924,-0.29417726,0.23258057,0.18479005,91.0
23302,-0.39626312,0.4064865,0.43011475,-0.29417726,0.23258057,0.18479005,91.0
23303,-0.39626312,0.4064865,0.43011475,-0.33240968,0.1178833,0.17629395,91.0
23304,-0.3263359,0.25707245,0.6521225,-0.33240968,0.1178833,0.17629395,91.0
23305,-0.3263359,0.25707245,0.6521225,-0.35046387,0.035046387,0.22089843,91.0
23306,-0.15624619,0.19015503,0.46593475,-0.35046387,0.035046387,0.22089843,91.0
23307,-0.15624619,0.19015503,0.46593475,-0.40993652,0.059472658,0.24001466,91.0
23308,-0.07329941,0.2246933,0.315876,-0.40993652,0.059472658,0.24001466,91.0
23309,-0.07329941,0.2246933,0.315876,-0.47578126,0.0361084,0.2814331,91.0
23310,-0.006088257,0.08823395,0.3227539,-0.47578126,0.0361084,0.2814331,91.0
23311,-0.006088257,0.08823395,0.3227539,-0.5065796,-0.081774905,0.31223145,91.0
23312,-0.014135361,-0.011054993,0.34472656,-0.5065796,-0.081774905,0.31223145,91.0
23313,-0.014135361,-0.011054993,0.34472656,-0.48533937,-0.107263185,0.29417726,91.0
23314,0.08150101,-0.27470398,0.5206528,-0.48533937,-0.107263185,0.29417726,91.0
23315,0.08150101,-0.27470398,0.5206528,-0.2814331,-0.14124756,0.30267334,91.0
23316,0.08724594,-0.2008667,0.37896347,-0.2814331,-0.14124756,0.30267334,91.0
23317,0.08724594,-0.2008667,0.37896347,-0.2262085,-0.16354981,0.31435546,91.0
23318,0.1890831,-0.36515808,-0.38006592,-0.2262085,-0.16354981,0.31435546,91.0
23319,0.1890831,-0.36515808,-0.38006592,0.04460449,-0.07115479,0.25806886,91.0
23320,0.23603249,-0.37815857,-0.6410141,0.04460449,-0.07115479,0.25806886,91.0
23321,0.23603249,-0.37815857,-0.6410141,0.16036378,0.0,0.22833252,91.0
23322,0.38508987,-0.40350342,-0.82953644,0.16036378,0.0,0.22833252,91.0
23323,0.38508987,-0.40350342,-0.82953644,0.68074954,0.115759276,0.05522461,91.0
23324,0.30602074,-0.11910248,-0.42639923,0.68074954,0.115759276,0.05522461,91.0
23325,0.30602074,-0.11910248,-0.42639923,0.75615233,0.14018555,0.11044922,91.0
23326,0.165802,0.9050751,0.4721985,0.75615233,0.14018555,0.11044922,91.0
23327,0.165802,0.9050751,0.4721985,0.4258667,0.021240234,0.09664307,91.0
23328,0.051477432,0.97631836,0.4864502,0.4258667,0.021240234,0.09664307,91.0
23329,0.051477432,0.97631836,0.4864502,0.39294434,0.010620117,0.18372802,91.0
23330,-0.043754578,1.1275253,0.1446991,0.39294434,0.010620117,0.18372802,91.0
23331,-0.043754578,1.1275253,0.1446991,0.1444336,0.014868164,0.271875,91.0
23332,0.0461483,0.8253708,-0.37776184,0.1444336,0.014868164,0.271875,91.0
23333,0.0461483,0.8253708,-0.37776184,-0.059472658,0.057348635,0.29417726,91.0
23334,0.2044487,0.3779602,-0.3889885,-0.059472658,0.057348635,0.29417726,91.0
23335,0.2044487,0.3779602,-0.3889885,0.08071289,0.09664307,0.2984253,91.0
23336,0.17958641,0.5509491,0.13791656,0.08071289,0.09664307,0.2984253,91.0
23337,0.17958641,0.5509491,0.13791656,-0.025488282,0.039294433,0.46409914,91.0
23338,-0.21386337,0.8685379,0.51926804,-0.025488282,0.039294433,0.46409914,91.0
23339,-0.21386337,0.8685379,0.51926804,-0.23789063,-0.090270996,0.4609131,91.0
23340,-0.62067604,0.5580368,0.2864952,-0.23789063,-0.090270996,0.4609131,91.0
23341,-0.62067604,0.5580368,0.2864952,-0.08496094,-0.060534667,0.42374268,91.0
23342,-0.7294884,0.25658417,-0.14360428,-0.08496094,-0.060534667,0.42374268,91.0
23343,-0.7294884,0.25658417,-0.14360428,-0.23682861,-0.029736329,0.4258667,91.0
23344,-0.55252457,0.40903473,-0.17444229,-0.23682861,-0.029736329,0.4258667,91.0
23345,-0.55252457,0.40903473,-0.17444229,-0.4258667,0.009558106,0.40356445,91.0
23346,-0.21459198,0.5995941,0.16498566,-0.4258667,0.009558106,0.40356445,91.0
23347,-0.21459198,0.5995941,0.16498566,-0.6552612,0.009558106,0.39613038,91.0
23348,0.024261475,0.4455185,0.4990387,-0.6552612,0.009558106,0.39613038,91.0
23349,0.024261475,0.4455185,0.4990387,-0.5299439,0.011682129,0.33240968,91.0
23350,0.16400146,0.13750458,0.5500374,-0.5299439,0.011682129,0.33240968,91.0
23351,0.16400146,0.13750458,0.5500374,-0.37489015,0.010620117,0.27506104,91.0
23352,0.24638557,0.0109939575,0.23659897,-0.37489015,0.010620117,0.27506104,91.0
23353,0.24638557,0.0109939575,0.23659897,-0.2442627,0.0541626,0.19753419,91.0
23354,0.19648552,0.15491486,-0.2566948,-0.2442627,0.0541626,0.19753419,91.0
23355,0.19648552,0.15491486,-0.2566948,-0.27399904,0.083898924,0.15930176,91.0
23356,0.052562714,0.35575867,-0.6001549,-0.27399904,0.083898924,0.15930176,91.0
23357,0.052562714,0.35575867,-0.6001549,-0.19328614,0.118945315,0.118945315,91.0
23358,-0.05410385,0.3174286,-0.6120453,-0.19328614,0.118945315,0.118945315,91.0
23359,-0.05410385,0.3174286,-0.6120453,-0.14230958,0.11363526,0.08602295,91.0
23360,-0.045370102,0.08957672,-0.35710526,-0.14230958,0.11363526,0.08602295,91.0
23361,-0.045370102,0.08957672,-0.35710526,-0.11363526,0.06584473,0.057348635,91.0
23362,-0.006389618,-0.109687805,-0.10908508,-0.11363526,0.06584473,0.057348635,91.0
23363,-0.006389618,-0.109687805,-0.10908508,-0.12850343,0.0031860352,0.013806152,91.0
23364,0.047819138,-0.089775085,-0.073070526,-0.12850343,0.0031860352,0.013806152,91.0
23365,0.047819138,-0.089775085,-0.073070526,-0.11257324,-0.015930176,-0.0021240234,91.0
23366,0.13106537,0.17505646,-0.18393326,-0.11257324,-0.015930176,-0.0021240234,91.0
23367,0.13106537,0.17505646,-0.18393326,-0.25063476,-0.057348635,-0.011682129,91.0
23368,0.13549232,0.32300568,-0.28037643,-0.25063476,-0.057348635,-0.011682129,91.0
23369,0.13549232,0.32300568,-0.28037643,-0.26762697,-0.08602295,-0.0361084,91.0
23370,0.08865547,0.2620926,-0.26626968,-0.26762697,-0.08602295,-0.0361084,91.0
23371,0.08865547,0.2620926,-0.26626968,-0.2177124,-0.09770508,-0.038232423,91.0
23372,-0.023960114,0.009544373,-0.028312683,-0.2177124,-0.09770508,-0.038232423,91.0
23373,-0.023960114,0.009544373,-0.028312683,-0.0637207,-0.098767094,-0.09133301,91.0
23374,-0.16064644,-0.22888947,0.47715378,-0.0637207,-0.098767094,-0.09133301,91.0
23375,-0.16064644,-0.22888947,0.47715378,-0.047790527,-0.1444336,-0.13912354,91.0
23376,-0.16064644,-0.22888947,0.47715378,-0.047790527,-0.1444336,-0.13912354,91.0
23377,-0.17286491,-0.08024597,0.8203125,-0.047790527,-0.1444336,-0.13912354,91.0
23378,-0.17286491,-0.08024597,0.8203125,-0.15717773,-0.21134034,-0.16354981,91.0
23379,-0.116586685,0.14406586,0.5228386,-0.15717773,-0.21134034,-0.16354981,91.0
23380,-0.116586685,0.14406586,0.5228386,-0.20390625,-0.20496826,-0.20496826,91.0
23381,-0.048921585,0.09475708,-0.05781555,-0.20390625,-0.20496826,-0.20496826,91.0
23382,-0.048921585,0.09475708,-0.05781555,-0.16248779,-0.14337158,-0.24638672,91.0
23383,0.09725189,0.013954163,-0.3724823,-0.16248779,-0.14337158,-0.24638672,91.0
23384,0.09725189,0.013954163,-0.3724823,-0.26337892,-0.081774905,-0.2527588,91.0
23385,0.19225502,-0.017204285,-0.30293274,-0.26337892,-0.081774905,-0.2527588,91.0
23386,0.19225502,-0.017204285,-0.30293274,-0.25063476,-0.07646485,-0.24957275,91.0
23387,0.11365509,-0.24520111,-0.008888245,-0.25063476,-0.07646485,-0.24957275,91.0
23388,0.11365509,-0.24520111,-0.008888245,-0.13062744,-0.12531738,-0.2793091,91.0
23389,-0.0067691803,-0.46749878,0.18904114,-0.13062744,-0.12531738,-0.2793091,91.0
23390,-0.0067691803,-0.46749878,0.18904114,0.0180542,-0.14337158,-0.29205322,91.0
23391,0.014799118,-0.40254974,0.14418793,0.0180542,-0.14337158,-0.29205322,91.0
23392,0.014799118,-0.40254974,0.14418793,-0.13912354,-0.16248779,-0.29948732,91.0
23393,0.102464676,-0.37838745,0.004558563,-0.13912354,-0.16248779,-0.29948732,91.0
23394,0.102464676,-0.37838745,0.004558563,-0.10301514,-0.16142578,-0.3462158,91.0
23395,0.10611725,-0.50964355,-0.09204483,-0.10301514,-0.16142578,-0.3462158,91.0
23396,0.10611725,-0.50964355,-0.09204483,-0.027612304,-0.13381349,-0.37489015,91.0
23397,0.047187805,-0.5376587,-0.1713295,-0.027612304,-0.13381349,-0.37489015,91.0
23398,0.047187805,-0.5376587,-0.1713295,0.004248047,-0.078588866,-0.37595215,91.0
23399,-0.058563232,-0.35638428,-0.092350006,0.004248047,-0.078588866,-0.37595215,91.0
23400,-0.058563232,-0.35638428,-0.092350006,0.0722168,-0.014868164,-0.3451538,91.0
23401,-0.09283447,-0.1829071,0.1617279,0.0722168,-0.014868164,-0.3451538,91.0
23402,-0.09283447,-0.1829071,0.1617279,-0.04885254,-0.023364259,-0.3345337,91.0
23403,0.04083252,-0.33459473,0.3495369,-0.04885254,-0.023364259,-0.3345337,91.0
23404,0.04083252,-0.33459473,0.3495369,-0.08071289,-0.03717041,-0.36427003,91.0
23405,0.32424355,-0.62120056,0.2812271,-0.08071289,-0.03717041,-0.36427003,91.0
23406,0.32424355,-0.62120056,0.2812271,-0.016992187,-0.04885254,-0.3791382,91.0
23407,0.52219963,-0.77349854,-0.05450058,-0.016992187,-0.04885254,-0.3791382,91.0
23408,0.52219963,-0.77349854,-0.05450058,0.0637207,0.0021240234,-0.36320803,91.0
23409,0.35000992,-0.5882416,-0.2733612,0.0637207,0.0021240234,-0.36320803,91.0
23410,0.35000992,-0.5882416,-0.2733612,0.14230958,0.039294433,-0.36108398,91.0
23411,-0.013557434,-0.08646393,-0.13715744,0.14230958,0.039294433,-0.36108398,91.0
23412,-0.013557434,-0.08646393,-0.13715744,0.010620117,-0.010620117,-0.28780517,91.0
23413,-0.19208336,0.043319702,-0.038341522,0.010620117,-0.010620117,-0.28780517,91.0
23414,-0.19208336,0.043319702,-0.038341522,-0.047790527,-0.027612304,-0.2814331,91.0
23415,-0.104104996,-0.34918213,-0.23064804,-0.047790527,-0.027612304,-0.2814331,91.0
23416,-0.104104996,-0.34918213,-0.23064804,-0.10513916,0.009558106,-0.25063476,91.0
23417,0.15564346,-0.65708923,-0.27204132,-0.10513916,0.009558106,-0.25063476,91.0
23418,0.15564346,-0.65708923,-0.27204132,-0.045666505,0.06796875,-0.2347046,91.0
23419,0.42640686,-0.5864105,0.17758179,-0.045666505,0.06796875,-0.2347046,91.0
23420,0.42640686,-0.5864105,0.17758179,0.026550293,0.083898924,-0.24744873,91.0
23421,0.45401764,-0.2826767,0.6545639,0.026550293,0.083898924,-0.24744873,91.0
23422,0.45401764,-0.2826767,0.6545639,-0.015930176,0.053100586,-0.2262085,91.0
23423,0.121917725,-0.093803406,0.5867729,-0.015930176,0.053100586,-0.2262085,91.0
23424,0.121917725,-0.093803406,0.5867729,-0.1178833,0.035046387,-0.21240234,91.0
23425,-0.35533524,-0.16323853,-0.024879456,-0.1178833,0.035046387,-0.21240234,91.0
23426,-0.35533524,-0.16323853,-0.024879456,-0.24213867,0.04248047,-0.18054199,91.0
23427,-0.6536045,-0.32683563,-0.69028854,-0.24213867,0.04248047,-0.18054199,91.0
23428,-0.6536045,-0.32683563,-0.69028854,-0.32072756,0.0637207,-0.14868164,91.0
23429,-0.5307083,-0.5013504,-0.930233,-0.32072756,0.0637207,-0.14868164,91.0
23430,-0.5307083,-0.5013504,-0.930233,-0.18797608,0.083898924,-0.1731079,91.0
23431,-0.13019562,-0.43844604,-0.5422363,-0.18797608,0.083898924,-0.1731079,91.0
23432,-0.13019562,-0.43844604,-0.5422363,-0.17947999,0.043542482,-0.16461182,91.0
23433,0.24783325,-0.18840027,0.12249756,-0.17947999,0.043542482,-0.16461182,91.0
23434,0.24783325,-0.18840027,0.12249756,-0.21983643,-0.05522461,-0.20072022,91.0
23435,0.24783325,-0.18840027,0.12249756,-0.21983643,-0.05522461,-0.20072022,91.0
23436,0.68559456,0.29457092,0.6117325,-0.21983643,-0.05522461,-0.20072022,91.0
23437,0.68559456,0.29457092,0.6117325,-0.3345337,-0.107263185,-0.107263185,91.0
23438,0.80940056,0.26167297,0.5621033,-0.3345337,-0.107263185,-0.107263185,91.0
23439,0.80940056,0.26167297,0.5621033,-0.26444092,-0.047790527,-0.09770508,91.0
23440,0.43305588,-0.31144714,0.1631813,-0.26444092,-0.047790527,-0.09770508,91.0
23441,0.43305588,-0.31144714,0.1631813,-0.115759276,0.008496094,-0.15611573,91.0
23442,0.18881607,-0.32901764,0.10697174,-0.115759276,0.008496094,-0.15611573,91.0
23443,0.18881607,-0.32901764,0.10697174,-0.08283692,0.06903076,-0.16461182,91.0
23444,0.13760185,-0.11540985,0.45237732,-0.08283692,0.06903076,-0.16461182,91.0
23445,0.13760185,-0.11540985,0.45237732,-0.033984374,0.1083252,-0.18160401,91.0
23446,-0.021045685,-0.075286865,0.81036377,-0.033984374,0.1083252,-0.18160401,91.0
23447,-0.021045685,-0.075286865,0.81036377,0.0541626,0.08283692,-0.25806886,91.0
23448,-0.1976471,-0.30903625,0.5776825,0.0541626,0.08283692,-0.25806886,91.0
23449,-0.1976471,-0.30903625,0.5776825,0.29099122,0.11151123,-0.2899292,91.0
23450,-0.35396576,-0.45558167,-0.2985115,0.29099122,0.11151123,-0.2899292,91.0
23451,-0.35396576,-0.45558167,-0.2985115,0.3345337,0.18479005,-0.26762697,91.0
23452,-0.47522545,-0.34062195,-1.0792007,0.3345337,0.18479005,-0.26762697,91.0
23453,-0.47522545,-0.34062195,-1.0792007,0.28568116,0.21134034,-0.3090454,91.0
23454,-0.4577675,-0.30482483,-1.4478111,0.28568116,0.21134034,-0.3090454,91.0
23455,-0.4577675,-0.30482483,-1.4478111,0.14337158,0.23151855,-0.3419678,91.0
23456,-0.46414948,-0.33083344,-1.7083092,0.14337158,0.23151855,-0.3419678,91.0
23457,-0.46414948,-0.33083344,-1.7083092,-0.081774905,0.25913087,-0.35152587,91.0
23458,-0.59594154,-0.32626343,-2.0603485,-0.081774905,0.25913087,-0.35152587,91.0
23459,-0.59594154,-0.32626343,-2.0603485,0.10407715,0.31860352,-0.362146,91.0
23460,-0.72592163,-0.22706604,-2.195839,0.10407715,0.31860352,-0.362146,91.0
23461,-0.72592163,-0.22706604,-2.195839,0.3058594,0.32816163,-0.34940186,91.0
23462,-0.71663857,-0.013450623,-1.7810593,0.3058594,0.32816163,-0.34940186,91.0
23463,-0.71663857,-0.013450623,-1.7810593,0.39400634,0.31860352,-0.32391357,91.0
23464,-0.63562775,0.11768341,-0.98280716,0.39400634,0.31860352,-0.32391357,91.0
23465,-0.63562775,0.11768341,-0.98280716,0.39506838,0.25063476,-0.3090454,91.0
23466,-0.60211754,0.04953003,-0.21266174,0.39506838,0.25063476,-0.3090454,91.0
23467,-0.60211754,0.04953003,-0.21266174,0.35046387,0.18691407,-0.29205322,91.0
23468,-0.50585175,-0.16285706,0.05580902,0.35046387,0.18691407,-0.29205322,91.0
23469,-0.50585175,-0.16285706,0.05580902,0.42692873,0.2538208,-0.2548828,91.0
23470,-0.46337318,-0.45198822,-0.08013153,0.42692873,0.2538208,-0.2548828,91.0
23471,-0.46337318,-0.45198822,-0.08013153,0.45772704,0.270813,-0.31435546,91.0
23472,-0.53645897,-0.43524933,-0.20241165,0.45772704,0.270813,-0.31435546,91.0
23473,-0.53645897,-0.43524933,-0.20241165,0.30161133,0.26550293,-0.21983643,91.0
23474,-0.47407532,-0.14211273,-0.50912476,0.30161133,0.26550293,-0.21983643,91.0
23475,-0.47407532,-0.14211273,-0.50912476,0.093457036,0.39400634,-0.1731079,91.0
23476,-0.36026573,-0.20283508,-1.3021126,0.093457036,0.39400634,-0.1731079,91.0
23477,-0.36026573,-0.20283508,-1.3021126,0.05628662,0.7072998,-0.118945315,91.0
23478,-0.43491554,-0.285141,-2.0795326,0.05628662,0.7072998,-0.118945315,91.0
23479,-0.43491554,-0.285141,-2.0795326,0.2166504,1.0588257,-0.03079834,91.0
23480,-0.52510643,0.3458023,-2.338848,0.2166504,1.0588257,-0.03079834,91.0
23481,-0.52510643,0.3458023,-2.338848,-0.5734863,1.5792115,0.22408448,91.0
23482,-0.4815483,0.98918915,-2.366829,-0.5734863,1.5792115,0.22408448,91.0
23483,-0.4815483,0.98918915,-2.366829,-0.8326172,2.0507448,0.40993652,91.0
23484,-0.48470116,1.0895004,-2.3831978,-0.8326172,2.0507448,0.40993652,91.0
23485,-0.48470116,1.0895004,-2.3831978,-0.9897949,2.442627,0.6510132,91.0
23486,-0.5575237,0.91075134,-2.2372322,-0.9897949,2.442627,0.6510132,91.0
23487,-0.5575237,0.91075134,-2.2372322,-1.2361816,2.7835329,0.83049315,91.0
23488,-0.72963715,0.72953033,-1.9998436,-1.2361816,2.7835329,0.83049315,91.0
23489,-0.72963715,0.72953033,-1.9998436,-1.7905518,3.0670898,1.0407715,91.0
23490,-0.95589066,0.8998108,-1.9323959,-1.7905518,3.0670898,1.0407715,91.0
23491,-0.95589066,0.8998108,-1.9323959,-2.792029,3.1998413,1.2329956,91.0
23492,-0.91436005,1.4185562,-2.2869453,-2.792029,3.1998413,1.2329956,91.0
23493,-0.91436005,1.4185562,-2.2869453,-4.190698,3.2986085,1.4199097,91.0
23494,-0.725544,1.8447342,-2.9763336,-4.190698,3.2986085,1.4199097,91.0
23495,-0.725544,1.8447342,-2.9763336,-5.0997806,3.3570192,1.7268311,91.0
23496,-0.8582058,1.7935028,-3.6558952,-5.0997806,3.3570192,1.7268311,91.0
23497,-0.8582058,1.7935028,-3.6558952,-5.092346,3.2348878,2.086853,91.0
23498,-1.1999435,1.7681732,-3.943943,-5.092346,3.2348878,2.086853,91.0
23499,-1.1999435,1.7681732,-3.943943,-5.177307,2.9428346,2.4054565,91.0
23500,-1.3062325,2.027298,-3.6552505,-5.177307,2.9428346,2.4054565,91.0
23501,-1.3062325,2.027298,-3.6552505,-5.3206787,2.5254638,2.71875,91.0
23502,-1.0901527,2.0986328,-2.8855515,-5.3206787,2.5254638,2.71875,91.0
23503,-1.0901527,2.0986328,-2.8855515,-5.087036,2.0369384,2.9502685,91.0
23504,-0.6678982,1.733902,-1.8849564,-5.087036,2.0369384,2.9502685,91.0
23505,-0.6678982,1.733902,-1.8849564,-4.4572635,1.4995606,3.0437257,91.0
23506,-0.095378876,1.1900406,-0.8841629,-4.4572635,1.4995606,3.0437257,91.0
23507,-0.095378876,1.1900406,-0.8841629,-3.7425294,0.9897949,2.9630127,91.0
23508,0.6357937,0.8193054,-0.07481003,-3.7425294,0.9897949,2.9630127,91.0
23509,0.6357937,0.8193054,-0.07481003,-3.1382446,0.5533081,2.7739747,91.0
23510,1.4797173,0.76425934,0.44566727,-3.1382446,0.5533081,2.7739747,91.0
23511,1.4797173,0.76425934,0.44566727,-2.72406,0.21877442,2.4553711,91.0
23512,2.2317734,0.94522095,0.7884064,-2.72406,0.21877442,2.4553711,91.0
23513,2.2317734,0.94522095,0.7884064,-2.4659913,0.038232423,2.0295045,91.0
23514,2.5083675,1.2996979,1.0206413,-2.4659913,0.038232423,2.0295045,91.0
23515,2.5083675,1.2996979,1.0206413,-2.427759,-0.047790527,1.5027466,91.0
23516,2.180975,1.8172607,1.129097,-2.427759,-0.047790527,1.5027466,91.0
23517,2.180975,1.8172607,1.129097,-2.6614015,-0.22302246,0.95793456,91.0
23518,1.829874,2.3117676,1.1026192,-2.6614015,-0.22302246,0.95793456,91.0
23519,1.829874,2.3117676,1.1026192,-2.996997,-0.3971924,0.452417,91.0
23520,2.0313187,2.510727,1.0293007,-2.996997,-0.3971924,0.452417,91.0
23521,2.0313187,2.510727,1.0293007,-3.258252,-0.42905274,-0.0021240234,91.0
23522,2.505682,2.3814468,0.98892975,-3.258252,-0.42905274,-0.0021240234,91.0
23523,2.505682,2.3814468,0.98892975,-3.3825073,-0.33240968,-0.33665773,91.0
23524,2.518631,2.0640793,0.9770317,-3.3825073,-0.33240968,-0.33665773,91.0
23525,2.518631,2.0640793,0.9770317,-3.3336549,-0.1720459,-0.5522461,91.0
23526,1.7706051,1.6694412,1.0080032,-3.3336549,-0.1720459,-0.5522461,91.0
23527,1.7706051,1.6694412,1.0080032,-3.0373535,-0.015930176,-0.6403931,91.0
23528,0.7014828,1.2611542,1.090229,-3.0373535,-0.015930176,-0.6403931,91.0
23529,0.7014828,1.2611542,1.090229,-2.536084,0.10407715,-0.6202149,91.0
23530,-0.0159626,0.88838196,1.2095261,-2.536084,0.10407715,-0.6202149,91.0
23531,-0.0159626,0.88838196,1.2095261,-1.9254273,0.16036378,-0.50445557,91.0
23532,0.026376724,0.6088257,1.3641663,-1.9254273,0.16036378,-0.50445557,91.0
23533,0.026376724,0.6088257,1.3641663,-1.2935303,0.23045655,-0.35789797,91.0
23534,0.658638,0.5165634,1.650856,-1.2935303,0.23045655,-0.35789797,91.0
23535,0.658638,0.5165634,1.650856,-0.78164065,0.32816163,-0.29523927,91.0
23536,1.315424,0.7051697,1.9217453,-0.78164065,0.32816163,-0.29523927,91.0
23537,1.315424,0.7051697,1.9217453,-0.49277344,0.42905274,-0.3154175,91.0
23538,1.6539631,1.0433807,1.9154968,-0.49277344,0.42905274,-0.3154175,91.0
23539,1.6539631,1.0433807,1.9154968,-0.3727661,0.54693604,-0.40250245,91.0
23540,1.6255264,1.1722031,1.8196907,-0.3727661,0.54693604,-0.40250245,91.0
23541,1.6255264,1.1722031,1.8196907,-0.24213867,0.6711914,-0.4991455,91.0
23542,1.1862602,0.9352112,1.8817406,-0.24213867,0.6711914,-0.4991455,91.0
23543,1.1862602,0.9352112,1.8817406,0.05628662,0.70092773,-0.5479981,91.0
23544,0.45234108,0.6202774,1.8629608,0.05628662,0.70092773,-0.5479981,91.0
23545,0.45234108,0.6202774,1.8629608,0.31010744,0.6435791,-0.5533081,91.0
23546,1.6294518,-6.89859,3.2232895,0.31010744,0.6435791,-0.5533081,91.0
23547,1.6294518,-6.89859,3.2232895,0.37701416,0.59260255,-0.5543701,91.0
23548,-1.1264553,1.9605713,0.7102127,0.37701416,0.59260255,-0.5543701,91.0
23549,-1.1264553,1.9605713,0.7102127,0.42374268,0.54693604,-0.54906005,91.0
23550,-1.3223915,1.4725456,0.6917801,0.42374268,0.54693604,-0.54906005,91.0
23551,-1.3223915,1.4725456,0.6917801,0.6754395,0.49171144,-0.48640138,91.0
23552,-1.5206451,0.9802208,0.9612503,0.6754395,0.49171144,-0.48640138,91.0
23553,-1.5206451,0.9802208,0.9612503,1.0397094,0.43011475,-0.43011475,91.0
23554,-1.7772579,0.7293167,1.0515442,1.0397094,0.43011475,-0.43011475,91.0
23555,-1.7772579,0.7293167,1.0515442,1.2414917,0.22939454,-0.4322388,91.0
23556,-1.7508583,0.7316208,0.76286316,1.2414917,0.22939454,-0.4322388,91.0
23557,-1.7508583,0.7316208,0.76286316,1.3073364,-0.013806152,-0.49064943,91.0
23558,-1.2264309,0.7890701,0.24098206,1.3073364,-0.013806152,-0.49064943,91.0
23559,-1.2264309,0.7890701,0.24098206,1.3466309,-0.17416993,-0.52038574,91.0
23560,-0.55358124,0.8079643,-0.30686188,1.3466309,-0.17416993,-0.52038574,91.0
23561,-0.55358124,0.8079643,-0.30686188,1.3678712,-0.29099122,-0.52250975,91.0
23562,-0.114593506,0.88448334,-0.8075485,1.3678712,-0.29099122,-0.52250975,91.0
23563,-0.114593506,0.88448334,-0.8075485,1.3338867,-0.44710693,-0.50870365,91.0
23564,0.008106232,0.97418976,-1.1654739,1.3338867,-0.44710693,-0.50870365,91.0
23565,0.008106232,0.97418976,-1.1654739,1.0641358,-0.5607422,-0.541626,91.0
23566,-0.17260551,0.6934967,-1.1227837,1.0641358,-0.5607422,-0.541626,91.0
23567,-0.17260551,0.6934967,-1.1227837,0.83898926,-0.61702883,-0.5065796,91.0
23568,-0.6396599,-0.3671875,-0.8331032,0.83898926,-0.61702883,-0.5065796,91.0
23569,-0.6396599,-0.3671875,-0.8331032,1.2298096,-0.6786255,-0.48109132,91.0
23570,-1.1044159,-1.4663811,-0.8835106,1.2298096,-0.6786255,-0.48109132,91.0
23571,-1.1044159,-1.4663811,-0.8835106,1.4984986,-0.8995239,-0.3706421,91.0
23572,-1.1375732,-1.8143654,-1.2483635,1.4984986,-0.8995239,-0.3706421,91.0
23573,-1.1375732,-1.8143654,-1.2483635,1.1660889,-0.9154541,-0.51826173,91.0
23574,-0.78778076,-1.8789597,-1.2321129,1.1660889,-0.9154541,-0.51826173,91.0
23575,-0.78778076,-1.8789597,-1.2321129,1.0981201,-0.95368654,-0.6595093,91.0
23576,-0.38233757,-1.9667587,-0.6909027,1.0981201,-0.95368654,-0.6595093,91.0
23577,-0.38233757,-1.9667587,-0.6909027,1.260608,-1.0099732,-0.8496094,91.0
23578,-0.067417145,-2.0650177,-0.31656647,1.260608,-1.0099732,-0.8496094,91.0
23579,-0.067417145,-2.0650177,-0.31656647,0.9876709,-1.0057251,-1.2213135,91.0
23580,0.13645935,-2.4909897,-0.4739952,0.9876709,-1.0057251,-1.2213135,91.0
23581,0.13645935,-2.4909897,-0.4739952,1.0418335,-0.9483765,-1.5186768,91.0
23582,0.19805908,-3.3246155,-0.7700424,1.0418335,-0.9483765,-1.5186768,91.0
23583,0.19805908,-3.3246155,-0.7700424,1.803296,-0.8793457,-1.6641724,91.0
23584,0.059949875,-3.8182755,-0.8131294,1.803296,-0.8793457,-1.6641724,91.0
23585,0.059949875,-3.8182755,-0.8131294,2.4638672,-0.8442993,-1.7491333,91.0
23586,-0.30442047,-3.6064148,-0.65068436,2.4638672,-0.8442993,-1.7491333,91.0
23587,-0.30442047,-3.6064148,-0.65068436,2.727246,-0.88253176,-1.9668458,91.0
23588,-0.7433529,-3.2098236,-0.43756485,2.727246,-0.88253176,-1.9668458,91.0
23589,-0.7433529,-3.2098236,-0.43756485,2.7559204,-0.9717407,-2.256775,91.0
23590,-1.0157757,-3.1276855,-0.31717682,2.7559204,-0.9717407,-2.256775,91.0
23591,-1.0157757,-3.1276855,-0.31717682,2.9481447,-1.0152832,-2.456433,91.0
23592,-1.1761589,-3.2879028,-0.37403107,2.9481447,-1.0152832,-2.456433,91.0
23593,-1.1761589,-3.2879028,-0.37403107,3.255066,-1.0428956,-2.5573242,91.0
23594,-1.3939304,-3.3028183,-0.34794235,3.255066,-1.0428956,-2.5573242,91.0
23595,-1.3939304,-3.3028183,-0.34794235,3.533313,-1.1406006,-2.6072388,91.0
23596,-1.5940266,-3.021576,0.0263443,3.533313,-1.1406006,-2.6072388,91.0
23597,-1.5940266,-3.021576,0.0263443,3.6469483,-1.2308716,-2.628479,91.0
23598,-1.5940266,-3.021576,0.0263443,3.6469483,-1.2308716,-2.628479,87.0
23599,-1.6481323,-2.6220474,0.5143852,3.6469483,-1.2308716,-2.628479,87.0
23600,-1.6481323,-2.6220474,0.5143852,3.4568481,-1.3901733,-2.6051147,87.0
23601,-1.506628,-2.41951,0.7690277,3.4568481,-1.3901733,-2.6051147,87.0
23602,-1.506628,-2.41951,0.7690277,3.3134766,-1.5069946,-2.5626342,87.0
23603,-1.1530075,-2.2630005,0.90821457,3.3134766,-1.5069946,-2.5626342,87.0
23604,-1.1530075,-2.2630005,0.90821457,3.3400269,-1.5877075,-2.440503,87.0
23605,-0.69241333,-1.6219635,1.2772064,3.3400269,-1.5877075,-2.440503,87.0
23606,-0.69241333,-1.6219635,1.2772064,3.2720582,-1.7321411,-2.3162477,87.0
23607,-0.17490196,-0.6261139,1.6865234,3.2720582,-1.7321411,-2.3162477,87.0
23608,-0.17490196,-0.6261139,1.6865234,2.9184082,-1.8648926,-2.265271,87.0
23609,0.35751534,-0.07216644,1.6374893,2.9184082,-1.8648926,-2.265271,87.0
23610,0.35751534,-0.07216644,1.6374893,2.8759277,-1.8712647,-2.1463258,87.0
23611,0.790102,-0.004096985,1.285469,2.8759277,-1.8712647,-2.1463258,87.0
23612,0.790102,-0.004096985,1.285469,2.8217652,-1.8171021,-1.9148072,87.0
23613,1.1330948,0.11538696,1.2095413,2.8217652,-1.8171021,-1.9148072,87.0
23614,1.1330948,0.11538696,1.2095413,2.6327271,-1.7533814,-1.6928467,87.0
23615,1.3769836,0.37376404,1.415802,2.6327271,-1.7533814,-1.6928467,87.0
23616,1.3769836,0.37376404,1.415802,2.5392702,-1.6163819,-1.4347779,87.0
23617,1.4457283,0.6136856,1.4640274,2.5392702,-1.6163819,-1.4347779,87.0
23618,1.4457283,0.6136856,1.4640274,2.5668824,-1.3699951,-1.1554688,87.0
23619,1.4054604,0.8824768,1.3002739,2.5668824,-1.3699951,-1.1554688,87.0
23620,1.4054604,0.8824768,1.3002739,2.526526,-1.0471436,-0.81881106,87.0
23621,1.3445587,1.0761566,1.272152,2.526526,-1.0471436,-0.81881106,87.0
23622,1.3445587,1.0761566,1.272152,2.362976,-0.7412842,-0.4970215,87.0
23623,1.2215347,0.8883133,1.3430634,2.362976,-0.7412842,-0.4970215,87.0
23624,1.2215347,0.8883133,1.3430634,2.2971313,-0.4056885,-0.2888672,87.0
23625,0.9213314,0.6092682,1.2935028,2.2971313,-0.4056885,-0.2888672,87.0
23626,0.9213314,0.6092682,1.2935028,2.1112792,-0.06584473,-0.07752686,87.0
23627,0.37195206,0.5900879,1.2115707,2.1112792,-0.06584473,-0.07752686,87.0
23628,0.37195206,0.5900879,1.2115707,1.8595825,0.14230958,0.1274414,87.0
23629,-0.06288719,0.7152481,1.190094,1.8595825,0.14230958,0.1274414,87.0
23630,-0.06288719,0.7152481,1.190094,1.5303589,0.29311523,0.18266602,87.0
23631,-0.14304733,0.85175323,1.2189102,1.5303589,0.29311523,0.18266602,87.0
23632,-0.14304733,0.85175323,1.2189102,1.2255615,0.40462646,0.19753419,87.0
23633,-0.14214706,0.79196167,1.1953049,1.2255615,0.40462646,0.19753419,87.0
23634,-0.14214706,0.79196167,1.1953049,1.2425537,0.5649902,0.18160401,87.0
23635,-0.36626816,0.58023834,1.0921936,1.2425537,0.5649902,0.18160401,87.0
23636,-0.36626816,0.58023834,1.0921936,1.1193603,0.72323,0.21452637,87.0
23637,-0.7432823,0.29678345,1.0961151,1.1193603,0.72323,0.21452637,87.0
23638,-0.7432823,0.29678345,1.0961151,0.88040775,0.76358646,0.21134034,87.0
23639,-1.0855789,-0.01084137,1.1648903,0.88040775,0.76358646,0.21134034,87.0
23640,-1.0855789,-0.01084137,1.1648903,0.6616333,0.7784546,0.13912354,87.0
23641,-1.2904968,-0.0033874512,1.0049095,0.6616333,0.7784546,0.13912354,87.0
23642,-1.2904968,-0.0033874512,1.0049095,0.39506838,0.8294312,0.12531738,87.0
23643,-1.2456551,0.2723236,0.69490814,0.39506838,0.8294312,0.12531738,87.0
23644,-1.2456551,0.2723236,0.69490814,0.10513916,0.90802,0.08814698,87.0
23645,-0.86266136,0.34773254,0.6253967,0.10513916,0.90802,0.08814698,87.0
23646,-0.86266136,0.34773254,0.6253967,0.06478272,0.9324463,0.04248047,87.0
23647,-0.21672821,0.23742676,0.7832031,0.06478272,0.9324463,0.04248047,87.0
23648,-0.21672821,0.23742676,0.7832031,0.2177124,0.8687256,0.04141846,87.0
23649,0.33815384,0.25093842,0.7878418,0.2177124,0.8687256,0.04141846,87.0
23650,0.33815384,0.25093842,0.7878418,0.26656494,0.76677245,0.09133301,87.0
23651,0.49720764,0.34215546,0.555809,0.26656494,0.76677245,0.09133301,87.0
23652,0.49720764,0.34215546,0.555809,0.13381349,0.63826907,0.11363526,87.0
23653,0.35372353,0.2184143,0.41791153,0.13381349,0.63826907,0.11363526,87.0
23654,0.35372353,0.2184143,0.41791153,0.18903808,0.51932377,0.095581055,87.0
23655,0.23526192,-0.008201599,0.461586,0.18903808,0.51932377,0.095581055,87.0
23656,0.23526192,-0.008201599,0.461586,0.14655761,0.44179687,0.059472658,87.0
23657,0.24770737,-0.06602478,0.4131012,0.14655761,0.44179687,0.059472658,87.0
23658,0.24770737,-0.06602478,0.4131012,0.03186035,0.45347902,0.0063720704,87.0
23659,0.26484108,0.04866028,0.15563965,0.03186035,0.45347902,0.0063720704,87.0
23660,0.26484108,0.04866028,0.15563965,0.07752686,0.46834716,0.06903076,87.0
23661,0.18138123,0.26021576,0.26107025,0.07752686,0.46834716,0.06903076,87.0
23662,0.18138123,0.26021576,0.26107025,-0.028674318,0.4088745,0.039294433,87.0
23663,0.04011154,0.2463913,1.0452576,-0.028674318,0.4088745,0.039294433,87.0
23664,0.04011154,0.2463913,1.0452576,-0.17735596,0.31860352,0.0,87.0
23665,0.13907242,0.022514343,1.850071,-0.17735596,0.31860352,0.0,87.0
23666,0.13907242,0.022514343,1.850071,-0.55543214,0.11469727,-0.070092775,87.0
23667,0.57514954,-0.116500854,1.9404564,-0.55543214,0.11469727,-0.070092775,87.0
23668,0.57514954,-0.116500854,1.9404564,-0.53525394,-0.04248047,-0.020178223,87.0
23669,1.1110973,-0.23940277,1.0745087,-0.53525394,-0.04248047,-0.020178223,87.0
23670,1.1110973,-0.23940277,1.0745087,-0.11363526,-0.035046387,-0.0998291,87.0
23671,1.4313202,0.098335266,-0.042881012,-0.11363526,-0.035046387,-0.0998291,87.0
23672,1.4313202,0.098335266,-0.042881012,0.15823975,0.0053100586,-0.08602295,87.0
23673,1.3195076,0.9236984,-0.6195221,0.15823975,0.0053100586,-0.08602295,87.0
23674,1.3195076,0.9236984,-0.6195221,0.0361084,-0.03186035,0.046728518,87.0
23675,0.96517754,1.1666412,-0.9762726,0.0361084,-0.03186035,0.046728518,87.0
23676,0.96517754,1.1666412,-0.9762726,-0.059472658,0.047790527,0.14655761,87.0
23677,0.64328384,0.46502686,-1.4013939,-0.059472658,0.047790527,0.14655761,87.0
23678,0.64328384,0.46502686,-1.4013939,-0.06796875,0.2442627,0.13275146,87.0
23679,0.36758232,-0.2590561,-1.9303055,-0.06796875,0.2442627,0.13275146,87.0
23680,0.36758232,-0.2590561,-1.9303055,0.029736329,0.47471926,0.24744873,87.0
23681,0.0107040405,-0.68006897,-2.3909492,0.029736329,0.47471926,0.24744873,87.0
23682,0.0107040405,-0.68006897,-2.3909492,0.0063720704,0.71791995,0.1083252,87.0
23683,-0.5301323,-0.8289795,-1.6131744,0.0063720704,0.71791995,0.1083252,87.0
23684,-0.5301323,-0.8289795,-1.6131744,0.14868164,0.72960204,-0.070092775,87.0
23685,-1.2416706,-0.5836563,0.69654465,0.14868164,0.72960204,-0.070092775,87.0
23686,-1.2416706,-0.5836563,0.69654465,0.28780517,0.4354248,-0.14868164,87.0
23687,-1.6198997,-0.713356,1.8992996,0.28780517,0.4354248,-0.14868164,87.0
23688,-1.6198997,-0.713356,1.8992996,0.6701294,0.2516968,-0.33134767,87.0
23689,-0.83226013,-0.9724426,-0.11178589,0.6701294,0.2516968,-0.33134767,87.0
23690,-0.83226013,-0.9724426,-0.11178589,1.0460815,0.49277344,-0.42268068,87.0
23691,0.3955803,-0.421875,-2.9154816,1.0460815,0.49277344,-0.42268068,87.0
23692,0.3955803,-0.421875,-2.9154816,1.3126465,0.7582764,-0.45454103,87.0
23693,0.62929344,0.6588669,-3.1113777,1.3126465,0.7582764,-0.45454103,87.0
23694,0.62929344,0.6588669,-3.1113777,1.1459106,0.7688965,-0.4609131,87.0
23695,0.13737106,1.5401077,-1.2979546,1.1459106,0.7688965,-0.4609131,87.0
23696,0.13737106,1.5401077,-1.2979546,0.6754395,0.61278075,-0.31860352,87.0
23697,-0.019582748,1.1060257,-0.07126236,0.6754395,0.61278075,-0.31860352,87.0
23698,-0.019582748,1.1060257,-0.07126236,0.50233155,0.6414551,-0.38444826,87.0
23699,-0.019582748,1.1060257,-0.07126236,0.50233155,0.6414551,-0.38444826,86.0
23700,-0.06560516,-0.33395386,0.33212662,0.50233155,0.6414551,-0.38444826,86.0
23701,-0.06560516,-0.33395386,0.33212662,0.7869507,0.724292,-0.36533204,86.0
23702,-0.4291439,-0.90522766,0.51854324,0.7869507,0.724292,-0.36533204,86.0
23703,-0.4291439,-0.90522766,0.51854324,0.74022216,0.631897,-0.3440918,86.0
23704,-0.67938614,-0.42906952,0.4080963,0.74022216,0.631897,-0.3440918,86.0
23705,-0.67938614,-0.42906952,0.4080963,0.54906005,0.55543214,-0.36851808,86.0
23706,-0.61642075,0.06504822,-0.040550232,0.54906005,0.55543214,-0.36851808,86.0
23707,-0.61642075,0.06504822,-0.040550232,0.47578126,0.5246338,-0.36639404,86.0
23708,-0.41687775,0.28752136,-0.51364136,0.47578126,0.5246338,-0.36639404,86.0
23709,-0.41687775,0.28752136,-0.51364136,0.78376466,0.6000366,-0.37382814,86.0
23710,-0.26841545,0.7151718,-0.4902954,0.78376466,0.6000366,-0.37382814,86.0
23711,-0.26841545,0.7151718,-0.4902954,0.67225343,0.47684327,-0.32178956,86.0
23712,-0.09272385,0.9729538,-0.43183517,0.67225343,0.47684327,-0.32178956,86.0
23713,-0.09272385,0.9729538,-0.43183517,0.3164795,0.41206056,-0.27718505,86.0
23714,0.12895966,0.14567566,-0.58815765,0.3164795,0.41206056,-0.27718505,86.0
23715,0.12895966,0.14567566,-0.58815765,0.6595093,0.4439209,-0.3451538,86.0
23716,0.19005775,-0.7830353,-0.24531937,0.6595093,0.4439209,-0.3451538,86.0
23717,0.19005775,-0.7830353,-0.24531937,1.1129884,0.50233155,-0.3695801,86.0
23718,0.17606926,-0.6834259,0.4003029,1.1129884,0.50233155,-0.3695801,86.0
23719,0.17606926,-0.6834259,0.4003029,0.99298096,0.4800293,-0.32816163,86.0
23720,0.27972412,-0.30641937,0.5414696,0.99298096,0.4800293,-0.32816163,86.0
23721,0.27972412,-0.30641937,0.5414696,0.8464233,0.51082766,-0.3175415,86.0
23722,0.3686638,-0.3844452,0.12647247,0.8464233,0.51082766,-0.3175415,86.0
23723,0.3686638,-0.3844452,0.12647247,0.91757816,0.51082766,-0.29523927,86.0
23724,0.14131927,-0.54655457,0.010261536,0.91757816,0.51082766,-0.29523927,86.0
23725,0.14131927,-0.54655457,0.010261536,1.0205933,0.4619751,-0.3175415,86.0
23726,-0.40055466,-0.3047943,0.32815552,1.0205933,0.4619751,-0.3175415,86.0
23727,-0.40055466,-0.3047943,0.32815552,0.61278075,0.26868898,-0.26337892,86.0
23728,-0.76938057,0.14829254,0.20191574,0.61278075,0.26868898,-0.26337892,86.0
23729,-0.76938057,0.14829254,0.20191574,0.15186767,0.087084964,-0.23364258,86.0
23730,-0.5683727,0.23300934,-0.34178925,0.15186767,0.087084964,-0.23364258,86.0
23731,-0.5683727,0.23300934,-0.34178925,0.17416993,0.0053100586,-0.24001466,86.0
23732,0.016492844,0.09751892,-0.5793419,0.17416993,0.0053100586,-0.24001466,86.0
23733,0.016492844,0.09751892,-0.5793419,0.2262085,-0.038232423,-0.19328614,86.0
23734,0.44849777,0.10923004,-0.38491058,0.2262085,-0.038232423,-0.19328614,86.0
23735,0.44849777,0.10923004,-0.38491058,0.18479005,-0.08283692,-0.16036378,86.0
23736,0.45806694,0.0971756,-0.05476761,0.18479005,-0.08283692,-0.16036378,86.0
23737,0.45806694,0.0971756,-0.05476761,0.032922365,-0.14868164,-0.124255374,86.0
23738,0.26849174,0.024139404,0.08417511,0.032922365,-0.14868164,-0.124255374,86.0
23739,0.26849174,0.024139404,0.08417511,-0.19647217,-0.19222413,-0.046728518,86.0
23740,0.1878891,-0.06467438,-0.085445404,-0.19647217,-0.19222413,-0.046728518,86.0
23741,0.1878891,-0.06467438,-0.085445404,-0.48215333,-0.22727051,0.03079834,86.0
23742,0.2643013,-0.17326355,-0.2906456,-0.48215333,-0.22727051,0.03079834,86.0
23743,0.2643013,-0.17326355,-0.2906456,-0.4725952,-0.22833252,0.04991455,86.0
23744,0.29979706,-0.15203857,-0.2684288,-0.4725952,-0.22833252,0.04991455,86.0
23745,0.29979706,-0.15203857,-0.2684288,-0.33134767,-0.22727051,0.03079834,86.0
23746,0.22372437,0.111587524,-0.14641953,-0.33134767,-0.22727051,0.03079834,86.0
23747,0.22372437,0.111587524,-0.14641953,-0.26656494,-0.21134034,0.057348635,86.0
23748,0.14237022,0.23402405,-0.0099105835,-0.26656494,-0.21134034,0.057348635,86.0
23749,0.14237022,0.23402405,-0.0099105835,-0.12956543,-0.13806152,0.098767094,86.0
23750,0.03671074,0.068374634,0.32954788,-0.12956543,-0.13806152,0.098767094,86.0
23751,0.03671074,0.068374634,0.32954788,-0.1274414,-0.1444336,0.13487549,86.0
23752,-0.04591179,-0.10306549,0.65877914,-0.1274414,-0.1444336,0.13487549,86.0
23753,-0.04591179,-0.10306549,0.65877914,-0.29417726,-0.16461182,0.12000733,86.0
23754,0.009754181,-0.039215088,0.54681015,-0.29417726,-0.16461182,0.12000733,86.0
23755,0.009754181,-0.039215088,0.54681015,-0.4725952,-0.13806152,0.16036378,86.0
23756,0.1454258,0.10107422,0.09592056,-0.4725952,-0.13806152,0.16036378,86.0
23757,0.1454258,0.10107422,0.09592056,-0.4895874,-0.058410645,0.17629395,86.0
23758,0.19355011,-0.06239319,-0.051036835,-0.4895874,-0.058410645,0.17629395,86.0
23759,0.19355011,-0.06239319,-0.051036835,-0.33028564,0.012744141,0.17629395,86.0
23760,0.19917679,-0.22291565,0.038146973,-0.33028564,0.012744141,0.17629395,86.0
23761,0.19917679,-0.22291565,0.038146973,-0.24213867,0.07965088,0.1901001,86.0
23762,0.15832901,0.03568268,-0.17084885,-0.24213867,0.07965088,0.1901001,86.0
23763,0.15832901,0.03568268,-0.17084885,-0.22302246,0.095581055,0.1985962,86.0
23764,0.034427643,0.39149475,-0.5637207,-0.22302246,0.095581055,0.1985962,86.0
23765,0.034427643,0.39149475,-0.5637207,-0.2262085,0.087084964,0.18691407,86.0
23766,-0.011875153,0.33869934,-0.56142426,-0.2262085,0.087084964,0.18691407,86.0
23767,-0.011875153,0.33869934,-0.56142426,0.07327881,0.14337158,0.17841797,86.0
23768,-0.027212143,0.034873962,1.7547607E-4,0.07327881,0.14337158,0.17841797,86.0
23769,-0.027212143,0.034873962,1.7547607E-4,0.09664307,0.1178833,0.14337158,86.0
23770,-0.08405113,0.014717102,0.3158722,0.09664307,0.1178833,0.14337158,86.0
23771,-0.08405113,0.014717102,0.3158722,0.03717041,0.090270996,0.18160401,86.0
23772,-0.10299492,0.18889618,0.086586,0.03717041,0.090270996,0.18160401,86.0
