,accx,accy,accz,gyrox,gyroy,gyroz,heart rate
27743,open,open,open,open,open,open,open
27744,-0.040468216,-0.145195,0.58371735,-0.07434082,-0.028674318,-0.11044922,62.0
27745,-0.035463333,-0.11450958,0.47233582,-0.07434082,-0.028674318,-0.11044922,62.0
27746,-0.035463333,-0.11450958,0.47233582,0.0063720704,-0.0722168,0.03717041,62.0
27747,-0.028821945,-0.09335327,0.3729477,0.0063720704,-0.0722168,0.03717041,62.0
27748,-0.028821945,-0.09335327,0.3729477,-0.04885254,-0.053100586,0.0010620117,62.0
27749,0.11396694,-0.0063705444,-0.17910767,-0.04885254,-0.053100586,0.0010620117,62.0
27750,0.11396694,-0.0063705444,-0.17910767,-0.019116212,-0.038232423,-0.02442627,62.0
27751,0.13006592,-0.03551483,-0.07841873,-0.019116212,-0.038232423,-0.02442627,62.0
27752,0.13006592,-0.03551483,-0.07841873,-0.0010620117,-0.027612304,-0.033984374,62.0
27753,0.1007452,0.007797241,-0.042556763,-0.0010620117,-0.027612304,-0.033984374,62.0
27754,0.1007452,0.007797241,-0.042556763,0.026550293,0.022302246,-0.014868164,62.0
27755,0.1007452,0.007797241,-0.042556763,0.022302246,0.070092775,0.0021240234,62.0
27756,0.06470299,0.061660767,-0.05480957,0.022302246,0.070092775,0.0021240234,62.0
27757,0.047514915,0.100608826,-0.050247192,0.022302246,0.070092775,0.0021240234,62.0
27758,0.047514915,0.100608826,-0.050247192,0.0180542,0.057348635,-0.0063720704,62.0
27759,0.04776573,0.10398865,-0.03452301,0.0180542,0.057348635,-0.0063720704,62.0
27760,0.04776573,0.10398865,-0.03452301,-0.0010620117,0.021240234,-0.014868164,62.0
27761,0.079081535,0.06327057,-0.06021118,-0.0010620117,0.021240234,-0.014868164,62.0
27762,0.079081535,0.06327057,-0.06021118,-0.040356446,0.028674318,-0.019116212,62.0
27763,0.097896576,0.012664795,-0.096473694,-0.040356446,0.028674318,-0.019116212,62.0
27764,0.097896576,0.012664795,-0.096473694,-0.090270996,0.047790527,-0.03079834,62.0
27765,0.07270241,-0.012557983,-0.087776184,-0.090270996,0.047790527,-0.03079834,62.0
27766,0.07270241,-0.012557983,-0.087776184,-0.081774905,0.04248047,-0.04885254,62.0
27767,0.035676003,-0.0041046143,-0.049224854,-0.081774905,0.04248047,-0.04885254,62.0
27768,0.035676003,-0.0041046143,-0.049224854,-0.04141846,0.02442627,-0.046728518,62.0
27769,-0.010069847,0.007583618,-0.014320374,-0.04141846,0.02442627,-0.046728518,62.0
27770,-0.010069847,0.007583618,-0.014320374,-0.023364259,0.0361084,-0.016992187,62.0
27771,-0.052404404,0.0019683838,-2.975464E-4,-0.023364259,0.0361084,-0.016992187,62.0
27772,-0.052404404,0.0019683838,-2.975464E-4,-0.008496094,0.040356446,-0.004248047,62.0
27773,-0.07588291,-0.012832642,0.010761261,-0.008496094,0.040356446,-0.004248047,62.0
27774,-0.07588291,-0.012832642,0.010761261,0.010620117,0.046728518,-0.011682129,62.0
27775,-0.055176735,-0.025917053,0.0034828186,0.010620117,0.046728518,-0.011682129,62.0
27776,-0.055176735,-0.025917053,0.0034828186,-0.0361084,0.057348635,-0.053100586,62.0
27777,-0.023291588,-0.039627075,-0.02785492,-0.0361084,0.057348635,-0.053100586,62.0
27778,-0.023291588,-0.039627075,-0.02785492,-0.1083252,0.06796875,-0.08283692,62.0
27779,-0.042497635,-0.03653717,-0.076107025,-0.1083252,0.06796875,-0.08283692,62.0
27780,-0.042497635,-0.03653717,-0.076107025,-0.12213135,0.07646485,-0.08071289,62.0
27781,-0.10223484,-0.026802063,-0.123176575,-0.12213135,0.07646485,-0.08071289,62.0
27782,-0.10223484,-0.026802063,-0.123176575,-0.13168946,0.10938721,-0.07434082,62.0
27783,-0.12197304,-0.028999329,-0.16648865,-0.13168946,0.10938721,-0.07434082,62.0
27784,-0.12197304,-0.028999329,-0.16648865,-0.18266602,0.13168946,-0.03186035,62.0
27785,-0.07405472,-0.055770874,-0.16113281,-0.18266602,0.13168946,-0.03186035,62.0
27786,-0.07405472,-0.055770874,-0.16113281,-0.20390625,0.10301514,-0.032922365,62.0
27787,-0.007082939,-0.088760376,-0.051296234,-0.20390625,0.10301514,-0.032922365,62.0
27788,-0.007082939,-0.088760376,-0.051296234,-0.1083252,0.07646485,-0.06478272,62.0
27789,0.036068916,-0.092819214,0.07666397,-0.1083252,0.07646485,-0.06478272,62.0
27790,0.036068916,-0.092819214,0.07666397,0.035046387,0.087084964,-0.060534667,62.0
27791,0.040439606,-0.07530975,0.076553345,0.035046387,0.087084964,-0.060534667,62.0
27792,0.040439606,-0.07530975,0.076553345,0.015930176,0.06478272,-0.06478272,62.0
27793,0.023428917,-0.05858612,-0.04720688,0.015930176,0.06478272,-0.06478272,62.0
27794,0.023428917,-0.05858612,-0.04720688,-0.10407715,0.0361084,-0.10620117,62.0
27795,0.011956215,-0.053359985,-0.13411331,-0.10407715,0.0361084,-0.10620117,62.0
27796,0.011956215,-0.053359985,-0.13411331,-0.18691407,0.052038576,-0.14124756,62.0
27797,-0.010685921,-0.06123352,-0.11329651,-0.18691407,0.052038576,-0.14124756,62.0
27798,-0.010685921,-0.06123352,-0.11329651,-0.18266602,0.090270996,-0.1274414,62.0
27799,-0.010685921,-0.06123352,-0.11329651,-0.16248779,0.11151123,-0.121069334,62.0
27800,-0.013212204,-0.08213043,-0.047851562,-0.16248779,0.11151123,-0.121069334,62.0
27801,-0.050937653,-0.05354309,-0.017139435,-0.16248779,0.11151123,-0.121069334,62.0
27802,-0.050937653,-0.05354309,-0.017139435,-0.09133301,0.1444336,-0.14868164,62.0
27803,-0.29050636,-0.006286621,0.012607574,-0.09133301,0.1444336,-0.14868164,62.0
27804,-0.29050636,-0.006286621,0.012607574,0.0021240234,0.043542482,0.12850343,62.0
27805,-0.4148388,-0.061080933,0.041835785,0.0021240234,0.043542482,0.12850343,62.0
27806,-0.4148388,-0.061080933,0.041835785,0.052038576,-0.04141846,0.09664307,62.0
27807,-0.19503021,-0.13731384,-0.06168747,0.052038576,-0.04141846,0.09664307,62.0
27808,-0.19503021,-0.13731384,-0.06168747,0.07646485,-0.04248047,0.039294433,62.0
27809,-0.016608238,-0.13061523,-0.24311066,0.07646485,-0.04248047,0.039294433,62.0
27810,-0.016608238,-0.13061523,-0.24311066,0.03079834,0.095581055,0.025488282,62.0
27811,-0.066215515,-0.07820892,-0.29883575,0.03079834,0.095581055,0.025488282,62.0
27812,-0.066215515,-0.07820892,-0.29883575,-0.028674318,0.013806152,-0.011682129,62.0
27813,-0.17998695,-0.06568909,-0.2669487,-0.028674318,0.013806152,-0.011682129,62.0
27814,-0.17998695,-0.06568909,-0.2669487,-0.087084964,0.026550293,0.020178223,62.0
27815,-0.22785187,-0.08892822,-0.24900818,-0.087084964,0.026550293,0.020178223,62.0
27816,-0.22785187,-0.08892822,-0.24900818,-0.1274414,0.05522461,0.016992187,62.0
27817,-0.26032066,-0.08148193,-0.19390869,-0.1274414,0.05522461,0.016992187,62.0
27818,-0.26032066,-0.08148193,-0.19390869,-0.14761963,0.115759276,0.05628662,62.0
27819,-0.28154755,-0.049461365,-0.115600586,-0.14761963,0.115759276,0.05628662,62.0
27820,-0.28154755,-0.049461365,-0.115600586,-0.12319336,0.107263185,0.11469727,62.0
27821,-0.22166157,-0.029975891,-0.05999756,-0.12319336,0.107263185,0.11469727,62.0
27822,-0.22166157,-0.029975891,-0.05999756,-0.11151123,0.10089111,0.11363526,62.0
27823,-0.14864254,-0.0031433105,-0.08444595,-0.11151123,0.10089111,0.11363526,62.0
27824,-0.14864254,-0.0031433105,-0.08444595,-0.11044922,0.1539917,0.14655761,62.0
27825,-0.10972214,0.023857117,-0.14831543,-0.11044922,0.1539917,0.14655761,62.0
27826,-0.10972214,0.023857117,-0.14831543,-0.16461182,0.1709839,0.18585205,62.0
27827,-0.07814598,0.021530151,-0.17977524,-0.16461182,0.1709839,0.18585205,62.0
27828,-0.07814598,0.021530151,-0.17977524,-0.16992188,0.1731079,0.20921631,62.0
27829,-0.025724411,0.00390625,-0.19919205,-0.16992188,0.1731079,0.20921631,62.0
27830,-0.025724411,0.00390625,-0.19919205,-0.18903808,0.18797608,0.2262085,62.0
27831,0.04497242,0.008056641,-0.24172974,-0.18903808,0.18797608,0.2262085,62.0
27832,0.04497242,0.008056641,-0.24172974,-0.21983643,0.19328614,0.23364258,62.0
27833,0.10961151,-0.0065078735,-0.27069092,-0.21983643,0.19328614,0.23364258,62.0
27834,0.10961151,-0.0065078735,-0.27069092,-0.29523927,0.20390625,0.22302246,62.0
27835,0.10695171,-0.046272278,-0.25075912,-0.29523927,0.20390625,0.22302246,62.0
27836,0.10695171,-0.046272278,-0.25075912,-0.32072756,0.24957275,0.18691407,62.0
27837,0.0053367615,-0.060958862,-0.22633743,-0.32072756,0.24957275,0.18691407,62.0
27838,0.0053367615,-0.060958862,-0.22633743,-0.27399904,0.29948732,0.1901001,62.0
27839,-0.108670235,-0.039268494,-0.2977562,-0.27399904,0.29948732,0.1901001,62.0
27840,-0.108670235,-0.039268494,-0.2977562,-0.21877442,0.36639404,0.18054199,62.0
27841,-0.13300514,-0.028167725,-0.5156326,-0.21877442,0.36639404,0.18054199,62.0
27842,-0.13300514,-0.028167725,-0.5156326,-0.1996582,0.5246338,0.18479005,62.0
27843,-0.06754875,-0.061073303,-0.9124336,-0.1996582,0.5246338,0.18479005,62.0
27844,-0.06754875,-0.061073303,-0.9124336,-0.20921631,0.7593384,0.17523193,62.0
27845,-0.016405106,-0.13835907,-1.3050919,-0.20921631,0.7593384,0.17523193,62.0
27846,-0.016405106,-0.13835907,-1.3050919,-0.4078125,1.1692749,0.095581055,62.0
27847,-0.07683277,-0.25100708,-1.4363937,-0.4078125,1.1692749,0.095581055,62.0
27848,-0.07683277,-0.25100708,-1.4363937,-0.77739257,1.5261109,0.035046387,62.0
27849,-0.15052795,-0.36179352,-1.3038864,-0.77739257,1.5261109,0.035046387,62.0
27850,-0.15052795,-0.36179352,-1.3038864,-1.0407715,1.7809937,-0.047790527,62.0
27851,-0.12414551,-0.45939636,-1.1032066,-1.0407715,1.7809937,-0.047790527,62.0
27852,-0.12414551,-0.45939636,-1.1032066,-1.1384766,1.9753418,-0.1083252,62.0
27853,-0.16928673,-0.53125,-0.86597824,-1.1384766,1.9753418,-0.1083252,62.0
27854,-0.16928673,-0.53125,-0.86597824,-1.3827393,1.9551636,-0.25913087,62.0
27855,-0.37408924,-0.5489044,-0.53850937,-1.3827393,1.9551636,-0.25913087,62.0
27856,-0.37408924,-0.5489044,-0.53850937,-1.6811646,1.6131958,-0.43754885,62.0
27857,-0.494133,-0.58184814,-0.3443184,-1.6811646,1.6131958,-0.43754885,62.0
27858,-0.494133,-0.58184814,-0.3443184,-1.5834595,1.2584839,-0.57242435,62.0
27859,-0.45894146,-0.6471176,-0.42536926,-1.5834595,1.2584839,-0.57242435,62.0
27860,-0.45894146,-0.6471176,-0.42536926,-1.3912354,1.1501588,-0.66588134,62.0
27861,-0.29886627,-0.60957336,-0.66098785,-1.3912354,1.1501588,-0.66588134,62.0
27862,-0.29886627,-0.60957336,-0.66098785,-1.1416626,1.2351197,-0.59047854,62.0
27863,0.093707085,-0.50860596,-1.0464554,-1.1416626,1.2351197,-0.59047854,62.0
27864,0.093707085,-0.50860596,-1.0464554,-1.0280274,1.3487549,-0.56392825,62.0
27865,0.62125397,-0.54963684,-1.5584679,-1.0280274,1.3487549,-0.56392825,62.0
27866,0.62125397,-0.54963684,-1.5584679,-0.91120607,1.7098389,-0.60109866,62.0
27867,0.85872173,-0.7919693,-1.9153442,-0.91120607,1.7098389,-0.60109866,62.0
27868,0.85872173,-0.7919693,-1.9153442,-1.4878784,2.2153566,-0.7880127,62.0
27869,0.5604763,-1.035469,-1.623352,-1.4878784,2.2153566,-0.7880127,62.0
27870,0.5604763,-1.035469,-1.623352,-2.2769532,2.4022706,-1.1278565,62.0
27871,0.08950615,-1.1393051,-0.79221344,-2.2769532,2.4022706,-1.1278565,62.0
27872,0.08950615,-1.1393051,-0.79221344,-2.4150147,2.1229615,-1.3922974,62.0
27873,-0.2930317,-1.0913849,0.055233,-2.4150147,2.1229615,-1.3922974,62.0
27874,-0.2930317,-1.0913849,0.055233,-1.8840088,1.5675293,-1.4103516,62.0
27875,-0.44779205,-1.0525742,0.44943237,-1.8840088,1.5675293,-1.4103516,62.0
27876,-0.44779205,-1.0525742,0.44943237,-1.3338867,1.0365235,-1.3158325,62.0
27877,-0.17717934,-1.1438446,0.29446793,-1.3338867,1.0365235,-1.3158325,62.0
27878,-0.17717934,-1.1438446,0.29446793,-1.1650269,0.76464844,-1.536731,62.0
27879,-0.031318665,-1.0807877,-0.06229019,-1.1650269,0.76464844,-1.536731,62.0
27880,-0.031318665,-1.0807877,-0.06229019,-0.86766356,0.57454836,-1.8022339,62.0
27881,-0.36946487,-0.7641907,-0.47733307,-0.86766356,0.57454836,-1.8022339,62.0
27882,-0.36946487,-0.7641907,-0.47733307,-0.21027832,0.4364868,-1.6386842,62.0
27883,-0.78247356,-0.4377823,-0.86094666,-0.21027832,0.4364868,-1.6386842,62.0
27884,-0.78247356,-0.4377823,-0.86094666,0.2357666,0.2262085,-1.3922974,62.0
27885,-1.0211077,-0.17312622,-1.328785,0.2357666,0.2262085,-1.3922974,62.0
27886,-1.0211077,-0.17312622,-1.328785,0.29311523,0.12000733,-1.2064453,62.0
27887,-1.0141392,-0.0664444,-1.9445229,0.29311523,0.12000733,-1.2064453,62.0
27888,-1.0141392,-0.0664444,-1.9445229,0.22302246,0.23895264,-0.9324463,62.0
27889,-0.763752,-0.19390106,-2.3673363,0.22302246,0.23895264,-0.9324463,62.0
27890,-0.763752,-0.19390106,-2.3673363,-0.004248047,0.5129517,-0.58304447,62.0
27891,-0.38315773,-0.46003723,-2.2202988,-0.004248047,0.5129517,-0.58304447,62.0
27892,-0.38315773,-0.46003723,-2.2202988,-0.5979126,0.9451904,-0.32072756,62.0
27893,-0.13112259,-0.69944763,-1.4984436,-0.5979126,0.9451904,-0.32072756,62.0
27894,-0.13112259,-0.69944763,-1.4984436,-1.0195312,0.96218264,-0.13699952,62.0
27895,-0.033620834,-0.7902603,-0.8492317,-1.0195312,0.96218264,-0.13699952,62.0
27896,-0.033620834,-0.7902603,-0.8492317,-1.1278565,0.74447024,0.0053100586,62.0
27897,0.12536144,-0.8180618,-0.80550766,-1.1278565,0.74447024,0.0053100586,62.0
27898,0.12536144,-0.8180618,-0.80550766,-0.82730716,0.84748536,0.19647217,62.0
27899,0.36663437,-0.8204193,-1.1492271,-0.82730716,0.84748536,0.19647217,62.0
27900,0.36663437,-0.8204193,-1.1492271,-0.48215333,1.3222046,0.1996582,62.0
27901,0.39391804,-0.6039429,-1.1857529,-0.48215333,1.3222046,0.1996582,62.0
27902,0.39391804,-0.6039429,-1.1857529,-0.542688,1.3742431,0.07540283,62.0
27903,0.25170612,-0.17887115,-0.7700882,-0.542688,1.3742431,0.07540283,62.0
27904,0.25170612,-0.17887115,-0.7700882,-0.6637573,0.9696167,-0.07965088,62.0
27905,0.28421402,0.15322876,-0.48239136,-0.6637573,0.9696167,-0.07965088,62.0
27906,0.28421402,0.15322876,-0.48239136,-0.53950197,0.45454103,0.012744141,62.0
27907,0.6181793,0.1531372,-0.6928215,-0.53950197,0.45454103,0.012744141,62.0
27908,0.6181793,0.1531372,-0.6928215,-0.47471926,0.38869628,0.012744141,62.0
27909,0.86920166,8.163452E-4,-1.1307106,-0.47471926,0.38869628,0.012744141,62.0
27910,0.86920166,8.163452E-4,-1.1307106,-0.3791382,0.38551027,-0.15186767,62.0
27911,0.7789917,0.021125793,-1.3615875,-0.3791382,0.38551027,-0.15186767,62.0
27912,0.7789917,0.021125793,-1.3615875,-0.4885254,0.2177124,-0.3079834,62.0
27913,0.738781,0.15519714,-1.2099228,-0.4885254,0.2177124,-0.3079834,62.0
27914,0.738781,0.15519714,-1.2099228,-0.9133301,0.09664307,-0.39506838,62.0
27915,1.0207005,0.22325134,-0.8163376,-0.9133301,0.09664307,-0.39506838,62.0
27916,1.0207005,0.22325134,-0.8163376,-1.179895,-0.10407715,-0.5171997,62.0
27917,1.3858356,0.22303772,-0.40481567,-1.179895,-0.10407715,-0.5171997,62.0
27918,1.3858356,0.22303772,-0.40481567,-1.2000732,-0.14337158,-0.6637573,62.0
27919,1.4477682,0.16910553,-0.16662598,-1.2000732,-0.14337158,-0.6637573,62.0
27920,1.4477682,0.16910553,-0.16662598,-0.96643066,-0.08602295,-0.6945557,62.0
27921,1.1885004,0.055511475,-0.049804688,-0.96643066,-0.08602295,-0.6945557,62.0
27922,1.1885004,0.055511475,-0.049804688,-0.61065674,-0.07327881,-0.7742066,62.0
27923,0.86177444,-0.070487976,-0.05628586,-0.61065674,-0.07327881,-0.7742066,62.0
27924,0.86177444,-0.070487976,-0.05628586,-0.08283692,-0.22727051,-0.8209351,62.0
27925,-2.1005945,-0.29460144,0.44314194,-0.08283692,-0.22727051,-0.8209351,62.0
27926,-2.1005945,-0.29460144,0.44314194,0.22408448,-0.632959,-0.90695804,62.0
27927,-4.37834,-0.22078705,0.79128265,0.22408448,-0.632959,-0.90695804,62.0
27928,-4.37834,-0.22078705,0.79128265,1.1087402,-3.2837403,-0.050976563,62.0
27929,-1.7683449,-0.22785187,0.63285446,1.1087402,-3.2837403,-0.050976563,62.0
27930,-1.7683449,-0.22785187,0.63285446,1.2181275,-1.1809571,0.36533204,62.0
27931,0.94180584,-0.63903046,0.46100616,1.2181275,-1.1809571,0.36533204,62.0
27932,0.94180584,-0.63903046,0.46100616,1.5239868,0.6945557,-0.060534667,62.0
27933,1.6630878,-0.61066437,0.20043564,1.5239868,0.6945557,-0.060534667,62.0
27934,1.6630878,-0.61066437,0.20043564,0.71154785,0.093457036,0.2262085,62.0
27935,1.1673355,-0.2230072,-0.050441742,0.71154785,0.093457036,0.2262085,62.0
27936,1.1673355,-0.2230072,-0.050441742,-0.362146,-0.39082032,0.1901001,62.0
27937,0.5957699,0.1727066,-0.14519882,-0.362146,-0.39082032,0.1901001,62.0
27938,0.5957699,0.1727066,-0.14519882,-1.6238159,-0.29948732,0.31329346,62.0
27939,0.26255417,0.27488708,-0.218956,-1.6238159,-0.29948732,0.31329346,62.0
27940,0.26255417,0.27488708,-0.218956,-1.9211792,0.2814331,0.8485474,62.0
27941,0.015769005,0.21459961,-0.4771042,-1.9211792,0.2814331,0.8485474,62.0
27942,0.015769005,0.21459961,-0.4771042,-1.4698242,-0.24001466,1.2170655,62.0
27943,-0.12887669,0.39714813,-0.6510086,-1.4698242,-0.24001466,1.2170655,62.0
27944,-0.12887669,0.39714813,-0.6510086,-0.56180423,-0.41843262,0.6701294,62.0
27945,-0.14942646,0.6474533,-0.48900986,-0.56180423,-0.41843262,0.6701294,62.0
27946,-0.14942646,0.6474533,-0.48900986,-0.31966552,-0.19647217,0.12213135,62.0
27947,-0.08426285,0.61898804,-0.20775986,-0.31966552,-0.19647217,0.12213135,62.0
27948,-0.08426285,0.61898804,-0.20775986,0.083898924,0.2888672,-0.33878174,62.0
27949,0.048678398,0.42995453,-0.13220978,0.083898924,0.2888672,-0.33878174,62.0
27950,0.048678398,0.42995453,-0.13220978,-0.059472658,0.118945315,-0.7657105,62.0
27951,0.1429596,0.14995575,-0.17082977,-0.059472658,0.118945315,-0.7657105,62.0
27952,0.1429596,0.14995575,-0.17082977,0.087084964,0.1444336,-0.61065674,62.0
27953,0.17058182,-0.1348648,-0.19747925,0.087084964,0.1444336,-0.61065674,62.0
27954,0.17058182,-0.1348648,-0.19747925,-0.13487549,0.1274414,0.004248047,62.0
27955,0.11510372,-0.21981812,-0.22741699,-0.13487549,0.1274414,0.004248047,62.0
27956,0.11510372,-0.21981812,-0.22741699,-0.050976563,-0.14868164,0.42055663,62.0
27957,-0.0010328293,-0.0662384,-0.19187164,-0.050976563,-0.14868164,0.42055663,62.0
27958,-0.0010328293,-0.0662384,-0.19187164,-0.012744141,-0.20072022,0.45347902,62.0
27959,-0.0831995,0.13877106,-0.085041046,-0.012744141,-0.20072022,0.45347902,62.0
27960,-0.0831995,0.13877106,-0.085041046,-0.07327881,-0.011682129,0.24744873,62.0
27961,-0.08299065,0.26044464,-0.013076782,-0.07327881,-0.011682129,0.24744873,62.0
27962,-0.08299065,0.26044464,-0.013076782,-0.02442627,0.078588866,-0.1539917,62.0
27963,-0.026341438,0.23562622,-0.027233124,-0.02442627,0.078588866,-0.1539917,62.0
27964,-0.026341438,0.23562622,-0.027233124,0.038232423,0.03717041,-0.4364868,62.0
27965,0.05252266,0.06882477,-0.03586197,0.038232423,0.03717041,-0.4364868,62.0
27966,0.05252266,0.06882477,-0.03586197,0.028674318,0.0998291,-0.32816163,62.0
27967,0.083070755,-0.10777283,-0.057559967,0.028674318,0.0998291,-0.32816163,62.0
27968,0.083070755,-0.10777283,-0.057559967,-0.07540283,0.04885254,0.033984374,62.0
27969,0.047730446,-0.15195465,-0.087589264,-0.07540283,0.04885254,0.033984374,62.0
27970,0.047730446,-0.15195465,-0.087589264,0.021240234,-0.13275146,0.21027832,62.0
27971,-0.011717796,-0.064888,-0.060012817,0.021240234,-0.13275146,0.21027832,62.0
27972,-0.011717796,-0.064888,-0.060012817,-0.04248047,-0.095581055,0.29099122,62.0
27973,-0.045567513,0.07003784,3.8909912E-4,-0.04248047,-0.095581055,0.29099122,62.0
27974,-0.045567513,0.07003784,3.8909912E-4,-0.043542482,0.022302246,0.118945315,62.0
27975,-0.047135353,0.15622711,0.013763428,-0.043542482,0.022302246,0.118945315,62.0
27976,-0.047135353,0.15622711,0.013763428,0.0021240234,0.009558106,-0.16248779,62.0
27977,-0.005677223,0.12999725,0.0061035156,0.0021240234,0.009558106,-0.16248779,62.0
27978,-0.005677223,0.12999725,0.0061035156,0.028674318,0.04141846,-0.28461915,62.0
27979,0.0433836,0.011016846,-0.005432129,0.028674318,0.04141846,-0.28461915,62.0
27980,0.0433836,0.011016846,-0.005432129,-0.027612304,0.081774905,-0.14230958,62.0
27981,0.053956985,-0.08641052,-0.028331757,-0.027612304,0.081774905,-0.14230958,62.0
27982,0.053956985,-0.08641052,-0.028331757,-0.009558106,-0.02442627,0.03186035,62.0
27983,0.018702507,-0.0976181,-0.03368759,-0.009558106,-0.02442627,0.03186035,62.0
27984,0.018702507,-0.0976181,-0.03368759,-0.009558106,-0.09133301,0.16779785,62.0
27985,-0.025894165,-0.030540466,-0.010421753,-0.009558106,-0.09133301,0.16779785,62.0
27986,-0.025894165,-0.030540466,-0.010421753,-0.04248047,-0.029736329,0.17947999,62.0
27987,-0.04476261,0.05657196,0.009632111,-0.04248047,-0.029736329,0.17947999,62.0
27988,-0.04476261,0.05657196,0.009632111,-0.009558106,-0.0031860352,0.004248047,62.0
27989,-0.024334908,0.0967865,0.017837524,-0.009558106,-0.0031860352,0.004248047,62.0
27990,-0.024334908,0.0967865,0.017837524,0.0063720704,0.016992187,-0.15717773,62.0
27991,0.017604828,0.056037903,0.014793396,0.0063720704,0.016992187,-0.15717773,62.0
27992,0.017604828,0.056037903,0.014793396,-0.004248047,0.059472658,-0.1731079,62.0
27993,0.03926754,-0.022956848,-0.0011558533,-0.004248047,0.059472658,-0.1731079,62.0
27994,0.03926754,-0.022956848,-0.0011558533,-0.012744141,0.022302246,-0.06796875,62.0
27995,0.036442757,-0.0741272,-0.017845154,-0.012744141,0.022302246,-0.06796875,62.0
27996,0.036442757,-0.0741272,-0.017845154,-0.0053100586,-0.04460449,0.060534667,62.0
27997,-0.0038051605,-0.06699371,-0.014312744,-0.0053100586,-0.04460449,0.060534667,62.0
27998,-0.0038051605,-0.06699371,-0.014312744,-0.029736329,-0.043542482,0.14230958,62.0
27999,-0.034867287,-0.0022125244,-0.0063095093,-0.029736329,-0.043542482,0.14230958,62.0
28000,-0.034867287,-0.0022125244,-0.0063095093,-0.015930176,-0.025488282,0.07540283,62.0
28001,-0.030323029,0.060142517,0.006439209,-0.015930176,-0.025488282,0.07540283,62.0
28002,-0.030323029,0.060142517,0.006439209,-0.004248047,0.0021240234,-0.0541626,62.0
28003,-0.008230209,0.07341766,0.010936737,-0.004248047,0.0021240234,-0.0541626,62.0
28004,-0.008230209,0.07341766,0.010936737,-0.0021240234,0.038232423,-0.12956543,62.0
28005,0.017122269,0.03804016,0.0031967163,-0.0021240234,0.038232423,-0.12956543,62.0
28006,0.017122269,0.03804016,0.0031967163,-0.007434082,0.027612304,-0.10407715,62.0
28007,0.02894497,-0.01020813,-0.016216278,-0.007434082,0.027612304,-0.10407715,62.0
28008,0.02894497,-0.01020813,-0.016216278,-0.0063720704,-0.009558106,-0.008496094,62.0
28009,0.015148163,-0.047187805,-0.018333435,-0.0063720704,-0.009558106,-0.008496094,62.0
28010,0.015148163,-0.047187805,-0.018333435,-0.0063720704,-0.009558106,-0.008496094,0.0
28011,0.015148163,-0.047187805,-0.018333435,-0.020178223,-0.033984374,0.08602295,0.0
28012,-0.015018463,-0.035720825,-0.0020446777,-0.020178223,-0.033984374,0.08602295,0.0
28013,-0.015018463,-0.035720825,-0.0020446777,-0.019116212,-0.032922365,0.08496094,0.0
28014,-0.02558899,0.011238098,0.013061523,-0.019116212,-0.032922365,0.08496094,0.0
28015,-0.02558899,0.011238098,0.013061523,-0.010620117,-0.009558106,0.0053100586,0.0
28016,-0.016857147,0.038619995,0.015270233,-0.010620117,-0.009558106,0.0053100586,0.0
28017,-0.016857147,0.038619995,0.015270233,-0.007434082,0.020178223,-0.07965088,0.0
28018,0.004032135,0.028518677,0.010066986,-0.007434082,0.020178223,-0.07965088,0.0
28019,0.004032135,0.028518677,0.010066986,-0.004248047,0.02442627,-0.10195313,0.0
28020,0.02654171,-0.0047073364,-0.006340027,-0.004248047,0.02442627,-0.10195313,0.0
28021,0.02654171,-0.0047073364,-0.006340027,-0.0063720704,0.007434082,-0.046728518,0.0
28022,0.017485619,-0.032051086,-0.016998291,-0.0063720704,0.007434082,-0.046728518,0.0
28023,0.017485619,-0.032051086,-0.016998291,-0.015930176,-0.0180542,0.038232423,0.0
28024,-0.009558678,-0.018745422,1.335144E-4,-0.015930176,-0.0180542,0.038232423,0.0
28025,-0.009558678,-0.018745422,1.335144E-4,-0.015930176,-0.032922365,0.070092775,0.0
28026,-0.024028778,0.016159058,0.0104599,-0.015930176,-0.032922365,0.070092775,0.0
28027,-0.024028778,0.016159058,0.0104599,-0.013806152,-0.0180542,0.032922365,0.0
28028,-0.02959919,0.028747559,0.012199402,-0.013806152,-0.0180542,0.032922365,0.0
28029,-0.02959919,0.028747559,0.012199402,-0.010620117,0.0063720704,-0.039294433,0.0
28030,-0.0062475204,0.019088745,0.0033035278,-0.010620117,0.0063720704,-0.039294433,0.0
28031,-0.0062475204,0.019088745,0.0033035278,-0.004248047,0.020178223,-0.083898924,0.0
28032,0.01563263,-3.4332275E-4,-0.0077705383,-0.004248047,0.020178223,-0.083898924,0.0
28033,0.01563263,-3.4332275E-4,-0.0077705383,-0.0063720704,0.012744141,-0.06265869,0.0
28034,0.012713432,-0.027000427,-0.01770401,-0.0063720704,0.012744141,-0.06265869,0.0
28035,0.012713432,-0.027000427,-0.01770401,-0.013806152,-0.0063720704,0.0031860352,0.0
28036,0.0020780563,-0.032341003,-0.015247345,-0.013806152,-0.0063720704,0.0031860352,0.0
28037,0.0020780563,-0.032341003,-0.015247345,-0.013806152,-0.025488282,0.04991455,0.0
28038,-0.011094093,-0.013923645,-0.0057525635,-0.013806152,-0.025488282,0.04991455,0.0
28039,-0.011094093,-0.013923645,-0.0057525635,-0.014868164,-0.021240234,0.039294433,0.0
28040,-0.010828018,0.018630981,0.0068969727,-0.014868164,-0.021240234,0.039294433,0.0
28041,-0.010828018,0.018630981,0.0068969727,-0.012744141,0.0,-0.011682129,0.0
28042,0.004740715,0.02872467,0.0059814453,-0.012744141,0.0,-0.011682129,0.0
28043,0.004740715,0.02872467,0.0059814453,-0.0053100586,0.012744141,-0.06265869,0.0
28044,0.011922836,0.010757446,0.0020141602,-0.0053100586,0.012744141,-0.06265869,0.0
28045,0.011922836,0.010757446,0.0020141602,-0.007434082,0.013806152,-0.060534667,0.0
28046,0.011906624,-0.01348114,-0.001914978,-0.007434082,0.013806152,-0.060534667,0.0
28047,0.011906624,-0.01348114,-0.001914978,-0.012744141,0.0,-0.016992187,0.0
28048,0.00886631,-0.024055481,-0.0058288574,-0.012744141,0.0,-0.016992187,0.0
28049,0.00886631,-0.024055481,-0.0058288574,-0.011682129,-0.019116212,0.027612304,0.0
28050,0.0033216476,-0.018295288,-0.0018539429,-0.011682129,-0.019116212,0.027612304,0.0
28051,0.0033216476,-0.018295288,-0.0018539429,-0.013806152,-0.019116212,0.03717041,0.0
28052,-0.004385948,0.0030899048,0.0023498535,-0.013806152,-0.019116212,0.03717041,0.0
28053,-0.004385948,0.0030899048,0.0023498535,-0.012744141,-0.0053100586,0.0010620117,0.0
28054,-0.0045461655,0.01903534,0.0018806458,-0.012744141,-0.0053100586,0.0010620117,0.0
28055,-0.0045461655,0.01903534,0.0018806458,-0.008496094,0.0063720704,-0.043542482,0.0
28056,-7.5626373E-4,0.013969421,-0.0014877319,-0.008496094,0.0063720704,-0.043542482,0.0
28057,-7.5626373E-4,0.013969421,-0.0014877319,-0.007434082,0.010620117,-0.05522461,0.0
28058,-8.4877014E-4,-0.0027160645,-0.0046806335,-0.007434082,0.010620117,-0.05522461,0.0
28059,-8.4877014E-4,-0.0027160645,-0.0046806335,-0.009558106,0.0031860352,-0.027612304,0.0
28060,0.005449295,-0.018173218,-0.0037460327,-0.009558106,0.0031860352,-0.027612304,0.0
28061,0.005449295,-0.018173218,-0.0037460327,-0.013806152,-0.011682129,0.011682129,0.0
28062,0.0021743774,-0.009178162,5.340576E-5,-0.013806152,-0.011682129,0.011682129,0.0
28063,0.0021743774,-0.009178162,5.340576E-5,-0.013806152,-0.015930176,0.028674318,0.0
28064,-0.00219059,0.006401062,0.0035324097,-0.013806152,-0.015930176,0.028674318,0.0
28065,-0.00219059,0.006401062,0.0035324097,-0.011682129,-0.010620117,0.008496094,0.0
28066,-6.2942505E-4,0.0132751465,0.0028266907,-0.011682129,-0.010620117,0.008496094,0.0
28067,-6.2942505E-4,0.0132751465,0.0028266907,-0.009558106,0.0021240234,-0.028674318,0.0
28068,-0.0035429,0.016342163,0.0026016235,-0.009558106,0.0021240234,-0.028674318,0.0
28069,-0.0035429,0.016342163,0.0026016235,-0.008496094,0.008496094,-0.046728518,0.0
28070,7.791519E-4,0.003036499,0.0062332153,-0.008496094,0.008496094,-0.046728518,0.0
28071,7.791519E-4,0.003036499,0.0062332153,-0.008496094,0.004248047,-0.03186035,0.0
28072,6.23703E-4,-0.012893677,0.0011520386,-0.008496094,0.004248047,-0.03186035,0.0
28073,6.23703E-4,-0.012893677,0.0011520386,-0.009558106,-0.0063720704,-0.0021240234,0.0
28074,-0.003736496,-0.015853882,-0.003288269,-0.009558106,-0.0063720704,-0.0021240234,0.0
28075,-0.003736496,-0.015853882,-0.003288269,-0.012744141,-0.015930176,0.021240234,0.0
28076,-0.0031967163,-0.0028305054,-0.002937317,-0.012744141,-0.015930176,0.021240234,0.0
28077,-0.0031967163,-0.0028305054,-0.002937317,-0.011682129,-0.011682129,0.012744141,0.0
28078,-0.0070858,0.0050811768,0.0014839172,-0.011682129,-0.011682129,0.012744141,0.0
28079,-0.0070858,0.0050811768,0.0014839172,-0.010620117,-0.0010620117,-0.016992187,0.0
28080,-0.006498337,0.005393982,0.0050201416,-0.010620117,-0.0010620117,-0.016992187,0.0
28081,-0.006498337,0.005393982,0.0050201416,-0.008496094,0.0063720704,-0.038232423,0.0
28082,0.010182381,0.0019226074,8.049011E-4,-0.008496094,0.0063720704,-0.038232423,0.0
28083,0.010182381,0.0019226074,8.049011E-4,-0.007434082,0.007434082,-0.032922365,0.0
28084,0.016580582,-0.001953125,6.4468384E-4,-0.007434082,0.007434082,-0.032922365,0.0
28085,0.016580582,-0.001953125,6.4468384E-4,-0.010620117,-0.004248047,-0.009558106,0.0
28086,0.006928444,-0.006515503,0.004337311,-0.010620117,-0.004248047,-0.009558106,0.0
28087,0.006928444,-0.006515503,0.004337311,-0.012744141,-0.010620117,0.011682129,0.0
28088,0.0061655045,-0.0028076172,0.0034713745,-0.012744141,-0.010620117,0.011682129,0.0
28089,0.0061655045,-0.0028076172,0.0034713745,-0.011682129,-0.010620117,0.010620117,0.0
28090,-0.0035028458,0.0050811768,0.0066108704,-0.011682129,-0.010620117,0.010620117,0.0
28091,-0.0035028458,0.0050811768,0.0066108704,-0.009558106,-0.004248047,-0.009558106,0.0
28092,-0.017011642,0.016052246,0.009120941,-0.009558106,-0.004248047,-0.009558106,0.0
28093,-0.017011642,0.016052246,0.009120941,-0.009558106,0.0031860352,-0.028674318,0.0
28094,-0.007334709,0.013931274,0.0034637451,-0.009558106,0.0031860352,-0.028674318,0.0
28095,-0.007334709,0.013931274,0.0034637451,-0.008496094,0.004248047,-0.029736329,0.0
28096,-0.0011920929,-0.0037994385,-0.008716583,-0.008496094,0.004248047,-0.029736329,0.0
28097,-0.0011920929,-0.0037994385,-0.008716583,-0.009558106,-0.0031860352,-0.015930176,0.0
28098,0.0019636154,-0.0149383545,-0.010807037,-0.009558106,-0.0031860352,-0.015930176,0.0
28099,0.0019636154,-0.0149383545,-0.010807037,-0.011682129,-0.008496094,0.0021240234,0.0
28100,0.0067949295,-0.0053710938,-0.008644104,-0.011682129,-0.008496094,0.0021240234,0.0
28101,0.0067949295,-0.0053710938,-0.008644104,-0.012744141,-0.009558106,0.007434082,0.0
28102,6.26564E-4,0.0067596436,-0.0030822754,-0.012744141,-0.009558106,0.007434082,0.0
28103,6.26564E-4,0.0067596436,-0.0030822754,-0.009558106,-0.0053100586,-0.0053100586,0.0
28104,-0.0033311844,0.0015716553,0.0051994324,-0.009558106,-0.0053100586,-0.0053100586,0.0
28105,-0.0033311844,0.0015716553,0.0051994324,-0.009558106,0.0,-0.020178223,0.0
28106,-0.004470825,0.0021514893,0.007980347,-0.009558106,0.0,-0.020178223,0.0
28107,-0.004470825,0.0021514893,0.007980347,-0.009558106,0.0031860352,-0.027612304,0.0
28108,-0.014233589,-0.0017318726,0.006385803,-0.009558106,0.0031860352,-0.027612304,0.0
28109,-0.014233589,-0.0017318726,0.006385803,-0.009558106,-0.0010620117,-0.0180542,0.0
28110,-0.0075540543,-0.009048462,0.0012893677,-0.009558106,-0.0010620117,-0.0180542,0.0
28111,-0.0075540543,-0.009048462,0.0012893677,-0.012744141,-0.0053100586,-0.0031860352,0.0
28112,2.3841858E-5,-0.011779785,-0.010467529,-0.012744141,-0.0053100586,-0.0031860352,0.0
28113,2.3841858E-5,-0.011779785,-0.010467529,-0.010620117,-0.007434082,0.0010620117,0.0
28114,0.0076732635,-0.005592346,-0.0083732605,-0.010620117,-0.007434082,0.0010620117,0.0
28115,0.0076732635,-0.005592346,-0.0083732605,-0.009558106,-0.0063720704,-0.0031860352,0.0
28116,0.009971619,0.0070114136,-0.0028648376,-0.009558106,-0.0063720704,-0.0031860352,0.0
28117,0.009971619,0.0070114136,-0.0028648376,-0.010620117,-0.0010620117,-0.013806152,0.0
28118,0.0011539459,0.009819031,0.0015411377,-0.010620117,-0.0010620117,-0.013806152,0.0
28119,0.0011539459,0.009819031,0.0015411377,-0.008496094,0.0,-0.02442627,0.0
28120,-0.0021400452,0.0043640137,0.0012321472,-0.008496094,0.0,-0.02442627,0.0
28121,-0.0021400452,0.0043640137,0.0012321472,-0.008496094,0.0,-0.0180542,0.0
28122,0.0021209717,0.0034942627,0.0048179626,-0.008496094,0.0,-0.0180542,0.0
28123,0.0021209717,0.0034942627,0.0048179626,-0.011682129,-0.004248047,-0.008496094,0.0
28124,0.0016965866,-0.0010375977,0.0038528442,-0.011682129,-0.004248047,-0.008496094,0.0
28125,0.0016965866,-0.0010375977,0.0038528442,-0.011682129,-0.0063720704,-0.0031860352,0.0
28126,-0.0024757385,-8.31604E-4,-7.5149536E-4,-0.011682129,-0.0063720704,-0.0031860352,0.0
28127,-0.0024757385,-8.31604E-4,-7.5149536E-4,-0.009558106,-0.004248047,-0.0031860352,0.0
28128,-0.0058135986,-6.637573E-4,0.0032310486,-0.009558106,-0.004248047,-0.0031860352,0.0
28129,-0.0058135986,-6.637573E-4,0.0032310486,-0.011682129,-0.0031860352,-0.010620117,0.0
28130,-8.172989E-4,0.0033035278,-0.001247406,-0.011682129,-0.0031860352,-0.010620117,0.0
28131,-8.172989E-4,0.0033035278,-0.001247406,-0.007434082,-0.0010620117,-0.019116212,0.0
28132,-0.004486084,0.0026397705,-0.0048332214,-0.007434082,-0.0010620117,-0.019116212,0.0
28133,-0.004486084,0.0026397705,-0.0048332214,-0.010620117,-0.0010620117,-0.0180542,0.0
28134,-0.0035896301,0.0021133423,-0.003868103,-0.010620117,-0.0010620117,-0.0180542,0.0
28135,-0.0035896301,0.0021133423,-0.003868103,-0.008496094,-0.0031860352,-0.011682129,0.0
28136,0.008626938,-0.0021438599,7.4005127E-4,-0.008496094,-0.0031860352,-0.011682129,0.0
28137,0.008626938,-0.0021438599,7.4005127E-4,-0.009558106,-0.0063720704,-0.0053100586,0.0
28138,0.006901741,-0.009384155,0.0082473755,-0.009558106,-0.0063720704,-0.0053100586,0.0
28139,0.006901741,-0.009384155,0.0082473755,-0.012744141,-0.0053100586,-0.004248047,0.0
28140,-0.0021438599,-0.0036773682,0.0065994263,-0.012744141,-0.0053100586,-0.004248047,0.0
28141,-0.0021438599,-0.0036773682,0.0065994263,-0.011682129,-0.004248047,-0.009558106,0.0
28142,-0.005548477,-0.0029449463,0.0014572144,-0.011682129,-0.004248047,-0.009558106,0.0
28143,-0.005548477,-0.0029449463,0.0014572144,-0.008496094,-0.0021240234,-0.015930176,0.0
28144,-0.0044384003,-0.002357483,-0.0026664734,-0.008496094,-0.0021240234,-0.015930176,0.0
28145,-0.0044384003,-0.002357483,-0.0026664734,-0.010620117,0.0,-0.016992187,0.0
28146,2.822876E-4,-0.005722046,-0.0021324158,-0.010620117,0.0,-0.016992187,0.0
28147,2.822876E-4,-0.005722046,-0.0021324158,-0.010620117,-0.0031860352,-0.014868164,0.0
28148,2.822876E-4,-0.005722046,-0.0021324158,-0.010620117,-0.0031860352,-0.014868164,0.0
28149,-0.0036067963,-0.0045776367,0.002128601,-0.010620117,-0.0031860352,-0.014868164,0.0
28150,-0.0036067963,-0.0045776367,0.002128601,-0.011682129,-0.004248047,-0.007434082,0.0
28151,-0.0067186356,-0.007484436,-0.002128601,-0.011682129,-0.004248047,-0.007434082,0.0
28152,-0.0067186356,-0.007484436,-0.002128601,-0.010620117,-0.0063720704,-0.0053100586,0.0
28153,-0.0015411377,0.001663208,-0.001701355,-0.010620117,-0.0063720704,-0.0053100586,0.0
28154,-0.0015411377,0.001663208,-0.001701355,-0.010620117,-0.004248047,-0.0063720704,0.0
28155,0.0026006699,0.012832642,-0.0013618469,-0.010620117,-0.004248047,-0.0063720704,0.0
28156,0.0026006699,0.012832642,-0.0013618469,-0.010620117,-0.004248047,-0.012744141,0.0
28157,0.0020809174,0.010269165,-0.0010910034,-0.010620117,-0.004248047,-0.012744141,0.0
28158,0.0020809174,0.010269165,-0.0010910034,-0.012744141,-0.0021240234,-0.019116212,0.0
28159,-0.0060014725,0.0043792725,-0.0047073364,-0.012744141,-0.0021240234,-0.019116212,0.0
28160,-0.0060014725,0.0043792725,-0.0047073364,-0.010620117,-0.0010620117,-0.016992187,0.0
28161,-0.00480175,-3.2806396E-4,6.866455E-5,-0.010620117,-0.0010620117,-0.016992187,0.0
28162,-0.00480175,-3.2806396E-4,6.866455E-5,-0.009558106,-0.0053100586,-0.010620117,0.0
28163,-7.6293945E-6,-2.593994E-4,0.007709503,-0.009558106,-0.0053100586,-0.010620117,0.0
28164,-7.6293945E-6,-2.593994E-4,0.007709503,-0.011682129,-0.0053100586,-0.0063720704,0.0
28165,0.003827095,0.0036239624,0.0023460388,-0.011682129,-0.0053100586,-0.0063720704,0.0
28166,0.003827095,0.0036239624,0.0023460388,-0.011682129,-0.0063720704,-0.0053100586,0.0
28167,0.0030622482,0.0067367554,-0.0057907104,-0.011682129,-0.0063720704,-0.0053100586,0.0
28168,0.0030622482,0.0067367554,-0.0057907104,-0.010620117,-0.0021240234,-0.009558106,0.0
28169,0.0024499893,0.005393982,-0.008464813,-0.010620117,-0.0021240234,-0.009558106,0.0
28170,0.0024499893,0.005393982,-0.008464813,-0.009558106,-0.0021240234,-0.015930176,0.0
28171,0.0019607544,-0.0033493042,-0.0029411316,-0.009558106,-0.0021240234,-0.015930176,0.0
28172,0.0019607544,-0.0033493042,-0.0029411316,-0.010620117,-0.0010620117,-0.0180542,0.0
28173,0.0054016113,-0.014167786,0.0014801025,-0.010620117,-0.0010620117,-0.0180542,0.0
28174,0.0054016113,-0.014167786,0.0014801025,-0.010620117,-0.0010620117,-0.013806152,0.0
28175,0.008153915,-0.0075149536,0.0011825562,-0.010620117,-0.0010620117,-0.013806152,0.0
28176,0.008153915,-0.0075149536,0.0011825562,-0.010620117,-0.0031860352,-0.009558106,0.0
28177,0.0026903152,0.0016555786,-0.006717682,-0.010620117,-0.0031860352,-0.009558106,0.0
28178,0.0026903152,0.0016555786,-0.006717682,-0.009558106,-0.0053100586,-0.0031860352,0.0
28179,-0.0016803741,0.0013275146,-0.0015411377,-0.009558106,-0.0053100586,-0.0031860352,0.0
28180,-0.0016803741,0.0013275146,-0.0015411377,-0.010620117,-0.004248047,-0.004248047,0.0
28181,-0.0013437271,0.008728027,-0.0012321472,-0.010620117,-0.004248047,-0.004248047,0.0
28182,-0.0013437271,0.008728027,-0.0012321472,-0.009558106,-0.0021240234,-0.014868164,0.0
28183,0.0027580261,0.006980896,-9.880066E-4,-0.009558106,-0.0021240234,-0.014868164,0.0
28184,0.0027580261,0.006980896,-9.880066E-4,-0.010620117,-0.0021240234,-0.0180542,0.0
28185,0.0022068024,-0.0059127808,-7.8964233E-4,-0.010620117,-0.0021240234,-0.0180542,0.0
28186,0.0022068024,-0.0059127808,-7.8964233E-4,-0.009558106,-0.0021240234,-0.013806152,0.0
28187,-0.002067566,-0.008560181,0.003200531,-0.009558106,-0.0021240234,-0.013806152,0.0
28188,-0.002067566,-0.008560181,0.003200531,-0.010620117,-0.0021240234,-0.012744141,0.0
28189,-0.0016536713,-0.010665894,-0.0012741089,-0.010620117,-0.0021240234,-0.012744141,0.0
28190,-0.0016536713,-0.010665894,-0.0012741089,-0.011682129,-0.004248047,-0.0053100586,0.0
28191,-0.0013227463,-8.773804E-4,0.0028152466,-0.011682129,-0.004248047,-0.0053100586,0.0
28192,-0.0013227463,-8.773804E-4,0.0028152466,-0.010620117,-0.004248047,-0.004248047,0.0
28193,-0.004890442,0.006965637,-0.0015830994,-0.010620117,-0.004248047,-0.004248047,0.0
28194,-0.004890442,0.006965637,-0.0015830994,-0.008496094,-0.0010620117,-0.013806152,0.0
28195,-0.003911972,0.005569458,-0.0051002502,-0.008496094,-0.0010620117,-0.013806152,0.0
28196,-0.003911972,0.005569458,-0.0051002502,-0.011682129,-0.0021240234,-0.014868164,0.0
28197,0.008369446,6.2561035E-4,-0.0040779114,-0.011682129,-0.0021240234,-0.014868164,0.0
28198,0.008369446,6.2561035E-4,-0.0040779114,-0.011682129,-0.0010620117,-0.016992187,0.0
28199,0.0066957474,-0.0033340454,-0.0032615662,-0.011682129,-0.0010620117,-0.016992187,0.0
28200,0.0066957474,-0.0033340454,-0.0032615662,-0.012744141,-0.0021240234,-0.013806152,0.0
28201,0.0015239716,-0.010322571,-0.0064430237,-0.012744141,-0.0021240234,-0.013806152,0.0
28202,0.0015239716,-0.010322571,-0.0064430237,-0.009558106,-0.004248047,-0.0031860352,0.0
28203,0.0012197495,-0.008255005,-0.005153656,-0.009558106,-0.004248047,-0.0031860352,0.0
28204,0.0012197495,-0.008255005,-0.005153656,-0.010620117,-0.0053100586,-0.004248047,0.0
28205,-0.0028572083,0.001045227,0.0035438538,-0.010620117,-0.0053100586,-0.004248047,0.0
28206,-0.0028572083,0.001045227,0.0035438538,-0.009558106,-0.0031860352,-0.010620117,0.0
28207,-0.0022850037,8.31604E-4,0.00283432,-0.009558106,-0.0031860352,-0.010620117,0.0
28208,-0.0022850037,8.31604E-4,0.00283432,-0.010620117,-0.0021240234,-0.014868164,0.0
28209,-0.0056610107,0.004501343,0.006099701,-0.010620117,-0.0021240234,-0.014868164,0.0
28210,-0.0056610107,0.004501343,0.006099701,-0.011682129,0.0,-0.016992187,0.0
28211,-0.008361816,0.0036010742,0.004878998,-0.011682129,0.0,-0.016992187,0.0
28212,-0.008361816,0.0036010742,0.004878998,-0.010620117,-0.0021240234,-0.013806152,0.0
28213,9.765625E-4,-9.536743E-4,-0.0037612915,-0.010620117,-0.0021240234,-0.013806152,0.0
28214,9.765625E-4,-9.536743E-4,-0.0037612915,-0.011682129,-0.0063720704,-0.0063720704,0.0
28215,0.00461483,-7.6293945E-4,-0.006843567,-0.011682129,-0.0063720704,-0.0063720704,0.0
28216,0.00461483,-7.6293945E-4,-0.006843567,-0.011682129,-0.0053100586,-0.0063720704,0.0
28217,0.0036916733,0.0032196045,0.0021896362,-0.011682129,-0.0053100586,-0.0063720704,0.0
28218,0.0036916733,0.0032196045,0.0021896362,-0.009558106,-0.0031860352,-0.010620117,0.0
28219,-0.0047130585,0.0064086914,0.001750946,-0.009558106,-0.0031860352,-0.010620117,0.0
28220,-0.0047130585,0.0064086914,0.001750946,-0.009558106,0.0,-0.013806152,0.0
28221,-0.0037708282,0.005126953,-0.0024299622,-0.009558106,0.0,-0.013806152,0.0
28222,-0.0037708282,0.005126953,-0.0024299622,-0.009558106,-0.0021240234,-0.0180542,0.0
28223,8.163452E-4,2.670288E-4,0.0018882751,-0.009558106,-0.0021240234,-0.0180542,0.0
28224,8.163452E-4,2.670288E-4,0.0018882751,-0.009558106,-0.0031860352,-0.014868164,0.0
28225,0.004486084,-0.0036239624,0.009178162,-0.009558106,-0.0031860352,-0.014868164,0.0
28226,0.004486084,-0.0036239624,0.009178162,-0.011682129,-0.004248047,-0.0053100586,0.0
28227,-2.4414062E-4,-0.00289917,0.0073432922,-0.011682129,-0.004248047,-0.0053100586,0.0
28228,-2.4414062E-4,-0.00289917,0.0073432922,-0.009558106,-0.004248047,-0.0053100586,0.0
28229,-0.0040283203,-0.002319336,0.005874634,-0.009558106,-0.004248047,-0.0053100586,0.0
28230,-0.0040283203,-0.002319336,0.005874634,-0.009558106,-0.0021240234,-0.012744141,0.0
28231,0.0044431686,-0.0018539429,8.659363E-4,-0.009558106,-0.0021240234,-0.012744141,0.0
28232,0.0044431686,-0.0018539429,8.659363E-4,-0.010620117,-0.0031860352,-0.014868164,0.0
28233,0.011207581,-0.0014877319,6.942749E-4,-0.010620117,-0.0031860352,-0.014868164,0.0
28234,0.011207581,-0.0014877319,6.942749E-4,-0.009558106,-0.0010620117,-0.016992187,0.0
28235,0.008966446,-0.0011901855,0.004386902,-0.009558106,-0.0010620117,-0.016992187,0.0
28236,0.008966446,-0.0011901855,0.004386902,-0.009558106,-0.0010620117,-0.015930176,0.0
28237,-4.8065186E-4,-0.0047836304,-3.2424927E-4,-0.009558106,-0.0010620117,-0.015930176,0.0
28238,-4.8065186E-4,-0.0047836304,-3.2424927E-4,-0.011682129,-0.0031860352,-0.0063720704,0.0
28239,-3.8433075E-4,7.6293945E-6,-0.00409317,-0.011682129,-0.0031860352,-0.0063720704,0.0
28240,-3.8433075E-4,7.6293945E-6,-0.00409317,-0.011682129,-0.004248047,-0.0053100586,0.0
28241,-0.0041399,0.0038375854,-0.003276825,-0.011682129,-0.004248047,-0.0053100586,0.0
28242,-0.0041399,0.0038375854,-0.003276825,-0.010620117,-0.0031860352,-0.010620117,0.0
28243,-0.0033111572,0.006904602,-0.002620697,-0.010620117,-0.0031860352,-0.010620117,0.0
28244,-0.0033111572,0.006904602,-0.002620697,-0.010620117,-0.0021240234,-0.012744141,0.0
28245,-0.0026483536,0.013191223,0.0017356873,-0.010620117,-0.0021240234,-0.012744141,0.0
28246,-0.0026483536,0.013191223,0.0017356873,-0.011682129,-0.0021240234,-0.016992187,0.0
28247,0.0017147064,0.010551453,0.0013885498,-0.011682129,-0.0021240234,-0.016992187,0.0
28248,0.0017147064,0.010551453,0.0013885498,-0.010620117,-0.0010620117,-0.014868164,0.0
28249,-0.0024604797,0.00843811,0.0049438477,-0.010620117,-0.0010620117,-0.014868164,0.0
28250,-0.0024604797,0.00843811,0.0049438477,-0.010620117,-0.0010620117,-0.014868164,0.0
28251,-0.0024604797,0.00843811,0.0049438477,-0.010620117,-0.004248047,-0.008496094,0.0
28252,-0.0058021545,0.002922058,0.003955841,-0.010620117,-0.004248047,-0.008496094,0.0
28253,-0.0058021545,0.002922058,0.003955841,-0.009558106,-0.0053100586,-0.007434082,0.0
28254,0.0030241013,-0.0014953613,-0.004501343,-0.009558106,-0.0053100586,-0.007434082,0.0
28255,0.0030241013,-0.0014953613,-0.004501343,-0.010620117,-0.0031860352,-0.009558106,0.0
28256,0.0024194717,-0.0011978149,-0.007434845,-0.010620117,-0.0031860352,-0.009558106,0.0
28257,0.0024194717,-0.0011978149,-0.007434845,-0.010620117,-0.004248047,-0.010620117,0.0
28258,0.0019359589,0.0028762817,-0.005947113,-0.010620117,-0.004248047,-0.010620117,0.0
28259,0.0019359589,0.0028762817,-0.005947113,-0.009558106,-0.0031860352,-0.013806152,0.0
28260,-0.00228405,0.0023040771,-0.0047569275,-0.009558106,-0.0031860352,-0.013806152,0.0
28261,-0.00228405,0.0023040771,-0.0047569275,-0.009558106,-0.0021240234,-0.013806152,0.0
28262,-0.00182724,0.0018463135,-0.0038032532,-0.009558106,-0.0021240234,-0.013806152,0.0
28263,-0.00182724,0.0018463135,-0.0038032532,-0.010620117,-0.004248047,-0.010620117,0.0
28264,0.006204605,0.0014801025,-0.0030403137,-0.010620117,-0.004248047,-0.010620117,0.0
28265,0.006204605,0.0014801025,-0.0030403137,-0.012744141,-0.004248047,-0.008496094,0.0
28266,0.012618065,-0.0026474,-0.006263733,-0.012744141,-0.004248047,-0.008496094,0.0
28267,0.012618065,-0.0026474,-0.006263733,-0.009558106,-0.0031860352,-0.009558106,0.0
28268,0.010094643,-0.0021209717,-0.005012512,-0.009558106,-0.0031860352,-0.009558106,0.0
28269,0.010094643,-0.0021209717,-0.005012512,-0.008496094,-0.004248047,-0.010620117,0.0
28270,0.0042419434,-0.0016937256,0.0074882507,-0.008496094,-0.004248047,-0.010620117,0.0
28271,0.0042419434,-0.0016937256,0.0074882507,-0.009558106,-0.0021240234,-0.012744141,0.0
28272,-0.004260063,-0.0013580322,0.009822845,-0.009558106,-0.0021240234,-0.012744141,0.0
28273,-0.004260063,-0.0013580322,0.009822845,-0.011682129,-0.0021240234,-0.014868164,0.0
28274,-0.014906883,-0.001083374,1.9073486E-4,-0.011682129,-0.0021240234,-0.014868164,0.0
28275,-0.014906883,-0.001083374,1.9073486E-4,-0.010620117,-0.0031860352,-0.011682129,0.0
28276,-0.011925697,-8.69751E-4,-0.0036811829,-0.010620117,-0.0031860352,-0.011682129,0.0
28277,-0.011925697,-8.69751E-4,-0.0036811829,-0.010620117,-0.0053100586,-0.009558106,0.0
28278,-0.00187397,-0.008361816,-0.006778717,-0.010620117,-0.0053100586,-0.009558106,0.0
28279,-0.00187397,-0.008361816,-0.006778717,-0.010620117,-0.004248047,-0.009558106,0.0
28280,0.002333641,-0.006690979,-0.0015907288,-0.010620117,-0.004248047,-0.009558106,0.0
28281,0.002333641,-0.006690979,-0.0015907288,-0.008496094,-0.004248047,-0.010620117,0.0
28282,-0.00579834,-0.0015182495,0.0063934326,-0.008496094,-0.004248047,-0.010620117,0.0
28283,-0.00579834,-0.0015182495,0.0063934326,-0.012744141,-0.0031860352,-0.013806152,0.0
28284,-0.008471489,0.0026168823,0.0012817383,-0.012744141,-0.0031860352,-0.013806152,0.0
28285,-0.008471489,0.0026168823,0.0012817383,-0.011682129,-0.004248047,-0.012744141,0.0
28286,-0.010598183,0.002090454,-0.0028076172,-0.011682129,-0.004248047,-0.012744141,0.0
28287,-0.010598183,0.002090454,-0.0028076172,-0.008496094,-0.0031860352,-0.012744141,0.0
28288,-0.0046577454,-0.0021591187,0.0015869141,-0.008496094,-0.0031860352,-0.012744141,0.0
28289,-0.0046577454,-0.0021591187,0.0015869141,-0.010620117,-0.004248047,-0.011682129,0.0
28290,0.0077733994,0.002105713,-0.0063972473,-0.010620117,-0.004248047,-0.011682129,0.0
28291,0.0077733994,0.002105713,-0.0063972473,-0.009558106,-0.0031860352,-0.009558106,0.0
28292,0.00621891,0.009353638,-0.0051193237,-0.009558106,-0.0031860352,-0.009558106,0.0
28293,0.00621891,0.009353638,-0.0051193237,-0.008496094,-0.0053100586,-0.008496094,0.0
28294,0.0011425018,0.007484436,0.0074043274,-0.008496094,-0.0053100586,-0.008496094,0.0
28295,0.0011425018,0.007484436,0.0074043274,-0.009558106,-0.0010620117,-0.011682129,0.0
28296,0.0047473907,0.0021591187,0.005924225,-0.009558106,-0.0010620117,-0.011682129,0.0
28297,0.0047473907,0.0021591187,0.005924225,-0.010620117,0.0,-0.013806152,0.0
28298,0.0037984848,-0.017425537,9.0408325E-4,-0.010620117,0.0,-0.013806152,0.0
28299,0.0037984848,-0.017425537,9.0408325E-4,-0.011682129,-0.0031860352,-0.012744141,0.0
28300,0.006872177,-0.013938904,7.209778E-4,-0.011682129,-0.0031860352,-0.012744141,0.0
28301,0.006872177,-0.013938904,7.209778E-4,-0.010620117,-0.004248047,-0.010620117,0.0
28302,-0.0021677017,-0.011154175,0.00440979,-0.010620117,-0.004248047,-0.010620117,0.0
28303,-0.0021677017,-0.011154175,0.00440979,-0.008496094,-0.004248047,-0.010620117,0.0
28304,-0.0017337799,-0.005104065,-3.0517578E-4,-0.008496094,-0.004248047,-0.010620117,0.0
28305,-0.0017337799,-0.005104065,-3.0517578E-4,-0.011682129,-0.0031860352,-0.010620117,0.0
28306,-0.00905323,-2.5177002E-4,0.011241913,-0.011682129,-0.0031860352,-0.010620117,0.0
28307,-0.00905323,-2.5177002E-4,0.011241913,-0.009558106,-0.004248047,-0.009558106,0.0
28308,-0.0072431564,0.0036315918,0.008995056,-0.009558106,-0.004248047,-0.009558106,0.0
28309,-0.0072431564,0.0036315918,0.008995056,-0.010620117,-0.004248047,-0.011682129,0.0
28310,0.0018720627,0.0029067993,-4.5776367E-4,-0.010620117,-0.004248047,-0.011682129,0.0
28311,0.0018720627,0.0029067993,-4.5776367E-4,-0.010620117,-0.004248047,-0.012744141,0.0
28312,0.0053310394,0.0023269653,0.0034675598,-0.010620117,-0.004248047,-0.012744141,0.0
28313,0.0053310394,0.0023269653,0.0034675598,-0.010620117,-0.0021240234,-0.013806152,0.0
28314,0.0042648315,-0.0019760132,0.002773285,-0.010620117,-0.0021240234,-0.013806152,0.0
28315,0.0042648315,-0.0019760132,0.002773285,-0.009558106,-0.0031860352,-0.012744141,0.0
28316,-4.2057037E-4,-0.0015792847,-0.001613617,-0.009558106,-0.0031860352,-0.012744141,0.0
28317,-4.2057037E-4,-0.0015792847,-0.001613617,-0.010620117,-0.0031860352,-0.009558106,0.0
28318,-0.004169464,0.006401062,-0.0051231384,-0.010620117,-0.0031860352,-0.009558106,0.0
28319,-0.004169464,0.006401062,-0.0051231384,-0.010620117,-0.0021240234,-0.0063720704,0.0
28320,4.97818E-4,0.008956909,-0.007930756,-0.010620117,-0.0021240234,-0.0063720704,0.0
28321,4.97818E-4,0.008956909,-0.007930756,-0.010620117,-0.0053100586,-0.009558106,0.0
28322,3.9863586E-4,-5.0354004E-4,-0.0025138855,-0.010620117,-0.0053100586,-0.009558106,0.0
28323,3.9863586E-4,-5.0354004E-4,-0.0025138855,-0.010620117,-0.0031860352,-0.013806152,0.0
28324,0.004152298,-4.043579E-4,-0.0020103455,-0.010620117,-0.0031860352,-0.013806152,0.0
28325,0.004152298,-4.043579E-4,-0.0020103455,-0.011682129,-0.0021240234,-0.012744141,0.0
28326,0.0033216476,0.0035095215,-0.0016098022,-0.011682129,-0.0021240234,-0.012744141,0.0
28327,0.0033216476,0.0035095215,-0.0016098022,-0.010620117,-0.0021240234,-0.015930176,0.0
28328,0.0026578903,-0.0010223389,0.002544403,-0.010620117,-0.0021240234,-0.015930176,0.0
28329,0.0026578903,-0.0010223389,0.002544403,-0.010620117,-0.0031860352,-0.012744141,0.0
28330,-0.0055389404,-0.008483887,0.0058670044,-0.010620117,-0.0031860352,-0.012744141,0.0
28331,-0.0055389404,-0.008483887,0.0058670044,-0.010620117,-0.004248047,-0.009558106,0.0
28332,-0.008264542,-0.006790161,0.0046920776,-0.010620117,-0.004248047,-0.009558106,0.0
28333,-0.008264542,-0.006790161,0.0046920776,-0.008496094,-0.0053100586,-0.010620117,0.0
28334,0.0010547638,0.0060653687,-0.0039138794,-0.008496094,-0.0053100586,-0.010620117,0.0
28335,0.0010547638,0.0060653687,-0.0039138794,-0.011682129,-0.0021240234,-0.011682129,0.0
28336,0.008509636,0.00868988,-0.010795593,-0.011682129,-0.0021240234,-0.011682129,0.0
28337,0.008509636,0.00868988,-0.010795593,-0.010620117,-0.0021240234,-0.015930176,0.0
28338,0.0068073273,0.0069503784,-0.016292572,-0.010620117,-0.0021240234,-0.015930176,0.0
28339,0.0068073273,0.0069503784,-0.016292572,-0.013806152,-0.0021240234,-0.009558106,0.0
28340,0.0092659,-0.002105713,-0.005378723,-0.013806152,-0.0021240234,-0.009558106,0.0
28341,0.0092659,-0.002105713,-0.005378723,-0.004248047,-0.004248047,-0.019116212,0.0
28342,0.007411957,-0.013168335,0.01102829,-0.004248047,-0.004248047,-0.019116212,0.0
28343,0.007411957,-0.013168335,0.01102829,-0.013806152,-0.0010620117,-0.011682129,0.0
28344,3.633499E-4,-0.007484436,0.008823395,-0.013806152,-0.0010620117,-0.011682129,0.0
28345,3.633499E-4,-0.007484436,0.008823395,-0.014868164,-0.0053100586,0.004248047,0.0
28346,-0.012038231,0.0013122559,-0.008274078,-0.014868164,-0.0053100586,0.004248047,0.0
28347,-0.012038231,0.0013122559,-0.008274078,-0.0053100586,-0.009558106,-0.008496094,0.0
28348,-0.009630203,0.0010528564,-0.0066184998,-0.0053100586,-0.009558106,-0.008496094,0.0
28349,-0.009630203,0.0010528564,-0.0066184998,-0.011682129,0.0,-0.019116212,0.0
28350,-0.003870964,-0.0029907227,0.0062026978,-0.011682129,0.0,-0.019116212,0.0
28351,-0.003870964,-0.0029907227,0.0062026978,-0.011682129,0.0,-0.019116212,0.0
28352,-0.003870964,-0.0029907227,0.0062026978,-0.012744141,0.0031860352,-0.015930176,0.0
28353,0.004556656,0.0014419556,0.004962921,-0.012744141,0.0031860352,-0.015930176,0.0
28354,0.004556656,0.0014419556,0.004962921,-0.008496094,-0.0063720704,-0.014868164,0.0
28355,0.0036449432,-0.0026779175,-0.0036964417,-0.008496094,-0.0063720704,-0.014868164,0.0
28356,0.0036449432,-0.0026779175,-0.0036964417,-0.011682129,0.0,-0.010620117,0.0
28357,0.002916336,0.0016937256,-0.006790161,-0.011682129,0.0,-0.010620117,0.0
28358,0.002916336,0.0016937256,-0.006790161,-0.011682129,-0.0021240234,-0.004248047,0.0
28359,0.0016374588,0.0048675537,0.002231598,-0.011682129,-0.0021240234,-0.004248047,0.0
28360,0.0016374588,0.0048675537,0.002231598,-0.0053100586,-0.010620117,-0.0010620117,0.0
28361,-0.0025100708,0.0077285767,0.00945282,-0.0053100586,-0.010620117,-0.0010620117,0.0
28362,-0.0025100708,0.0077285767,0.00945282,-0.009558106,-0.0021240234,-0.008496094,0.0
28363,-0.0012512207,0.0026931763,0.011383057,-0.009558106,-0.0021240234,-0.008496094,0.0
28364,-0.0012512207,0.0026931763,0.011383057,-0.009558106,0.0031860352,-0.023364259,0.0
28365,-8.583069E-5,-0.0012741089,0.0014533997,-0.009558106,0.0031860352,-0.023364259,0.0
28366,-8.583069E-5,-0.0012741089,0.0014533997,-0.0063720704,-0.004248047,-0.021240234,0.0
28367,-0.0039014816,-0.004852295,0.0011634827,-0.0063720704,-0.004248047,-0.021240234,0.0
28368,-0.0039014816,-0.004852295,0.0011634827,-0.011682129,-0.0031860352,-0.008496094,0.0
28369,-0.003121376,-0.0038833618,-0.0029029846,-0.011682129,-0.0031860352,-0.008496094,0.0
28370,-0.003121376,-0.0038833618,-0.0029029846,-0.011682129,-0.0031860352,-0.004248047,0.0
28371,-0.0024967194,7.247925E-4,-0.0061531067,-0.011682129,-0.0031860352,-0.004248047,0.0
28372,-0.0024967194,7.247925E-4,-0.0061531067,-0.011682129,-0.0063720704,-0.0021240234,0.0
28373,-0.001996994,0.00440979,-0.0049209595,-0.011682129,-0.0063720704,-0.0021240234,0.0
28374,-0.001996994,0.00440979,-0.0049209595,-0.011682129,-0.0053100586,-0.008496094,0.0
28375,0.006055832,0.0035247803,-1.02996826E-4,-0.011682129,-0.0053100586,-0.008496094,0.0
28376,0.006055832,0.0035247803,-1.02996826E-4,-0.009558106,0.0010620117,-0.020178223,0.0
28377,0.0063095093,-0.008018494,0.0037498474,-0.009558106,0.0010620117,-0.020178223,0.0
28378,0.0063095093,-0.008018494,0.0037498474,-0.010620117,0.0021240234,-0.022302246,0.0
28379,0.0012264252,-0.014083862,0.002998352,-0.010620117,0.0021240234,-0.022302246,0.0
28380,0.0012264252,-0.014083862,0.002998352,-0.009558106,-0.0021240234,-0.011682129,0.0
28381,-0.0028514862,-0.0074310303,-0.005268097,-0.009558106,-0.0021240234,-0.011682129,0.0
28382,-0.0028514862,-0.0074310303,-0.005268097,-0.008496094,-0.0063720704,-0.0063720704,0.0
28383,8.5639954E-4,0.0014038086,0.003452301,-0.008496094,-0.0063720704,-0.0063720704,0.0
28384,8.5639954E-4,0.0014038086,0.003452301,-0.012744141,-0.0063720704,-0.0010620117,0.0
28385,-1.04904175E-5,0.008476257,0.010417938,-0.012744141,-0.0063720704,-0.0010620117,0.0
28386,-1.04904175E-5,0.008476257,0.010417938,-0.011682129,-0.004248047,-0.004248047,0.0
28387,-0.0038414001,0.0067825317,0.01216507,-0.011682129,-0.004248047,-0.004248047,0.0
28388,-0.0038414001,0.0067825317,0.01216507,-0.007434082,-0.0010620117,-0.0180542,0.0
28389,-0.0015468597,0.006111145,0.00207901,-0.007434082,-0.0010620117,-0.0180542,0.0
28390,-0.0015468597,0.006111145,0.00207901,-0.010620117,0.0021240234,-0.023364259,0.0
28391,-0.0043621063,0.0090408325,-0.0021705627,-0.010620117,0.0021240234,-0.023364259,0.0
28392,-0.0043621063,0.0090408325,-0.0021705627,-0.010620117,-0.0021240234,-0.0180542,0.0
28393,0.004163742,0.007232666,0.0020980835,-0.010620117,-0.0021240234,-0.0180542,0.0
28394,0.004163742,0.007232666,0.0020980835,-0.010620117,-0.0053100586,-0.004248047,0.0
28395,0.009250641,-0.0026474,-0.002155304,-0.010620117,-0.0053100586,-0.004248047,0.0
28396,0.009250641,-0.0026474,-0.002155304,-0.012744141,-0.0063720704,0.0021240234,0.0
28397,-2.527237E-4,-0.0021133423,-0.0017242432,-0.012744141,-0.0063720704,0.0021240234,0.0
28398,-2.527237E-4,-0.0021133423,-0.0017242432,-0.010620117,-0.0053100586,-0.0063720704,0.0
28399,-2.0217896E-4,0.0059661865,0.0024528503,-0.010620117,-0.0053100586,-0.0063720704,0.0
28400,-2.0217896E-4,0.0059661865,0.0024528503,-0.010620117,0.0,-0.019116212,0.0
28401,0.0043678284,0.008926392,0.0019607544,-0.010620117,0.0,-0.019116212,0.0
28402,0.0043678284,0.008926392,0.0019607544,-0.008496094,0.0010620117,-0.022302246,0.0
28403,0.0034942627,0.0033035278,-0.006099701,-0.008496094,0.0010620117,-0.022302246,0.0
28404,0.0034942627,0.0033035278,-0.006099701,-0.009558106,-0.0021240234,-0.015930176,0.0
28405,0.002796173,0.0026397705,-0.012546539,-0.009558106,-0.0021240234,-0.015930176,0.0
28406,0.002796173,0.0026397705,-0.012546539,-0.011682129,-0.004248047,-0.0031860352,0.0
28407,-0.003194809,-0.0024414062,-0.0023727417,-0.011682129,-0.004248047,-0.0031860352,0.0
28408,-0.003194809,-0.0024414062,-0.0023727417,-0.011682129,-0.007434082,0.0010620117,0.0
28409,-0.014751434,-0.0022583008,0.0057678223,-0.011682129,-0.007434082,0.0010620117,0.0
28410,-0.014751434,-0.0022583008,0.0057678223,-0.009558106,-0.0053100586,-0.0063720704,0.0
28411,-3.1471252E-4,0.002029419,0.0046157837,-0.009558106,-0.0053100586,-0.0063720704,0.0
28412,-3.1471252E-4,0.002029419,0.0046157837,-0.011682129,0.0010620117,-0.015930176,0.0
28413,0.0089530945,-0.0015258789,-1.411438E-4,-0.011682129,0.0010620117,-0.015930176,0.0
28414,0.0089530945,-0.0015258789,-1.411438E-4,-0.008496094,0.0010620117,-0.02442627,0.0
28415,0.004098892,-0.008544922,-1.1444092E-4,-0.008496094,0.0010620117,-0.02442627,0.0
28416,0.004098892,-0.008544922,-1.1444092E-4,-0.009558106,0.0,-0.019116212,0.0
28417,0.003279686,-0.01448822,-0.0039253235,-0.009558106,0.0,-0.019116212,0.0
28418,0.003279686,-0.01448822,-0.0039253235,-0.013806152,-0.0010620117,-0.0031860352,0.0
28419,-0.014099121,-0.012214661,-0.010807037,-0.013806152,-0.0010620117,-0.0031860352,0.0
28420,-0.014099121,-0.012214661,-0.010807037,-0.008496094,-0.010620117,-0.0010620117,0.0
28421,-0.017199516,-0.0068740845,-0.0048103333,-0.008496094,-0.010620117,-0.0010620117,0.0
28422,-0.017199516,-0.0068740845,-0.0048103333,-0.012744141,-0.0053100586,0.0053100586,0.0
28423,0.008529663,0.005683899,0.003818512,-0.012744141,-0.0053100586,0.0053100586,0.0
28424,0.008529663,0.005683899,0.003818512,-0.012744141,0.0021240234,-0.011682129,0.0
28425,-0.0075922012,0.02028656,0.0030555725,-0.012744141,0.0021240234,-0.011682129,0.0
28426,-0.0075922012,0.02028656,0.0030555725,-0.004248047,-0.0031860352,-0.025488282,0.0
28427,-0.0052309036,0.016593933,0.002445221,-0.004248047,-0.0031860352,-0.025488282,0.0
28428,-0.0052309036,0.016593933,0.002445221,-0.013806152,0.004248047,-0.019116212,0.0
28429,0.014967918,0.005622864,0.0019569397,-0.013806152,0.004248047,-0.019116212,0.0
28430,0.014967918,0.005622864,0.0019569397,-0.009558106,-0.0010620117,-0.012744141,0.0
28431,-0.012195587,-0.0035476685,0.0012588501,-0.009558106,-0.0010620117,-0.012744141,0.0
28432,-0.012195587,-0.0035476685,0.0012588501,-0.008496094,-0.013806152,0.0010620117,0.0
28433,-0.020132065,0.0074539185,0.0010070801,-0.008496094,-0.013806152,0.0010620117,0.0
28434,-0.020132065,0.0074539185,0.0010070801,-0.016992187,-0.0021240234,0.008496094,0.0
28435,0.0030469894,0.017448425,8.049011E-4,-0.016992187,-0.0021240234,0.008496094,0.0
28436,0.0030469894,0.017448425,8.049011E-4,-0.0053100586,-0.004248047,-0.015930176,0.0
28437,0.008296967,0.014862061,0.004463196,-0.0053100586,-0.004248047,-0.015930176,0.0
28438,0.008296967,0.014862061,0.004463196,-0.008496094,0.0,-0.028674318,0.0
28439,0.01669693,-0.006362915,0.0077438354,-0.008496094,0.0,-0.028674318,0.0
28440,0.01669693,-0.006362915,0.0077438354,-0.014868164,0.008496094,-0.027612304,0.0
28441,0.01439476,-0.012290955,0.0023612976,-0.014868164,0.008496094,-0.027612304,0.0
28442,0.01439476,-0.012290955,0.0023612976,-0.0053100586,-0.004248047,-0.019116212,0.0
28443,-0.01299572,-0.018180847,0.0018882751,-0.0053100586,-0.004248047,-0.019116212,0.0
28444,-0.01299572,-0.018180847,0.0018882751,-0.013806152,-0.010620117,0.011682129,0.0
28445,-0.010335922,-0.016204834,0.0015106201,-0.013806152,-0.010620117,0.011682129,0.0
28446,-0.010335922,-0.016204834,0.0015106201,-0.016992187,-0.007434082,0.015930176,0.0
28447,-0.0015058517,-0.001876831,-0.0026245117,-0.016992187,-0.007434082,0.015930176,0.0
28448,-0.0015058517,-0.001876831,-0.0026245117,-0.0063720704,-0.009558106,-0.012744141,0.0
28449,-2.2792816E-4,0.010421753,-0.0020980835,-0.0063720704,-0.009558106,-0.012744141,0.0
28450,-2.2792816E-4,0.010421753,-0.0020980835,-0.011682129,0.004248047,-0.026550293,0.0
28451,0.014918327,0.0057525635,-0.0047683716,-0.011682129,0.004248047,-0.026550293,0.0
28452,0.014918327,0.0057525635,-0.0047683716,-0.010620117,0.008496094,-0.033984374,0.0
28453,0.014303207,-0.009666443,-0.015300751,-0.010620117,0.008496094,-0.033984374,0.0
28454,0.014303207,-0.009666443,-0.015300751,-0.007434082,-0.0031860352,-0.025488282,0.0
28455,0.0024576187,-0.019821167,-0.008407593,-0.007434082,-0.0031860352,-0.025488282,0.0
28456,0.0024576187,-0.019821167,-0.008407593,-0.014868164,-0.0063720704,0.008496094,0.0
28457,-0.009105682,-0.009719849,9.2697144E-4,-0.014868164,-0.0063720704,0.008496094,0.0
28458,-0.009105682,-0.009719849,9.2697144E-4,-0.010620117,-0.012744141,0.013806152,0.0
28459,-0.017245293,0.006690979,0.011936188,-0.010620117,-0.012744141,0.013806152,0.0
28460,-0.017245293,0.006690979,0.011936188,-0.009558106,-0.009558106,-0.0010620117,0.0
28461,-0.009266853,0.013320923,0.009536743,-0.009558106,-0.009558106,-0.0010620117,0.0
28462,-0.009266853,0.013320923,0.009536743,-0.013806152,0.0053100586,-0.022302246,0.0
28463,0.004146576,0.012084961,5.9890747E-4,-0.013806152,0.0053100586,-0.022302246,0.0
28464,0.004146576,0.012084961,5.9890747E-4,-0.009558106,0.007434082,-0.040356446,0.0
28465,0.0060272217,-6.2561035E-4,-0.003353119,-0.009558106,0.007434082,-0.040356446,0.0
28466,0.0060272217,-6.2561035E-4,-0.003353119,-0.0053100586,-0.0010620117,-0.026550293,0.0
28467,0.007543564,-0.012489319,-0.006515503,-0.0053100586,-0.0010620117,-0.026550293,0.0
28468,0.007543564,-0.012489319,-0.006515503,-0.014868164,-0.0053100586,0.0053100586,0.0
28469,0.00262928,-0.015182495,-0.005519867,-0.014868164,-0.0053100586,0.0053100586,0.0
28470,0.00262928,-0.015182495,-0.005519867,-0.009558106,-0.013806152,0.011682129,0.0
28471,-0.01197052,-0.0016479492,0.0029335022,-0.009558106,-0.013806152,0.011682129,0.0
28472,-0.01197052,-0.0016479492,0.0029335022,-0.009558106,-0.009558106,0.0021240234,0.0
28473,-0.0057430267,0.010177612,0.010002136,-0.009558106,-0.009558106,0.0021240234,0.0
28474,-0.0057430267,0.010177612,0.010002136,-0.011682129,0.0010620117,-0.0180542,0.0
28475,0.0059280396,0.009414673,0.004180908,-0.011682129,0.0010620117,-0.0180542,0.0
28476,0.0059280396,0.009414673,0.004180908,-0.0063720704,0.0031860352,-0.03717041,0.0
28477,0.007329941,-0.002822876,-0.008155823,-0.0063720704,0.0031860352,-0.03717041,0.0
28478,0.007329941,-0.002822876,-0.008155823,-0.011682129,0.0053100586,-0.027612304,0.0
28479,0.0058641434,-0.009925842,-0.01417923,-0.011682129,0.0053100586,-0.027612304,0.0
28480,0.0058641434,-0.009925842,-0.01417923,-0.011682129,-0.004248047,-0.0053100586,0.0
28481,-0.0012292862,-0.012702942,-0.015174866,-0.011682129,-0.004248047,-0.0053100586,0.0
28482,-0.0012292862,-0.012702942,-0.015174866,-0.009558106,-0.012744141,0.007434082,0.0
28483,-0.007819176,-0.003829956,-6.5231323E-4,-0.009558106,-0.012744141,0.007434082,0.0
28484,-0.007819176,-0.003829956,-6.5231323E-4,-0.011682129,-0.008496094,0.009558106,0.0
28485,6.418228E-4,0.011924744,0.018630981,-0.011682129,-0.008496094,0.009558106,0.0
28486,6.418228E-4,0.011924744,0.018630981,-0.012744141,-0.0010620117,-0.012744141,0.0
28487,-0.0091667175,0.014167786,0.018737793,-0.012744141,-0.0010620117,-0.012744141,0.0
28488,-0.0091667175,0.014167786,0.018737793,-0.007434082,0.0010620117,-0.027612304,0.0
28489,-0.009346962,0.00831604,0.0111579895,-0.007434082,0.0010620117,-0.027612304,0.0
28490,-0.009346962,0.00831604,0.0111579895,-0.009558106,0.0021240234,-0.023364259,0.0
28491,0.004009247,-0.0010147095,-0.0063934326,-0.009558106,0.0021240234,-0.023364259,0.0
28492,0.004009247,-0.0010147095,-0.0063934326,-0.008496094,-0.0031860352,-0.013806152,0.0
28493,0.010873795,-0.0046463013,-0.00894928,-0.008496094,-0.0031860352,-0.013806152,0.0
28494,0.010873795,-0.0046463013,-0.00894928,-0.011682129,-0.0063720704,-0.0021240234,0.0
28495,-0.008365631,0.0031661987,0.0043411255,-0.011682129,-0.0063720704,-0.0021240234,0.0
28496,-0.008365631,0.0031661987,0.0043411255,-0.010620117,-0.008496094,0.0010620117,0.0
28497,-0.0036287308,0.0021896362,0.011127472,-0.010620117,-0.008496094,0.0010620117,0.0
28498,-0.0036287308,0.0021896362,0.011127472,-0.010620117,-0.0053100586,-0.0063720704,0.0
28499,-0.0036287308,0.0021896362,0.011127472,-0.010620117,-0.0053100586,-0.0063720704,71.0
28500,0.004763603,0.0017547607,0.0050697327,-0.010620117,-0.0053100586,-0.0063720704,71.0
28501,0.004763603,0.0017547607,0.0050697327,-0.010620117,0.0031860352,-0.020178223,71.0
28502,-0.0099105835,-0.0017089844,2.3651123E-4,-0.010620117,0.0031860352,-0.020178223,71.0
28503,-0.0099105835,-0.0017089844,2.3651123E-4,-0.0063720704,-0.0010620117,-0.023364259,71.0
28504,-0.011761665,0.0024642944,-0.003643036,-0.0063720704,-0.0010620117,-0.023364259,71.0
28505,-0.011761665,0.0024642944,-0.003643036,-0.012744141,-0.0021240234,-0.013806152,71.0
28506,0.0020895004,-0.0018615723,9.1934204E-4,-0.012744141,-0.0021240234,-0.013806152,71.0
28507,0.0020895004,-0.0018615723,9.1934204E-4,-0.010620117,-0.0031860352,-0.0063720704,71.0
28508,9.021759E-4,-0.0056610107,-0.0030975342,-0.010620117,-0.0031860352,-0.0063720704,71.0
28509,9.021759E-4,-0.0056610107,-0.0030975342,-0.010620117,-0.0063720704,0.0,71.0
28510,0.0037117004,-0.0010757446,-0.0063095093,-0.010620117,-0.0063720704,0.0,71.0
28511,0.0037117004,-0.0010757446,-0.0063095093,-0.013806152,-0.0053100586,-0.004248047,71.0
28512,-8.6402893E-4,0.0029754639,0.006439209,-0.013806152,-0.0053100586,-0.004248047,71.0
28513,-8.6402893E-4,0.0029754639,0.006439209,-0.010620117,-0.0031860352,-0.010620117,71.0
28514,-0.00834465,0.006210327,0.012817383,-0.010620117,-0.0031860352,-0.010620117,71.0
28515,-0.00834465,0.006210327,0.012817383,-0.009558106,0.004248047,-0.019116212,71.0
28516,-0.0021476746,0.0052871704,-0.0012321472,-0.009558106,0.004248047,-0.019116212,71.0
28517,-0.0021476746,0.0052871704,-0.0012321472,-0.008496094,-0.0010620117,-0.022302246,71.0
28518,0.009768486,3.9672852E-4,-0.012485504,-0.008496094,-0.0010620117,-0.022302246,71.0
28519,0.009768486,3.9672852E-4,-0.012485504,-0.010620117,-0.0021240234,-0.015930176,71.0
28520,0.011648178,-0.007347107,-0.0061569214,-0.010620117,-0.0021240234,-0.015930176,71.0
28521,0.011648178,-0.007347107,-0.0061569214,-0.011682129,-0.0021240234,-0.004248047,71.0
28522,0.0037403107,-0.0066452026,-0.0010910034,-0.011682129,-0.0021240234,-0.004248047,71.0
28523,0.0037403107,-0.0066452026,-0.0010910034,-0.010620117,-0.008496094,0.0021240234,71.0
28524,0.0022239685,-0.0018386841,-8.735657E-4,-0.010620117,-0.008496094,0.0021240234,71.0
28525,0.0022239685,-0.0018386841,-8.735657E-4,-0.012744141,-0.0053100586,-0.0031860352,71.0
28526,-0.0020418167,0.0023651123,-6.980896E-4,-0.012744141,-0.0053100586,-0.0031860352,71.0
28527,-0.0020418167,0.0023651123,-6.980896E-4,-0.008496094,0.0,-0.016992187,71.0
28528,-0.0076885223,0.0026168823,-5.569458E-4,-0.008496094,0.0,-0.016992187,71.0
28529,-0.0076885223,0.0026168823,-5.569458E-4,-0.008496094,0.0,-0.02442627,71.0
28530,0.0022716522,-0.0052261353,-0.011932373,-0.008496094,0.0,-0.02442627,71.0
28531,0.0022716522,-0.0052261353,-0.011932373,-0.010620117,0.0,-0.0180542,71.0
28532,0.0056495667,-0.008010864,-0.013378143,-0.010620117,0.0,-0.0180542,71.0
28533,0.0056495667,-0.008010864,-0.013378143,-0.008496094,-0.0031860352,-0.009558106,71.0
28534,-0.003914833,-0.01058197,-0.003047943,-0.008496094,-0.0031860352,-0.009558106,71.0
28535,-0.003914833,-0.01058197,-0.003047943,-0.011682129,-0.007434082,0.0,71.0
28536,-0.0049390793,-0.0016021729,0.009059906,-0.011682129,-0.007434082,0.0,71.0
28537,-0.0049390793,-0.0016021729,0.009059906,-0.012744141,-0.0063720704,0.0021240234,71.0
28538,-0.011616707,0.006385803,0.0149002075,-0.012744141,-0.0063720704,0.0021240234,71.0
28539,-0.011616707,0.006385803,0.0149002075,-0.009558106,-0.004248047,-0.010620117,71.0
28540,-0.008524895,0.009284973,0.008098602,-0.009558106,-0.004248047,-0.010620117,71.0
28541,-0.008524895,0.009284973,0.008098602,-0.008496094,0.0021240234,-0.023364259,71.0
28542,0.00669384,0.004501343,-0.0011863708,-0.008496094,0.0021240234,-0.023364259,71.0
28543,0.00669384,0.004501343,-0.0011863708,-0.010620117,0.0010620117,-0.026550293,71.0
28544,0.00995636,-0.0037231445,-0.0047836304,-0.010620117,0.0010620117,-0.026550293,71.0
28545,0.00995636,-0.0037231445,-0.0047836304,-0.0063720704,-0.0031860352,-0.013806152,71.0
28546,0.006781578,-0.0073394775,-0.0038261414,-0.0063720704,-0.0031860352,-0.013806152,71.0
28547,0.006781578,-0.0073394775,-0.0038261414,-0.013806152,-0.0053100586,0.0063720704,71.0
28548,0.003129959,7.7056885E-4,0.0046043396,-0.013806152,-0.0053100586,0.0063720704,71.0
28549,0.003129959,7.7056885E-4,0.0046043396,-0.012744141,-0.009558106,0.004248047,71.0
28550,0.0025043488,0.004447937,0.0075149536,-0.012744141,-0.009558106,0.004248047,71.0
28551,0.0025043488,0.004447937,0.0075149536,-0.008496094,-0.0053100586,-0.011682129,71.0
28552,0.0028333664,0.0077590942,0.013664246,-0.008496094,-0.0053100586,-0.011682129,71.0
28553,0.0028333664,0.0077590942,0.013664246,-0.011682129,0.004248047,-0.02442627,71.0
28554,-0.00713253,0.0033035278,0.010932922,-0.011682129,0.004248047,-0.02442627,71.0
28555,-0.00713253,0.0033035278,0.010932922,-0.0053100586,-0.0010620117,-0.027612304,71.0
28556,0.006562233,-0.0046691895,-0.0027389526,-0.0053100586,-0.0010620117,-0.027612304,71.0
28557,0.006562233,-0.0046691895,-0.0027389526,-0.011682129,0.0,-0.012744141,71.0
28558,0.008167267,-0.004135132,-0.0136909485,-0.011682129,0.0,-0.012744141,71.0
28559,0.008167267,-0.004135132,-0.0136909485,-0.013806152,-0.0053100586,0.0021240234,71.0
28560,-0.015218735,0.0033569336,-0.011295319,-0.013806152,-0.0053100586,0.0021240234,71.0
28561,-0.015218735,0.0033569336,-0.011295319,-0.007434082,-0.014868164,0.004248047,71.0
28562,-0.0053510666,0.006149292,0.0024642944,-0.007434082,-0.014868164,0.004248047,71.0
28563,-0.0053510666,0.006149292,0.0024642944,-0.013806152,-0.0021240234,-0.004248047,71.0
28564,0.008110046,0.0053253174,0.0058059692,-0.013806152,-0.0021240234,-0.004248047,71.0
28565,0.008110046,0.0053253174,0.0058059692,-0.009558106,0.004248047,-0.025488282,71.0
28566,-0.0061826706,0.0016021729,-0.0030212402,-0.009558106,0.004248047,-0.025488282,71.0
28567,-0.0061826706,0.0016021729,-0.0030212402,-0.0053100586,0.0010620117,-0.03186035,71.0
28568,-0.0040311813,-0.0059661865,-0.010082245,-0.0053100586,0.0010620117,-0.03186035,71.0
28569,-0.0040311813,-0.0059661865,-0.010082245,-0.012744141,0.0010620117,-0.013806152,71.0
28570,0.003452301,-0.012878418,-0.00806427,-0.012744141,0.0010620117,-0.013806152,71.0
28571,0.003452301,-0.012878418,-0.00806427,-0.010620117,-0.0063720704,0.0031860352,71.0
28572,-0.0034389496,-0.011352539,-0.002620697,-0.010620117,-0.0063720704,0.0031860352,71.0
28573,-0.0034389496,-0.011352539,-0.002620697,-0.010620117,-0.011682129,0.0063720704,71.0
28574,0.004012108,-0.0018157959,0.0017356873,-0.010620117,-0.011682129,0.0063720704,71.0
28575,0.004012108,-0.0018157959,0.0017356873,-0.012744141,-0.0021240234,-0.0063720704,71.0
28576,0.0080804825,0.00667572,0.0052223206,-0.012744141,-0.0021240234,-0.0063720704,71.0
28577,0.0080804825,0.00667572,0.0052223206,-0.0053100586,0.0,-0.027612304,71.0
28578,8.983612E-4,0.0062713623,0.00799942,-0.0053100586,0.0,-0.027612304,71.0
28579,8.983612E-4,0.0062713623,0.00799942,-0.011682129,0.004248047,-0.025488282,71.0
28580,0.0045518875,-0.0064849854,-0.0012550354,-0.011682129,0.004248047,-0.025488282,71.0
28581,0.0045518875,-0.0064849854,-0.0012550354,-0.010620117,0.0,-0.015930176,71.0
28582,0.0074748993,-0.012840271,-0.008670807,-0.010620117,0.0,-0.015930176,71.0
28583,0.0074748993,-0.012840271,-0.008670807,-0.009558106,-0.008496094,-0.0063720704,71.0
28584,-0.0036392212,-0.0073165894,7.286072E-4,-0.009558106,-0.008496094,-0.0063720704,71.0
28585,-0.0036392212,-0.0073165894,7.286072E-4,-0.011682129,-0.007434082,0.0053100586,71.0
28586,-0.0077085495,0.0013885498,0.012069702,-0.011682129,-0.007434082,0.0053100586,71.0
28587,-0.0077085495,0.0013885498,0.012069702,-0.011682129,-0.0053100586,-0.004248047,71.0
28588,-0.0023460388,0.008766174,0.0058250427,-0.011682129,-0.0053100586,-0.004248047,71.0
28589,-0.0023460388,0.008766174,0.0058250427,-0.008496094,-0.0010620117,-0.021240234,71.0
28590,-1.3160706E-4,0.007797241,-0.0029945374,-0.008496094,-0.0010620117,-0.021240234,71.0
28591,-1.3160706E-4,0.007797241,-0.0029945374,-0.010620117,0.0053100586,-0.02442627,71.0
28592,0.0044965744,0.006576538,-0.010059357,-0.010620117,0.0053100586,-0.02442627,71.0
28593,0.0044965744,0.006576538,-0.010059357,-0.008496094,-0.0021240234,-0.021240234,71.0
28594,0.0035972595,-0.0024032593,-0.0080451965,-0.008496094,-0.0021240234,-0.021240234,71.0
28595,0.0035972595,-0.0024032593,-0.0080451965,-0.010620117,-0.007434082,-0.004248047,71.0
28596,9.98497E-4,-0.0065841675,0.0012283325,-0.010620117,-0.007434082,-0.004248047,71.0
28597,9.98497E-4,-0.0065841675,0.0012283325,-0.011682129,-0.004248047,0.004248047,71.0
28598,-4.2915344E-5,0.0020217896,0.004814148,-0.011682129,-0.004248047,0.004248047,71.0
28599,-4.2915344E-5,0.0020217896,0.004814148,-0.010620117,-0.008496094,-0.0063720704,71.0
28600,0.0037984848,0.009284973,0.0038528442,-0.010620117,-0.008496094,-0.0063720704,71.0
28601,0.0037984848,0.009284973,0.0038528442,-0.008496094,-0.0010620117,-0.015930176,71.0
28602,-7.9345703E-4,0.018913269,-7.5149536E-4,-0.008496094,-0.0010620117,-0.015930176,71.0
28603,-7.9345703E-4,0.018913269,-7.5149536E-4,-0.009558106,0.0021240234,-0.0180542,71.0
28604,-0.012121201,0.015129089,-0.008266449,-0.009558106,0.0021240234,-0.0180542,71.0
28605,-0.012121201,0.015129089,-0.008266449,-0.009558106,-0.0021240234,-0.016992187,71.0
28606,-0.00969696,0.008270264,-0.0066108704,-0.009558106,-0.0021240234,-0.016992187,71.0
28607,-0.00969696,0.008270264,-0.0066108704,-0.008496094,-0.004248047,-0.007434082,71.0
28608,-9.1552734E-5,-0.0010375977,0.0023765564,-0.008496094,-0.004248047,-0.007434082,71.0
28609,-9.1552734E-5,-0.0010375977,0.0023765564,-0.011682129,-0.0031860352,-0.0063720704,71.0
28610,0.00374794,-0.0084991455,0.0018997192,-0.011682129,-0.0031860352,-0.0063720704,71.0
28611,0.00374794,-0.0084991455,0.0018997192,-0.011682129,-0.0031860352,-0.0063720704,71.0
28612,0.00374794,-0.0084991455,0.0018997192,-0.008496094,-0.0031860352,-0.010620117,71.0
28613,-0.004655838,-0.0067977905,0.0015182495,-0.008496094,-0.0031860352,-0.010620117,71.0
28614,-0.004655838,-0.0067977905,0.0015182495,-0.011682129,-0.0010620117,-0.010620117,71.0
28615,-0.007557869,-0.0016021729,0.0050468445,-0.011682129,-0.0010620117,-0.010620117,71.0
28616,-0.007557869,-0.0016021729,0.0050468445,-0.008496094,-0.004248047,-0.014868164,71.0
28617,-0.002213478,-0.00894928,0.0040359497,-0.008496094,-0.004248047,-0.014868164,71.0
28618,-0.002213478,-0.00894928,0.0040359497,-0.008496094,-0.0021240234,-0.016992187,71.0
28619,0.0020618439,-0.0109939575,0.003227234,-0.008496094,-0.0021240234,-0.016992187,71.0
28620,0.0020618439,-0.0109939575,0.003227234,-0.014868164,-0.0021240234,-0.008496094,71.0
28621,0.009303093,-0.008796692,-0.0012512207,-0.014868164,-0.0021240234,-0.008496094,71.0
28622,0.009303093,-0.008796692,-0.0012512207,-0.009558106,-0.0053100586,-0.009558106,71.0
28623,0.0036096573,-0.007041931,-0.008666992,-0.009558106,-0.0053100586,-0.009558106,71.0
28624,0.0036096573,-0.007041931,-0.008666992,-0.010620117,-0.0010620117,-0.013806152,71.0
28625,-9.3364716E-4,-0.0056381226,-0.006931305,-0.010620117,-0.0010620117,-0.013806152,71.0
28626,-9.3364716E-4,-0.0056381226,-0.006931305,-0.010620117,-0.0010620117,-0.012744141,71.0
28627,-0.004579544,0.0031585693,0.0021209717,-0.010620117,-0.0010620117,-0.012744141,71.0
28628,-0.004579544,0.0031585693,0.0021209717,-0.008496094,-0.0063720704,-0.010620117,71.0
28629,-0.011329651,0.014015198,0.005531311,-0.008496094,-0.0063720704,-0.010620117,71.0
28630,-0.011329651,0.014015198,0.005531311,-0.010620117,-0.004248047,-0.007434082,71.0
28631,-0.0052309036,0.0073928833,5.912781E-4,-0.010620117,-0.004248047,-0.007434082,71.0
28632,-0.0052309036,0.0073928833,5.912781E-4,-0.011682129,-0.0021240234,-0.011682129,71.0
28633,-3.5190582E-4,0.0020828247,0.004306793,-0.011682129,-0.0021240234,-0.011682129,71.0
28634,-3.5190582E-4,0.0020828247,0.004306793,-0.007434082,-0.004248047,-0.015930176,71.0
28635,0.007372856,0.0016708374,0.0072669983,-0.007434082,-0.004248047,-0.015930176,71.0
28636,0.007372856,0.0016708374,0.0072669983,-0.009558106,-0.0010620117,-0.012744141,71.0
28637,0.009731293,0.001335144,0.0058135986,-0.009558106,-0.0010620117,-0.012744141,71.0
28638,0.009731293,0.001335144,0.0058135986,-0.012744141,-0.0010620117,-0.010620117,71.0
28639,0.0039520264,0.0010681152,8.31604E-4,-0.012744141,-0.0010620117,-0.010620117,71.0
28640,0.0039520264,0.0010681152,8.31604E-4,-0.008496094,-0.0063720704,-0.008496094,71.0
28641,-0.004491806,-0.0068130493,-0.0031661987,-0.008496094,-0.0063720704,-0.008496094,71.0
28642,-0.004491806,-0.0068130493,-0.0031661987,-0.011682129,-0.004248047,-0.007434082,71.0
28643,0.0040607452,-0.0054473877,-0.002532959,-0.011682129,-0.004248047,-0.007434082,71.0
28644,0.0040607452,-0.0054473877,-0.002532959,-0.010620117,-0.0021240234,-0.011682129,71.0
28645,0.0070819855,-0.00819397,-0.005859375,-0.010620117,-0.0021240234,-0.011682129,71.0
28646,0.0070819855,-0.00819397,-0.005859375,-0.009558106,-0.0021240234,-0.015930176,71.0
28647,0.001832962,-0.00655365,-8.544922E-4,-0.009558106,-0.0021240234,-0.015930176,71.0
28648,0.001832962,-0.00655365,-8.544922E-4,-0.010620117,-0.0021240234,-0.014868164,71.0
28649,0.0014667511,-0.005241394,-6.828308E-4,-0.010620117,-0.0021240234,-0.014868164,71.0
28650,0.0014667511,-0.005241394,-6.828308E-4,-0.009558106,-0.0031860352,-0.012744141,71.0
28651,-0.006480217,-0.004196167,0.003288269,-0.009558106,-0.0031860352,-0.012744141,71.0
28652,-0.006480217,-0.004196167,0.003288269,-0.010620117,-0.0053100586,-0.008496094,71.0
28653,-0.012849808,0.004310608,0.006450653,-0.010620117,-0.0053100586,-0.008496094,71.0
28654,-0.012849808,0.004310608,0.006450653,-0.011682129,-0.0053100586,-0.004248047,71.0
28655,-0.0064468384,0.007286072,0.0013389587,-0.011682129,-0.0053100586,-0.004248047,71.0
28656,-0.0064468384,0.007286072,0.0013389587,-0.009558106,-0.0031860352,-0.010620117,71.0
28657,0.0025081635,0.0058288574,-0.0065956116,-0.009558106,-0.0031860352,-0.010620117,71.0
28658,0.0025081635,0.0058288574,-0.0065956116,-0.008496094,-0.0010620117,-0.0180542,71.0
28659,0.0058279037,-0.0030059814,-0.009109497,-0.008496094,-0.0010620117,-0.0180542,71.0
28660,0.0058279037,-0.0030059814,-0.009109497,-0.011682129,0.0010620117,-0.015930176,71.0
28661,0.0046625137,-0.0062408447,-0.007286072,-0.011682129,0.0010620117,-0.015930176,71.0
28662,0.0046625137,-0.0062408447,-0.007286072,-0.010620117,-0.0031860352,-0.013806152,71.0
28663,-9.059906E-5,-0.001159668,-0.0019950867,-0.010620117,-0.0031860352,-0.013806152,71.0
28664,-9.059906E-5,-0.001159668,-0.0019950867,-0.011682129,-0.0063720704,-0.0053100586,71.0
28665,-7.247925E-5,0.0067367554,0.0060691833,-0.011682129,-0.0063720704,-0.0053100586,71.0
28666,-7.247925E-5,0.0067367554,0.0060691833,-0.011682129,-0.004248047,-0.0031860352,71.0
28667,0.0037631989,0.005393982,0.0048561096,-0.011682129,-0.004248047,-0.0031860352,71.0
28668,0.0037631989,0.005393982,0.0048561096,-0.011682129,-0.004248047,-0.007434082,71.0
28669,-8.1062317E-4,-0.0071868896,0.0038833618,-0.011682129,-0.004248047,-0.007434082,71.0
28670,-8.1062317E-4,-0.0071868896,0.0038833618,-0.011682129,-0.0031860352,-0.016992187,71.0
28671,0.0031728745,-0.0095825195,0.0031051636,-0.011682129,-0.0031860352,-0.016992187,71.0
28672,0.0031728745,-0.0095825195,0.0031051636,-0.011682129,0.0,-0.016992187,71.0
28673,0.006371498,-0.0038375854,-0.0051841736,-0.011682129,0.0,-0.016992187,71.0
28674,0.006371498,-0.0038375854,-0.0051841736,-0.009558106,-0.0031860352,-0.014868164,71.0
28675,0.005097389,7.6293945E-4,-0.004146576,-0.009558106,-0.0031860352,-0.014868164,71.0
28676,0.005097389,7.6293945E-4,-0.004146576,-0.010620117,-0.0031860352,-0.009558106,71.0
28677,-0.0035762787,-0.00705719,-0.0033187866,-0.010620117,-0.0031860352,-0.009558106,71.0
28678,-0.0035762787,-0.00705719,-0.0033187866,-0.011682129,-0.0063720704,-0.0021240234,71.0
28679,9.6035004E-4,-0.005645752,-0.0026550293,-0.011682129,-0.0063720704,-0.0021240234,71.0
28680,9.6035004E-4,-0.005645752,-0.0026550293,-0.010620117,-0.0053100586,-0.0053100586,71.0
28681,-0.0030527115,0.006980896,0.0017089844,-0.010620117,-0.0053100586,-0.0053100586,71.0
28682,-0.0030527115,0.006980896,0.0017089844,-0.010620117,0.0010620117,-0.014868164,71.0
28683,-0.006275177,0.009422302,-0.0024681091,-0.010620117,0.0010620117,-0.014868164,71.0
28684,-0.006275177,0.009422302,-0.0024681091,-0.011682129,0.0010620117,-0.014868164,71.0
28685,-0.012685776,0.007537842,0.0018577576,-0.011682129,0.0010620117,-0.014868164,71.0
28686,-0.012685776,0.007537842,0.0018577576,-0.009558106,-0.004248047,-0.015930176,71.0
28687,-0.0063152313,0.0021972656,0.005317688,-0.009558106,-0.004248047,-0.015930176,71.0
28688,-0.0063152313,0.0021972656,0.005317688,-0.010620117,0.0,-0.012744141,71.0
28689,0.0064353943,0.0017547607,4.196167E-4,-0.010620117,0.0,-0.012744141,71.0
28690,0.0064353943,0.0017547607,4.196167E-4,-0.007434082,-0.009558106,-0.0053100586,71.0
28691,0.0013275146,0.0014038086,3.3569336E-4,-0.007434082,-0.009558106,-0.0053100586,71.0
28692,0.0013275146,0.0014038086,3.3569336E-4,-0.008496094,-0.009558106,-0.0063720704,71.0
28693,-0.0027713776,0.001121521,2.670288E-4,-0.008496094,-0.009558106,-0.0063720704,71.0
28694,-0.0027713776,0.001121521,2.670288E-4,-0.011682129,0.0,-0.013806152,71.0
28695,-0.00605011,9.0026855E-4,0.004047394,-0.011682129,0.0,-0.013806152,71.0
28696,-0.00605011,9.0026855E-4,0.004047394,-0.010620117,-0.0010620117,-0.016992187,71.0
28697,-0.004839897,-0.003112793,-0.0044288635,-0.010620117,-0.0010620117,-0.016992187,71.0
28698,-0.004839897,-0.003112793,-0.0044288635,-0.009558106,-0.0021240234,-0.012744141,71.0
28699,0.0037937164,-0.0024871826,-0.011207581,-0.009558106,-0.0021240234,-0.012744141,71.0
28700,0.0037937164,-0.0024871826,-0.011207581,-0.012744141,0.0,-0.010620117,71.0
28701,-7.982254E-4,0.0018463135,-0.005130768,-0.012744141,0.0,-0.010620117,71.0
28702,-7.982254E-4,0.0018463135,-0.005130768,-0.008496094,-0.0053100586,-0.009558106,71.0
28703,-6.389618E-4,-0.002357483,0.0073928833,-0.008496094,-0.0053100586,-0.009558106,71.0
28704,-6.389618E-4,-0.002357483,0.0073928833,-0.009558106,-0.0053100586,-0.004248047,71.0
28705,0.0071430206,-0.009552002,0.013568878,-0.009558106,-0.0053100586,-0.004248047,71.0
28706,0.0071430206,-0.009552002,0.013568878,-0.007434082,-0.004248047,-0.013806152,71.0
28707,0.0018930435,-0.0076446533,0.0070228577,-0.007434082,-0.004248047,-0.013806152,71.0
28708,0.0018930435,-0.0076446533,0.0070228577,-0.007434082,-0.004248047,-0.016992187,71.0
28709,0.0018930435,-0.0076446533,0.0070228577,-0.007434082,-0.004248047,-0.016992187,71.0
28710,-0.009984016,0.0015487671,-0.005870819,-0.007434082,-0.004248047,-0.016992187,71.0
28711,-0.009984016,0.0015487671,-0.005870819,-0.011682129,-0.0010620117,-0.012744141,71.0
28712,-0.007987022,0.0050735474,-0.0046958923,-0.011682129,-0.0010620117,-0.012744141,71.0
28713,-0.007987022,0.0050735474,-0.0046958923,-0.009558106,-0.0021240234,-0.011682129,71.0
28714,-0.006389618,0.007896423,7.6293945E-5,-0.009558106,-0.0021240234,-0.011682129,71.0
28715,-0.006389618,0.007896423,7.6293945E-5,-0.008496094,-0.004248047,-0.011682129,71.0
28716,-0.0051116943,0.017807007,6.1035156E-5,-0.008496094,-0.004248047,-0.011682129,71.0
28717,-0.0051116943,0.017807007,6.1035156E-5,-0.009558106,-0.0031860352,-0.007434082,71.0
28718,0.0074090958,0.018081665,0.0038833618,-0.009558106,-0.0031860352,-0.007434082,71.0
28719,0.0074090958,0.018081665,0.0038833618,-0.009558106,-0.004248047,-0.009558106,71.0
28720,0.013581276,0.0067977905,0.0069274902,-0.009558106,-0.004248047,-0.009558106,71.0
28721,0.013581276,0.0067977905,0.0069274902,-0.008496094,-0.0021240234,-0.012744141,71.0
28722,0.0070323944,-0.00605011,0.005542755,-0.008496094,-0.0021240234,-0.012744141,71.0
28723,0.0070323944,-0.00605011,0.005542755,-0.009558106,-0.0010620117,-0.011682129,71.0
28724,-0.0020275116,-0.012504578,0.004436493,-0.009558106,-0.0010620117,-0.011682129,71.0
28725,-0.0020275116,-0.012504578,0.004436493,-0.011682129,-0.004248047,-0.013806152,71.0
28726,0.002210617,-0.010002136,-2.708435E-4,-0.011682129,-0.004248047,-0.013806152,71.0
28727,0.002210617,-0.010002136,-2.708435E-4,-0.009558106,-0.0021240234,-0.009558106,71.0
28728,0.005589485,0.003501892,-0.0040512085,-0.009558106,-0.0021240234,-0.009558106,71.0
28729,0.005589485,0.003501892,-0.0040512085,-0.013806152,-0.0031860352,-0.0063720704,71.0
28730,0.004471779,0.0066375732,-0.0032424927,-0.013806152,-0.0031860352,-0.0063720704,71.0
28731,0.004471779,0.0066375732,-0.0032424927,-0.009558106,-0.0053100586,-0.010620117,71.0
28732,-2.4318695E-4,0.0053100586,-0.006427765,-0.009558106,-0.0053100586,-0.010620117,71.0
28733,-2.4318695E-4,0.0053100586,-0.006427765,-0.009558106,-0.0031860352,-0.011682129,71.0
28734,0.0074596405,0.0119018555,-0.005142212,-0.009558106,-0.0031860352,-0.011682129,71.0
28735,0.0074596405,0.0119018555,-0.005142212,-0.009558106,-0.0021240234,-0.013806152,71.0
28736,0.0021352768,0.01335907,-0.0041160583,-0.009558106,-0.0021240234,-0.013806152,71.0
28737,0.0021352768,0.01335907,-0.0041160583,-0.008496094,-0.004248047,-0.013806152,71.0
28738,-0.0021123886,0.0030212402,-0.0032920837,-0.008496094,-0.004248047,-0.013806152,71.0
28739,-0.0021123886,0.0030212402,-0.0032920837,-0.011682129,-0.0031860352,-0.009558106,71.0
28740,0.002131462,0.002418518,-0.006465912,-0.011682129,-0.0031860352,-0.009558106,71.0
28741,0.002131462,0.002418518,-0.006465912,-0.009558106,-0.0031860352,-0.009558106,71.0
28742,0.0055379868,0.009605408,-0.0051727295,-0.009558106,-0.0031860352,-0.009558106,71.0
28743,0.0055379868,0.009605408,-0.0051727295,-0.009558106,-0.0053100586,-0.010620117,71.0
28744,0.004430771,0.0076828003,-3.0517578E-4,-0.009558106,-0.0053100586,-0.010620117,71.0
28745,0.004430771,0.0076828003,-3.0517578E-4,-0.012744141,-0.0010620117,-0.008496094,71.0
28746,-2.8800964E-4,0.006149292,0.011241913,-0.012744141,-0.0010620117,-0.008496094,71.0
28747,-2.8800964E-4,0.006149292,0.011241913,-0.009558106,-0.0031860352,-0.012744141,71.0
28748,-0.011716843,-0.0065689087,0.012825012,-0.009558106,-0.0031860352,-0.012744141,71.0
28749,-0.011716843,-0.0065689087,0.012825012,-0.007434082,-0.0031860352,-0.014868164,71.0
28750,-0.009373665,-0.012924194,0.006427765,-0.007434082,-0.0031860352,-0.014868164,71.0
28751,-0.009373665,-0.012924194,0.006427765,-0.011682129,-0.0010620117,-0.010620117,71.0
28752,0.003988266,-0.014175415,0.0013198853,-0.011682129,-0.0010620117,-0.010620117,71.0
28753,0.003988266,-0.014175415,0.0013198853,-0.008496094,-0.0031860352,-0.009558106,71.0
28754,0.0031909943,-0.0036697388,-0.0066108704,-0.008496094,-0.0031860352,-0.009558106,71.0
28755,0.0031909943,-0.0036697388,-0.0066108704,-0.010620117,-0.004248047,-0.008496094,71.0
28756,0.0025529861,0.004714966,-0.012954712,-0.010620117,-0.004248047,-0.008496094,71.0
28757,0.0025529861,0.004714966,-0.012954712,-0.010620117,-0.0021240234,-0.009558106,71.0
28758,0.0020427704,0.0076065063,-0.002696991,-0.010620117,-0.0021240234,-0.009558106,71.0
28759,0.0020427704,0.0076065063,-0.002696991,-0.009558106,-0.004248047,-0.012744141,71.0
28760,0.0016345978,0.006088257,0.0016746521,-0.009558106,-0.004248047,-0.012744141,71.0
28761,0.0016345978,0.006088257,0.0016746521,-0.011682129,-0.0010620117,-0.013806152,71.0
28762,0.0013084412,-0.002784729,-0.002494812,-0.011682129,-0.0010620117,-0.013806152,71.0
28763,0.0013084412,-0.002784729,-0.002494812,-0.010620117,-0.0021240234,-0.013806152,71.0
28764,0.0010471344,-0.009895325,-0.0058288574,-0.010620117,-0.0021240234,-0.013806152,71.0
28765,0.0010471344,-0.009895325,-0.0058288574,-0.008496094,-0.0021240234,-0.011682129,71.0
28766,0.004671097,-0.015586853,-8.31604E-4,-0.008496094,-0.0021240234,-0.011682129,71.0
28767,0.004671097,-0.015586853,-8.31604E-4,-0.010620117,-0.0031860352,-0.008496094,71.0
28768,0.0037374496,-0.01247406,-6.67572E-4,-0.010620117,-0.0031860352,-0.008496094,71.0
28769,0.0037374496,-0.01247406,-6.67572E-4,-0.011682129,-0.0031860352,-0.009558106,71.0
28770,-8.430481E-4,-0.0023117065,-5.340576E-4,-0.011682129,-0.0031860352,-0.009558106,71.0
28771,-8.430481E-4,-0.0023117065,-5.340576E-4,-0.011682129,-0.0031860352,-0.012744141,71.0
28772,-0.008328438,-0.0018463135,-4.272461E-4,-0.011682129,-0.0031860352,-0.012744141,71.0
28773,-0.008328438,-0.0018463135,-4.272461E-4,-0.012744141,-0.0031860352,-0.011682129,71.0
28774,-0.010495186,-0.0014801025,0.003490448,-0.012744141,-0.0031860352,-0.011682129,71.0
28775,-0.010495186,-0.0014801025,0.003490448,-0.008496094,-0.0021240234,-0.014868164,71.0
28776,-0.012228966,-0.0011825562,-0.0010414124,-0.008496094,-0.0021240234,-0.014868164,71.0
28777,-0.012228966,-0.0011825562,-0.0010414124,-0.010620117,-0.0031860352,-0.012744141,71.0
28778,-0.009782791,-0.004776001,-8.354187E-4,-0.010620117,-0.0031860352,-0.012744141,71.0
28779,-0.009782791,-0.004776001,-8.354187E-4,-0.010620117,-0.004248047,-0.0063720704,71.0
28780,-0.0039930344,-0.0038223267,0.0031661987,-0.010620117,-0.004248047,-0.0063720704,71.0
28781,-0.0039930344,-0.0038223267,0.0031661987,-0.008496094,-0.004248047,-0.007434082,71.0
28782,0.004471779,0.0046081543,0.0063667297,-0.008496094,-0.004248047,-0.007434082,71.0
28783,0.004471779,0.0046081543,0.0063667297,-0.011682129,-0.0031860352,-0.011682129,71.0
28784,0.0073986053,0.0036849976,0.005092621,-0.011682129,-0.0031860352,-0.011682129,71.0
28785,0.0073986053,0.0036849976,0.005092621,-0.011682129,0.0,-0.015930176,71.0
28786,0.013585091,0.0029525757,2.4032593E-4,-0.011682129,0.0,-0.015930176,71.0
28787,0.013585091,0.0029525757,2.4032593E-4,-0.010620117,-0.0010620117,-0.0180542,71.0
28788,0.0032024384,-0.0014724731,-0.003643036,-0.010620117,-0.0010620117,-0.0180542,71.0
28789,0.0032024384,-0.0014724731,-0.003643036,-0.010620117,-0.004248047,-0.010620117,71.0
28790,-0.005091667,-0.008842468,-0.0029144287,-0.010620117,-0.004248047,-0.010620117,71.0
28791,-0.005091667,-0.008842468,-0.0029144287,-0.009558106,-0.004248047,-0.0053100586,71.0
28792,-0.004073143,-0.0070724487,-0.00233078,-0.009558106,-0.004248047,-0.0053100586,71.0
28793,-0.004073143,-0.0070724487,-0.00233078,-0.011682129,-0.0063720704,-0.0021240234,71.0
28794,-0.007091522,0.0020065308,-0.001865387,-0.011682129,-0.0063720704,-0.0021240234,71.0
28795,-0.007091522,0.0020065308,-0.001865387,-0.010620117,-0.0031860352,-0.009558106,71.0
28796,-0.0018405914,0.0054397583,0.00617218,-0.010620117,-0.0031860352,-0.009558106,71.0
28797,-0.0018405914,0.0054397583,0.00617218,-0.009558106,0.0010620117,-0.0180542,71.0
28798,0.010709763,0.00466156,0.0011062622,-0.009558106,0.0010620117,-0.0180542,71.0
28799,0.010709763,0.00466156,0.0011062622,-0.008496094,0.0010620117,-0.022302246,71.0
28800,0.004734993,-1.0681152E-4,-0.002948761,-0.008496094,0.0010620117,-0.022302246,71.0
28801,0.004734993,-1.0681152E-4,-0.002948761,-0.010620117,-0.0021240234,-0.013806152,71.0
28802,-3.2424927E-5,-0.00390625,-0.0061912537,-0.010620117,-0.0021240234,-0.013806152,71.0
28803,-3.2424927E-5,-0.00390625,-0.0061912537,-0.010620117,-0.004248047,-0.004248047,71.0
28804,-0.008387566,-0.003440857,-0.004951477,-0.010620117,-0.004248047,-0.004248047,71.0
28805,-0.008387566,-0.003440857,-0.004951477,-0.009558106,-0.007434082,-0.0010620117,71.0
28806,-0.01054287,0.001083374,0.003704071,-0.009558106,-0.007434082,-0.0010620117,71.0
28807,-0.01054287,0.001083374,0.003704071,-0.010620117,-0.0031860352,-0.0063720704,71.0
28808,-0.012268066,0.004699707,0.0029640198,-0.010620117,-0.0031860352,-0.0063720704,71.0
28809,-0.012268066,0.004699707,0.0029640198,-0.009558106,-0.0010620117,-0.016992187,71.0
28810,-0.0014533997,2.2888184E-4,0.0023727417,-0.009558106,-0.0010620117,-0.016992187,71.0
28811,-0.0014533997,2.2888184E-4,0.0023727417,-0.008496094,0.0,-0.022302246,71.0
28812,-0.0014533997,2.2888184E-4,0.0023727417,-0.008496094,0.0,-0.022302246,67.0
28813,0.006503105,-0.0036392212,-0.0019340515,-0.008496094,0.0,-0.022302246,67.0
28814,0.006503105,-0.0036392212,-0.0019340515,-0.010620117,-0.0010620117,-0.014868164,67.0
28815,0.0090351105,-0.0067443848,0.0022850037,-0.010620117,-0.0010620117,-0.014868164,67.0
28816,0.0090351105,-0.0067443848,0.0022850037,-0.009558106,-0.0031860352,-0.0063720704,67.0
28817,0.006385803,-0.0019378662,0.00182724,-0.009558106,-0.0031860352,-0.0063720704,67.0
28818,0.006385803,-0.0019378662,0.00182724,-0.011682129,-0.0063720704,0.0010620117,67.0
28819,-0.003252983,0.0019760132,0.001461029,-0.011682129,-0.0063720704,0.0010620117,67.0
28820,-0.003252983,0.0019760132,0.001461029,-0.010620117,-0.0063720704,-0.0053100586,67.0
28821,-0.010256767,0.00541687,0.0011672974,-0.010620117,-0.0063720704,-0.0053100586,67.0
28822,-0.010256767,0.00541687,0.0011672974,-0.010620117,-0.0010620117,-0.013806152,67.0
28823,-0.004371643,0.004333496,9.3460083E-4,-0.010620117,-0.0010620117,-0.013806152,67.0
28824,-0.004371643,0.004333496,9.3460083E-4,-0.010620117,0.0010620117,-0.021240234,67.0
28825,0.0041561127,-3.6621094E-4,7.4768066E-4,-0.010620117,0.0010620117,-0.021240234,67.0
28826,0.0041561127,-3.6621094E-4,7.4768066E-4,-0.009558106,0.0010620117,-0.020178223,67.0
28827,0.0033245087,-0.0079574585,0.0044174194,-0.009558106,0.0010620117,-0.020178223,67.0
28828,0.0033245087,-0.0079574585,0.0044174194,-0.010620117,-0.004248047,-0.008496094,67.0
28829,0.0026597977,-0.002532959,-0.004119873,-0.010620117,-0.004248047,-0.008496094,67.0
28830,0.0026597977,-0.002532959,-0.004119873,-0.011682129,-0.0063720704,-0.0021240234,67.0
28831,0.0045690536,0.0050201416,-0.0032958984,-0.011682129,-0.0063720704,-0.0021240234,67.0
28832,0.0045690536,0.0050201416,-0.0032958984,-0.011682129,-0.0063720704,-0.0010620117,67.0
28833,0.0036554337,0.007850647,0.0011978149,-0.011682129,-0.0063720704,-0.0010620117,67.0
28834,0.0036554337,0.007850647,0.0011978149,-0.011682129,-0.0031860352,-0.010620117,67.0
28835,-2.1362305E-4,0.0027542114,0.0124435425,-0.011682129,-0.0031860352,-0.010620117,67.0
28836,-2.1362305E-4,0.0027542114,0.0124435425,-0.007434082,0.0,-0.022302246,67.0
28837,6.713867E-4,-0.0050811768,0.009952545,-0.007434082,0.0,-0.022302246,67.0
28838,6.713867E-4,-0.0050811768,0.009952545,-0.009558106,0.0,-0.021240234,67.0
28839,0.0043706894,-0.007896423,0.004131317,-0.009558106,0.0,-0.021240234,67.0
28840,0.0043706894,-0.007896423,0.004131317,-0.012744141,-0.004248047,-0.010620117,67.0
28841,0.0027885437,-0.0066223145,-5.264282E-4,-0.012744141,-0.004248047,-0.010620117,67.0
28842,0.0027885437,-0.0066223145,-5.264282E-4,-0.009558106,-0.004248047,-0.0010620117,67.0
28843,-0.0099515915,0.005882263,-4.196167E-4,-0.009558106,-0.004248047,-0.0010620117,67.0
28844,-0.0099515915,0.005882263,-4.196167E-4,-0.010620117,-0.0063720704,-0.004248047,67.0
28845,-0.01179409,0.0047073364,-0.00415802,-0.010620117,-0.0063720704,-0.004248047,67.0
28846,-0.01179409,0.0047073364,-0.00415802,-0.010620117,-0.0010620117,-0.011682129,67.0
28847,-0.005601883,0.003768921,-0.003326416,-0.010620117,-0.0010620117,-0.011682129,67.0
28848,-0.005601883,0.003768921,-0.003326416,-0.009558106,-0.0010620117,-0.0180542,67.0
28849,-0.0044813156,-8.163452E-4,0.0049934387,-0.009558106,-0.0010620117,-0.0180542,67.0
28850,-0.0044813156,-8.163452E-4,0.0049934387,-0.011682129,0.0,-0.019116212,67.0
28851,2.4795532E-4,-6.4849854E-4,1.6021729E-4,-0.011682129,0.0,-0.019116212,67.0
28852,2.4795532E-4,-6.4849854E-4,1.6021729E-4,-0.011682129,-0.0021240234,-0.012744141,67.0
28853,0.007852554,-5.187988E-4,-0.0075263977,-0.011682129,-0.0021240234,-0.012744141,67.0
28854,0.007852554,-5.187988E-4,-0.0075263977,-0.009558106,-0.0053100586,-0.0063720704,67.0
28855,0.009418488,-0.0045547485,-0.013687134,-0.009558106,-0.0053100586,-0.0063720704,67.0
28856,0.009418488,-0.0045547485,-0.013687134,-0.010620117,-0.0063720704,-0.0010620117,67.0
28857,0.00370121,0.004020691,-0.0071144104,-0.010620117,-0.0063720704,-0.0010620117,67.0
28858,0.00370121,0.004020691,-0.0071144104,-0.011682129,-0.004248047,-0.007434082,67.0
28859,-8.716583E-4,0.0070495605,0.0019760132,-0.011682129,-0.004248047,-0.007434082,67.0
28860,-8.716583E-4,0.0070495605,0.0019760132,-0.010620117,-0.0010620117,-0.019116212,67.0
28861,-0.008350372,-0.0020217896,0.0054016113,-0.010620117,-0.0010620117,-0.019116212,67.0
28862,-0.008350372,-0.0020217896,0.0054016113,-0.008496094,0.0,-0.021240234,67.0
28863,-0.006679535,-0.013114929,0.004322052,-0.008496094,0.0,-0.021240234,67.0
28864,-0.006679535,-0.013114929,0.004322052,-0.010620117,-0.0010620117,-0.014868164,67.0
28865,0.0023097992,-0.014312744,0.0072898865,-0.010620117,-0.0010620117,-0.014868164,67.0
28866,0.0023097992,-0.014312744,0.0072898865,-0.010620117,-0.004248047,-0.0063720704,67.0
28867,0.013347626,-0.0037994385,0.005832672,-0.010620117,-0.004248047,-0.0063720704,67.0
28868,0.013347626,-0.0037994385,0.005832672,-0.009558106,-0.007434082,-0.0021240234,67.0
28869,0.018331528,0.0046310425,0.0046653748,-0.009558106,-0.007434082,-0.0021240234,67.0
28870,0.018331528,0.0046310425,0.0046653748,-0.009558106,-0.0053100586,-0.0063720704,67.0
28871,0.0070114136,0.007537842,-9.918213E-5,-0.009558106,-0.0053100586,-0.0063720704,67.0
28872,0.0070114136,0.007537842,-9.918213E-5,-0.011682129,-0.0010620117,-0.012744141,67.0
28873,-0.009710312,0.0021972656,-0.0077323914,-0.011682129,-0.0010620117,-0.012744141,67.0
28874,-0.009710312,0.0021972656,-0.0077323914,-0.009558106,0.0,-0.020178223,67.0
28875,-0.015434265,-0.0020751953,-0.013851166,-0.009558106,0.0,-0.020178223,67.0
28876,-0.015434265,-0.0020751953,-0.013851166,-0.010620117,0.0010620117,-0.0180542,67.0
28877,-0.0046806335,0.0021743774,-0.011081696,-0.010620117,0.0010620117,-0.0180542,67.0
28878,-0.0046806335,0.0021743774,-0.011081696,-0.007434082,-0.004248047,-0.011682129,67.0
28879,-6.8092346E-4,0.0013961792,0.002632141,-0.007434082,-0.004248047,-0.011682129,67.0
28880,-6.8092346E-4,0.0013961792,0.002632141,-0.012744141,-0.0063720704,0.0,67.0
28881,0.002445221,-0.0030822754,0.00976181,-0.012744141,-0.0063720704,0.0,67.0
28882,0.002445221,-0.0030822754,0.00976181,-0.010620117,-0.0063720704,-0.0021240234,67.0
28883,0.005789757,0.0013656616,0.0078086853,-0.010620117,-0.0063720704,-0.0021240234,67.0
28884,0.005789757,0.0013656616,0.0078086853,-0.009558106,-0.0031860352,-0.012744141,67.0
28885,7.991791E-4,0.008758545,-0.0014076233,-0.009558106,-0.0031860352,-0.012744141,67.0
28886,7.991791E-4,0.008758545,-0.0014076233,-0.010620117,0.0,-0.021240234,67.0
28887,-0.002497673,0.0073165894,-0.0011253357,-0.010620117,0.0,-0.021240234,67.0
28888,-0.002497673,0.0073165894,-0.0011253357,-0.010620117,-0.0010620117,-0.020178223,67.0
28889,-0.005830765,0.0020217896,-9.0026855E-4,-0.010620117,-0.0010620117,-0.020178223,67.0
28890,-0.005830765,0.0020217896,-9.0026855E-4,-0.009558106,-0.0031860352,-0.012744141,67.0
28891,-8.31604E-4,-0.0022125244,0.0031013489,-0.009558106,-0.0031860352,-0.012744141,67.0
28892,-8.31604E-4,-0.0022125244,0.0031013489,-0.011682129,-0.0063720704,-0.0053100586,67.0
28893,-0.004497528,0.0020599365,0.0024795532,-0.011682129,-0.0063720704,-0.0053100586,67.0
28894,-0.004497528,0.0020599365,0.0024795532,-0.009558106,-0.0063720704,-0.0031860352,67.0
28895,-0.0074186325,0.0054855347,-0.0018386841,-0.009558106,-0.0063720704,-0.0031860352,67.0
28896,-0.0074186325,0.0054855347,-0.0018386841,-0.010620117,-0.0031860352,-0.007434082,67.0
28897,-0.009767532,0.004386902,-0.0014724731,-0.010620117,-0.0031860352,-0.007434082,67.0
28898,-0.009767532,0.004386902,-0.0014724731,-0.011682129,0.0,-0.015930176,67.0
28899,-0.0025167465,0.00415802,-0.0011787415,-0.011682129,0.0,-0.015930176,67.0
28900,-0.0025167465,0.00415802,-0.0011787415,-0.008496094,-0.0010620117,-0.023364259,67.0
28901,0.0018196106,0.007156372,-9.422302E-4,-0.008496094,-0.0010620117,-0.023364259,67.0
28902,0.0018196106,0.007156372,-9.422302E-4,-0.008496094,-0.0021240234,-0.013806152,67.0
28903,0.00527668,-0.0019378662,0.0030670166,-0.008496094,-0.0021240234,-0.013806152,67.0
28904,0.00527668,-0.0019378662,0.0030670166,-0.012744141,-0.0053100586,-0.004248047,67.0
28905,0.004221916,-0.00920105,0.0024528503,-0.012744141,-0.0053100586,-0.004248047,67.0
28906,0.004221916,-0.00920105,0.0024528503,-0.010620117,-0.0063720704,-0.004248047,67.0
28907,-4.4250488E-4,-0.0073623657,-0.0056915283,-0.010620117,-0.0063720704,-0.004248047,67.0
28908,-4.4250488E-4,-0.0073623657,-0.0056915283,-0.010620117,-0.004248047,-0.0063720704,67.0
28909,-3.5476685E-4,-0.002067566,-7.209778E-4,-0.010620117,-0.004248047,-0.0063720704,67.0
28910,-3.5476685E-4,-0.002067566,-7.209778E-4,-0.010620117,-0.0031860352,-0.0180542,67.0
28911,0.0049409866,0.0027999878,0.0032424927,-0.010620117,-0.0031860352,-0.0180542,67.0
28912,0.0049409866,0.0027999878,0.0032424927,-0.008496094,0.0010620117,-0.022302246,67.0
28913,-0.0037136078,0.002243042,-0.0012283325,-0.008496094,0.0010620117,-0.022302246,67.0
28914,-0.0037136078,0.002243042,-0.0012283325,-0.008496094,-0.0010620117,-0.0180542,67.0
28915,-0.0029716492,0.005630493,-9.841919E-4,-0.008496094,-0.0010620117,-0.0180542,67.0
28916,-0.0029716492,0.005630493,-9.841919E-4,-0.010620117,-0.0053100586,-0.004248047,67.0
28917,0.003616333,0.011428833,-8.010864E-4,-0.010620117,-0.0053100586,-0.004248047,67.0
28918,0.003616333,0.011428833,-8.010864E-4,-0.010620117,-0.007434082,0.0010620117,67.0
28919,-0.0017824173,0.020263672,-6.4086914E-4,-0.010620117,-0.007434082,0.0010620117,67.0
28920,-0.0017824173,0.020263672,-6.4086914E-4,-0.010620117,-0.007434082,-0.0021240234,67.0
28921,-0.005247116,0.016212463,-5.1116943E-4,-0.010620117,-0.007434082,-0.0021240234,67.0
28922,-0.005247116,0.016212463,-5.1116943E-4,-0.010620117,-0.007434082,-0.0021240234,67.0
28923,-0.005247116,0.016212463,-5.1116943E-4,-0.010620117,0.0,-0.0180542,67.0
28924,0.0019302368,0.010147095,-0.0042419434,-0.010620117,0.0,-0.0180542,67.0
28925,0.0019302368,0.010147095,-0.0042419434,-0.010620117,0.0021240234,-0.03186035,67.0
28926,0.011297226,-0.0024414062,-0.0033950806,-0.010620117,0.0021240234,-0.03186035,67.0
28927,0.011297226,-0.0024414062,-0.0033950806,-0.009558106,0.0031860352,-0.02442627,67.0
28928,0.01670456,-0.021102905,-0.0027160645,-0.009558106,0.0031860352,-0.02442627,67.0
28929,0.01670456,-0.021102905,-0.0027160645,-0.011682129,-0.0031860352,-0.007434082,67.0
28930,0.011410713,-0.021583557,-0.0021743774,-0.011682129,-0.0031860352,-0.007434082,67.0
28931,0.011410713,-0.021583557,-0.0021743774,-0.011682129,-0.010620117,0.0063720704,67.0
28932,-0.0050811768,-0.010810852,0.0059280396,-0.011682129,-0.010620117,0.0063720704,67.0
28933,-0.0050811768,-0.010810852,0.0059280396,-0.010620117,-0.007434082,0.008496094,67.0
28934,-0.019396782,0.0028457642,0.01240921,-0.010620117,-0.007434082,0.008496094,67.0
28935,-0.019396782,0.0028457642,0.01240921,-0.010620117,-0.004248047,-0.011682129,67.0
28936,-0.00965786,0.01083374,0.013759613,-0.010620117,-0.004248047,-0.011682129,67.0
28937,-0.00965786,0.01083374,0.013759613,-0.009558106,0.004248047,-0.03079834,67.0
28938,0.0068244934,0.0022125244,0.0074806213,-0.009558106,0.004248047,-0.03079834,67.0
28939,0.0068244934,0.0022125244,0.0074806213,-0.009558106,0.0063720704,-0.03186035,67.0
28940,0.006375313,-0.005493164,-0.0016708374,-0.009558106,0.0063720704,-0.03186035,67.0
28941,0.006375313,-0.005493164,-0.0016708374,-0.0063720704,-0.0031860352,-0.015930176,67.0
28942,0.0077371597,-0.008743286,-0.009002686,-0.0063720704,-0.0031860352,-0.015930176,67.0
28943,0.0077371597,-0.008743286,-0.009002686,-0.012744141,-0.008496094,0.0063720704,67.0
28944,0.010791779,-0.008361816,-0.0072021484,-0.012744141,-0.008496094,0.0063720704,67.0
28945,0.010791779,-0.008361816,-0.0072021484,-0.012744141,-0.009558106,0.012744141,67.0
28946,-0.004049301,-0.007217407,0.0018920898,-0.012744141,-0.009558106,0.012744141,67.0
28947,-0.004049301,-0.007217407,0.0018920898,-0.010620117,-0.009558106,-0.0053100586,67.0
28948,-0.010196686,0.0021972656,0.0015144348,-0.010620117,-0.009558106,-0.0053100586,67.0
28949,-0.010196686,0.0021972656,0.0015144348,-0.012744141,0.0031860352,-0.022302246,67.0
28950,0.0029144287,0.006942749,0.0015296936,-0.012744141,0.0031860352,-0.022302246,67.0
28951,0.0029144287,0.006942749,0.0015296936,-0.007434082,0.0063720704,-0.038232423,67.0
28952,0.008533478,-0.0010528564,-0.01027298,-0.007434082,0.0063720704,-0.038232423,67.0
28953,0.008533478,-0.0010528564,-0.01027298,-0.009558106,0.0,-0.02442627,67.0
28954,0.013723373,-0.0011825562,-0.008216858,-0.009558106,0.0,-0.02442627,67.0
28955,0.013723373,-0.0011825562,-0.008216858,-0.012744141,-0.0031860352,0.0,67.0
28956,0.007976532,0.0015563965,-0.0027427673,-0.012744141,-0.0031860352,0.0,67.0
28957,0.007976532,0.0015563965,-0.0027427673,-0.008496094,-0.012744141,0.012744141,67.0
28958,-0.015798569,0.00390625,0.005130768,-0.008496094,-0.012744141,0.012744141,67.0
28959,-0.015798569,0.00390625,0.005130768,-0.012744141,-0.009558106,0.0053100586,67.0
28960,-0.012639046,0.006942749,0.0041046143,-0.012744141,-0.009558106,0.0053100586,67.0
28961,-0.012639046,0.006942749,0.0041046143,-0.012744141,0.0021240234,-0.0180542,67.0
28962,6.1893463E-4,0.006919861,-5.493164E-4,-0.012744141,0.0021240234,-0.0180542,67.0
28963,6.1893463E-4,0.006919861,-5.493164E-4,-0.0053100586,0.0031860352,-0.039294433,67.0
28964,-0.0040950775,-7.6293945E-4,-0.004272461,-0.0053100586,0.0031860352,-0.039294433,67.0
28965,-0.0040950775,-7.6293945E-4,-0.004272461,-0.009558106,0.0031860352,-0.029736329,67.0
28966,5.569458E-4,-0.012107849,-0.0072517395,-0.009558106,0.0031860352,-0.029736329,67.0
28967,5.569458E-4,-0.012107849,-0.0072517395,-0.011682129,-0.0031860352,-0.0063720704,67.0
28968,0.0053653717,-0.014572144,-0.009963989,-0.011682129,-0.0031860352,-0.0063720704,67.0
28969,0.0053653717,-0.014572144,-0.009963989,-0.010620117,-0.014868164,0.009558106,67.0
28970,-0.010343552,-0.009216309,0.0035171509,-0.010620117,-0.014868164,0.009558106,67.0
28971,-0.010343552,-0.009216309,0.0035171509,-0.012744141,-0.009558106,0.011682129,67.0
28972,-0.009251595,0.0036849976,0.0066452026,-0.012744141,-0.009558106,0.011682129,67.0
28973,-0.009251595,0.0036849976,0.0066452026,-0.009558106,-0.0021240234,-0.011682129,67.0
28974,-0.005167961,0.011604309,0.005317688,-0.009558106,-0.0021240234,-0.011682129,67.0
28975,-0.005167961,0.011604309,0.005317688,-0.007434082,0.0010620117,-0.032922365,67.0
28976,-0.004890442,0.0029830933,0.0042533875,-0.007434082,0.0010620117,-0.032922365,67.0
28977,-0.004890442,0.0029830933,0.0042533875,-0.010620117,0.0053100586,-0.033984374,67.0
28978,0.008489609,-0.008712769,-0.0042648315,-0.010620117,0.0053100586,-0.033984374,67.0
28979,0.008489609,-0.008712769,-0.0042648315,-0.009558106,-0.0021240234,-0.015930176,67.0
28980,0.013188362,-0.007522583,-0.011066437,-0.009558106,-0.0021240234,-0.015930176,67.0
28981,0.013188362,-0.007522583,-0.011066437,-0.010620117,-0.010620117,0.007434082,67.0
28982,0.00365448,-0.0035476685,-0.0050201416,-0.010620117,-0.010620117,0.007434082,67.0
28983,0.00365448,-0.0035476685,-0.0050201416,-0.012744141,-0.009558106,0.011682129,67.0
28984,-0.013445854,0.0043640137,0.0036392212,-0.012744141,-0.009558106,0.011682129,67.0
28985,-0.013445854,0.0043640137,0.0036392212,-0.009558106,-0.007434082,-0.007434082,67.0
28986,-0.009840965,0.011550903,0.0067443848,-0.009558106,-0.007434082,-0.007434082,67.0
28987,-0.009840965,0.011550903,0.0067443848,-0.007434082,0.0,-0.025488282,67.0
28988,0.0024299622,0.010414124,0.013061523,-0.007434082,0.0,-0.025488282,67.0
28989,0.0024299622,0.010414124,0.013061523,-0.008496094,0.0053100586,-0.032922365,67.0
28990,0.0070343018,0.0012435913,0.010448456,-0.008496094,0.0053100586,-0.032922365,67.0
28991,0.0070343018,0.0012435913,0.010448456,-0.009558106,0.0,-0.021240234,67.0
28992,-0.0027341843,-0.0069732666,-0.0031394958,-0.009558106,0.0,-0.021240234,67.0
28993,-0.0027341843,-0.0069732666,-0.0031394958,-0.011682129,-0.0053100586,-0.0010620117,67.0
28994,-0.01269722,-0.0030288696,-0.0063438416,-0.011682129,-0.0053100586,-0.0010620117,67.0
28995,-0.01269722,-0.0030288696,-0.0063438416,-0.008496094,-0.010620117,0.011682129,67.0
28996,-0.004737854,0.0042495728,-0.0050735474,-0.008496094,-0.010620117,0.011682129,67.0
28997,-0.004737854,0.0042495728,-0.0050735474,-0.010620117,-0.008496094,0.0021240234,67.0
28998,4.2915344E-5,0.014884949,-0.004058838,-0.010620117,-0.008496094,0.0021240234,67.0
28999,4.2915344E-5,0.014884949,-0.004058838,-0.010620117,0.0,-0.015930176,67.0
29000,-0.0015640259,0.020561218,-0.0032463074,-0.010620117,0.0,-0.015930176,67.0
29001,-0.0015640259,0.020561218,-0.0032463074,-0.010620117,0.0031860352,-0.03186035,67.0
29002,0.008930206,0.01374054,-0.0025978088,-0.010620117,0.0031860352,-0.03186035,67.0
29003,0.008930206,0.01374054,-0.0025978088,-0.008496094,0.0031860352,-0.028674318,67.0
29004,0.007144928,-0.0043258667,0.0017547607,-0.008496094,0.0031860352,-0.028674318,67.0
29005,0.007144928,-0.0043258667,0.0017547607,-0.008496094,-0.0031860352,-0.008496094,67.0
29006,0.003835678,-0.01197052,0.0014038086,-0.008496094,-0.0031860352,-0.008496094,67.0
29007,0.003835678,-0.01197052,0.0014038086,-0.008496094,-0.0031860352,-0.008496094,72.0
29008,0.003835678,-0.01197052,0.0014038086,-0.011682129,-0.009558106,0.0053100586,72.0
29009,0.004594803,-0.006752014,0.001121521,-0.011682129,-0.009558106,0.0053100586,72.0
29010,0.004594803,-0.006752014,0.001121521,-0.011682129,-0.008496094,0.004248047,72.0
29011,-8.5258484E-4,0.0019454956,8.9645386E-4,-0.011682129,-0.008496094,0.004248047,72.0
29012,-8.5258484E-4,0.0019454956,8.9645386E-4,-0.008496094,-0.0053100586,-0.007434082,72.0
29013,1.6021729E-4,0.0057525635,0.004550934,-0.008496094,-0.0053100586,-0.007434082,72.0
29014,1.6021729E-4,0.0057525635,0.004550934,-0.010620117,0.0010620117,-0.02442627,72.0
29015,0.0062561035,-0.0020370483,-0.007846832,-0.010620117,0.0010620117,-0.02442627,72.0
29016,0.0062561035,-0.0020370483,-0.007846832,-0.010620117,0.0031860352,-0.028674318,72.0
29017,0.0021486282,-0.012687683,-0.0139427185,-0.010620117,0.0031860352,-0.028674318,72.0
29018,0.0021486282,-0.012687683,-0.0139427185,-0.008496094,-0.0021240234,-0.0180542,72.0
29019,-0.0028095245,-0.021942139,-0.011154175,-0.008496094,-0.0021240234,-0.0180542,72.0
29020,-0.0028095245,-0.021942139,-0.011154175,-0.010620117,-0.008496094,-0.0010620117,72.0
29021,-5.750656E-4,-0.022354126,-0.0012550354,-0.010620117,-0.008496094,-0.0010620117,72.0
29022,-5.750656E-4,-0.022354126,-0.0012550354,-0.011682129,-0.008496094,0.0063720704,72.0
29023,-0.002412796,-0.007255554,0.010482788,-0.011682129,-0.008496094,0.0063720704,72.0
29024,-0.002412796,-0.007255554,0.010482788,-0.009558106,-0.008496094,0.0010620117,72.0
29025,-0.0019302368,0.005683899,0.012218475,-0.009558106,-0.008496094,0.0010620117,72.0
29026,-0.0019302368,0.005683899,0.012218475,-0.011682129,0.0,-0.0180542,72.0
29027,4.0912628E-4,0.00541687,0.0059432983,-0.011682129,0.0,-0.0180542,72.0
29028,4.0912628E-4,0.00541687,0.0059432983,-0.007434082,0.0021240234,-0.028674318,72.0
29029,-0.0016870499,-0.0025177002,9.2315674E-4,-0.007434082,0.0021240234,-0.028674318,72.0
29030,-0.0016870499,-0.0025177002,9.2315674E-4,-0.011682129,0.0021240234,-0.022302246,72.0
29031,0.002483368,-0.009681702,7.4005127E-4,-0.011682129,0.0021240234,-0.022302246,72.0
29032,0.002483368,-0.009681702,7.4005127E-4,-0.009558106,-0.0031860352,-0.010620117,72.0
29033,0.0049037933,-0.0043182373,-0.0032424927,-0.009558106,-0.0031860352,-0.010620117,72.0
29034,0.0049037933,-0.0043182373,-0.0032424927,-0.010620117,-0.009558106,0.0021240234,72.0
29035,0.0015544891,0.006980896,0.0050735474,-0.010620117,-0.009558106,0.0021240234,72.0
29036,0.0015544891,0.006980896,0.0050735474,-0.011682129,-0.009558106,0.0063720704,72.0
29037,0.0012435913,0.013252258,0.011722565,-0.011682129,-0.009558106,0.0063720704,72.0
29038,0.0012435913,0.013252258,0.011722565,-0.010620117,-0.0031860352,-0.009558106,72.0
29039,0.0019712448,0.014862061,0.00554657,-0.010620117,-0.0031860352,-0.009558106,72.0
29040,0.0019712448,0.014862061,0.00554657,-0.010620117,0.0031860352,-0.026550293,72.0
29041,0.007850647,0.016799927,-0.0070610046,-0.010620117,0.0031860352,-0.026550293,72.0
29042,0.007850647,0.016799927,-0.0070610046,-0.010620117,0.0031860352,-0.03079834,72.0
29043,0.010955811,0.009986877,-0.01713562,-0.010620117,0.0031860352,-0.03079834,72.0
29044,0.010955811,0.009986877,-0.01713562,-0.008496094,-0.0031860352,-0.014868164,72.0
29045,0.0038089752,0.0036697388,-0.009876251,-0.008496094,-0.0031860352,-0.014868164,72.0
29046,0.0038089752,0.0036697388,-0.009876251,-0.011682129,-0.008496094,0.0053100586,72.0
29047,-0.0115766525,0.005378723,0.0035858154,-0.011682129,-0.008496094,0.0053100586,72.0
29048,-0.0115766525,0.005378723,0.0035858154,-0.013806152,-0.010620117,0.012744141,72.0
29049,-0.025777817,0.007598877,0.01819992,-0.013806152,-0.010620117,0.012744141,72.0
29050,-0.025777817,0.007598877,0.01819992,-0.010620117,-0.0063720704,-0.0031860352,72.0
29051,-0.027298927,0.0065231323,0.018379211,-0.010620117,-0.0063720704,-0.0031860352,72.0
29052,-0.027298927,0.0065231323,0.018379211,-0.009558106,0.0,-0.026550293,72.0
29053,9.384155E-4,-0.008651733,0.0073547363,-0.009558106,0.0,-0.026550293,72.0
29054,9.384155E-4,-0.008651733,0.0073547363,-0.007434082,0.007434082,-0.039294433,72.0
29055,0.018927574,-0.013313293,-0.009437561,-0.007434082,0.007434082,-0.039294433,72.0
29056,0.018927574,-0.013313293,-0.009437561,-0.009558106,0.0021240234,-0.028674318,72.0
29057,0.0104055405,-0.007217407,-0.015216827,-0.009558106,0.0021240234,-0.028674318,72.0
29058,0.0104055405,-0.007217407,-0.015216827,-0.011682129,-0.007434082,0.0021240234,72.0
29059,-0.002820015,0.004173279,-0.004508972,-0.011682129,-0.007434082,0.0021240234,72.0
29060,-0.002820015,0.004173279,-0.004508972,-0.010620117,-0.012744141,0.016992187,72.0
29061,-0.0055999756,0.0096588135,0.007575989,-0.010620117,-0.012744141,0.016992187,72.0
29062,-0.0055999756,0.0096588135,0.007575989,-0.010620117,-0.010620117,0.007434082,72.0
29063,-6.465912E-4,0.011558533,0.013725281,-0.010620117,-0.010620117,0.007434082,72.0
29064,-6.465912E-4,0.011558533,0.013725281,-0.011682129,0.0,-0.016992187,72.0
29065,0.006099701,0.002822876,0.003314972,-0.011682129,0.0,-0.016992187,72.0
29066,0.006099701,0.002822876,0.003314972,-0.0063720704,0.0063720704,-0.03717041,72.0
29067,0.0044031143,-0.01158905,-0.01266861,-0.0063720704,0.0063720704,-0.03717041,72.0
29068,0.0044031143,-0.01158905,-0.01266861,-0.009558106,0.0063720704,-0.033984374,72.0
29069,0.0042915344,-0.016593933,-0.0024795532,-0.009558106,0.0063720704,-0.033984374,72.0
29070,0.0042915344,-0.016593933,-0.0024795532,-0.010620117,-0.004248047,-0.009558106,72.0
29071,2.3460388E-4,-0.010696411,0.0015449524,-0.010620117,-0.004248047,-0.009558106,72.0
29072,2.3460388E-4,-0.010696411,0.0015449524,-0.011682129,-0.013806152,0.013806152,72.0
29073,-0.011299133,0.0013885498,9.3078613E-4,-0.011682129,-0.013806152,0.013806152,72.0
29074,-0.011299133,0.0013885498,9.3078613E-4,-0.011682129,-0.011682129,0.013806152,72.0
29075,-0.013849258,0.015991211,7.4386597E-4,-0.011682129,-0.011682129,0.013806152,72.0
29076,-0.013849258,0.015991211,7.4386597E-4,-0.010620117,-0.0031860352,-0.010620117,72.0
29077,-0.004805565,0.013877869,0.0044136047,-0.010620117,-0.0031860352,-0.010620117,72.0
29078,-0.004805565,0.013877869,0.0044136047,-0.008496094,0.0053100586,-0.0361084,72.0
29079,0.007508278,-0.0027389526,1.5258789E-5,-0.008496094,0.0053100586,-0.0361084,72.0
29080,0.007508278,-0.0027389526,1.5258789E-5,-0.009558106,0.0063720704,-0.0361084,72.0
29081,0.018677711,-0.016983032,-0.0114860535,-0.009558106,0.0063720704,-0.0361084,72.0
29082,0.018677711,-0.016983032,-0.0114860535,-0.009558106,-0.0010620117,-0.016992187,72.0
29083,0.017456055,-0.025672913,-0.009189606,-0.009558106,-0.0010620117,-0.016992187,72.0
29084,0.017456055,-0.025672913,-0.009189606,-0.009558106,-0.010620117,0.008496094,72.0
29085,0.0028076172,-0.022071838,3.1280518E-4,-0.009558106,-0.010620117,0.008496094,72.0
29086,0.0028076172,-0.022071838,3.1280518E-4,-0.011682129,-0.012744141,0.014868164,72.0
29087,-0.01057148,-0.002922058,0.004081726,-0.011682129,-0.012744141,0.014868164,72.0
29088,-0.01057148,-0.002922058,0.004081726,-0.012744141,-0.0063720704,-0.0031860352,72.0
29089,-0.0073337555,0.01348114,0.0032653809,-0.012744141,-0.0063720704,-0.0031860352,72.0
29090,-0.0073337555,0.01348114,0.0032653809,-0.007434082,0.0021240234,-0.028674318,72.0
29091,0.0088300705,0.012199402,-0.0012207031,-0.007434082,0.0021240234,-0.028674318,72.0
29092,0.0088300705,0.012199402,-0.0012207031,-0.009558106,0.0063720704,-0.03717041,72.0
29093,0.013131142,-0.0045700073,-0.008644104,-0.009558106,0.0063720704,-0.03717041,72.0
29094,0.013131142,-0.0045700073,-0.008644104,-0.010620117,0.0031860352,-0.02442627,72.0
29095,-0.0018234253,-0.011688232,-0.006916046,-0.010620117,0.0031860352,-0.02442627,72.0
29096,-0.0018234253,-0.011688232,-0.006916046,-0.011682129,-0.009558106,0.0010620117,72.0
29097,-0.016094208,-0.0107421875,0.0021324158,-0.011682129,-0.009558106,0.0010620117,72.0
29098,-0.016094208,-0.0107421875,0.0021324158,-0.011682129,-0.011682129,0.014868164,72.0
29099,-0.019417763,-0.002128601,0.009372711,-0.011682129,-0.011682129,0.014868164,72.0
29100,-0.019417763,-0.002128601,0.009372711,-0.012744141,-0.007434082,0.0053100586,72.0
29101,-0.011713028,0.0059509277,0.007499695,-0.012744141,-0.007434082,0.0053100586,72.0
29102,-0.011713028,0.0059509277,0.007499695,-0.010620117,0.0,-0.020178223,72.0
29103,0.0050582886,0.009887695,-0.0016670227,-0.010620117,0.0,-0.020178223,72.0
29104,0.0050582886,0.009887695,-0.0016670227,-0.008496094,0.0053100586,-0.03717041,72.0
29105,0.0145692825,0.0053482056,-0.0128211975,-0.008496094,0.0053100586,-0.03717041,72.0
29106,0.0145692825,0.0053482056,-0.0128211975,-0.009558106,0.004248047,-0.03079834,72.0
29107,0.011654854,-0.011039734,-0.010257721,-0.009558106,0.004248047,-0.03079834,72.0
29108,0.011654854,-0.011039734,-0.010257721,-0.009558106,0.004248047,-0.03079834,75.0
29109,0.011654854,-0.011039734,-0.010257721,-0.009558106,-0.004248047,-0.007434082,75.0
29110,0.0067481995,-0.009979248,-0.004386902,-0.009558106,-0.004248047,-0.007434082,75.0
29111,0.0067481995,-0.009979248,-0.004386902,-0.012744141,-0.011682129,0.011682129,75.0
29112,-0.005124092,-0.0015869141,0.00415802,-0.012744141,-0.011682129,0.011682129,75.0
29113,-0.005124092,-0.0015869141,0.00415802,-0.011682129,-0.010620117,0.007434082,75.0
29114,-0.008627892,0.009925842,0.007160187,-0.011682129,-0.010620117,0.007434082,75.0
29115,-0.008627892,0.009925842,0.007160187,-0.009558106,-0.0010620117,-0.010620117,75.0
29116,-0.0046691895,0.012748718,0.0057296753,-0.009558106,-0.0010620117,-0.010620117,75.0
29117,-0.0046691895,0.012748718,0.0057296753,-0.007434082,0.0031860352,-0.033984374,75.0
29118,-5.979538E-4,0.0077590942,-0.0030822754,-0.007434082,0.0031860352,-0.033984374,75.0
29119,-5.979538E-4,0.0077590942,-0.0030822754,-0.008496094,0.0031860352,-0.033984374,75.0
29120,3.633499E-4,-0.001083374,-0.0024642944,-0.008496094,0.0031860352,-0.033984374,75.0
29121,3.633499E-4,-0.001083374,-0.0024642944,-0.009558106,-0.0021240234,-0.012744141,75.0
29122,0.006699562,-0.0090789795,-0.0058059692,-0.009558106,-0.0021240234,-0.012744141,75.0
29123,0.006699562,-0.0090789795,-0.0058059692,-0.011682129,-0.008496094,0.007434082,75.0
29124,0.010084152,-0.00856781,-0.0046463013,-0.011682129,-0.008496094,0.007434082,75.0
29125,0.010084152,-0.00856781,-0.0046463013,-0.011682129,-0.011682129,0.010620117,75.0
29126,-0.0043964386,3.8146973E-4,1.1444092E-4,-0.011682129,-0.011682129,0.010620117,75.0
