,accx,accy,accz,gyrox,gyroy,gyroz,heart rate
20766,open,open,open,open,open,open,open
20767,-2.263609,-0.4808731,-7.4991226,0.039294433,0.004248047,-0.10513916,166.0
20768,-2.263609,-0.4808731,-7.4991226,0.013806152,0.023364259,-0.09770508,166.0
20769,-1.8114004,-0.3817215,-6.0019455,0.013806152,0.023364259,-0.09770508,166.0
20770,-1.8114004,-0.3817215,-6.0019455,-0.02442627,0.020178223,0.011682129,166.0
20771,-0.93666935,-2.546898,2.7104034,-0.02442627,0.020178223,0.011682129,166.0
20772,-0.93666935,-2.546898,2.7104034,-0.023364259,0.025488282,0.010620117,166.0
20773,-0.93666935,-2.546898,2.7104034,-0.014868164,0.009558106,-0.0010620117,166.0
20774,-0.75753784,-1.9973221,2.0012321,-0.014868164,0.009558106,-0.0010620117,166.0
20775,-0.64100266,-1.6059113,1.65699,-0.014868164,0.009558106,-0.0010620117,166.0
20776,-0.64100266,-1.6059113,1.65699,-0.026550293,0.008496094,-0.009558106,166.0
20777,-0.5367279,-1.322609,1.4348793,-0.026550293,0.008496094,-0.009558106,166.0
20778,-0.5367279,-1.322609,1.4348793,-0.06159668,0.014868164,-0.029736329,166.0
20779,-0.3984871,-1.1320724,1.2284203,-0.06159668,0.014868164,-0.029736329,166.0
20780,-0.3984871,-1.1320724,1.2284203,-0.10089111,-0.0361084,-0.043542482,166.0
20781,-0.21750832,-1.0034256,0.99007416,-0.10089111,-0.0361084,-0.043542482,166.0
20782,-0.21750832,-1.0034256,0.99007416,-0.09133301,-0.032922365,-0.009558106,166.0
20783,-0.11533928,-0.8481598,0.7382393,-0.09133301,-0.032922365,-0.009558106,166.0
20784,-0.11533928,-0.8481598,0.7382393,-0.070092775,-0.022302246,0.009558106,166.0
20785,-0.09150219,-0.6820679,0.57507324,-0.070092775,-0.022302246,0.009558106,166.0
20786,-0.09150219,-0.6820679,0.57507324,-0.0637207,-0.019116212,-0.022302246,166.0
20787,-0.060982704,-0.5809097,0.5085945,-0.0637207,-0.019116212,-0.022302246,166.0
20788,-0.060982704,-0.5809097,0.5085945,-0.0031860352,-0.019116212,-0.008496094,166.0
20789,-0.013813019,-0.5146713,0.4556656,-0.0031860352,-0.019116212,-0.008496094,166.0
20790,-0.013813019,-0.5146713,0.4556656,0.06478272,0.007434082,0.027612304,166.0
20791,-0.03351116,-0.3862381,0.37802124,0.06478272,0.007434082,0.027612304,166.0
20792,-0.03351116,-0.3862381,0.37802124,0.028674318,0.0010620117,0.03717041,166.0
20793,-0.11012173,-0.22374725,0.30760574,0.028674318,0.0010620117,0.03717041,166.0
20794,-0.11012173,-0.22374725,0.30760574,-0.021240234,-0.020178223,0.016992187,166.0
20795,-0.12492561,-0.12902069,0.23916245,-0.021240234,-0.020178223,0.016992187,166.0
20796,-0.12492561,-0.12902069,0.23916245,-0.07115479,-0.028674318,0.0031860352,166.0
20797,-0.060585022,-0.13697052,0.17140579,-0.07115479,-0.028674318,0.0031860352,166.0
20798,-0.060585022,-0.13697052,0.17140579,-0.06478272,0.0,0.019116212,166.0
20799,-0.060585022,-0.13697052,0.17140579,-0.0361084,0.06796875,0.0361084,166.0
20800,-0.008295059,-0.1767044,0.10599518,-0.0361084,0.06796875,0.0361084,166.0
20801,-0.044075012,-0.16059113,0.026725769,-0.0361084,0.06796875,0.0361084,166.0
20802,-0.044075012,-0.16059113,0.026725769,0.043542482,0.07752686,0.029736329,166.0
20803,-0.1109314,-0.040512085,-0.09151077,0.043542482,0.07752686,0.029736329,166.0
20804,-0.1109314,-0.040512085,-0.09151077,0.10195313,0.070092775,0.035046387,166.0
20805,-0.10996151,0.064964294,-0.20297241,0.10195313,0.070092775,0.035046387,166.0
20806,-0.10996151,0.064964294,-0.20297241,0.06690674,0.027612304,-0.06478272,166.0
20807,-2.9850006E-4,0.05831909,-0.25172424,0.06690674,0.027612304,-0.06478272,166.0
20808,-2.9850006E-4,0.05831909,-0.25172424,0.40993652,0.17735596,-0.17841797,166.0
20809,-0.08600521,0.059318542,-0.12401199,0.40993652,0.17735596,-0.17841797,166.0
20810,-0.08600521,0.059318542,-0.12401199,0.33984375,0.016992187,-0.19222413,166.0
20811,-0.27899647,0.1682663,0.12585449,0.33984375,0.016992187,-0.19222413,166.0
20812,-0.27899647,0.1682663,0.12585449,0.39613038,-0.16567384,-0.35152587,166.0
20813,-0.09036064,0.19184113,0.3482666,0.39613038,-0.16567384,-0.35152587,166.0
20814,-0.09036064,0.19184113,0.3482666,0.3164795,-0.093457036,-0.18479005,166.0
20815,0.17655182,0.07035828,0.5025139,0.3164795,-0.093457036,-0.18479005,166.0
20816,0.17655182,0.07035828,0.5025139,0.29948732,-0.039294433,-0.15080567,166.0
20817,0.23600483,0.05505371,0.54351425,0.29948732,-0.039294433,-0.15080567,166.0
20818,0.23600483,0.05505371,0.54351425,0.03186035,0.0063720704,-0.070092775,166.0
20819,0.20246315,0.020324707,0.46403503,0.03186035,0.0063720704,-0.070092775,166.0
20820,0.20246315,0.020324707,0.46403503,-0.019116212,0.078588866,0.093457036,166.0
20821,0.061164856,-0.20013428,0.31037903,-0.019116212,0.078588866,0.093457036,166.0
20822,0.061164856,-0.20013428,0.31037903,0.13487549,0.15080567,0.060534667,166.0
20823,-0.09498978,-0.24961853,0.15920639,0.13487549,0.15080567,0.060534667,166.0
20824,-0.09498978,-0.24961853,0.15920639,0.24001466,0.16036378,0.06584473,166.0
20825,-0.09498978,-0.24961853,0.15920639,0.19222413,0.18585205,0.093457036,166.0
20826,-0.13994408,0.0010375977,-0.011001587,0.19222413,0.18585205,0.093457036,166.0
20827,-0.080350876,0.26539612,-0.18257904,0.19222413,0.18585205,0.093457036,166.0
20828,-0.080350876,0.26539612,-0.18257904,0.08283692,0.20284425,0.11257324,166.0
20829,0.0016498566,0.34710693,-0.32133102,0.08283692,0.20284425,0.11257324,166.0
20830,0.0016498566,0.34710693,-0.32133102,0.035046387,0.2166504,0.13912354,166.0
20831,0.08292389,0.26927185,-0.4253006,0.035046387,0.2166504,0.13912354,166.0
20832,0.08292389,0.26927185,-0.4253006,0.028674318,0.22302246,0.15080567,166.0
20833,0.18632126,0.2025528,-0.50883484,0.028674318,0.22302246,0.15080567,166.0
20834,0.18632126,0.2025528,-0.50883484,-0.047790527,0.22833252,0.16461182,166.0
20835,0.30065632,0.30740356,-0.61206055,-0.047790527,0.22833252,0.16461182,166.0
20836,0.30065632,0.30740356,-0.61206055,-0.2782471,0.21240234,0.1709839,166.0
20837,0.34710503,0.49726868,-0.7409439,-0.2782471,0.21240234,0.1709839,166.0
20838,0.34710503,0.49726868,-0.7409439,-0.5809204,0.20284425,0.19647217,166.0
20839,0.29697037,0.55771637,-0.8435745,-0.5809204,0.20284425,0.19647217,166.0
20840,0.29697037,0.55771637,-0.8435745,-0.8071289,0.16992188,0.16885987,166.0
20841,0.24968529,0.41287994,-0.88323593,-0.8071289,0.16992188,0.16885987,166.0
20842,0.24968529,0.41287994,-0.88323593,-0.97386473,0.11363526,0.0637207,166.0
20843,0.24968529,0.41287994,-0.88323593,-1.1629028,0.05628662,-0.057348635,166.0
20844,0.30000496,0.24197388,-0.9459686,-1.1629028,0.05628662,-0.057348635,166.0
20845,0.33269215,0.16349792,-1.0978165,-1.1629028,0.05628662,-0.057348635,166.0
20846,0.33269215,0.16349792,-1.0978165,-1.4677002,-0.013806152,-0.20284425,166.0
20847,0.13601398,-0.045188904,-1.224369,-1.4677002,-0.013806152,-0.20284425,166.0
20848,0.13601398,-0.045188904,-1.224369,-1.6790406,-0.14018555,-0.29099122,166.0
20849,-0.16869068,-0.60014343,-1.1807404,-1.6790406,-0.14018555,-0.29099122,166.0
20850,-0.16869068,-0.60014343,-1.1807404,-1.6556762,-0.43117675,-0.4354248,166.0
20851,-0.20432472,-1.2156601,-1.0334473,-1.6556762,-0.43117675,-0.4354248,166.0
20852,-0.20432472,-1.2156601,-1.0334473,-1.6503662,-0.71154785,-0.64570314,166.0
20853,0.1037159,-1.434906,-0.92508316,-1.6503662,-0.71154785,-0.64570314,166.0
20854,0.1037159,-1.434906,-0.92508316,-1.7682495,-0.9674927,-0.77314454,166.0
20855,0.544178,-1.3772964,-0.8018608,-1.7682495,-0.9674927,-0.77314454,166.0
20856,0.544178,-1.3772964,-0.8018608,-1.9795898,-1.2011353,-0.95368654,166.0
20857,0.8192539,-1.535347,-0.5621948,-1.9795898,-1.2011353,-0.95368654,166.0
20858,0.8192539,-1.535347,-0.5621948,-2.0029542,-1.350879,-1.1055542,166.0
20859,0.7917309,-1.9757233,-0.21657562,-2.0029542,-1.350879,-1.1055542,166.0
20860,0.7917309,-1.9757233,-0.21657562,-1.5792115,-1.6078857,-1.2754761,166.0
20861,0.91540337,-2.4243546,0.1763115,-1.5792115,-1.6078857,-1.2754761,166.0
20862,0.91540337,-2.4243546,0.1763115,-1.1618408,-1.8893188,-1.4379638,166.0
20863,1.5239487,-2.696457,0.5468483,-1.1618408,-1.8893188,-1.4379638,166.0
20864,1.5239487,-2.696457,0.5468483,-0.9420044,-2.0029542,-1.6153198,166.0
20865,2.2653008,-2.6947784,0.9150276,-0.9420044,-2.0029542,-1.6153198,166.0
20866,2.2653008,-2.6947784,0.9150276,-0.8612915,-2.0156982,-1.6992188,166.0
20867,2.7268286,-2.4310303,1.1999435,-0.8612915,-2.0156982,-1.6992188,166.0
20868,2.7268286,-2.4310303,1.1999435,-0.86978763,-2.005078,-1.7640015,166.0
20869,2.8261528,-2.0984879,1.2533646,-0.86978763,-2.005078,-1.7640015,166.0
20870,2.8261528,-2.0984879,1.2533646,-1.1108643,-1.9732178,-1.7714356,166.0
20871,2.7036715,-1.9192657,1.1123466,-1.1108643,-1.9732178,-1.7714356,166.0
20872,2.7036715,-1.9192657,1.1123466,-1.4931885,-1.993396,-1.8786987,166.0
20873,2.636119,-2.1035004,1.1213722,-1.4931885,-1.993396,-1.8786987,166.0
20874,2.636119,-2.1035004,1.1213722,-1.7385132,-2.1367676,-1.9456055,166.0
20875,2.9044762,-2.5876923,1.3515434,-1.7385132,-2.1367676,-1.9456055,166.0
20876,2.9044762,-2.5876923,1.3515434,-1.4167236,-2.005078,-2.0464966,166.0
20877,3.1560516,-2.5560913,1.3544769,-1.4167236,-2.005078,-2.0464966,166.0
20878,3.1560516,-2.5560913,1.3544769,-1.0163453,-1.716211,-2.066675,166.0
20879,2.796814,-1.7282257,0.9629402,-1.0163453,-1.716211,-2.066675,166.0
20880,2.796814,-1.7282257,0.9629402,-1.2223755,-1.6121339,-2.163318,166.0
20881,2.2335567,-1.0578842,0.536438,-1.2223755,-1.6121339,-2.163318,166.0
20882,2.2335567,-1.0578842,0.536438,-1.6439942,-1.6737305,-2.3088136,166.0
20883,2.2363935,-1.282135,0.35243225,-1.6439942,-1.6737305,-2.3088136,166.0
20884,2.2363935,-1.282135,0.35243225,-1.6822265,-1.536731,-2.4128907,166.0
20885,2.650272,-1.9339066,0.3424301,-1.6822265,-1.536731,-2.4128907,166.0
20886,2.650272,-1.9339066,0.3424301,-1.359375,-1.4007934,-2.5966187,166.0
20887,3.070938,-2.1005936,0.11606979,-1.359375,-1.4007934,-2.5966187,166.0
20888,3.070938,-2.1005936,0.11606979,-1.1087402,-1.2552979,-2.7304323,166.0
20889,3.3240972,-1.6325302,-0.43792725,-1.1087402,-1.2552979,-2.7304323,166.0
20890,3.3240972,-1.6325302,-0.43792725,-1.1151123,-1.1331666,-2.7463624,166.0
20891,3.3225222,-0.9791336,-0.9305916,-1.1151123,-1.1331666,-2.7463624,166.0
20892,3.3225222,-0.9791336,-0.9305916,-1.4358399,-1.0078491,-2.5838745,166.0
20893,3.0543802,-0.44615173,-1.1695099,-1.4358399,-1.0078491,-2.5838745,166.0
20894,3.0543802,-0.44615173,-1.1695099,-1.9498535,-1.0577637,-2.2514648,166.0
20895,3.2530746,-0.44421387,-1.4249039,-1.9498535,-1.0577637,-2.2514648,166.0
20896,3.2530746,-0.44421387,-1.4249039,-2.3151855,-0.88996583,-2.2153566,166.0
20897,3.8384829,-0.95622253,-1.9108086,-2.3151855,-0.88996583,-2.2153566,166.0
20898,3.8384829,-0.95622253,-1.9108086,-2.1378295,-0.53525394,-2.1314576,166.0
20899,3.7869852,-1.1578827,-2.4077263,-2.1378295,-0.53525394,-2.1314576,166.0
20900,3.7869852,-1.1578827,-2.4077263,-2.1123414,-0.33771974,-2.0964112,166.0
20901,3.1475203,-0.84793854,-2.7220802,-2.1123414,-0.33771974,-2.0964112,166.0
20902,3.1475203,-0.84793854,-2.7220802,-2.2408447,-0.098767094,-1.9073731,166.0
20903,2.3860826,-0.36723328,-2.7687912,-2.2408447,-0.098767094,-1.9073731,166.0
20904,2.3860826,-0.36723328,-2.7687912,-2.4797974,0.04248047,-1.6939087,166.0
20905,1.8443886,3.1280518E-4,-2.66502,-2.4797974,0.04248047,-1.6939087,166.0
20906,1.8443886,3.1280518E-4,-2.66502,-2.7750366,0.14655761,-1.454956,166.0
20907,1.6170881,0.08868408,-2.6200523,-2.7750366,0.14655761,-1.454956,166.0
20908,1.6170881,0.08868408,-2.6200523,-2.9311523,0.2793091,-1.2043213,166.0
20909,1.4601866,-0.049217224,-2.642746,-2.9311523,0.2793091,-1.2043213,166.0
20910,1.4601866,-0.049217224,-2.642746,-2.9056642,0.35152587,-1.0471436,166.0
20911,1.1700535,-0.20639038,-2.5992432,-2.9056642,0.35152587,-1.0471436,166.0
20912,1.1700535,-0.20639038,-2.5992432,-2.5647583,0.42905274,-0.94625247,166.0
20913,0.79286647,-0.16744995,-2.4987183,-2.5647583,0.42905274,-0.94625247,166.0
20914,0.79286647,-0.16744995,-2.4987183,-2.1123414,0.48109132,-0.8527954,166.0
20915,0.49341178,0.0647583,-2.340065,-2.1123414,0.48109132,-0.8527954,166.0
20916,0.49341178,0.0647583,-2.340065,-1.6747925,0.48109132,-0.8400513,166.0
20917,0.37785935,0.27866364,-2.065422,-1.6747925,0.48109132,-0.8400513,166.0
20918,0.37785935,0.27866364,-2.065422,-1.3625611,0.45135498,-0.87615967,166.0
20919,0.375664,0.41529083,-1.7180862,-1.3625611,0.45135498,-0.87615967,166.0
20920,0.375664,0.41529083,-1.7180862,-1.183081,0.4088745,-0.9685547,166.0
20921,0.32752085,0.5325699,-1.4401169,-1.183081,0.4088745,-0.9685547,166.0
20922,0.32752085,0.5325699,-1.4401169,-1.1140503,0.3058594,-0.9897949,166.0
20923,0.2938161,0.62618256,-1.2708893,-1.1140503,0.3058594,-0.9897949,166.0
20924,0.2938161,0.62618256,-1.2708893,-1.0375855,0.23895264,-1.0110352,166.0
20925,0.3382268,0.7039108,-1.1404877,-1.0375855,0.23895264,-1.0110352,166.0
20926,0.3382268,0.7039108,-1.1404877,-0.9897949,0.17416993,-1.0184692,166.0
20927,0.46868944,0.6889496,-1.0088501,-0.9897949,0.17416993,-1.0184692,166.0
20928,0.46868944,0.6889496,-1.0088501,-1.0174073,0.093457036,-1.0736939,166.0
20929,0.61223173,0.54704285,-0.8921242,-1.0174073,0.093457036,-1.0736939,166.0
20930,0.61223173,0.54704285,-0.8921242,-0.994043,0.029736329,-1.1342286,166.0
20931,0.7002957,0.3793335,-0.7985649,-0.994043,0.029736329,-1.1342286,166.0
20932,0.7002957,0.3793335,-0.7985649,-0.89846194,-0.029736329,-1.1480347,166.0
20933,0.7129221,0.35396576,-0.731163,-0.89846194,-0.029736329,-1.1480347,166.0
20934,0.7129221,0.35396576,-0.731163,-0.7604004,-0.08602295,-1.1597168,166.0
20935,0.69437337,0.49812317,-0.6615524,-0.7604004,-0.08602295,-1.1597168,166.0
20936,0.69437337,0.49812317,-0.6615524,-0.6552612,-0.15717773,-1.1204224,166.0
20937,0.74298644,0.68196106,-0.6014824,-0.6552612,-0.15717773,-1.1204224,166.0
20938,0.74298644,0.68196106,-0.6014824,-0.60109866,-0.19541016,-1.1087402,166.0
20939,0.85203075,0.78513336,-0.5684166,-0.60109866,-0.19541016,-1.1087402,166.0
20940,0.85203075,0.78513336,-0.5684166,-0.5214478,-0.18160401,-1.0567017,166.0
20941,0.90425634,0.79276276,-0.5529976,-0.5214478,-0.18160401,-1.0567017,166.0
20942,0.90425634,0.79276276,-0.5529976,-0.5214478,-0.14124756,-1.0259033,166.0
20943,0.86920595,0.77550507,-0.48628235,-0.5214478,-0.14124756,-1.0259033,166.0
20944,0.86920595,0.77550507,-0.48628235,-0.5511841,-0.13275146,-1.0004151,166.0
20945,0.8094883,0.799263,-0.339859,-0.5511841,-0.13275146,-1.0004151,166.0
20946,0.8094883,0.799263,-0.339859,-0.5671143,-0.1539917,-0.9791748,166.0
20947,0.77763224,0.7591095,-0.2829094,-0.5671143,-0.1539917,-0.9791748,166.0
20948,0.77763224,0.7591095,-0.2829094,-0.5777344,-0.15823975,-0.9494385,166.0
20949,0.71365833,0.77233887,-0.2235794,-0.5777344,-0.15823975,-0.9494385,166.0
20950,0.71365833,0.77233887,-0.2235794,-0.50233155,-0.16354981,-0.89102787,166.0
20951,0.6544962,0.70201874,-0.2788658,-0.50233155,-0.16354981,-0.89102787,166.0
20952,0.6544962,0.70201874,-0.2788658,-0.48427734,-0.15186767,-0.8581055,166.0
20953,0.4781623,0.70925903,-0.36291504,-0.48427734,-0.15186767,-0.8581055,166.0
20954,0.4781623,0.70925903,-0.36291504,-0.37807617,-0.13487549,-0.7423462,166.0
20955,0.4624982,0.6583481,-0.32987976,-0.37807617,-0.13487549,-0.7423462,166.0
20956,0.4624982,0.6583481,-0.32987976,-0.34090576,-0.12956543,-0.70942384,166.0
20957,0.5565095,0.68601227,-0.23600769,-0.34090576,-0.12956543,-0.70942384,166.0
20958,0.5565095,0.68601227,-0.23600769,-0.2442627,-0.08496094,-0.5703003,166.0
20959,0.5825248,0.7217331,-0.25600433,-0.2442627,-0.08496094,-0.5703003,166.0
20960,0.5825248,0.7217331,-0.25600433,-0.21240234,-0.040356446,-0.4959595,166.0
20961,0.5357342,0.87828827,-0.31293488,-0.21240234,-0.040356446,-0.4959595,166.0
20962,0.5357342,0.87828827,-0.31293488,-0.25913087,0.016992187,-0.43861085,166.0
20963,0.45856762,0.903595,-0.32590866,-0.25913087,0.016992187,-0.43861085,166.0
20964,0.45856762,0.903595,-0.32590866,-0.30267334,0.047790527,-0.40993652,166.0
20965,0.45856762,0.903595,-0.32590866,-0.30267334,0.047790527,-0.40993652,0.0
20966,0.23286963,1.137146,-0.35368347,-0.30267334,0.047790527,-0.40993652,0.0
20967,0.23286963,1.137146,-0.35368347,-0.4439209,0.09239502,-0.38763428,0.0
20968,0.13988447,0.9914322,-0.31040192,-0.4439209,0.09239502,-0.38763428,0.0
20969,0.13988447,0.9914322,-0.31040192,-0.48640138,0.08814698,-0.4067505,0.0
20970,0.15112877,0.79395294,-0.3163147,-0.48640138,0.08814698,-0.4067505,0.0
20971,0.15112877,0.79395294,-0.3163147,-0.4609131,0.08814698,-0.38232422,0.0
20972,0.20012665,0.65335083,-0.3373642,-0.4609131,0.08814698,-0.38232422,0.0
20973,0.20012665,0.65335083,-0.3373642,-0.4258667,0.08814698,-0.37489015,0.0
20974,0.32037973,0.51366425,-0.45791626,-0.4258667,0.08814698,-0.37489015,0.0
20975,0.32037973,0.51366425,-0.45791626,-0.33240968,0.090270996,-0.2793091,0.0
20976,0.2575245,0.45606232,-0.4385147,-0.33240968,0.090270996,-0.2793091,0.0
20977,0.2575245,0.45606232,-0.4385147,-0.25806886,0.07646485,-0.21346436,0.0
20978,0.113123894,0.4493866,-0.35699844,-0.25806886,0.07646485,-0.21346436,0.0
20979,0.113123894,0.4493866,-0.35699844,-0.14549561,0.0361084,-0.18160401,0.0
20980,0.049056053,0.41042328,-0.28121567,-0.14549561,0.0361084,-0.18160401,0.0
20981,0.049056053,0.41042328,-0.28121567,-0.10301514,0.0180542,-0.18372802,0.0
20982,0.0075917244,0.341156,-0.19576263,-0.10301514,0.0180542,-0.18372802,0.0
20983,0.0075917244,0.341156,-0.19576263,-0.0053100586,-0.021240234,-0.18266602,0.0
20984,0.14997005,0.12382507,-0.15947723,-0.0053100586,-0.021240234,-0.18266602,0.0
20985,0.14997005,0.12382507,-0.15947723,0.12319336,-0.050976563,-0.107263185,0.0
20986,0.19567204,-0.026573181,-0.1265831,0.12319336,-0.050976563,-0.107263185,0.0
20987,0.19567204,-0.026573181,-0.1265831,0.14549561,-0.058410645,-0.04991455,0.0
20988,0.29450178,-0.41754913,-0.1272316,0.14549561,-0.058410645,-0.04991455,0.0
20989,0.29450178,-0.41754913,-0.1272316,0.28461915,-0.052038576,0.1178833,0.0
20990,0.5042901,-1.499527,0.23636246,0.28461915,-0.052038576,0.1178833,0.0
20991,0.5042901,-1.499527,0.23636246,0.93138427,0.11257324,0.7083618,0.0
20992,0.4238057,-2.4481354,0.7985382,0.93138427,0.11257324,0.7083618,0.0
20993,0.4238057,-2.4481354,0.7985382,0.9897949,0.38338622,1.2096313,0.0
20994,0.08604145,-2.515091,1.0198479,0.9897949,0.38338622,1.2096313,0.0
20995,0.08604145,-2.515091,1.0198479,0.8050049,0.44710693,1.364685,0.0
20996,-0.65289545,-2.5970993,1.238205,0.8050049,0.44710693,1.364685,0.0
20997,-0.65289545,-2.5970993,1.238205,0.04141846,0.4333008,1.7788696,0.0
20998,-1.3983665,-2.7299957,1.2914543,0.04141846,0.4333008,1.7788696,0.0
20999,-1.3983665,-2.7299957,1.2914543,0.026550293,0.26656494,2.1006591,0.0
21000,-1.8090744,-3.5633774,1.3635826,0.026550293,0.26656494,2.1006591,0.0
21001,-1.8090744,-3.5633774,1.3635826,1.2351197,0.20709229,2.3980224,0.0
21002,-1.8106508,-4.304085,1.4003754,1.2351197,0.20709229,2.3980224,0.0
21003,-1.8106508,-4.304085,1.4003754,2.5902467,0.30161133,2.442627,0.0
21004,-1.6472878,-3.9606018,1.4082527,2.5902467,0.30161133,2.442627,0.0
21005,-1.6472878,-3.9606018,1.4082527,3.0564697,0.33984375,2.6560915,0.0
21006,-1.3835039,-2.8814392,1.3592911,3.0564697,0.33984375,2.6560915,0.0
21007,-1.3835039,-2.8814392,1.3592911,2.809021,0.4078125,2.9173462,0.0
21008,-1.2007241,-2.0952835,1.2184372,2.809021,0.4078125,2.9173462,0.0
21009,-1.2007241,-2.0952835,1.2184372,2.626355,0.36639404,3.3283448,0.0
21010,-1.0518878,-2.0070496,1.1966362,2.626355,0.36639404,3.3283448,0.0
21011,-1.0518878,-2.0070496,1.1966362,3.0341675,0.3175415,3.5078247,0.0
21012,-0.85673237,-1.9990082,1.3571243,3.0341675,0.3175415,3.5078247,0.0
21013,-0.85673237,-1.9990082,1.3571243,3.4855225,0.34940186,3.6331422,0.0
21014,-0.8246193,-1.4462128,1.5826988,3.4855225,0.34940186,3.6331422,0.0
21015,-0.8246193,-1.4462128,1.5826988,3.524817,0.3451538,3.722351,0.0
21016,-1.0585234,-0.6389618,1.6959801,3.524817,0.3451538,3.722351,0.0
21017,-1.0585234,-0.6389618,1.6959801,3.3687012,0.3525879,3.787134,0.0
21018,-1.3900437,-0.041870117,1.655941,3.3687012,0.3525879,3.787134,0.0
21019,-1.3900437,-0.041870117,1.655941,3.2805543,0.42268068,3.7743897,0.0
21020,-1.6060047,0.24700928,1.645092,3.2805543,0.42268068,3.7743897,0.0
21021,-1.6060047,0.24700928,1.645092,3.4079957,0.60322267,3.8519166,0.0
21022,-1.7443131,0.5094528,1.8387413,3.4079957,0.60322267,3.8519166,0.0
21023,-1.7443131,0.5094528,1.8387413,3.1456788,0.81243896,3.8264282,0.0
21024,-2.0113685,1.1271286,2.23629,3.1456788,0.81243896,3.8264282,0.0
21025,-2.0113685,1.1271286,2.23629,2.5509522,0.9228882,3.7510254,0.0
21026,-2.4227057,1.6387482,2.5982704,2.5509522,0.9228882,3.7510254,0.0
21027,-2.4227057,1.6387482,2.5982704,2.076233,0.9239502,3.710669,0.0
21028,-2.6948662,1.506546,2.6599503,2.076233,0.9239502,3.710669,0.0
21029,-2.6948662,1.506546,2.6599503,2.0284424,0.9632446,3.6660645,0.0
21030,-2.8108003,1.3217163,2.3749695,2.0284424,0.9632446,3.6660645,0.0
21031,-2.8108003,1.3217163,2.3749695,2.1378295,1.0917481,3.4929566,0.0
21032,-3.0955153,1.6419525,1.9771576,2.1378295,1.0917481,3.4929566,0.0
21033,-3.0955153,1.6419525,1.9771576,2.1845582,1.1544068,3.3750732,0.0
21034,-3.3958092,2.210846,1.8100433,2.1845582,1.1544068,3.3750732,0.0
21035,-3.3958092,2.210846,1.8100433,2.1888063,1.1692749,3.149927,0.0
21036,-3.45925,2.8215866,1.7926254,2.1888063,1.1692749,3.149927,0.0
21037,-3.45925,2.8215866,1.7926254,2.090039,1.2223755,2.9396484,0.0
21038,-3.5185232,3.3693542,1.5909119,2.090039,1.2223755,2.9396484,0.0
21039,-3.5185232,3.3693542,1.5909119,1.992334,1.2096313,2.7357423,0.0
21040,-3.7917595,3.7280884,1.2732773,1.992334,1.2096313,2.7357423,0.0
21041,-3.7917595,3.7280884,1.2732773,1.9254273,1.2053833,2.532898,0.0
21042,-4.0378633,3.9821243,1.0199623,1.9254273,1.2053833,2.532898,0.0
21043,-4.0378633,3.9821243,1.0199623,1.7586914,1.1862671,2.261023,0.0
21044,-4.087529,4.0903473,0.7209854,1.7586914,1.1862671,2.261023,0.0
21045,-4.087529,4.0903473,0.7209854,1.720459,0.996167,1.993396,0.0
21046,-3.986723,3.800972,0.2712822,1.720459,0.996167,1.993396,0.0
21047,-3.986723,3.800972,0.2712822,2.0549927,0.79332274,1.6429322,0.0
21048,-3.73098,3.387497,-0.1908493,2.0549927,0.79332274,1.6429322,0.0
21049,-3.73098,3.387497,-0.1908493,2.5828125,0.630835,1.183081,0.0
21050,-3.3658752,3.3989716,-0.34223175,2.5828125,0.630835,1.183081,0.0
21051,-3.3658752,3.3989716,-0.34223175,2.732556,0.46516114,0.81987303,0.0
21052,-2.8934689,3.5615234,-0.098968506,2.732556,0.46516114,0.81987303,0.0
21053,-2.8934689,3.5615234,-0.098968506,2.453247,0.1539917,0.56180423,0.0
21054,-2.3482218,3.18367,0.17548752,2.453247,0.1539917,0.56180423,0.0
21055,-2.3482218,3.18367,0.17548752,2.626355,-0.18585205,0.3802002,0.0
21056,-1.8016243,2.57473,0.25575638,2.626355,-0.18585205,0.3802002,0.0
21057,-1.8016243,2.57473,0.25575638,3.0607178,-0.44498292,0.03186035,0.0
21058,-1.3011141,2.579216,0.1503601,3.0607178,-0.44498292,0.03186035,0.0
21059,-1.3011141,2.579216,0.1503601,3.1106324,-0.76358646,-0.06265869,0.0
21060,-0.84555435,2.8795853,-0.040283203,3.1106324,-0.76358646,-0.06265869,0.0
21061,-0.84555435,2.8795853,-0.040283203,2.9991212,-1.0567017,-0.19541016,0.0
21062,-0.25830364,2.8019257,-0.22337723,2.9991212,-1.0567017,-0.19541016,0.0
21063,-0.25830364,2.8019257,-0.22337723,3.3113525,-1.2510499,-0.38551027,0.0
21064,0.49947262,2.4854965,-0.2403717,3.3113525,-1.2510499,-0.38551027,0.0
21065,0.49947262,2.4854965,-0.2403717,3.4695923,-1.4666382,-0.47471926,0.0
21066,1.3085747,2.4563293,0.010414124,3.4695923,-1.4666382,-0.47471926,0.0
21067,1.3085747,2.4563293,0.010414124,2.987439,-1.6089478,-0.5341919,0.0
21068,1.9836884,2.650856,0.13915253,2.987439,-1.6089478,-0.5341919,0.0
21069,1.9836884,2.650856,0.13915253,2.3236816,-1.7024049,-0.4428589,0.0
21070,2.2702398,2.7260666,-0.12001419,2.3236816,-1.7024049,-0.4428589,0.0
21071,2.2702398,2.7260666,-0.12001419,1.4963745,-1.7438233,-0.35471192,0.0
21072,2.1870775,2.5115051,-0.3199997,1.4963745,-1.7438233,-0.35471192,0.0
21073,2.1870775,2.5115051,-0.3199997,0.72004396,-1.8808228,-0.10195313,0.0
21074,2.08527,1.510498,-0.14196014,0.72004396,-1.8808228,-0.10195313,0.0
21075,2.08527,1.510498,-0.14196014,0.85491943,-2.1877441,0.07115479,0.0
21076,2.1451206,0.057540894,-0.14765167,0.85491943,-2.1877441,0.07115479,0.0
21077,2.1451206,0.057540894,-0.14765167,1.5038086,-2.5105958,0.18585205,0.0
21078,2.3889484,-1.3372192,-0.74435425,1.5038086,-2.5105958,0.18585205,0.0
21079,2.3889484,-1.3372192,-0.74435425,2.264209,-2.6571534,0.1709839,0.0
21080,3.4345717,-1.9108505,-0.90234375,2.264209,-2.6571534,0.1709839,0.0
21081,3.4345717,-1.9108505,-0.90234375,5.0732303,-0.51082766,-0.3345337,0.0
21082,3.6516123,3.1834793,2.0025978,5.0732303,-0.51082766,-0.3345337,0.0
21083,3.6516123,3.1834793,2.0025978,1.3370727,0.6988037,0.29311523,0.0
21084,1.7999277,7.6940613,5.395767,1.3370727,0.6988037,0.29311523,0.0
21085,1.7999277,7.6940613,5.395767,-0.95581055,-0.1529297,0.55968016,0.0
21086,0.32312107,5.025955,4.4989967,-0.95581055,-0.1529297,0.55968016,0.0
21087,0.32312107,5.025955,4.4989967,3.3878174,-0.4715332,0.44498292,0.0
21088,0.32963943,2.3632698,1.5138931,3.3878174,-0.4715332,0.44498292,0.0
21089,0.32963943,2.3632698,1.5138931,3.3432128,-0.74447024,0.7062378,0.0
21090,0.2554593,1.9274292,-1.0097351,3.3432128,-0.74447024,0.7062378,0.0
21091,0.2554593,1.9274292,-1.0097351,2.073047,-0.632959,0.43754885,0.0
21092,-0.405838,1.2649765,-2.3631706,2.073047,-0.632959,0.43754885,0.0
21093,-0.405838,1.2649765,-2.3631706,1.9753418,-0.5384399,0.3727661,0.0
21094,-1.182373,0.917984,-2.5403175,1.9753418,-0.5384399,0.3727661,0.0
21095,-1.182373,0.917984,-2.5403175,1.9827759,-0.42268068,0.1444336,0.0
21096,-1.5954466,1.1230965,-2.0696945,1.9827759,-0.42268068,0.1444336,0.0
21097,-1.5954466,1.1230965,-2.0696945,2.450061,-0.6159668,0.078588866,0.0
21098,-1.4338036,0.81957245,-1.4864197,2.450061,-0.6159668,0.078588866,0.0
21099,-1.4338036,0.81957245,-1.4864197,3.155237,-0.7604004,0.078588866,0.0
21100,-0.9221282,0.99817276,-1.2768936,3.155237,-0.7604004,0.078588866,0.0
21101,-0.9221282,0.99817276,-1.2768936,3.155237,-0.7604004,0.078588866,0.0
21102,-0.9221282,0.99817276,-1.2768936,3.522693,-0.86341554,-0.07965088,0.0
21103,-0.3200879,2.248722,-1.8122749,3.522693,-0.86341554,-0.07965088,0.0
21104,-0.3200879,2.248722,-1.8122749,3.5428712,-0.93138427,-0.1359375,0.0
21105,0.4172573,3.4099884,-2.490837,3.5428712,-0.93138427,-0.1359375,0.0
21106,0.4172573,3.4099884,-2.490837,3.3124146,-0.91120607,-0.06265869,0.0
21107,1.393498,4.785965,-2.0345306,3.3124146,-0.91120607,-0.06265869,0.0
21108,1.393498,4.785965,-2.0345306,2.7346802,-0.77314454,-0.22302246,0.0
21109,2.4419708,7.1938972,-0.63254166,2.7346802,-0.77314454,-0.22302246,0.0
21110,2.4419708,7.1938972,-0.63254166,0.078588866,-0.6552612,-0.48640138,0.0
21111,2.861011,6.3839874,-1.1415405,0.078588866,-0.6552612,-0.48640138,0.0
21112,2.861011,6.3839874,-1.1415405,0.1444336,-0.5278198,0.11044922,0.0
21113,2.077334,1.3976555,-3.2994995,0.1444336,-0.5278198,0.11044922,0.0
21114,2.077334,1.3976555,-3.2994995,-0.15930176,-0.10407715,0.41524658,0.0
21115,0.8493552,-2.2347221,-4.4318237,-0.15930176,-0.10407715,0.41524658,0.0
21116,0.8493552,-2.2347221,-4.4318237,0.010620117,0.32603762,0.18160401,0.0
21117,-0.071480274,-2.5954056,-3.465931,0.010620117,0.32603762,0.18160401,0.0
21118,-0.071480274,-2.5954056,-3.465931,-0.0063720704,0.41843262,0.17416993,0.0
21119,-0.43438148,-1.2232361,-0.7370529,-0.0063720704,0.41843262,0.17416993,0.0
21120,-0.43438148,-1.2232361,-0.7370529,0.27718505,0.25700685,0.027612304,0.0
21121,-0.347322,0.55412674,1.7215767,0.27718505,0.25700685,0.027612304,0.0
21122,-0.347322,0.55412674,1.7215767,-0.42374268,0.19328614,-0.0021240234,0.0
21123,-0.27317,1.4323769,2.0317764,-0.42374268,0.19328614,-0.0021240234,0.0
21124,-0.27317,1.4323769,2.0317764,-1.2329956,0.27399904,0.1178833,0.0
21125,-0.4911189,0.31959534,0.68494415,-1.2329956,0.27399904,0.1178833,0.0
21126,-0.4911189,0.31959534,0.68494415,-0.9866089,0.3069214,0.26868898,0.0
21127,-0.5035639,-1.1288605,-0.31264114,-0.9866089,0.3069214,0.26868898,0.0
21128,-0.5035639,-1.1288605,-0.31264114,-1.1023682,0.34727785,0.17629395,0.0
21129,-0.11823177,-1.3457031,-0.4658699,-1.1023682,0.34727785,0.17629395,0.0
21130,-0.11823177,-1.3457031,-0.4658699,-0.80181885,0.5256958,0.26550293,0.0
21131,0.15340042,-0.99477386,-0.05350876,-0.80181885,0.5256958,0.26550293,0.0
21132,0.15340042,-0.99477386,-0.05350876,-0.73809814,0.5872925,0.36427003,0.0
21133,0.20615578,-0.5602112,0.6058006,-0.73809814,0.5872925,0.36427003,0.0
21134,0.20615578,-0.5602112,0.6058006,-0.813501,0.63826907,0.362146,0.0
21135,0.18388176,-0.2575302,0.9188194,-0.813501,0.63826907,0.362146,0.0
21136,0.18388176,-0.2575302,0.9188194,-1.0375855,0.7593384,0.39188233,0.0
21137,0.16287708,-0.45215225,0.7440796,-1.0375855,0.7593384,0.39188233,0.0
21138,0.16287708,-0.45215225,0.7440796,-1.1512207,0.8379273,0.3982544,0.0
21139,0.11894941,-0.7437897,0.619297,-1.1512207,0.8379273,0.3982544,0.0
21140,0.11894941,-0.7437897,0.619297,-1.0365235,0.87403566,0.42905274,0.0
21141,0.028826237,-0.453125,1.0231133,-1.0365235,0.87403566,0.42905274,0.0
21142,0.028826237,-0.453125,1.0231133,-1.264856,0.9611206,0.42268068,0.0
21143,0.10116148,0.31385803,1.858593,-1.264856,0.9611206,0.42268068,0.0
21144,0.10116148,0.31385803,1.858593,-2.0114503,1.1246704,0.39613038,0.0
21145,0.3568449,0.71315765,2.46241,-2.0114503,1.1246704,0.39613038,0.0
21146,0.3568449,0.71315765,2.46241,-2.805835,1.3933594,0.45454103,0.0
21147,0.627676,0.22062302,2.5840988,-2.805835,1.3933594,0.45454103,0.0
21148,0.627676,0.22062302,2.5840988,-3.1456788,1.4815063,0.6977417,0.0
21149,0.88138866,-0.270607,2.5651894,-3.1456788,1.4815063,0.6977417,0.0
21150,0.88138866,-0.270607,2.5651894,-3.3973756,1.6917847,0.8262451,0.0
21151,0.61504745,-0.51589966,2.1671295,-3.3973756,1.6917847,0.8262451,0.0
21152,0.61504745,-0.51589966,2.1671295,-4.003784,2.069861,0.91757816,0.0
21153,-0.5806918,-1.6681366,1.2812271,-4.003784,2.069861,0.91757816,0.0
21154,-0.5806918,-1.6681366,1.2812271,-3.6809328,1.9604737,1.2160034,0.0
21155,-1.6520901,-2.9720345,0.6411209,-3.6809328,1.9604737,1.2160034,0.0
21156,-1.6520901,-2.9720345,0.6411209,-2.7495484,1.6461182,1.2425537,0.0
21157,-1.5496259,-2.9428139,0.6963196,-2.7495484,1.6461182,1.2425537,0.0
21158,-1.5496259,-2.9428139,0.6963196,-2.7006958,1.6025757,1.2595459,0.0
21159,-1.6716585,-2.3003922,-0.36265945,-2.7006958,1.6025757,1.2595459,0.0
21160,-1.6716585,-2.3003922,-0.36265945,-2.812207,1.4719483,1.6100098,0.0
21161,-3.648899,-3.049797,-2.6721344,-2.812207,1.4719483,1.6100098,0.0
21162,-3.648899,-3.049797,-2.6721344,-1.0768799,0.811377,1.4294678,0.0
21163,-4.2115264,-4.3762283,-2.1364517,-1.0768799,0.811377,1.4294678,0.0
21164,-4.2115264,-4.3762283,-2.1364517,-0.3451538,-0.039294433,1.6450561,0.0
21165,-1.071003,-3.9107208,1.3558426,-0.3451538,-0.039294433,1.6450561,0.0
21166,-1.071003,-3.9107208,1.3558426,-0.7455322,-0.0180542,1.545227,0.0
21167,2.3566499,-2.1250496,3.6440125,-0.7455322,-0.0180542,1.545227,0.0
21168,2.3566499,-2.1250496,3.6440125,-1.175647,0.38338622,1.6885986,0.0
21169,3.3202934,-0.5756836,3.342701,-1.175647,0.38338622,1.6885986,0.0
21170,3.3202934,-0.5756836,3.342701,-1.7576294,0.64570314,2.1431396,0.0
21171,2.3983002,0.06097412,1.8158493,-1.7576294,0.64570314,2.1431396,0.0
21172,2.3983002,0.06097412,1.8158493,-2.259961,0.68712157,2.3141236,0.0
21173,1.2739377,-0.19254303,0.6186981,-2.259961,0.68712157,2.3141236,0.0
21174,1.2739377,-0.19254303,0.6186981,-2.5084717,0.61702883,2.5201538,0.0
21175,0.59324694,-0.46122742,0.35130692,-2.5084717,0.61702883,2.5201538,0.0
21176,0.59324694,-0.46122742,0.35130692,-3.064966,0.51826173,2.6093628,0.0
21177,0.07019091,-0.33418274,0.5869293,-3.064966,0.51826173,2.6093628,0.0
21178,0.07019091,-0.33418274,0.5869293,-3.6373901,0.36745605,2.611487,0.0
21179,-0.31225538,-0.53411865,1.1657562,-3.6373901,0.36745605,2.611487,0.0
21180,-0.31225538,-0.53411865,1.1657562,-4.460449,0.47684327,2.3417358,0.0
21181,-0.6873164,-0.48371887,1.8375702,-4.460449,0.47684327,2.3417358,0.0
21182,-0.6873164,-0.48371887,1.8375702,-5.2697024,0.36533204,1.5760254,0.0
21183,-1.1813717,-0.5948868,1.5452995,-5.2697024,0.36533204,1.5760254,0.0
21184,-1.1813717,-0.5948868,1.5452995,-6.056653,0.36851808,1.5898316,0.0
21185,-1.6800952,-4.356827,0.38627625,-6.056653,0.36851808,1.5898316,0.0
21186,-1.6800952,-4.356827,0.38627625,-4.422217,0.7412842,0.89421386,0.0
21187,-1.9010954,-8.994591,0.82839584,-4.422217,0.7412842,0.89421386,0.0
21188,-1.9010954,-8.994591,0.82839584,-1.5696534,1.81604,-0.48533937,0.0
21189,-2.4956446,-7.920601,3.12817,-1.5696534,1.81604,-0.48533937,0.0
21190,-2.4956446,-7.920601,3.12817,-0.29311523,3.0108032,-1.7416992,0.0
21191,-4.6452465,-3.319664,4.630562,-0.29311523,3.0108032,-1.7416992,0.0
21192,-4.6452465,-3.319664,4.630562,-1.5781494,3.2062135,-1.9615357,0.0
21193,-7.6587515,-2.0229034,3.5476608,-1.5781494,3.2062135,-1.9615357,0.0
21194,-7.6587515,-2.0229034,3.5476608,-2.4829834,2.8015869,-1.3360108,0.0
21195,-9.024084,-5.3267136,0.8362007,-2.4829834,2.8015869,-1.3360108,0.0
21196,-9.024084,-5.3267136,0.8362007,0.46622315,2.272705,-1.1883911,0.0
21197,-7.592681,-7.44532,-1.0041351,0.46622315,2.272705,-1.1883911,0.0
21198,-7.592681,-7.44532,-1.0041351,2.6614015,2.2493408,-1.2712281,0.0
21199,-4.928564,-4.688713,-1.0039673,2.6614015,2.2493408,-1.2712281,0.0
21200,-4.928564,-4.688713,-1.0039673,2.7442384,1.4326538,-1.0492676,0.0
21201,-2.574541,-1.1327667,-0.5536041,2.7442384,1.4326538,-1.0492676,0.0
21202,-2.574541,-1.1327667,-0.5536041,3.2932985,-0.3525879,0.39400634,0.0
21203,-0.9834862,-0.76708984,-1.6933861,3.2932985,-0.3525879,0.39400634,0.0
21204,-0.9834862,-0.76708984,-1.6933861,5.1284547,-1.0386475,0.62552494,0.0
21205,0.113443375,-0.36653137,-3.7432213,5.1284547,-1.0386475,0.62552494,0.0
21206,0.113443375,-0.36653137,-3.7432213,5.6775146,-1.632312,0.6414551,0.0
21207,0.113443375,-0.36653137,-3.7432213,5.6775146,-1.632312,0.6414551,0.0
21208,1.782711,2.2195053,-4.1789894,5.6775146,-1.632312,0.6414551,0.0
21209,1.782711,2.2195053,-4.1789894,4.896936,-1.8022339,1.3859253,0.0
21210,3.6052952,3.5033493,-2.9445457,4.896936,-1.8022339,1.3859253,0.0
21211,3.6052952,3.5033493,-2.9445457,4.4657593,-1.7937378,2.3417358,0.0
21212,4.221492,2.8439255,-1.7116928,4.4657593,-1.7937378,2.3417358,0.0
21213,4.221492,2.8439255,-1.7116928,4.157776,-1.8043579,2.4904175,0.0
21214,3.7592373,2.6752777,-1.0764351,4.157776,-1.8043579,2.4904175,0.0
21215,3.7592373,2.6752777,-1.0764351,4.2915893,-1.9148072,2.5881226,0.0
21216,3.3436203,3.6654434,-0.92477036,4.2915893,-1.9148072,2.5881226,0.0
21217,3.3436203,3.6654434,-0.92477036,4.236365,-1.9700317,2.889734,0.0
21218,3.4792051,5.0001144,-1.2075768,4.236365,-1.9700317,2.889734,0.0
21219,3.4792051,5.0001144,-1.2075768,3.4589722,-1.8818848,3.346399,0.0
21220,3.8607693,5.403816,-1.485321,3.4589722,-1.8818848,3.346399,0.0
21221,3.8607693,5.403816,-1.485321,2.7676027,-1.6546143,3.6469483,0.0
21222,4.216423,4.585747,-0.85139084,2.7676027,-1.6546143,3.6469483,0.0
21223,4.216423,4.585747,-0.85139084,2.3003175,-1.3253907,3.6575685,0.0
21224,4.3462467,3.7331161,0.3826332,2.3003175,-1.3253907,3.6575685,0.0
21225,4.3462467,3.7331161,0.3826332,2.3045654,-0.96218264,3.5003908,0.0
21226,4.2288284,3.5504608,1.2324257,2.3045654,-0.96218264,3.5003908,0.0
21227,4.2288284,3.5504608,1.2324257,2.176062,-0.8814697,3.0511596,0.0
21228,4.0370054,4.373329,1.3180695,2.176062,-0.8814697,3.0511596,0.0
21229,4.0370054,4.373329,1.3180695,2.2036743,-0.45135498,2.6837037,0.0
21230,3.364553,5.1635284,0.2582283,2.2036743,-0.45135498,2.6837037,0.0
21231,3.364553,5.1635284,0.2582283,1.910559,-0.36533204,2.6603394,0.0
21232,2.7485027,4.4762955,-0.9283447,1.910559,-0.36533204,2.6603394,0.0
21233,2.7485027,4.4762955,-0.9283447,1.8914429,-0.38975832,2.4266968,0.0
21234,3.152843,2.6598969,-1.0700073,1.8914429,-0.38975832,2.4266968,0.0
21235,3.152843,2.6598969,-1.0700073,1.5537232,-0.17523193,2.8430054,0.0
21236,3.514401,0.27941895,-0.8239975,1.5537232,-0.17523193,2.8430054,0.0
21237,3.514401,0.27941895,-0.8239975,1.2776002,-0.21452637,2.5934327,0.0
21238,3.4676487,-1.8570671,-0.80828476,1.2776002,-0.21452637,2.5934327,0.0
21239,3.4676487,-1.8570671,-0.80828476,1.3285767,-0.2081543,2.617859,0.0
21240,3.6488628,-2.546711,-1.1050758,1.3285767,-0.2081543,2.617859,0.0
21241,3.6488628,-2.546711,-1.1050758,1.6068238,-0.16248779,2.6964478,0.0
21242,3.6193101,-1.1180725,-1.552906,1.6068238,-0.16248779,2.6964478,0.0
21243,3.6193101,-1.1180725,-1.552906,1.6333741,0.004248047,2.524402,0.0
21244,2.8772962,1.1998558,-1.9159966,1.6333741,0.004248047,2.524402,0.0
21245,2.8772962,1.1998558,-1.9159966,1.0184692,-0.033984374,2.3024414,0.0
21246,1.8989439,2.2795982,-2.094162,1.0184692,-0.033984374,2.3024414,0.0
21247,1.8989439,2.2795982,-2.094162,0.7699585,-0.08920898,2.078357,0.0
21248,1.4053856,1.8321381,-1.9679108,0.7699585,-0.08920898,2.078357,0.0
21249,1.4053856,1.8321381,-1.9679108,0.76677245,-0.014868164,1.9317993,0.0
21250,1.294914,0.9807129,-1.6271477,0.76677245,-0.014868164,1.9317993,0.0
21251,1.294914,0.9807129,-1.6271477,0.78376466,0.0180542,1.7916138,0.0
21252,1.1144712,0.59482574,-1.2308578,0.78376466,0.0180542,1.7916138,0.0
21253,1.1144712,0.59482574,-1.2308578,0.64570314,0.013806152,1.5537232,0.0
21254,0.9529784,0.6165314,-0.8866043,0.64570314,0.013806152,1.5537232,0.0
21255,0.9529784,0.6165314,-0.8866043,0.26444092,-0.13381349,1.448584,0.0
21256,1.0665941,0.19785309,-0.93481827,0.26444092,-0.13381349,1.448584,0.0
21257,1.0665941,0.19785309,-0.93481827,0.61915284,-0.17947999,1.4369019,0.0
21258,0.9923744,-0.64066696,-0.9479027,0.61915284,-0.17947999,1.4369019,0.0
21259,0.9923744,-0.64066696,-0.9479027,0.9345703,0.040356446,1.354065,0.0
21260,0.44248343,-1.2075653,-0.22250748,0.9345703,0.040356446,1.354065,0.0
21261,0.44248343,-1.2075653,-0.22250748,0.53100586,-0.013806152,1.4061035,0.0
21262,0.08588362,-1.5644379,0.6620331,0.53100586,-0.013806152,1.4061035,0.0
21263,0.08588362,-1.5644379,0.6620331,0.7943848,-0.043542482,1.3997315,0.0
21264,0.39762545,-1.3518295,0.93914795,0.7943848,-0.043542482,1.3997315,0.0
21265,0.39762545,-1.3518295,0.93914795,0.7051758,-0.050976563,1.2149414,0.0
21266,0.9949925,-0.71533966,0.53209305,0.7051758,-0.050976563,1.2149414,0.0
21267,0.9949925,-0.71533966,0.53209305,0.37701416,0.0722168,1.4305298,0.0
21268,1.0292094,-0.58229446,-0.10984802,0.37701416,0.0722168,1.4305298,0.0
21269,1.0292094,-0.58229446,-0.10984802,0.26444092,0.12213135,1.4156617,0.0
21270,0.6544709,-0.8361473,-0.5088043,0.26444092,0.12213135,1.4156617,0.0
21271,0.6544709,-0.8361473,-0.5088043,0.4163086,0.06478272,1.3307008,0.0
21272,0.6764698,-0.6924896,-0.71961975,0.4163086,0.06478272,1.3307008,0.0
21273,0.6764698,-0.6924896,-0.71961975,0.4088745,-0.046728518,1.2818482,0.0
21274,1.0295424,-0.1638565,-0.89868164,0.4088745,-0.046728518,1.2818482,0.0
21275,1.0295424,-0.1638565,-0.89868164,0.3345337,-0.019116212,1.3742431,0.0
21276,1.0553236,0.019866943,-0.839344,0.3345337,-0.019116212,1.3742431,0.0
21277,1.0553236,0.019866943,-0.839344,0.17841797,-0.07115479,1.3307008,0.0
21278,0.9261193,-0.36987305,-0.5093918,0.17841797,-0.07115479,1.3307008,0.0
21279,0.9261193,-0.36987305,-0.5093918,0.26019287,-0.13487549,1.1958252,0.0
21280,0.9415426,-0.8683815,-0.24736023,0.26019287,-0.13487549,1.1958252,0.0
21281,0.9415426,-0.8683815,-0.24736023,0.18691407,-0.115759276,1.2202514,0.0
21282,0.88351965,-1.1391144,-0.18652344,0.18691407,-0.115759276,1.2202514,0.0
21283,0.88351965,-1.1391144,-0.18652344,0.04248047,-0.22196046,1.0917481,0.0
21284,0.89335155,-1.3188858,-0.25393295,0.04248047,-0.22196046,1.0917481,0.0
21285,0.89335155,-1.3188858,-0.25393295,-0.07752686,-0.3430298,0.9855469,0.0
21286,0.9932823,-1.6329536,-0.16343689,-0.07752686,-0.3430298,0.9855469,0.0
21287,0.9932823,-1.6329536,-0.16343689,-0.20390625,-0.42055663,0.8973999,0.0
21288,0.979074,-2.1428223,0.2969246,-0.20390625,-0.42055663,0.8973999,0.0
21289,0.979074,-2.1428223,0.2969246,-0.18266602,-0.4991455,0.9218262,0.0
21290,0.8166208,-2.319687,0.9605484,-0.18266602,-0.4991455,0.9218262,0.0
21291,0.8166208,-2.319687,0.9605484,0.081774905,-0.48640138,0.93138427,0.0
21292,0.59029627,-1.5147095,1.3227615,0.081774905,-0.48640138,0.93138427,0.0
21293,0.59029627,-1.5147095,1.3227615,0.33771974,-0.44179687,0.86766356,0.0
21294,0.52835274,-0.16957855,0.7410126,0.33771974,-0.44179687,0.86766356,0.0
21295,0.52835274,-0.16957855,0.7410126,0.3706421,-0.3695801,0.8889038,0.0
21296,0.59380054,0.7337799,-0.65252686,0.3706421,-0.3695801,0.8889038,0.0
21297,0.59380054,0.7337799,-0.65252686,0.41312256,-0.29311523,0.91014403,0.0
21298,0.575614,0.67375183,-1.942543,0.41312256,-0.29311523,0.91014403,0.0
21299,0.575614,0.67375183,-1.942543,0.14018555,-0.42268068,0.95581055,0.0
21300,0.5661311,-0.3842163,-2.6489067,0.14018555,-0.42268068,0.95581055,0.0
21301,0.5661311,-0.3842163,-2.6489067,0.23258057,-0.4248047,0.99722904,0.0
21302,0.34644747,-1.7562714,-2.2662086,0.23258057,-0.4248047,0.99722904,0.0
21303,0.34644747,-1.7562714,-2.2662086,0.5851685,-0.19116211,1.0078491,0.0
21304,-0.027700424,-2.3896255,-0.8057251,0.5851685,-0.19116211,1.0078491,0.0
21305,-0.027700424,-2.3896255,-0.8057251,0.4258667,-0.26444092,0.9494385,0.0
21306,-0.2052536,-1.9268112,0.5899048,0.4258667,-0.26444092,0.9494385,0.0
21307,-0.2052536,-1.9268112,0.5899048,0.270813,-0.22196046,0.8973999,0.0
21308,-0.016912937,-1.0125885,0.8234253,0.270813,-0.22196046,0.8973999,0.0
21309,-0.016912937,-1.0125885,0.8234253,-0.019116212,-0.42055663,0.8931519,0.0
21310,0.508296,-0.40797424,-0.016456604,-0.019116212,-0.42055663,0.8931519,0.0
21311,0.508296,-0.40797424,-0.016456604,0.13487549,-0.3982544,1.0067872,0.0
21312,0.7321372,-0.25457764,-1.132904,0.13487549,-0.3982544,1.0067872,0.0
21313,0.7321372,-0.25457764,-1.132904,0.38232422,-0.4248047,1.0407715,0.0
21314,0.5574751,-0.3103485,-1.660923,0.38232422,-0.4248047,1.0407715,0.0
21315,0.5574751,-0.3103485,-1.660923,0.634021,-0.48321533,1.1044922,0.0
21316,0.51034784,-0.59614563,-1.1653862,0.634021,-0.48321533,1.1044922,0.0
21317,0.51034784,-0.59614563,-1.1653862,0.8007569,-0.3525879,1.175647,0.0
21318,0.5831318,-1.1081924,-0.21537781,0.8007569,-0.3525879,1.175647,0.0
21319,0.5831318,-1.1081924,-0.21537781,0.65844727,-0.270813,1.1639649,0.0
21320,0.55854654,-1.5121155,0.3371849,0.65844727,-0.270813,1.1639649,0.0
21321,0.55854654,-1.5121155,0.3371849,0.6988037,-0.22514649,1.170337,0.0
21322,0.48369026,-1.4782486,0.31443787,0.6988037,-0.22514649,1.170337,0.0
21323,0.48369026,-1.4782486,0.31443787,0.8591675,-0.14761963,1.1639649,0.0
21324,0.20088053,-1.0834503,0.27321625,0.8591675,-0.14761963,1.1639649,0.0
21325,0.20088053,-1.0834503,0.27321625,0.8326172,-0.035046387,1.1416626,0.0
21326,-0.27312136,-0.8730469,0.089912415,0.8326172,-0.035046387,1.1416626,0.0
21327,-0.27312136,-0.8730469,0.089912415,0.6467652,-0.31966552,1.1660889,0.0
21328,-0.6668248,-0.6057129,-0.6602707,0.6467652,-0.31966552,1.1660889,0.0
21329,-0.6668248,-0.6057129,-0.6602707,0.4598511,-0.6754395,0.9696167,0.0
21330,-0.3988409,-0.8843994,-1.2026291,0.4598511,-0.6754395,0.9696167,0.0
21331,-0.3988409,-0.8843994,-1.2026291,0.6117188,-0.5957886,1.0450195,0.0
21332,0.22041702,-1.5224991,-0.837677,0.6117188,-0.5957886,1.0450195,0.0
21333,0.22041702,-1.5224991,-0.837677,0.8241211,-0.45347902,0.92926025,0.0
21334,0.34560823,-1.2679901,-0.16770172,0.8241211,-0.45347902,0.92926025,0.0
21335,0.34560823,-1.2679901,-0.16770172,0.5214478,-0.4322388,0.94625247,0.0
21336,0.3481784,-0.82232666,0.14188766,0.5214478,-0.4322388,0.94625247,0.0
21337,0.3481784,-0.82232666,0.14188766,0.41949463,-0.29736328,0.96643066,0.0
21338,0.2710352,-0.6150894,-0.1801033,0.41949463,-0.29736328,0.96643066,0.0
21339,0.2710352,-0.6150894,-0.1801033,0.3462158,-0.1731079,1.0078491,0.0
21340,-0.33850622,-0.2503128,-0.9263954,0.3462158,-0.1731079,1.0078491,0.0
21341,-0.33850622,-0.2503128,-0.9263954,0.26125488,-0.31223145,0.95793456,0.0
21342,-0.74020195,-0.6492386,-0.97994995,0.26125488,-0.31223145,0.95793456,0.0
21343,-0.74020195,-0.6492386,-0.97994995,0.58304447,-0.31223145,1.0673218,0.0
21344,-0.44251537,-1.5387039,-0.01712799,0.58304447,-0.31223145,1.0673218,0.0
21345,-0.44251537,-1.5387039,-0.01712799,0.725354,-0.27612305,0.91864014,0.0
21346,-0.034944534,-1.5146866,0.55441284,0.725354,-0.27612305,0.91864014,0.0
21347,-0.034944534,-1.5146866,0.55441284,0.35046387,-0.25594482,0.7869507,0.0
21348,0.114463806,-1.2806091,-0.06959152,0.35046387,-0.25594482,0.7869507,0.0
21349,0.114463806,-1.2806091,-0.06959152,0.5564942,-0.2899292,0.6786255,0.0
21350,0.0546937,-1.4730377,-0.7166252,0.5564942,-0.2899292,0.6786255,0.0
21351,0.0546937,-1.4730377,-0.7166252,1.1883911,-0.23682861,0.4991455,0.0
21352,0.1110158,-1.0930252,-0.3026924,1.1883911,-0.23682861,0.4991455,0.0
21353,0.1110158,-1.0930252,-0.3026924,0.9876709,-0.18479005,0.31966552,0.0
21354,0.27124643,0.09351349,0.2838974,0.9876709,-0.18479005,0.31966552,0.0
21355,0.27124643,0.09351349,0.2838974,0.045666505,-0.09770508,0.22833252,0.0
21356,0.120110035,0.48078156,-0.05247116,0.045666505,-0.09770508,0.22833252,0.0
21357,0.120110035,0.48078156,-0.05247116,0.046728518,-0.19647217,0.3164795,0.0
21358,-0.13327026,-0.047050476,-0.29496765,0.046728518,-0.19647217,0.3164795,0.0
21359,-0.13327026,-0.047050476,-0.29496765,0.6053467,-0.30479738,0.29417726,0.0
21360,-0.0017333031,-0.1886673,0.3713379,0.6053467,-0.30479738,0.29417726,0.0
21361,-0.0017333031,-0.1886673,0.3713379,0.33028564,-0.3345337,0.3090454,0.0
21362,0.22906971,-0.02822113,0.48724365,0.33028564,-0.3345337,0.3090454,0.0
21363,0.22906971,-0.02822113,0.48724365,0.33028564,-0.3345337,0.3090454,142.0
21364,0.22906971,-0.02822113,0.48724365,0.03717041,-0.2793091,0.27399904,142.0
21365,0.1748209,-0.05758667,-0.39374924,0.03717041,-0.2793091,0.27399904,142.0
21366,0.1748209,-0.05758667,-0.39374924,0.34090576,-0.33240968,0.34833986,142.0
21367,0.016785145,-0.22279358,-0.86836624,0.34090576,-0.33240968,0.34833986,142.0
21368,0.016785145,-0.22279358,-0.86836624,0.33984375,-0.26868898,0.26444092,142.0
21369,-0.027318954,-0.46974945,-0.6867943,0.33984375,-0.26868898,0.26444092,142.0
21370,-0.027318954,-0.46974945,-0.6867943,0.51826173,-0.15823975,0.30054933,142.0
21371,-0.021635532,-0.5001068,-0.5032654,0.51826173,-0.15823975,0.30054933,142.0
21372,-0.021635532,-0.5001068,-0.5032654,0.7072998,-0.1083252,0.33134767,142.0
21373,-0.006883621,-0.12413025,-0.34822845,0.7072998,-0.1083252,0.33134767,142.0
21374,-0.006883621,-0.12413025,-0.34822845,0.6966797,-0.10513916,0.36002198,142.0
21375,0.04400444,0.24261475,-0.026870728,0.6966797,-0.10513916,0.36002198,142.0
21376,0.04400444,0.24261475,-0.026870728,0.4258667,-0.0361084,0.39082032,142.0
21377,0.04600668,0.19458008,0.18790054,0.4258667,-0.0361084,0.39082032,142.0
21378,0.04600668,0.19458008,0.18790054,0.21134034,0.013806152,0.49277344,142.0
21379,-0.023655891,-0.19791412,-0.03727722,0.21134034,0.013806152,0.49277344,142.0
21380,-0.023655891,-0.19791412,-0.03727722,0.29311523,0.04248047,0.5246338,142.0
21381,-0.084537506,-0.44470978,-0.20395279,0.29311523,0.04248047,0.5246338,142.0
21382,-0.084537506,-0.44470978,-0.20395279,0.31223145,0.083898924,0.50020754,142.0
21383,-0.13214397,-0.5005722,0.06731796,0.31223145,0.083898924,0.50020754,142.0
21384,-0.13214397,-0.5005722,0.06731796,0.2357666,0.10938721,0.50870365,142.0
21385,-0.18702602,-0.6525345,0.2645111,0.2357666,0.10938721,0.50870365,142.0
21386,-0.18702602,-0.6525345,0.2645111,0.30479738,0.08602295,0.4980835,142.0
21387,-0.16437912,-0.83265686,0.13822174,0.30479738,0.08602295,0.4980835,142.0
21388,-0.16437912,-0.83265686,0.13822174,0.5331299,0.11363526,0.45029297,142.0
21389,-0.058639526,-0.5741577,0.18209839,0.5331299,0.11363526,0.45029297,142.0
21390,-0.058639526,-0.5741577,0.18209839,0.43117675,0.16673584,0.37807617,142.0
21391,0.003686428,-9.613037E-4,0.40247726,0.43117675,0.16673584,0.37807617,142.0
21392,0.003686428,-9.613037E-4,0.40247726,0.27399904,0.18372802,0.39613038,142.0
21393,0.0077466965,0.2805786,0.3142891,0.27399904,0.18372802,0.39613038,142.0
21394,0.0077466965,0.2805786,0.3142891,0.2527588,0.21452637,0.42268068,142.0
21395,-0.018546104,0.22725677,0.048576355,0.2527588,0.21452637,0.42268068,142.0
21396,-0.018546104,0.22725677,0.048576355,0.36320803,0.21558838,0.43117675,142.0
21397,-0.092119694,0.03866577,0.13622665,0.36320803,0.21558838,0.43117675,142.0
21398,-0.092119694,0.03866577,0.13622665,0.24532472,0.2442627,0.42692873,142.0
21399,0.949461,3.294838,1.3312225,0.24532472,0.2442627,0.42692873,142.0
21400,0.949461,3.294838,1.3312225,0.12850343,0.25594482,0.4619751,142.0
21401,0.63486195,2.294548,1.1431541,0.12850343,0.25594482,0.4619751,142.0
21402,0.63486195,2.294548,1.1431541,0.20178223,0.24957275,0.47790527,142.0
21403,0.3539834,1.537468,0.68247986,0.20178223,0.24957275,0.47790527,142.0
21404,0.3539834,1.537468,0.68247986,0.4895874,0.2166504,0.4980835,142.0
21405,0.29671192,1.4120407,0.63973236,0.4895874,0.2166504,0.4980835,142.0
21406,0.29671192,1.4120407,0.63973236,0.42268068,0.22727051,0.4619751,142.0
21407,0.44148302,1.6316223,0.9089432,0.42268068,0.22727051,0.4619751,142.0
21408,0.44148302,1.6316223,0.9089432,0.21240234,0.23151855,0.5055176,142.0
21409,0.4905033,1.6646118,1.0124207,0.21240234,0.23151855,0.5055176,142.0
21410,0.4905033,1.6646118,1.0124207,0.03079834,0.23364258,0.6074707,142.0
21411,0.23179436,1.1478882,0.77233887,0.03079834,0.23364258,0.6074707,142.0
21412,0.23179436,1.1478882,0.77233887,-0.009558106,0.21877442,0.74871826,142.0
21413,-0.12561178,0.355896,0.3213501,-0.009558106,0.21877442,0.74871826,142.0
21414,-0.12561178,0.355896,0.3213501,0.12531738,0.16461182,0.8230591,142.0
21415,-0.3440075,-0.14176178,0.23365402,0.12531738,0.16461182,0.8230591,142.0
21416,-0.3440075,-0.14176178,0.23365402,0.18160401,0.07540283,0.83474123,142.0
21417,-0.37145853,-0.40615845,0.6054039,0.18160401,0.07540283,0.83474123,142.0
21418,-0.37145853,-0.40615845,0.6054039,0.14337158,-0.03186035,0.80181885,142.0
21419,-0.2801013,-0.62937164,0.79893494,0.14337158,-0.03186035,0.80181885,142.0
21420,-0.2801013,-0.62937164,0.79893494,0.052038576,-0.04991455,0.7604004,142.0
21421,-0.23265028,-0.8033905,0.57756424,0.052038576,-0.04991455,0.7604004,142.0
21422,-0.23265028,-0.8033905,0.57756424,0.16142578,-0.043542482,0.7699585,142.0
21423,-0.22724533,-0.77867126,0.20882797,0.16142578,-0.043542482,0.7699585,142.0
21424,-0.22724533,-0.77867126,0.20882797,0.29523927,-0.025488282,0.814563,142.0
21425,-0.21054363,-0.41501617,-0.084854126,0.29523927,-0.025488282,0.814563,142.0
21426,-0.21054363,-0.41501617,-0.084854126,0.32816163,-0.0010620117,0.8602295,142.0
21427,-0.14314175,-0.0037384033,-0.19054031,0.32816163,-0.0010620117,0.8602295,142.0
21428,-0.14314175,-0.0037384033,-0.19054031,0.25063476,0.05522461,0.94412845,142.0
21429,-0.09213829,0.28427887,-0.26743317,0.25063476,0.05522461,0.94412845,142.0
21430,-0.09213829,0.28427887,-0.26743317,0.050976563,0.08920898,0.9526245,142.0
21431,-0.20488739,0.18927765,-0.4662323,0.050976563,0.08920898,0.9526245,142.0
21432,-0.20488739,0.18927765,-0.4662323,0.22727051,0.07965088,1.0280274,142.0
21433,-0.523993,-0.13800812,-0.55303955,0.22727051,0.07965088,1.0280274,142.0
21434,-0.523993,-0.13800812,-0.55303955,0.66588134,0.11044922,0.8506714,142.0
21435,-0.78138924,-0.5657654,-0.21475983,0.66588134,0.11044922,0.8506714,142.0
21436,-0.78138924,-0.5657654,-0.21475983,0.27399904,-0.057348635,1.0301514,142.0
21437,-0.63960123,-1.2880707,0.6276436,0.27399904,-0.057348635,1.0301514,142.0
21438,-0.63960123,-1.2880707,0.6276436,0.41099855,-0.032922365,1.0439576,142.0
21439,-0.27199602,-1.7814941,1.5036316,0.41099855,-0.032922365,1.0439576,142.0
21440,-0.27199602,-1.7814941,1.5036316,0.47471926,0.11151123,0.9855469,142.0
21441,-0.21602201,-1.4116364,1.7366943,0.47471926,0.11151123,0.9855469,142.0
21442,-0.21602201,-1.4116364,1.7366943,0.5235718,0.14974366,0.93138427,142.0
21443,-0.5082183,-0.39424896,1.1914673,0.5235718,0.14974366,0.93138427,142.0
21444,-0.5082183,-0.39424896,1.1914673,0.1996582,-0.010620117,1.0280274,142.0
21445,-0.4919505,0.07406616,0.28676605,0.1996582,-0.010620117,1.0280274,142.0
21446,-0.4919505,0.07406616,0.28676605,-0.05522461,0.0010620117,1.0184692,142.0
21447,-0.33840942,-0.41422272,-0.5241127,-0.05522461,0.0010620117,1.0184692,142.0
21448,-0.33840942,-0.41422272,-0.5241127,0.13912354,0.13381349,0.9791748,142.0
21449,-0.59367657,-0.93818665,-0.73529434,0.13912354,0.13381349,0.9791748,142.0
21450,-0.59367657,-0.93818665,-0.73529434,0.27506104,0.06903076,0.903772,142.0
21451,-0.71850824,-0.98973083,-0.52241516,0.27506104,0.06903076,0.903772,142.0
21452,-0.71850824,-0.98973083,-0.52241516,0.22514649,0.0010620117,0.8071289,142.0
21453,-0.71850824,-0.98973083,-0.52241516,0.22514649,0.0010620117,0.8071289,142.0
21454,-0.65652037,-1.2113266,0.27277756,0.22514649,0.0010620117,0.8071289,142.0
21455,-0.65652037,-1.2113266,0.27277756,0.027612304,-0.07965088,0.60109866,142.0
21456,-0.4129238,-1.1990433,0.52160263,0.027612304,-0.07965088,0.60109866,142.0
21457,-0.4129238,-1.1990433,0.52160263,0.0063720704,-0.032922365,0.544812,142.0
21458,-0.17666435,-1.3465729,1.0500717,0.0063720704,-0.032922365,0.544812,142.0
21459,-0.17666435,-1.3465729,1.0500717,0.052038576,0.0063720704,0.4056885,142.0
21460,-0.25045013,-1.0647812,0.8830986,0.052038576,0.0063720704,0.4056885,142.0
21461,-0.25045013,-1.0647812,0.8830986,0.06265869,-0.035046387,0.36108398,142.0
21462,-0.32434702,-0.31973267,0.23930359,0.06265869,-0.035046387,0.36108398,142.0
21463,-0.32434702,-0.31973267,0.23930359,0.032922365,-0.09770508,0.32603762,142.0
21464,-0.24727058,-0.18528748,-0.11548996,0.032922365,-0.09770508,0.32603762,142.0
21465,-0.24727058,-0.18528748,-0.11548996,0.059472658,-0.07327881,0.30373535,142.0
21466,-0.1395402,-0.41082764,-0.7315788,0.059472658,-0.07327881,0.30373535,142.0
21467,-0.1395402,-0.41082764,-0.7315788,-0.09239502,-0.058410645,0.12956543,142.0
21468,-0.13575315,-0.53149414,-0.64188004,-0.09239502,-0.058410645,0.12956543,142.0
21469,-0.13575315,-0.53149414,-0.64188004,-0.06265869,-0.050976563,0.083898924,142.0
21470,-0.25585604,-0.8266983,-0.38276672,-0.06265869,-0.050976563,0.083898924,142.0
21471,-0.25585604,-0.8266983,-0.38276672,0.0180542,0.004248047,0.0063720704,142.0
21472,-0.2419653,-0.6477356,-0.19322586,0.0180542,0.004248047,0.0063720704,142.0
21473,-0.2419653,-0.6477356,-0.19322586,0.014868164,0.0,0.02442627,142.0
21474,-0.06913376,-0.14601898,0.01468277,0.014868164,0.0,0.02442627,142.0
21475,-0.06913376,-0.14601898,0.01468277,-0.17841797,0.014868164,0.016992187,142.0
21476,0.01561594,-0.0652771,-0.025718689,-0.17841797,0.014868164,0.016992187,142.0
21477,0.01561594,-0.0652771,-0.025718689,-0.12850343,0.04460449,0.029736329,142.0
21478,0.12407732,-0.13250732,-0.06487274,-0.12850343,0.04460449,0.029736329,142.0
21479,0.12407732,-0.13250732,-0.06487274,-0.0541626,0.093457036,-0.03186035,142.0
21480,0.17620277,-0.35113525,-0.031780243,-0.0541626,0.093457036,-0.03186035,142.0
21481,0.17620277,-0.35113525,-0.031780243,-0.3090454,0.0637207,-0.090270996,142.0
21482,0.07978058,-0.4792633,0.053066254,-0.3090454,0.0637207,-0.090270996,142.0
21483,0.07978058,-0.4792633,0.053066254,-0.27399904,0.13487549,-0.16036378,142.0
21484,-0.05568266,-0.37110138,0.038864136,-0.27399904,0.13487549,-0.16036378,142.0
21485,-0.05568266,-0.37110138,0.038864136,-0.41099855,0.11363526,-0.15823975,142.0
21486,-0.2695217,-0.20515442,-0.2230339,-0.41099855,0.11363526,-0.15823975,142.0
21487,-0.2695217,-0.20515442,-0.2230339,-0.35046387,0.12319336,-0.07752686,142.0
21488,-0.44060516,0.36476135,-0.08119583,-0.35046387,0.12319336,-0.07752686,142.0
21489,-0.44060516,0.36476135,-0.08119583,0.32603762,0.1901001,-0.25594482,142.0
21490,-0.09574604,0.9791641,0.3857727,0.32603762,0.1901001,-0.25594482,142.0
21491,-0.09574604,0.9791641,0.3857727,-0.3727661,0.16036378,-0.25806886,142.0
21492,0.33917475,0.6559906,0.5135002,-0.3727661,0.16036378,-0.25806886,142.0
21493,0.33917475,0.6559906,0.5135002,-0.31116945,0.20390625,-0.16673584,142.0
21494,0.36362505,-0.10877991,0.2659607,-0.31116945,0.20390625,-0.16673584,142.0
21495,0.36362505,-0.10877991,0.2659607,-0.25063476,0.18585205,-0.19434814,142.0
21496,0.24022865,-0.65950775,-0.08364105,-0.25063476,0.18585205,-0.19434814,142.0
21497,0.24022865,-0.65950775,-0.08364105,-0.10407715,0.14974366,-0.20390625,142.0
21498,0.33773994,-1.1036224,-0.14668655,-0.10407715,0.14974366,-0.20390625,142.0
21499,0.33773994,-1.1036224,-0.14668655,0.24213867,0.10301514,-0.31010744,142.0
21500,0.506166,-1.1118622,0.22270203,0.24213867,0.10301514,-0.31010744,142.0
21501,0.506166,-1.1118622,0.22270203,0.18479005,0.2803711,-0.52888185,142.0
21502,0.27620935,-0.73127747,0.80000305,0.18479005,0.2803711,-0.52888185,142.0
21503,0.27620935,-0.73127747,0.80000305,-0.20072022,0.4609131,-0.40250245,142.0
21504,-0.17893505,-0.3924408,0.64149094,-0.20072022,0.4609131,-0.40250245,142.0
21505,-0.17893505,-0.3924408,0.64149094,-0.07115479,0.42374268,-0.39294434,142.0
21506,-0.3569908,0.08918762,-0.589798,-0.07115479,0.42374268,-0.39294434,142.0
21507,-0.3569908,0.08918762,-0.589798,0.06796875,0.2899292,-0.27506104,142.0
21508,-0.0076389313,0.8981781,-1.645153,0.06796875,0.2899292,-0.27506104,142.0
21509,-0.0076389313,0.8981781,-1.645153,-0.07752686,0.10407715,-0.35046387,142.0
21510,0.6922531,1.3520889,-1.337925,-0.07752686,0.10407715,-0.35046387,142.0
21511,0.6922531,1.3520889,-1.337925,-0.7678345,0.3706421,-0.30161133,142.0
21512,0.8684387,0.7247009,-0.22430801,-0.7678345,0.3706421,-0.30161133,142.0
21513,0.8684387,0.7247009,-0.22430801,-1.3445069,0.6552612,-0.43861085,142.0
21514,-0.86568594,0.53382874,1.2159767,-1.3445069,0.6552612,-0.43861085,142.0
21515,-0.86568594,0.53382874,1.2159767,-0.7784546,1.260608,-1.089624,142.0
21516,-2.3297682,0.40863037,1.5958023,-0.7784546,1.260608,-1.089624,142.0
21517,-2.3297682,0.40863037,1.5958023,-1.3413209,0.41524658,-0.7062378,142.0
21518,-1.497982,-0.35391998,0.78710556,-1.3413209,0.41524658,-0.7062378,142.0
21519,-1.497982,-0.35391998,0.78710556,-0.2166504,0.49277344,-0.6042847,142.0
21520,-0.354599,0.58223724,0.9338341,-0.2166504,0.49277344,-0.6042847,142.0
21521,-0.354599,0.58223724,0.9338341,-0.23045655,0.35683593,-0.5692383,142.0
21522,0.08957529,2.016693,1.6433296,-0.23045655,0.35683593,-0.5692383,142.0
21523,0.08957529,2.016693,1.6433296,-0.09133301,0.4056885,-0.57242435,142.0
21524,0.13024187,1.5440063,1.3902626,-0.09133301,0.4056885,-0.57242435,142.0
21525,0.13024187,1.5440063,1.3902626,0.21452637,-0.027612304,-0.29523927,142.0
21526,0.29306078,0.09273529,0.35906982,0.21452637,-0.027612304,-0.29523927,142.0
21527,0.29306078,0.09273529,0.35906982,0.40993652,-0.22514649,-0.26444092,142.0
21528,0.8640876,-0.84762573,-0.43286133,0.40993652,-0.22514649,-0.26444092,142.0
21529,0.8640876,-0.84762573,-0.43286133,0.32922363,-0.14974366,-0.2262085,142.0
21530,1.4326277,-0.8723297,-0.100479126,0.32922363,-0.14974366,-0.2262085,142.0
21531,1.4326277,-0.8723297,-0.100479126,0.0998291,0.36320803,-0.2814331,142.0
21532,1.2820153,-0.62597656,0.59744644,0.0998291,0.36320803,-0.2814331,142.0
21533,1.2820153,-0.62597656,0.59744644,-0.55543214,0.6552612,-0.24001466,142.0
21534,0.5966573,-0.7546997,0.68740463,-0.55543214,0.6552612,-0.24001466,142.0
21535,0.5966573,-0.7546997,0.68740463,-0.5171997,0.6786255,-0.3058594,142.0
21536,0.01824379,-0.8267822,0.19629669,-0.5171997,0.6786255,-0.3058594,142.0
21537,0.01824379,-0.8267822,0.19629669,-0.35152587,0.83898926,-0.3993164,142.0
21538,-0.6272993,-0.36773682,-0.40155792,-0.35152587,0.83898926,-0.3993164,142.0
21539,-0.6272993,-0.36773682,-0.40155792,-0.51188964,1.1246704,-0.30054933,142.0
21540,-1.4090295,-0.10567474,-0.5958214,-0.51188964,1.1246704,-0.30054933,142.0
21541,-1.4090295,-0.10567474,-0.5958214,-0.7412842,0.98448485,-0.38551027,142.0
21542,-1.7747087,-0.21460724,-0.5222626,-0.7412842,0.98448485,-0.38551027,142.0
21543,-1.7747087,-0.21460724,-0.5222626,-0.69986576,0.7848267,-0.56817627,142.0
21544,-1.6995034,0.11911011,-0.84526443,-0.69986576,0.7848267,-0.56817627,142.0
21545,-1.6995034,0.11911011,-0.84526443,-1.0439576,0.5331299,-0.6117188,142.0
21546,-1.4827352,0.9402466,-1.6419373,-1.0439576,0.5331299,-0.6117188,142.0
21547,-1.4827352,0.9402466,-1.6419373,-1.7640015,0.14868164,-0.7720825,142.0
21548,-1.1578555,1.6777573,-2.4898682,-1.7640015,0.14868164,-0.7720825,142.0
21549,-1.1578555,1.6777573,-2.4898682,-2.628479,-0.33878174,-0.81031495,142.0
21550,-0.61141634,1.9369202,-3.1823997,-2.628479,-0.33878174,-0.81031495,142.0
21551,-0.61141634,1.9369202,-3.1823997,-3.2752442,-0.79226077,-0.89846194,142.0
21552,0.14588904,1.620018,-3.508175,-3.2752442,-0.79226077,-0.89846194,142.0
21553,0.14588904,1.620018,-3.508175,-2.9523926,-1.1958252,-1.3317627,142.0
21554,0.14588904,1.620018,-3.508175,-2.9523926,-1.1958252,-1.3317627,142.0
21555,1.1610472,1.5973206,-2.929535,-2.9523926,-1.1958252,-1.3317627,142.0
21556,1.1610472,1.5973206,-2.929535,-2.7537963,-1.183081,-1.6705445,142.0
21557,2.3969898,2.5373993,-1.2404938,-2.7537963,-1.183081,-1.6705445,142.0
21558,2.3969898,2.5373993,-1.2404938,-3.5991578,-0.93775636,-1.171399,142.0
21559,3.5838642,0.91217804,0.39131927,-3.5991578,-0.93775636,-1.171399,142.0
21560,3.5838642,0.91217804,0.39131927,-2.9513307,-0.49489745,0.121069334,142.0
21561,4.0084248,-3.5572433,1.5731964,-2.9513307,-0.49489745,0.121069334,142.0
21562,4.0084248,-3.5572433,1.5731964,-2.076233,0.41312256,-0.19328614,142.0
21563,2.7791276,-5.2756042,2.3549194,-2.076233,0.41312256,-0.19328614,142.0
21564,2.7791276,-5.2756042,2.3549194,-1.2489258,0.55543214,-0.17947999,142.0
21565,0.11590433,-3.0529022,2.6274261,-1.2489258,0.55543214,-0.17947999,142.0
21566,0.11590433,-3.0529022,2.6274261,-0.8358032,0.54693604,-0.32391357,142.0
21567,-2.3509169,-0.040901184,1.848587,-0.8358032,0.54693604,-0.32391357,142.0
21568,-2.3509169,-0.040901184,1.848587,-1.7735596,0.09133301,-0.35577393,142.0
21569,-3.0172448,1.1930237,-0.71055984,-1.7735596,0.09133301,-0.35577393,142.0
21570,-3.0172448,1.1930237,-0.71055984,-2.270581,-0.22302246,-0.22408448,142.0
21571,-2.2994404,1.1052475,-3.49683,-2.270581,-0.22302246,-0.22408448,142.0
21572,-2.2994404,1.1052475,-3.49683,-1.6524903,-0.27293703,-0.42268068,142.0
21573,-1.3611465,1.0383987,-4.3498344,-1.6524903,-0.27293703,-0.42268068,142.0
21574,-1.3611465,1.0383987,-4.3498344,-1.2807862,-0.29948732,-0.059472658,142.0
21575,-0.17225456,-0.21497345,-2.70969,-1.2807862,-0.29948732,-0.059472658,142.0
21576,-0.17225456,-0.21497345,-2.70969,-1.2510499,-0.3727661,0.1720459,142.0
21577,1.1814346,-2.8892899,-0.043678284,-1.2510499,-0.3727661,0.1720459,142.0
21578,1.1814346,-2.8892899,-0.043678284,-1.2892822,-0.13487549,-0.11469727,142.0
21579,1.8401432,-4.555954,1.4880791,-1.2892822,-0.13487549,-0.11469727,142.0
21580,1.8401432,-4.555954,1.4880791,-0.66481936,-0.028674318,-0.0053100586,142.0
21581,1.5467973,-3.1350555,1.4399872,-0.66481936,-0.028674318,-0.0053100586,142.0
21582,1.5467973,-3.1350555,1.4399872,-0.7147339,-0.24851075,0.022302246,142.0
21583,0.89391947,-0.64273834,0.6260376,-0.7147339,-0.24851075,0.022302246,142.0
21584,0.89391947,-0.64273834,0.6260376,-0.6966797,-0.34940186,0.14868164,142.0
21585,0.58420277,-0.2019577,-0.17139816,-0.6966797,-0.34940186,0.14868164,142.0
21586,0.58420277,-0.2019577,-0.17139816,0.12956543,-0.24107666,-0.020178223,142.0
21587,0.4472084,-0.51259613,-0.5029259,0.12956543,-0.24107666,-0.020178223,142.0
21588,0.4472084,-0.51259613,-0.5029259,0.38232422,-0.30479738,0.004248047,142.0
21589,0.14522982,-0.12315369,-0.22634125,0.38232422,-0.30479738,0.004248047,142.0
21590,0.14522982,-0.12315369,-0.22634125,0.813501,-0.2357666,-0.028674318,142.0
21591,0.5638156,-0.21453857,0.414505,0.813501,-0.2357666,-0.028674318,142.0
21592,0.5638156,-0.21453857,0.414505,1.6949707,0.12956543,-0.09133301,142.0
21593,1.1237087,-0.15744781,0.6405525,1.6949707,0.12956543,-0.09133301,142.0
21594,1.1237087,-0.15744781,0.6405525,0.7720825,-0.2442627,0.020178223,142.0
21595,0.49840546,0.7456436,0.48659897,0.7720825,-0.2442627,0.020178223,142.0
21596,0.49840546,0.7456436,0.48659897,0.9197022,-0.27399904,0.20921631,142.0
21597,-0.5955143,1.4630585,0.46375275,0.9197022,-0.27399904,0.20921631,142.0
21598,-0.5955143,1.4630585,0.46375275,0.7540283,-0.36002198,0.30054933,142.0
21599,-1.2474933,1.3278198,0.2670822,0.7540283,-0.36002198,0.30054933,142.0
21600,-1.2474933,1.3278198,0.2670822,0.7604004,-0.40356445,0.31329346,142.0
21601,-1.203073,0.46372223,-0.50161743,0.7604004,-0.40356445,0.31329346,142.0
21602,-1.203073,0.46372223,-0.50161743,0.76464844,-0.3812622,0.33134767,142.0
21603,-0.63889885,-0.44417572,-1.3557625,0.76464844,-0.3812622,0.33134767,142.0
21604,-0.63889885,-0.44417572,-1.3557625,0.7455322,-0.24957275,0.24001466,142.0
21605,-0.09024477,-0.6856613,-1.3593292,0.7455322,-0.24957275,0.24001466,142.0
21606,-0.09024477,-0.6856613,-1.3593292,0.5097656,-0.26550293,0.13381349,142.0
21607,0.050729275,0.01525116,-0.32906342,0.5097656,-0.26550293,0.13381349,142.0
21608,0.050729275,0.01525116,-0.32906342,0.40462646,-0.33984375,0.2166504,142.0
21609,-0.2351613,0.7819519,0.58974075,0.40462646,-0.33984375,0.2166504,142.0
21610,-0.2351613,0.7819519,0.58974075,0.45666504,-0.3971924,0.29099122,142.0
21611,-0.41160345,0.64266205,0.583107,0.45666504,-0.3971924,0.29099122,142.0
21612,-0.41160345,0.64266205,0.583107,0.45878908,-0.4088745,0.24638672,142.0
21613,-0.11009312,-0.06266785,0.1748352,0.45878908,-0.4088745,0.24638672,142.0
21614,-0.11009312,-0.06266785,0.1748352,0.36851808,-0.47365722,0.14337158,142.0
21615,0.188488,-0.47898102,-0.24290848,0.36851808,-0.47365722,0.14337158,142.0
21616,0.188488,-0.47898102,-0.24290848,0.270813,-0.4970215,-0.021240234,142.0
21617,0.14288044,-0.41509247,-0.5195961,0.270813,-0.4970215,-0.021240234,142.0
21618,0.14288044,-0.41509247,-0.5195961,0.23045655,-0.45029297,-0.13699952,142.0
21619,0.046457767,-0.11011505,-0.4287033,0.23045655,-0.45029297,-0.13699952,142.0
21620,0.046457767,-0.11011505,-0.4287033,0.31010744,-0.45772704,-0.22833252,142.0
21621,0.12194395,0.3440857,-0.23929977,0.31010744,-0.45772704,-0.22833252,142.0
21622,0.12194395,0.3440857,-0.23929977,0.36639404,-0.36427003,-0.29948732,142.0
21623,0.15769911,0.7712631,-0.17128754,0.36639404,-0.36427003,-0.29948732,142.0
21624,0.15769911,0.7712631,-0.17128754,0.36108398,-0.362146,-0.24638672,142.0
21625,0.06352472,0.7782669,-0.37265015,0.36108398,-0.362146,-0.24638672,142.0
21626,0.06352472,0.7782669,-0.37265015,0.26868898,-0.31223145,-0.22408448,142.0
21627,0.07915211,0.61447144,-0.73358154,0.26868898,-0.31223145,-0.22408448,142.0
21628,0.07915211,0.61447144,-0.73358154,0.16142578,-0.14974366,-0.26656494,142.0
21629,0.19956398,0.53273773,-0.8922844,0.16142578,-0.14974366,-0.26656494,142.0
21630,0.19956398,0.53273773,-0.8922844,0.016992187,0.009558106,-0.26868898,142.0
21631,0.34938478,0.24281311,-0.7271347,0.016992187,0.009558106,-0.26868898,142.0
21632,0.34938478,0.24281311,-0.7271347,-0.004248047,0.15080567,-0.3090454,142.0
21633,0.5637975,-0.0057144165,-0.2755165,-0.004248047,0.15080567,-0.3090454,142.0
21634,0.5637975,-0.0057144165,-0.2755165,-0.06159668,0.24957275,-0.40250245,142.0
21635,0.66845703,0.19528198,0.22230911,-0.06159668,0.24957275,-0.40250245,142.0
21636,0.66845703,0.19528198,0.22230911,-0.06265869,0.27399904,-0.44710693,142.0
21637,0.6237793,0.40636444,0.6207428,-0.06265869,0.27399904,-0.44710693,142.0
21638,0.6237793,0.40636444,0.6207428,0.08602295,0.22196046,-0.4704712,142.0
21639,0.5425415,0.42234802,0.7896843,0.08602295,0.22196046,-0.4704712,142.0
21640,0.5425415,0.42234802,0.7896843,0.17629395,0.16992188,-0.5235718,142.0
21641,0.39440918,0.50372314,0.5311966,0.17629395,0.16992188,-0.5235718,142.0
21642,0.39440918,0.50372314,0.5311966,0.14124756,0.13062744,-0.540564,142.0
21643,0.12988281,0.6289902,-0.0082092285,0.14124756,0.13062744,-0.540564,142.0
21644,0.12988281,0.6289902,-0.0082092285,0.08602295,0.16036378,-0.5299439,142.0
21645,-0.091284275,0.62490845,-0.45811844,0.08602295,0.16036378,-0.5299439,142.0
21646,-0.091284275,0.62490845,-0.45811844,-0.011682129,0.21983643,-0.54906005,142.0
21647,-0.0893116,0.5244751,-0.5646057,-0.011682129,0.21983643,-0.54906005,142.0
21648,-0.0893116,0.5244751,-0.5646057,-0.093457036,0.3090454,-0.544812,142.0
21649,0.1069808,0.48234558,-0.2901497,-0.093457036,0.3090454,-0.544812,142.0
21650,0.1069808,0.48234558,-0.2901497,-0.16673584,0.4056885,-0.52888185,142.0
21651,0.3087902,0.550087,0.058746338,-0.16673584,0.4056885,-0.52888185,142.0
21652,0.3087902,0.550087,0.058746338,-0.20496826,0.49489745,-0.4980835,142.0
21653,0.26067972,0.7876816,0.2514267,-0.20496826,0.49489745,-0.4980835,142.0
21654,0.26067972,0.7876816,0.2514267,-0.10407715,0.542688,-0.44604492,142.0
21655,0.071214676,0.8614578,0.4386673,-0.10407715,0.542688,-0.44604492,142.0
21656,0.071214676,0.8614578,0.4386673,-0.04248047,0.52038574,-0.36002198,142.0
21657,0.22624683,0.5222244,0.6655731,-0.04248047,0.52038574,-0.36002198,142.0
21658,0.22624683,0.5222244,0.6655731,-0.107263185,0.5649902,-0.29417726,142.0
21659,0.52434444,0.18431091,0.6419678,-0.107263185,0.5649902,-0.29417726,142.0
21660,0.52434444,0.18431091,0.6419678,-0.1709839,0.6531372,-0.31860352,142.0
21661,0.24355984,0.2734146,0.383255,-0.1709839,0.6531372,-0.31860352,142.0
21662,0.24355984,0.2734146,0.383255,0.052038576,0.6085327,-0.32922363,142.0
21663,-0.2216196,0.46678162,0.4160385,0.052038576,0.6085327,-0.32922363,142.0
21664,-0.2216196,0.46678162,0.4160385,0.1178833,0.54693604,-0.29205322,142.0
21665,0.0867672,0.19172668,0.86167526,0.1178833,0.54693604,-0.29205322,142.0
21666,0.0867672,0.19172668,0.86167526,-0.021240234,0.5713623,-0.2516968,142.0
21667,0.6799607,-0.04361725,1.0157318,-0.021240234,0.5713623,-0.2516968,142.0
21668,0.6799607,-0.04361725,1.0157318,-0.29417726,0.72004396,-0.3802002,142.0
21669,0.6799607,-0.04361725,1.0157318,-0.29417726,0.72004396,-0.3802002,131.0
21670,0.42598772,0.17188263,0.6457672,-0.29417726,0.72004396,-0.3802002,131.0
21671,0.42598772,0.17188263,0.6457672,-0.31860352,0.69986576,-0.35471192,131.0
21672,-0.32417536,0.34829712,0.55765533,-0.31860352,0.69986576,-0.35471192,131.0
21673,-0.32417536,0.34829712,0.55765533,0.16885987,0.52888185,-0.42374268,131.0
21674,-0.1843648,0.064208984,1.0772285,0.16885987,0.52888185,-0.42374268,131.0
21675,-0.1843648,0.064208984,1.0772285,-0.052038576,0.44179687,-0.36002198,131.0
21676,0.5379448,-0.06642914,1.1570091,-0.052038576,0.44179687,-0.36002198,131.0
21677,0.5379448,-0.06642914,1.1570091,-0.28461915,0.72641605,-0.5320679,131.0
21678,0.25047302,0.11576843,0.525753,-0.28461915,0.72641605,-0.5320679,131.0
21679,0.25047302,0.11576843,0.525753,-0.0541626,0.54375,-0.50445557,131.0
21680,-0.6300049,0.2092514,0.043685913,-0.0541626,0.54375,-0.50445557,131.0
21681,-0.6300049,0.2092514,0.043685913,0.06796875,0.3451538,-0.57242435,131.0
21682,-0.8387451,0.30773163,-0.003955841,0.06796875,0.3451538,-0.57242435,131.0
21683,-0.8387451,0.30773163,-0.003955841,0.32497558,0.2793091,-0.5479981,131.0
21684,-0.62063026,0.6744919,0.029659271,0.32497558,0.2793091,-0.5479981,131.0
21685,-0.62063026,0.6744919,0.029659271,0.20390625,0.3069214,-0.5713623,131.0
21686,-0.63646984,1.259407,-0.24878311,0.20390625,0.3069214,-0.5713623,131.0
21687,-0.63646984,1.259407,-0.24878311,0.012744141,0.21027832,-0.61702883,131.0
21688,-0.6288171,1.5430832,-0.57489395,0.012744141,0.21027832,-0.61702883,131.0
21689,-0.6288171,1.5430832,-0.57489395,-0.18585205,0.10938721,-0.5883545,131.0
21690,-0.22258472,1.2212677,-0.6531906,-0.18585205,0.10938721,-0.5883545,131.0
21691,-0.22258472,1.2212677,-0.6531906,-0.271875,0.12850343,-0.62552494,131.0
21692,0.2618127,0.66672516,-0.5443039,-0.271875,0.12850343,-0.62552494,131.0
21693,0.2618127,0.66672516,-0.5443039,-0.22196046,0.21877442,-0.66588134,131.0
21694,0.51378345,0.37391663,-0.2615204,-0.22196046,0.21877442,-0.66588134,131.0
21695,0.51378345,0.37391663,-0.2615204,-0.07327881,0.42161867,-0.59260255,131.0
21696,0.44368076,0.42923737,0.13625336,-0.07327881,0.42161867,-0.59260255,131.0
21697,0.44368076,0.42923737,0.13625336,-0.12000733,0.5171997,-0.5957886,131.0
21698,0.17281532,0.7056198,0.4018364,-0.12000733,0.5171997,-0.5957886,131.0
21699,0.17281532,0.7056198,0.4018364,-0.19116211,0.5586182,-0.56605226,131.0
21700,-0.11005068,0.7776413,0.5564537,-0.19116211,0.5586182,-0.56605226,131.0
21701,-0.11005068,0.7776413,0.5564537,-0.26762697,0.541626,-0.5235718,131.0
21702,-0.25710773,0.6278,0.7035713,-0.26762697,0.541626,-0.5235718,131.0
21703,-0.25710773,0.6278,0.7035713,-0.24532472,0.4885254,-0.5076416,131.0
21704,-0.14793491,0.55498505,0.8437767,-0.24532472,0.4885254,-0.5076416,131.0
21705,-0.14793491,0.55498505,0.8437767,-0.2538208,0.46834716,-0.44179687,131.0
21706,0.06877375,0.42943573,0.8964195,-0.2538208,0.46834716,-0.44179687,131.0
21707,0.06877375,0.42943573,0.8964195,-0.36745605,0.5012695,-0.44073486,131.0
21708,0.057753086,0.19862366,0.85079193,-0.36745605,0.5012695,-0.44073486,131.0
21709,0.057753086,0.19862366,0.85079193,-0.22302246,0.5246338,-0.3982544,131.0
21710,-0.09583855,0.13594818,0.820137,-0.22302246,0.5246338,-0.3982544,131.0
21711,-0.09583855,0.13594818,0.820137,-0.1901001,0.5161377,-0.3706421,131.0
21712,-0.10046244,0.29727173,0.7881546,-0.1901001,0.5161377,-0.3706421,131.0
21713,-0.10046244,0.29727173,0.7881546,-0.22514649,0.5055176,-0.3451538,131.0
21714,-0.031053543,0.42075348,0.7773247,-0.22514649,0.5055176,-0.3451538,131.0
21715,-0.031053543,0.42075348,0.7773247,-0.24744873,0.48427734,-0.3069214,131.0
21716,-0.024867058,0.4034958,0.8674774,-0.24744873,0.48427734,-0.3069214,131.0
21717,-0.024867058,0.4034958,0.8674774,-0.32603762,0.4364868,-0.28568116,131.0
21718,-0.10722256,0.29235077,0.8702011,-0.32603762,0.4364868,-0.28568116,131.0
21719,-0.10722256,0.29235077,0.8702011,-0.4704712,0.3536499,-0.2516968,131.0
21720,-0.1985588,0.066596985,0.57725143,-0.4704712,0.3536499,-0.2516968,131.0
21721,-0.1985588,0.066596985,0.57725143,-0.52675784,0.3164795,-0.21558838,131.0
21722,-0.24998474,-0.25125122,0.29759216,-0.52675784,0.3164795,-0.21558838,131.0
21723,-0.24998474,-0.25125122,0.29759216,-0.41843262,0.2177124,-0.18266602,131.0
21724,-0.20903301,-0.3165512,0.39782715,-0.41843262,0.2177124,-0.18266602,131.0
21725,-0.20903301,-0.3165512,0.39782715,-0.29523927,0.16461182,-0.15611573,131.0
21726,-0.18568325,-0.03868103,0.50867844,-0.29523927,0.16461182,-0.15611573,131.0
21727,-0.18568325,-0.03868103,0.50867844,-0.3982544,0.14761963,-0.1901001,131.0
21728,-0.091454506,-0.14226532,0.31632996,-0.3982544,0.14761963,-0.1901001,131.0
21729,-0.091454506,-0.14226532,0.31632996,-0.28568116,0.13381349,-0.12531738,131.0
21730,0.17516422,-0.7137375,0.18365479,-0.28568116,0.13381349,-0.12531738,131.0
21731,0.17516422,-0.7137375,0.18365479,0.020178223,0.22089843,-0.04460449,131.0
21732,0.09204769,-0.5112152,0.374218,0.020178223,0.22089843,-0.04460449,131.0
21733,0.09204769,-0.5112152,0.374218,0.19647217,0.22196046,-0.14018555,131.0
21734,-0.29300022,0.42728424,0.51067734,0.19647217,0.22196046,-0.14018555,131.0
21735,-0.29300022,0.42728424,0.51067734,-0.1709839,0.1263794,-0.12850343,131.0
21736,-0.52443933,1.0469437,0.024055481,-0.1709839,0.1263794,-0.12850343,131.0
21737,-0.52443933,1.0469437,0.024055481,-0.4619751,0.007434082,-0.20496826,131.0
21738,-0.47179794,0.8398895,-0.8390579,-0.4619751,0.007434082,-0.20496826,131.0
21739,-0.47179794,0.8398895,-0.8390579,-0.5649902,-0.0021240234,-0.22939454,131.0
21740,-0.13873005,-0.20477295,-0.91999054,-0.5649902,-0.0021240234,-0.22939454,131.0
21741,-0.13873005,-0.20477295,-0.91999054,-0.5150757,0.038232423,-0.3079834,131.0
21742,0.065919876,-1.1122208,0.10189819,-0.5150757,0.038232423,-0.3079834,131.0
21743,0.065919876,-1.1122208,0.10189819,-0.5150757,-0.016992187,-0.48321533,131.0
21744,0.00212574,-0.97865295,0.9159889,-0.5150757,-0.016992187,-0.48321533,131.0
21745,0.00212574,-0.97865295,0.9159889,-0.6616333,-0.04248047,-0.5522461,131.0
21746,0.026651382,-0.23020172,0.5368347,-0.6616333,-0.04248047,-0.5522461,131.0
21747,0.026651382,-0.23020172,0.5368347,-0.6180908,-0.0053100586,-0.541626,131.0
21748,0.20694113,0.19302368,-0.4326172,-0.6180908,-0.0053100586,-0.541626,131.0
21749,0.20694113,0.19302368,-0.4326172,-0.5479981,0.06903076,-0.4959595,131.0
21750,0.14970827,0.30133057,-0.96502686,-0.5479981,0.06903076,-0.4959595,131.0
21751,0.14970827,0.30133057,-0.96502686,-0.59047854,0.17841797,-0.63720703,131.0
21752,-0.033370495,0.5057144,-0.6248169,-0.59047854,0.17841797,-0.63720703,131.0
21753,-0.033370495,0.5057144,-0.6248169,-0.40037844,0.25806886,-0.71367186,131.0
21754,0.024560928,0.4575653,0.105091095,-0.40037844,0.25806886,-0.71367186,131.0
21755,0.024560928,0.4575653,0.105091095,-0.452417,0.27399904,-0.7147339,131.0
21756,0.043904305,0.0084991455,0.44404602,-0.452417,0.27399904,-0.7147339,131.0
21757,0.043904305,0.0084991455,0.44404602,-0.5872925,0.35152587,-0.80394286,131.0
21758,-0.2399621,-0.3326187,0.42730713,-0.5872925,0.35152587,-0.80394286,131.0
21759,-0.2399621,-0.3326187,0.42730713,-0.7625244,0.4163086,-0.8772217,131.0
21760,-0.5555558,-0.19911194,0.4105835,-0.7625244,0.4163086,-0.8772217,131.0
21761,-0.5555558,-0.19911194,0.4105835,-0.7763306,0.45029297,-0.92926025,131.0
21762,-0.51235247,0.19528961,0.2580452,-0.7763306,0.45029297,-0.92926025,131.0
21763,-0.51235247,0.19528961,0.2580452,-0.6945557,0.52250975,-0.95793456,131.0
21764,-0.23745775,0.58491516,-0.019432068,-0.6945557,0.52250975,-0.95793456,131.0
21765,-0.23745775,0.58491516,-0.019432068,-0.6690674,0.6435791,-0.991919,131.0
21766,-0.018908978,0.7956314,0.080646515,-0.6690674,0.6435791,-0.991919,131.0
21767,-0.018908978,0.7956314,0.080646515,-0.6637573,0.67225343,-1.0227174,131.0
21768,0.04395485,0.7943878,0.47738647,-0.6637573,0.67225343,-1.0227174,131.0
21769,0.04395485,0.7943878,0.47738647,-0.60216063,0.7327881,-1.0620117,131.0
21770,-0.07467508,0.62579346,0.63212967,-0.60216063,0.7327881,-1.0620117,131.0
21771,-0.07467508,0.62579346,0.63212967,-0.65844727,0.82730716,-1.1140503,131.0
21772,-0.33731556,0.3328476,0.3158722,-0.65844727,0.82730716,-1.1140503,131.0
21773,-0.33731556,0.3328476,0.3158722,-0.6988037,0.9674927,-1.1597168,131.0
21774,-0.60841465,0.15789032,0.0890007,-0.6988037,0.9674927,-1.1597168,131.0
21775,-0.60841465,0.15789032,0.0890007,-0.5065796,1.0588257,-1.2000732,131.0
21776,-0.643775,0.05680847,0.55916595,-0.5065796,1.0588257,-1.2000732,131.0
21777,-0.643775,0.05680847,0.55916595,-0.16461182,1.1129884,-1.2244996,131.0
21778,-0.643775,0.05680847,0.55916595,-0.16461182,1.1129884,-1.2244996,123.0
21779,-0.56326246,0.16825867,1.2770576,-0.16461182,1.1129884,-1.2244996,123.0
21780,-0.56326246,0.16825867,1.2770576,-0.09133301,1.2160034,-1.4369019,123.0
21781,-0.6372433,0.52565765,1.3516731,-0.09133301,1.2160034,-1.4369019,123.0
21782,-0.6372433,0.52565765,1.3516731,-0.3462158,1.3689331,-1.5016845,123.0
21783,-0.8259201,0.72649384,0.82212067,-0.3462158,1.3689331,-1.5016845,123.0
21784,-0.8259201,0.72649384,0.82212067,-0.5384399,1.4815063,-1.5335449,123.0
21785,-0.9807801,0.74681854,0.71526337,-0.5384399,1.4815063,-1.5335449,123.0
21786,-0.9807801,0.74681854,0.71526337,-0.2527588,1.5208008,-1.5940796,123.0
21787,-0.9545703,0.70022583,1.271965,-0.2527588,1.5208008,-1.5940796,123.0
21788,-0.9545703,0.70022583,1.271965,0.0,1.5547851,-1.7055908,123.0
21789,-0.98002577,0.67445374,1.5260429,0.0,1.5547851,-1.7055908,123.0
21790,-0.98002577,0.67445374,1.5260429,-0.26868898,1.719397,-1.8840088,123.0
21791,-1.2871823,0.69779205,1.0660973,-0.26868898,1.719397,-1.8840088,123.0
21792,-1.2871823,0.69779205,1.0660973,-0.18160401,1.719397,-1.9477295,123.0
21793,-1.6275244,0.82328796,0.6557846,-0.18160401,1.719397,-1.9477295,123.0
21794,-1.6275244,0.82328796,0.6557846,-0.059472658,1.7055908,-1.9339234,123.0
21795,-1.892498,1.3026047,0.7706833,-0.059472658,1.7055908,-1.9339234,123.0
21796,-1.892498,1.3026047,0.7706833,0.22408448,1.7268311,-1.9466676,123.0
21797,-2.2364595,1.9170227,1.0484314,0.22408448,1.7268311,-1.9466676,123.0
21798,-2.2364595,1.9170227,1.0484314,0.26975098,1.7438233,-2.0454347,123.0
21799,-2.6257887,1.9161758,1.1045647,0.26975098,1.7438233,-2.0454347,123.0
21800,-2.6257887,1.9161758,1.1045647,0.078588866,1.5664673,-2.1070313,123.0
21801,-2.8001184,1.4365387,1.0577621,0.078588866,1.5664673,-2.1070313,123.0
21802,-2.8001184,1.4365387,1.0577621,-0.045666505,1.454956,-2.1250856,123.0
21803,-2.8284125,1.4759521,1.3999939,-0.045666505,1.454956,-2.1250856,123.0
21804,-2.8284125,1.4759521,1.3999939,-0.10938721,1.2722901,-2.3162477,123.0
21805,-2.6881819,2.1673813,2.083107,-0.10938721,1.2722901,-2.3162477,123.0
21806,-2.6881819,2.1673813,2.083107,-0.5607422,1.0662597,-2.3651001,123.0
21807,-2.1316733,2.2465286,2.1581612,-0.5607422,1.0662597,-2.3651001,123.0
21808,-2.1316733,2.2465286,2.1581612,-0.9866089,0.96430665,-2.084729,123.0
21809,-1.5001996,0.85324097,1.1610374,-0.9866089,0.96430665,-2.084729,123.0
21810,-1.5001996,0.85324097,1.1610374,-0.5363159,1.1554688,-1.8617066,123.0
21811,-1.7004161,-0.674263,0.051315308,-0.5363159,1.1554688,-1.8617066,123.0
21812,-1.7004161,-0.674263,0.051315308,0.36320803,1.4135376,-1.7714356,123.0
21813,-2.708282,-0.18289185,-0.16075134,0.36320803,1.4135376,-1.7714356,123.0
21814,-2.708282,-0.18289185,-0.16075134,0.32178956,1.0917481,-1.9604737,123.0
21815,-3.1218138,1.648323,0.484375,0.32178956,1.0917481,-1.9604737,123.0
21816,-3.1218138,1.648323,0.484375,-0.43011475,0.7593384,-2.1303957,123.0
21817,-2.0494285,1.656723,1.2846184,-0.43011475,0.7593384,-2.1303957,123.0
21818,-2.0494285,1.656723,1.2846184,-0.3812622,0.63933104,-1.7438233,123.0
21819,-0.75830483,0.21744537,1.2484093,-0.3812622,0.63933104,-1.7438233,123.0
21820,-0.75830483,0.21744537,1.2484093,0.63933104,1.0248413,-1.5792115,123.0
21821,-1.0653353,1.3509216,0.16661072,0.63933104,1.0248413,-1.5792115,123.0
21822,-1.0653353,1.3509216,0.16661072,0.21027832,0.9759888,-2.0082643,123.0
21823,-2.319212,4.201561,-0.66059494,0.21027832,0.9759888,-2.0082643,123.0
21824,-2.319212,4.201561,-0.66059494,-1.4740723,0.43011475,-2.0985353,123.0
21825,-2.349852,3.4859428,0.3536644,-1.4740723,0.43011475,-2.0985353,123.0
21826,-2.349852,3.4859428,0.3536644,-1.8797607,0.24851075,-1.6620483,123.0
21827,-1.2695303,-0.77962875,2.481392,-1.8797607,0.24851075,-1.6620483,123.0
21828,-1.2695303,-0.77962875,2.481392,-0.50233155,0.5055176,-1.5823975,123.0
21829,-0.34971857,-3.2952614,3.173294,-0.50233155,0.5055176,-1.5823975,123.0
21830,-0.34971857,-3.2952614,3.173294,-0.34727785,0.36002198,-1.629126,123.0
21831,-0.041615486,-2.0838623,1.2940521,-0.34727785,0.36002198,-1.629126,123.0
21832,-0.041615486,-2.0838623,1.2940521,-0.2262085,0.62127686,-1.4092896,123.0
21833,-0.5484414,0.27513504,-1.0510483,-0.2262085,0.62127686,-1.4092896,123.0
21834,-0.5484414,0.27513504,-1.0510483,-0.4439209,0.3334717,-1.3083985,123.0
21835,-0.7341752,1.2705727,-1.5563393,-0.4439209,0.3334717,-1.3083985,123.0
21836,-0.7341752,1.2705727,-1.5563393,-0.81881106,-0.0722168,-1.264856,123.0
21837,-0.18386078,0.47941208,-0.5181694,-0.81881106,-0.0722168,-1.264856,123.0
21838,-0.18386078,0.47941208,-0.5181694,-0.5872925,0.26656494,-1.1565307,123.0
21839,-0.039959908,-0.8457413,0.70365524,-0.5872925,0.26656494,-1.1565307,123.0
21840,-0.039959908,-0.8457413,0.70365524,-0.23895264,0.18797608,-1.0471436,123.0
21841,-0.32198286,-1.391449,1.0580521,-0.23895264,0.18797608,-1.0471436,123.0
21842,-0.32198286,-1.391449,1.0580521,0.13381349,0.10938721,-1.0906861,123.0
21843,-0.45896578,-0.85853577,0.435421,0.13381349,0.10938721,-1.0906861,123.0
21844,-0.45896578,-0.85853577,0.435421,0.36427003,0.16461182,-1.09281,123.0
21845,-0.56703854,0.07663727,-0.53344727,0.36427003,0.16461182,-1.09281,123.0
21846,-0.56703854,0.07663727,-0.53344727,0.45878908,0.14018555,-1.0482056,123.0
21847,-0.61897516,0.4579773,-1.1296768,0.45878908,0.14018555,-1.0482056,123.0
21848,-0.61897516,0.4579773,-1.1296768,0.44816896,0.022302246,-1.0970582,123.0
21849,-0.39093208,0.13342285,-1.0188141,0.44816896,0.022302246,-1.0970582,123.0
21850,-0.39093208,0.13342285,-1.0188141,0.5012695,-0.10301514,-1.2414917,123.0
21851,-0.1362195,-0.3272934,-0.31437683,0.5012695,-0.10301514,-1.2414917,123.0
21852,-0.1362195,-0.3272934,-0.31437683,0.50233155,-0.039294433,-1.3487549,123.0
21853,-0.35953712,-0.42542267,0.29041672,0.50233155,-0.039294433,-1.3487549,123.0
21854,-0.35953712,-0.42542267,0.29041672,0.57454836,0.019116212,-1.3976074,123.0
21855,-1.0629225,-0.039985657,0.40194702,0.57454836,0.019116212,-1.3976074,123.0
21856,-1.0629225,-0.039985657,0.40194702,0.5320679,0.023364259,-1.4602661,123.0
21857,-1.5559287,0.37343216,0.12589264,0.5320679,0.023364259,-1.4602661,123.0
21858,-1.5559287,0.37343216,0.12589264,0.2814331,-0.1709839,-1.5505371,123.0
21859,-1.294877,0.4194641,-0.2956848,0.2814331,-0.1709839,-1.5505371,123.0
21860,-1.294877,0.4194641,-0.2956848,0.05522461,-0.18585205,-1.6917847,123.0
21861,-0.52097225,0.020568848,-0.61245346,0.05522461,-0.18585205,-1.6917847,123.0
21862,-0.52097225,0.020568848,-0.61245346,-0.26550293,-0.21134034,-1.8532104,123.0
21863,-0.52097225,0.020568848,-0.61245346,-0.26550293,-0.21134034,-1.8532104,118.0
21864,0.18574905,-0.4360962,-0.7279892,-0.26550293,-0.21134034,-1.8532104,118.0
21865,0.18574905,-0.4360962,-0.7279892,-0.6669434,-0.17629395,-2.0199463,118.0
21866,0.2891264,-0.6700821,-0.3229828,-0.6669434,-0.17629395,-2.0199463,118.0
21867,0.2891264,-0.6700821,-0.3229828,-1.1682129,0.1178833,-2.1452637,118.0
21868,-0.6716161,-1.3479156,0.43757248,-1.1682129,0.1178833,-2.1452637,118.0
21869,-0.6716161,-1.3479156,0.43757248,-1.3614991,0.4895874,-2.1399536,118.0
21870,-2.1461067,-2.267334,0.6642647,-1.3614991,0.4895874,-2.1399536,118.0
21871,-2.1461067,-2.267334,0.6642647,-1.1140503,0.36533204,-2.3151855,118.0
21872,-2.4413118,-1.8979874,0.03371811,-1.1140503,0.36533204,-2.3151855,118.0
21873,-2.4413118,-1.8979874,0.03371811,-1.0864381,-0.011682129,-2.532898,118.0
21874,-0.9891577,-0.41264343,-0.7097206,-1.0864381,-0.011682129,-2.532898,118.0
21875,-0.9891577,-0.41264343,-0.7097206,-1.44115,-0.09664307,-2.5190918,118.0
21876,0.7042427,0.25209045,-0.74402237,-1.44115,-0.09664307,-2.5190918,118.0
21877,0.7042427,0.25209045,-0.74402237,-1.4209718,0.12319336,-2.442627,118.0
21878,1.285574,-0.5798111,-0.088905334,-1.4209718,0.12319336,-2.442627,118.0
21879,1.285574,-0.5798111,-0.088905334,-1.363623,0.29736328,-2.6837037,118.0
21880,1.1665936,-2.1005554,1.0401535,-1.363623,0.29736328,-2.6837037,118.0
21881,1.1665936,-2.1005554,1.0401535,-0.8400513,0.4715332,-2.9672608,118.0
21882,0.95308685,-3.7337036,2.1673775,-0.8400513,0.4715332,-2.9672608,118.0
21883,0.95308685,-3.7337036,2.1673775,-0.51932377,0.6202149,-3.1127565,118.0
21884,0.9831605,-4.486023,2.3600235,-0.51932377,0.6202149,-3.1127565,118.0
21885,0.9831605,-4.486023,2.3600235,-0.86553955,0.19434814,-3.5980957,118.0
21886,1.1774096,-3.777832,1.355072,-0.86553955,0.19434814,-3.5980957,118.0
21887,1.1774096,-3.777832,1.355072,-0.99722904,0.54906005,-3.538623,118.0
21888,0.47803593,-2.2686386,0.104637146,-0.99722904,0.54906005,-3.538623,118.0
21889,0.47803593,-2.2686386,0.104637146,-1.2223755,0.8315552,-3.3952515,118.0
21890,-1.1334524,-1.7099686,-0.9739227,-1.2223755,0.8315552,-3.3952515,118.0
21891,-1.1334524,-1.7099686,-0.9739227,-1.1278565,0.5384399,-2.5668824,118.0
21892,-2.205493,-2.6804123,-1.7280655,-1.1278565,0.5384399,-2.5668824,118.0
21893,-2.205493,-2.6804123,-1.7280655,-0.7317261,-0.04885254,-1.7002808,118.0
21894,-2.204751,-3.667366,-1.7936249,-0.7317261,-0.04885254,-1.7002808,118.0
21895,-2.204751,-3.667366,-1.7936249,-0.5097656,-0.06903076,-0.5331299,118.0
21896,-2.2387524,-4.1129074,-1.1776733,-0.5097656,-0.06903076,-0.5331299,118.0
21897,-2.2387524,-4.1129074,-1.1776733,-0.94731444,-0.21452637,0.6202149,118.0
21898,-2.7298203,-3.684372,0.03137207,-0.94731444,-0.21452637,0.6202149,118.0
21899,-2.7298203,-3.684372,0.03137207,-2.0093262,-0.5065796,1.3880494,118.0
21900,-2.8810482,-2.4492188,0.8114624,-2.0093262,-0.5065796,1.3880494,118.0
21901,-2.8810482,-2.4492188,0.8114624,-3.090454,-0.3355957,2.0369384,118.0
21902,-2.8034954,-1.2310944,0.40284348,-3.090454,-0.3355957,2.0369384,118.0
21903,-2.8034954,-1.2310944,0.40284348,-3.696863,0.07434082,2.5488281,118.0
21904,-3.1867294,-0.6760483,-0.5127373,-3.696863,0.07434082,2.5488281,118.0
21905,-3.1867294,-0.6760483,-0.5127373,-3.0352294,0.44073486,2.5870607,118.0
21906,-3.7810116,-0.5105896,-1.1127892,-3.0352294,0.44073486,2.5870607,118.0
21907,-3.7810116,-0.5105896,-1.1127892,-2.53396,0.7540283,2.4681153,118.0
21908,-3.9506025,-0.6461792,-1.315258,-2.53396,0.7540283,2.4681153,118.0
21909,-3.9506025,-0.6461792,-1.315258,-2.0581787,1.0312134,2.3396118,118.0
21910,-3.6755457,-0.90893555,-1.0621452,-2.0581787,1.0312134,2.3396118,118.0
21911,-3.6755457,-0.90893555,-1.0621452,-0.2442627,1.265918,1.7491333,118.0
21912,-3.1446114,0.13887787,-0.3909874,-0.2442627,1.265918,1.7491333,118.0
21913,-3.1446114,0.13887787,-0.3909874,1.6524903,1.6121339,1.2043213,118.0
21914,-2.5040302,2.7598953,-0.20727158,1.6524903,1.6121339,1.2043213,118.0
21915,-2.5040302,2.7598953,-0.20727158,2.797339,2.1399536,0.38869628,118.0
21916,-2.1790543,5.512062,-0.6784897,2.797339,2.1399536,0.38869628,118.0
21917,-2.1790543,5.512062,-0.6784897,2.9184082,2.079419,-0.23789063,118.0
21918,-1.8972836,5.9902725,-0.5967598,2.9184082,2.079419,-0.23789063,118.0
21919,-1.8972836,5.9902725,-0.5967598,2.2546508,1.2160034,-0.93563235,118.0
21920,-0.7692795,3.5564346,-0.09708786,2.2546508,1.2160034,-0.93563235,118.0
21921,-0.7692795,3.5564346,-0.09708786,1.3020264,0.6637573,-1.1384766,118.0
21922,0.825922,0.941391,-0.17123795,1.3020264,0.6637573,-1.1384766,118.0
21923,0.825922,0.941391,-0.17123795,0.8889038,0.6000366,-1.260608,118.0
21924,1.650837,0.3480301,-0.652298,0.8889038,0.6000366,-1.260608,118.0
21925,1.650837,0.3480301,-0.652298,0.7742066,0.38338622,-1.445398,118.0
21926,1.7616119,0.8487854,-0.5083122,0.7742066,0.38338622,-1.445398,118.0
21927,1.7616119,0.8487854,-0.5083122,1.0259033,-0.270813,-1.5622193,118.0
21928,2.348816,0.83164215,0.21501923,1.0259033,-0.270813,-1.5622193,118.0
21929,2.348816,0.83164215,0.21501923,0.54375,-0.76677245,-1.2999023,118.0
21930,3.0716429,0.37504578,0.04252243,0.54375,-0.76677245,-1.2999023,118.0
21931,3.0716429,0.37504578,0.04252243,-0.3971924,-0.7349121,-1.2138795,118.0
21932,2.5195704,-0.6145401,-1.0622559,-0.3971924,-0.7349121,-1.2138795,118.0
21933,2.5195704,-0.6145401,-1.0622559,-1.0906861,-0.8496094,-1.5091187,118.0
21934,1.3364811,-1.8560028,-1.7977905,-1.0906861,-0.8496094,-1.5091187,118.0
21935,1.3364811,-1.8560028,-1.7977905,-0.2888672,-1.1533448,-1.7533814,118.0
21936,1.3101149,-2.4248505,-1.2258072,-0.2888672,-1.1533448,-1.7533814,118.0
21937,1.3101149,-2.4248505,-1.2258072,0.22089843,-1.4284058,-1.5547851,118.0
21938,3.0134363,-2.4594498,-0.0422554,0.22089843,-1.4284058,-1.5547851,118.0
21939,3.0134363,-2.4594498,-0.0422554,-0.070092775,-1.0715698,-0.79013675,118.0
21940,4.3945875,-3.4749832,1.5002785,-0.070092775,-1.0715698,-0.79013675,118.0
21941,4.3945875,-3.4749832,1.5002785,-1.0248413,-0.11151123,-0.3812622,118.0
21942,3.4752655,-4.2106247,3.4963417,-1.0248413,-0.11151123,-0.3812622,118.0
21943,3.4752655,-4.2106247,3.4963417,-0.43011475,-0.15080567,-0.95368654,118.0
21944,1.6037598,-2.2808914,4.2214355,-0.43011475,-0.15080567,-0.95368654,118.0
21945,1.6037598,-2.2808914,4.2214355,1.1013062,-0.1263794,-0.7593384,118.0
21946,0.15640926,0.7535629,2.6363678,1.1013062,-0.1263794,-0.7593384,118.0
21947,0.15640926,0.7535629,2.6363678,1.2106934,-0.32816163,-0.72323,118.0
21948,-1.1580391,2.4446487,-0.8960686,1.2106934,-0.32816163,-0.72323,118.0
21949,-1.1580391,2.4446487,-0.8960686,0.4056885,-0.7699585,-0.76677245,118.0
21950,-1.8912754,2.0689392,-4.155464,0.4056885,-0.7699585,-0.76677245,118.0
21951,-1.8912754,2.0689392,-4.155464,0.58623046,-1.2807862,-0.8326172,118.0
21952,-1.2394733,0.51660156,-4.6386566,0.58623046,-1.2807862,-0.8326172,118.0
21953,-1.2394733,0.51660156,-4.6386566,1.3901733,-1.44646,-0.80181885,118.0
21954,0.9922838,-0.64821625,-0.1952362,1.3901733,-1.44646,-0.80181885,118.0
21955,0.9922838,-0.64821625,-0.1952362,1.9116211,0.15080567,-0.99085695,118.0
21956,2.6681433,-0.5447159,5.288513,1.9116211,0.15080567,-0.99085695,118.0
21957,2.6681433,-0.5447159,5.288513,0.22514649,0.27612305,-1.4114136,118.0
21958,1.9152403,-0.3800125,5.3853874,0.22514649,0.27612305,-1.4114136,118.0
21959,1.9152403,-0.3800125,5.3853874,0.029736329,0.058410645,-1.0237793,118.0
21960,1.195571,-0.72863007,3.3029861,0.029736329,0.058410645,-1.0237793,118.0
21961,1.195571,-0.72863007,3.3029861,0.32922363,-0.14974366,-0.7614624,118.0
21962,0.49189377,-0.49624634,-1.0756416,0.32922363,-0.14974366,-0.7614624,118.0
21963,0.49189377,-0.49624634,-1.0756416,0.10407715,-0.004248047,-0.9876709,118.0
21964,0.37095642,0.06790924,-1.5302048,0.10407715,-0.004248047,-0.9876709,118.0
21965,0.37095642,0.06790924,-1.5302048,-0.2824951,0.010620117,-1.0184692,118.0
21966,0.027050972,0.23072052,-1.6708832,-0.2824951,0.010620117,-1.0184692,118.0
21967,0.027050972,0.23072052,-1.6708832,0.21346436,0.06903076,-0.94625247,118.0
21968,0.027050972,0.23072052,-1.6708832,0.21346436,0.06903076,-0.94625247,110.0
21969,-0.20085716,-0.23880005,-1.173729,0.21346436,0.06903076,-0.94625247,110.0
21970,-0.20085716,-0.23880005,-1.173729,0.16036378,0.08283692,-0.991919,110.0
21971,-0.61248016,-0.5789795,0.38175583,0.16036378,0.08283692,-0.991919,110.0
21972,-0.61248016,-0.5789795,0.38175583,-0.021240234,0.1263794,-1.0046631,110.0
21973,-0.61248016,-0.5789795,0.38175583,-0.46834716,0.115759276,-0.9154541,110.0
21974,-0.33366108,-0.38298035,0.89643097,-0.46834716,0.115759276,-0.9154541,110.0
21975,0.1931057,0.016494751,1.443512,-0.46834716,0.115759276,-0.9154541,110.0
21976,0.1931057,0.016494751,1.443512,-0.90802,0.0637207,-0.74447024,110.0
21977,0.2922411,-0.18177795,0.80965424,-0.90802,0.0637207,-0.74447024,110.0
21978,0.2922411,-0.18177795,0.80965424,-0.90058595,0.043542482,-0.71154785,110.0
21979,0.76955986,-0.6587906,-0.5885544,-0.90058595,0.043542482,-0.71154785,110.0
21980,0.76955986,-0.6587906,-0.5885544,-0.635083,-0.0031860352,-0.60216063,110.0
21981,0.9304552,-0.71961975,-0.8328209,-0.635083,-0.0031860352,-0.60216063,110.0
21982,0.9304552,-0.71961975,-0.8328209,-0.38869628,0.012744141,-0.5979126,110.0
21983,1.2254429,0.07711029,-1.4791565,-0.38869628,0.012744141,-0.5979126,110.0
21984,1.2254429,0.07711029,-1.4791565,-0.07540283,-0.06903076,-0.905896,110.0
21985,0.83856964,0.6876602,-1.4344597,-0.07540283,-0.06903076,-0.905896,110.0
21986,0.83856964,0.6876602,-1.4344597,-0.18054199,-0.12850343,-1.0450195,110.0
21987,-0.18461323,1.6513367,-1.3763657,-0.18054199,-0.12850343,-1.0450195,110.0
21988,-0.18461323,1.6513367,-1.3763657,-0.7965088,-0.13806152,-0.94731444,110.0
21989,-0.630723,0.80005646,-0.73649216,-0.7965088,-0.13806152,-0.94731444,110.0
21990,-0.630723,0.80005646,-0.73649216,-0.8379273,-0.32285157,-0.7954468,110.0
21991,0.17827034,-1.8872375,-0.05160904,-0.8379273,-0.32285157,-0.7954468,110.0
21992,0.17827034,-1.8872375,-0.05160904,0.16779785,-0.29099122,-0.58623046,110.0
21993,0.47440338,-1.6193085,-0.05109024,0.16779785,-0.29099122,-0.58623046,110.0
21994,0.47440338,-1.6193085,-0.05109024,0.21240234,-0.29417726,-0.6223389,110.0
21995,0.8159971,0.3390503,-0.21774292,0.21240234,-0.29417726,-0.6223389,110.0
21996,0.8159971,0.3390503,-0.21774292,-0.07434082,-0.27612305,-0.6435791,110.0
21997,1.1040182,1.6137848,-0.2267189,-0.07434082,-0.27612305,-0.6435791,110.0
21998,1.1040182,1.6137848,-0.2267189,-0.1083252,-0.29523927,-0.41312256,110.0
21999,1.2283564,0.28157806,-0.4292984,-0.1083252,-0.29523927,-0.41312256,110.0
22000,1.2283564,0.28157806,-0.4292984,0.059472658,-0.20072022,-0.19116211,110.0
22001,0.9230175,-1.7110901,-0.8310852,0.059472658,-0.20072022,-0.19116211,110.0
22002,0.9230175,-1.7110901,-0.8310852,0.14230958,-0.2166504,-0.18797608,110.0
22003,0.5148058,-1.9812393,-0.8730316,0.14230958,-0.2166504,-0.18797608,110.0
22004,0.5148058,-1.9812393,-0.8730316,0.41949463,-0.16036378,-0.28568116,110.0
22005,0.36763096,-0.58161163,-0.42370605,0.41949463,-0.16036378,-0.28568116,110.0
22006,0.36763096,-0.58161163,-0.42370605,0.07115479,-0.12213135,-0.2347046,110.0
22007,0.4028082,0.47184753,0.3172493,0.07115479,-0.12213135,-0.2347046,110.0
22008,0.4028082,0.47184753,0.3172493,0.03079834,-0.10301514,-0.1996582,110.0
22009,0.45393562,0.24826813,0.82809067,0.03079834,-0.10301514,-0.1996582,110.0
22010,0.45393562,0.24826813,0.82809067,0.04460449,-0.1178833,-0.19434814,110.0
22011,0.32778454,-0.20988464,0.67224884,0.04460449,-0.1178833,-0.19434814,110.0
22012,0.32778454,-0.20988464,0.67224884,0.0722168,-0.04885254,-0.1731079,110.0
22013,-0.10192013,-0.017745972,0.035125732,0.0722168,-0.04885254,-0.1731079,110.0
22014,-0.10192013,-0.017745972,0.035125732,-0.033984374,0.025488282,-0.11363526,110.0
22015,-0.50140953,0.31734467,-0.33428955,-0.033984374,0.025488282,-0.11363526,110.0
22016,-0.50140953,0.31734467,-0.33428955,-0.21027832,-0.09770508,-0.0541626,110.0
22017,-0.15168953,0.28046417,0.12754822,-0.21027832,-0.09770508,-0.0541626,110.0
22018,-0.15168953,0.28046417,0.12754822,-0.033984374,-0.0361084,-0.21877442,110.0
22019,0.52303314,-0.2775116,0.91386414,-0.033984374,-0.0361084,-0.21877442,110.0
22020,0.52303314,-0.2775116,0.91386414,-0.13168946,0.0722168,-0.014868164,110.0
22021,0.57424927,-0.85310364,0.83309555,-0.13168946,0.0722168,-0.014868164,110.0
22022,0.57424927,-0.85310364,0.83309555,0.0541626,0.09133301,-0.16248779,110.0
22023,0.03342247,-0.31276703,-0.014297485,0.0541626,0.09133301,-0.16248779,110.0
22024,0.03342247,-0.31276703,-0.014297485,0.019116212,0.09664307,-0.057348635,110.0
22025,-0.47627735,0.7102127,-0.3902588,0.019116212,0.09664307,-0.057348635,110.0
22026,-0.47627735,0.7102127,-0.3902588,-0.26762697,0.05628662,-0.025488282,110.0
22027,-0.41091728,0.4797516,0.19752121,-0.26762697,0.05628662,-0.025488282,110.0
22028,-0.41091728,0.4797516,0.19752121,-0.47684327,0.004248047,0.0010620117,110.0
22029,0.017176628,-0.6512604,0.8277054,-0.47684327,0.004248047,0.0010620117,110.0
22030,0.017176628,-0.6512604,0.8277054,-0.32391357,-0.016992187,-0.060534667,110.0
22031,0.14650488,-0.88513184,0.34166718,-0.32391357,-0.016992187,-0.060534667,110.0
22032,0.14650488,-0.88513184,0.34166718,-0.3462158,-0.019116212,-0.043542482,110.0
22033,-0.17522717,-0.23040771,-0.67671585,-0.3462158,-0.019116212,-0.043542482,110.0
22034,-0.17522717,-0.23040771,-0.67671585,-0.34940186,-0.0722168,0.02442627,110.0
22035,-0.15562344,0.19437408,-0.9990387,-0.34940186,-0.0722168,0.02442627,110.0
22036,-0.15562344,0.19437408,-0.9990387,-0.035046387,-0.16779785,-0.016992187,110.0
22037,0.9220953,0.28888702,-0.6535034,-0.035046387,-0.16779785,-0.016992187,110.0
22038,0.9220953,0.28888702,-0.6535034,-0.045666505,-0.07965088,0.17523193,110.0
22039,1.2211113,0.029586792,-0.17168045,-0.045666505,-0.07965088,0.17523193,110.0
22040,1.2211113,0.029586792,-0.17168045,0.11363526,0.004248047,0.21240234,110.0
22041,0.18737507,-0.1977768,-0.02784729,0.11363526,0.004248047,0.21240234,110.0
22042,0.18737507,-0.1977768,-0.02784729,0.19647217,-0.009558106,0.2347046,110.0
22043,-0.7265649,0.35066223,-0.33122253,0.19647217,-0.009558106,0.2347046,110.0
22044,-0.7265649,0.35066223,-0.33122253,-0.11363526,-0.029736329,0.25063476,110.0
22045,-1.2128439,0.8857269,-0.28300858,-0.11363526,-0.029736329,0.25063476,110.0
22046,-1.2128439,0.8857269,-0.28300858,-0.39400634,-0.13381349,0.42055663,110.0
22047,-0.8293085,0.09555817,0.69893646,-0.39400634,-0.13381349,0.42055663,110.0
22048,-0.8293085,0.09555817,0.69893646,0.040356446,-0.20284425,0.18903808,110.0
22049,0.07673836,-1.3317337,1.5210648,0.040356446,-0.20284425,0.18903808,110.0
22050,0.07673836,-1.3317337,1.5210648,0.17735596,-0.18903808,0.32497558,110.0
22051,0.33214283,-1.4833679,1.0816574,0.17735596,-0.18903808,0.32497558,110.0
22052,0.33214283,-1.4833679,1.0816574,0.10513916,-0.08920898,0.20496826,110.0
22053,-0.40651512,-0.24092102,-0.098724365,0.10513916,-0.08920898,0.20496826,110.0
22054,-0.40651512,-0.24092102,-0.098724365,-0.04141846,-0.09664307,0.2814331,110.0
22055,-1.0834885,0.62770844,-0.4634018,-0.04141846,-0.09664307,0.2814331,110.0
22056,-1.0834885,0.62770844,-0.4634018,-0.10407715,-0.12956543,0.18691407,110.0
22057,-0.7503967,0.17681122,-0.16848755,-0.10407715,-0.12956543,0.18691407,110.0
22058,-0.7503967,0.17681122,-0.16848755,0.029736329,-0.093457036,0.13381349,110.0
22059,1.4284306,0.09524536,-1.0444794,0.029736329,-0.093457036,0.13381349,110.0
22060,1.4284306,0.09524536,-1.0444794,0.49064943,-0.09451904,-0.32497558,110.0
22061,2.6149006,0.49775696,-1.4639282,0.49064943,-0.09451904,-0.32497558,110.0
22062,2.6149006,0.49775696,-1.4639282,-0.14230958,-0.025488282,0.7423462,110.0
22063,0.7954607,-0.05354309,0.026023865,-0.14230958,-0.025488282,0.7423462,110.0
22064,0.7954607,-0.05354309,0.026023865,-0.012744141,0.13699952,0.35895997,110.0
22065,0.7954607,-0.05354309,0.026023865,-0.012744141,0.13699952,0.35895997,106.0
22066,-0.413558,-0.52745056,0.09000778,-0.012744141,0.13699952,0.35895997,106.0
22067,-0.413558,-0.52745056,0.09000778,-0.03079834,-0.043542482,0.4619751,106.0
22068,-0.05486965,0.0917511,-0.93968964,-0.03079834,-0.043542482,0.4619751,106.0
22069,-0.05486965,0.0917511,-0.93968964,-0.24638672,0.032922365,1.0641358,106.0
22070,0.11490536,0.491127,-0.58727264,-0.24638672,0.032922365,1.0641358,106.0
22071,0.11490536,0.491127,-0.58727264,-0.04460449,0.11682129,0.2814331,106.0
22072,-0.5080514,0.12335968,0.6418762,-0.04460449,0.11682129,0.2814331,106.0
22073,-0.5080514,0.12335968,0.6418762,0.26550293,0.11044922,0.6881836,106.0
22074,-1.2003622,-0.371109,1.2939186,0.26550293,0.11044922,0.6881836,106.0
22075,-1.2003622,-0.371109,1.2939186,0.2081543,0.032922365,0.5628662,106.0
22076,-1.355444,-1.0884628,0.65291977,0.2081543,0.032922365,0.5628662,106.0
22077,-1.355444,-1.0884628,0.65291977,0.6616333,-0.36745605,0.7614624,106.0
22078,-1.2668009,-2.2530212,0.28783798,0.6616333,-0.36745605,0.7614624,106.0
22079,-1.2668009,-2.2530212,0.28783798,2.6497192,-0.75296634,0.98873293,106.0
22080,-0.74576473,-1.0558243,0.60248566,2.6497192,-0.75296634,0.98873293,106.0
22081,-0.74576473,-1.0558243,0.60248566,4.2257447,-0.70305175,1.0630738,106.0
22082,0.07392025,3.7240753,0.8360672,4.2257447,-0.70305175,1.0630738,106.0
22083,0.07392025,3.7240753,0.8360672,2.811145,-0.23151855,0.9834229,106.0
22084,0.14147282,6.4225845,0.820549,2.811145,-0.23151855,0.9834229,106.0
22085,0.14147282,6.4225845,0.820549,2.7421143,-0.17523193,1.3445069,106.0
22086,-0.4245901,4.106209,0.4593048,2.7421143,-0.17523193,1.3445069,106.0
22087,-0.4245901,4.106209,0.4593048,3.4865844,-0.31223145,1.270166,106.0
22088,-0.51751614,1.892189,0.82808685,3.4865844,-0.31223145,1.270166,106.0
22089,-0.51751614,1.892189,0.82808685,3.6331422,-0.0722168,1.1098022,106.0
22090,-0.34692287,2.034111,0.94605255,3.6331422,-0.0722168,1.1098022,106.0
22091,-0.34692287,2.034111,0.94605255,4.1864505,-0.4428589,0.9781128,106.0
22092,-0.403759,2.2341003,-0.045318604,4.1864505,-0.4428589,0.9781128,106.0
22093,-0.403759,2.2341003,-0.045318604,5.3960814,-0.6966797,0.8071289,106.0
22094,-0.2026701,2.9223099,-0.52941895,5.3960814,-0.6966797,0.8071289,106.0
22095,-0.2026701,2.9223099,-0.52941895,5.1815553,-0.74659425,0.6149048,106.0
22096,0.42403316,4.465912,-0.21177673,5.1815553,-0.74659425,0.6149048,106.0
22097,0.42403316,4.465912,-0.21177673,4.423279,-0.62340087,0.41418457,106.0
22098,1.209197,5.463478,-0.2078476,4.423279,-0.62340087,0.41418457,106.0
22099,1.209197,5.463478,-0.2078476,4.1599,-0.6701294,0.2548828,106.0
22100,1.7747059,5.909706,-0.63442993,4.1599,-0.6701294,0.2548828,106.0
22101,1.7747059,5.909706,-0.63442993,3.155237,-0.5798584,0.04248047,106.0
22102,1.7595234,5.563858,-1.4200897,3.155237,-0.5798584,0.04248047,106.0
22103,1.7595234,5.563858,-1.4200897,2.0337524,-0.36108398,-0.19753419,106.0
22104,1.4366713,5.213669,-1.6387444,2.0337524,-0.36108398,-0.19753419,106.0
22105,1.4366713,5.213669,-1.6387444,2.1526978,-0.49277344,-0.02442627,106.0
22106,1.5318198,5.378063,-0.3438797,2.1526978,-0.49277344,-0.02442627,106.0
22107,1.5318198,5.378063,-0.3438797,0.9133301,-0.30161133,-0.07115479,106.0
22108,1.3886395,4.24366,-0.21368027,0.9133301,-0.30161133,-0.07115479,106.0
22109,1.3886395,4.24366,-0.21368027,0.85491943,-0.3525879,0.009558106,106.0
22110,0.5495224,2.2109795,-1.8335762,0.85491943,-0.3525879,0.009558106,106.0
22111,0.5495224,2.2109795,-1.8335762,1.4432739,-0.33984375,0.040356446,106.0
22112,-0.0018005371,1.2515602,-2.3271027,1.4432739,-0.33984375,0.040356446,106.0
22113,-0.0018005371,1.2515602,-2.3271027,1.1958252,-0.32816163,-0.06159668,106.0
22114,0.1479249,1.206398,-0.9860573,1.1958252,-0.32816163,-0.06159668,106.0
22115,0.1479249,1.206398,-0.9860573,1.0163453,-0.3058594,-0.1539917,106.0
22116,0.37782478,1.5738373,0.2996292,1.0163453,-0.3058594,-0.1539917,106.0
22117,0.37782478,1.5738373,0.2996292,0.84748536,-0.19434814,-0.0998291,106.0
22118,0.42299938,2.179184,0.13145065,0.84748536,-0.19434814,-0.0998291,106.0
22119,0.42299938,2.179184,0.13145065,0.013806152,-0.27506104,0.010620117,106.0
22120,0.8129482,2.0696259,-0.870121,0.013806152,-0.27506104,0.010620117,106.0
22121,0.8129482,2.0696259,-0.870121,-0.95581055,-0.1274414,0.090270996,106.0
22122,1.4301801,1.2968903,-1.6373177,-0.95581055,-0.1274414,0.090270996,106.0
22123,1.4301801,1.2968903,-1.6373177,-1.3243287,0.16673584,0.25063476,106.0
22124,1.5551305,0.8013916,-1.2344284,-1.3243287,0.16673584,0.25063476,106.0
22125,1.5551305,0.8013916,-1.2344284,-1.9201173,0.4619751,0.362146,106.0
22126,0.921021,0.21153641,-0.4119339,-1.9201173,0.4619751,0.362146,106.0
22127,0.921021,0.21153641,-0.4119339,-2.3364258,0.64995116,0.41843262,106.0
22128,-0.102050304,-0.8678169,0.012420654,-2.3364258,0.64995116,0.41843262,106.0
22129,-0.102050304,-0.8678169,0.012420654,-2.3035035,0.6775635,0.5235718,106.0
22130,-0.82420635,-1.9584007,1.0021248,-2.3035035,0.6775635,0.5235718,106.0
22131,-0.82420635,-1.9584007,1.0021248,-2.253589,0.815625,0.52038574,106.0
22132,-1.0341697,-2.375019,2.327118,-2.253589,0.815625,0.52038574,106.0
22133,-1.0341697,-2.375019,2.327118,-2.6475952,0.83049315,0.49064943,106.0
22134,-0.90411806,-2.2718163,2.7214088,-2.6475952,0.83049315,0.49064943,106.0
22135,-0.90411806,-2.2718163,2.7214088,-3.074524,0.97492677,0.53737795,106.0
22136,-0.6325836,-2.0642815,1.6061707,-3.074524,0.97492677,0.53737795,106.0
22137,-0.6325836,-2.0642815,1.6061707,-3.3899415,0.9696167,0.4970215,106.0
22138,-0.5715699,-2.3033028,-0.17690277,-3.3899415,0.9696167,0.4970215,106.0
22139,-0.5715699,-2.3033028,-0.17690277,-3.3049805,0.83898926,0.60322267,106.0
22140,-0.83196306,-3.3232422,-1.035347,-3.3049805,0.83898926,0.60322267,106.0
22141,-0.83196306,-3.3232422,-1.035347,-2.3162477,0.80394286,0.71791995,106.0
22142,-1.1329536,-4.019203,-0.3415451,-2.3162477,0.80394286,0.71791995,106.0
22143,-1.1329536,-4.019203,-0.3415451,-1.9296753,0.80394286,0.6595093,106.0
22144,-1.1245394,-3.723175,0.77134323,-1.9296753,0.80394286,0.6595093,106.0
22145,-1.1245394,-3.723175,0.77134323,-1.905249,0.905896,0.635083,106.0
22146,-0.8044534,-3.0575333,1.0597,-1.905249,0.905896,0.635083,106.0
22147,-0.8044534,-3.0575333,1.0597,-2.1218994,1.1374146,0.5798584,106.0
22148,-0.6843343,-2.4357452,0.7811966,-2.1218994,1.1374146,0.5798584,106.0
22149,-0.6843343,-2.4357452,0.7811966,-2.0199463,1.1108643,0.6244629,106.0
22150,-0.92111206,-2.0276566,0.58226776,-2.0199463,1.1108643,0.6244629,106.0
22151,-0.92111206,-2.0276566,0.58226776,-1.8755127,0.94731444,0.7317261,106.0
22152,-0.9075074,-1.8874435,0.7945976,-1.8755127,0.94731444,0.7317261,106.0
22153,-0.9075074,-1.8874435,0.7945976,-1.9700317,0.86766356,0.77102053,106.0
22154,-0.6103077,-2.0477371,0.6194916,-1.9700317,0.86766356,0.77102053,106.0
22155,-0.6103077,-2.0477371,0.6194916,-2.3417358,0.9547486,0.7880127,106.0
22156,-0.9208021,-2.6134949,-0.5457535,-2.3417358,0.9547486,0.7880127,106.0
22157,-0.9208021,-2.6134949,-0.5457535,-1.3997315,0.6287109,1.081128,106.0
22158,-1.5711145,-2.4248505,-0.8001747,-1.3997315,0.6287109,1.081128,106.0
22159,-1.5711145,-2.4248505,-0.8001747,-0.95793456,0.6180908,0.89102787,106.0
22160,-1.4575634,-1.3909302,0.6938667,-0.95793456,0.6180908,0.89102787,106.0
22161,-1.4575634,-1.3909302,0.6938667,-1.5675293,0.4088745,1.09281,106.0
22162,-0.7635603,-1.2764664,1.5245018,-1.5675293,0.4088745,1.09281,106.0
22163,-0.7635603,-1.2764664,1.5245018,-1.9498535,0.41099855,1.0577637,106.0
22164,-0.48871708,-2.0810165,0.5521927,-1.9498535,0.41099855,1.0577637,106.0
22165,-0.48871708,-2.0810165,0.5521927,-1.3041505,0.49383545,1.2829102,106.0
22166,-0.9814768,-1.9024277,-0.32217407,-1.3041505,0.49383545,1.2829102,106.0
22167,-0.9814768,-1.9024277,-0.32217407,-0.5161377,0.3175415,1.3901733,106.0
22168,-1.1398935,-0.52171326,-0.09471512,-0.5161377,0.3175415,1.3901733,106.0
22169,-1.1398935,-0.52171326,-0.09471512,-0.92713624,0.18266602,1.4984986,106.0
22170,-0.59586334,0.52404785,0.31587982,-0.92713624,0.18266602,1.4984986,106.0
22171,-0.59586334,0.52404785,0.31587982,-1.2754761,0.0,1.6429322,106.0
22172,-0.112981796,0.6318817,0.32012177,-1.2754761,0.0,1.6429322,106.0
22173,-0.112981796,0.6318817,0.32012177,-1.717273,-0.12000733,1.5898316,106.0
22174,0.08894825,0.15088654,-0.047027588,-1.717273,-0.12000733,1.5898316,106.0
22175,0.08894825,0.15088654,-0.047027588,-1.717273,-0.12000733,1.5898316,104.0
22176,0.08894825,0.15088654,-0.047027588,-2.2100465,-0.42692873,1.8043579,104.0
22177,0.06123352,-0.13627625,-0.6260376,-2.2100465,-0.42692873,1.8043579,104.0
22178,0.06123352,-0.13627625,-0.6260376,-2.5615723,-0.34833986,1.8659546,104.0
22179,-0.07312012,-0.7901001,-0.655262,-2.5615723,-0.34833986,1.8659546,104.0
22180,-0.07312012,-0.7901001,-0.655262,-2.3651001,-0.38869628,1.9286133,104.0
22181,-0.1897955,-1.7828369,0.28871536,-2.3651001,-0.38869628,1.9286133,104.0
22182,-0.1897955,-1.7828369,0.28871536,-1.7300171,-0.31010744,1.7501954,104.0
22183,-0.43867683,-1.6689987,1.5928268,-1.7300171,-0.31010744,1.7501954,104.0
22184,-0.43867683,-1.6689987,1.5928268,-1.5346069,-0.3334717,1.4698242,104.0
22185,-0.84445953,-0.67593384,2.7360916,-1.5346069,-0.3334717,1.4698242,104.0
22186,-0.84445953,-0.67593384,2.7360916,-1.6673584,-0.09133301,1.3232666,104.0
22187,-1.2857609,0.17586517,3.1982117,-1.6673584,-0.09133301,1.3232666,104.0
22188,-1.2857609,0.17586517,3.1982117,-2.636975,0.30161133,1.3370727,104.0
22189,-1.7909374,0.4071579,2.1555786,-2.636975,0.30161133,1.3370727,104.0
22190,-1.7909374,0.4071579,2.1555786,-3.6373901,0.6180908,1.1108643,104.0
22191,-2.2429667,0.21989441,-0.34534836,-3.6373901,0.6180908,1.1108643,104.0
22192,-2.2429667,0.21989441,-0.34534836,-4.5868287,0.81668705,0.77526855,104.0
22193,-2.4572268,-0.7865143,-2.7611694,-4.5868287,0.81668705,0.77526855,104.0
22194,-2.4572268,-0.7865143,-2.7611694,-5.708313,1.0630738,0.83898926,104.0
22195,-2.8147678,-3.374878,-3.7661896,-5.708313,1.0630738,0.83898926,104.0
22196,-2.8147678,-3.374878,-3.7661896,-4.969153,1.0471436,0.2081543,104.0
22197,-3.5655842,-7.508629,-3.9133682,-4.969153,1.0471436,0.2081543,104.0
22198,-3.5655842,-7.508629,-3.9133682,-0.8612915,-0.86553955,0.91120607,104.0
22199,-3.5591564,-11.676201,-5.7425117,-0.8612915,-0.86553955,0.91120607,104.0
22200,-3.5591564,-11.676201,-5.7425117,2.4065187,-0.89208984,-0.3451538,104.0
22201,-3.991332,-9.673935,-6.324745,2.4065187,-0.89208984,-0.3451538,104.0
22202,-3.991332,-9.673935,-6.324745,5.0392456,0.1529297,-0.7519043,104.0
22203,-4.489502,-3.1365738,-2.4540825,5.0392456,0.1529297,-0.7519043,104.0
22204,-4.489502,-3.1365738,-2.4540825,5.2081056,-1.6822265,0.9685547,104.0
22205,-1.8995724,1.7272797,1.8889923,5.2081056,-1.6822265,0.9685547,104.0
22206,-1.8995724,1.7272797,1.8889923,2.3916504,-1.9201173,0.8666016,104.0
22207,1.460041,4.0923615,3.2680168,2.3916504,-1.9201173,0.8666016,104.0
22208,1.460041,4.0923615,3.2680168,0.31010744,-1.538855,2.342798,104.0
22209,2.112772,3.1050262,1.5655594,0.31010744,-1.538855,2.342798,104.0
22210,2.112772,3.1050262,1.5655594,0.31860352,-2.1208375,2.5647583,104.0
22211,1.1607857,0.57366943,-0.96603394,0.31860352,-2.1208375,2.5647583,104.0
22212,1.1607857,0.57366943,-0.96603394,3.522693,-2.2429688,2.7569826,104.0
22213,0.94028664,0.4805374,-2.546669,3.522693,-2.2429688,2.7569826,104.0
22214,0.94028664,0.4805374,-2.546669,6.2180786,-1.9179932,2.1144655,104.0
22215,1.7109089,5.0191803,-1.9274979,6.2180786,-1.9179932,2.1144655,104.0
22216,1.7109089,5.0191803,-1.9274979,4.871448,-1.2744141,2.521216,104.0
22217,3.0929337,9.482483,1.4149933,4.871448,-1.2744141,2.521216,104.0
22218,3.0929337,9.482483,1.4149933,2.7314942,-0.4354248,2.7580445,104.0
22219,3.9918032,9.237183,5.7078247,2.7314942,-0.4354248,2.7580445,104.0
22220,3.9918032,9.237183,5.7078247,-0.6881836,1.0683838,2.5222778,104.0
22221,1.7697124,3.8290176,6.9639893,-0.6881836,1.0683838,2.5222778,104.0
22222,1.7697124,3.8290176,6.9639893,-0.41099855,-0.06690674,1.9424194,104.0
22223,-2.03854,-1.4844055,3.8719482,-0.41099855,-0.06690674,1.9424194,104.0
22224,-2.03854,-1.4844055,3.8719482,1.8638306,-0.9759888,1.8776368,104.0
22225,-3.5716772,-1.7349167,-1.1323967,1.8638306,-0.9759888,1.8776368,104.0
22226,-3.5716772,-1.7349167,-1.1323967,3.449414,-1.632312,2.086853,104.0
22227,-2.9736872,0.4358673,-4.3291855,3.449414,-1.632312,2.086853,104.0
22228,-2.9736872,0.4358673,-4.3291855,3.5556152,-2.440503,2.1410158,104.0
22229,-0.97498226,1.5954208,-4.004093,3.5556152,-2.440503,2.1410158,104.0
22230,-0.97498226,1.5954208,-4.004093,4.1938844,-3.1031983,1.988086,104.0
22231,1.9820747,2.3375092,-2.46204,4.1938844,-3.1031983,1.988086,104.0
22232,1.9820747,2.3375092,-2.46204,4.9139285,-3.175415,2.2026124,104.0
22233,4.8388824,4.122307,-0.9246483,4.9139285,-3.175415,2.2026124,104.0
22234,4.8388824,4.122307,-0.9246483,3.8487306,-3.3060424,2.1250856,104.0
22235,6.632556,6.04805,0.35913467,3.8487306,-3.3060424,2.1250856,104.0
22236,6.632556,6.04805,0.35913467,3.0320435,-3.0203614,2.3141236,104.0
22237,7.6195087,4.6951065,1.7463531,3.0320435,-3.0203614,2.3141236,104.0
22238,7.6195087,4.6951065,1.7463531,1.5908936,-2.340674,2.704944,104.0
22239,9.498354,0.54743195,3.6683464,1.5908936,-2.340674,2.704944,104.0
22240,9.498354,0.54743195,3.6683464,2.2960694,-1.2361816,2.8525636,104.0
22241,10.389015,-1.3688507,3.630188,2.2960694,-1.2361816,2.8525636,104.0
22242,10.389015,-1.3688507,3.630188,2.5010376,0.31860352,2.5859985,104.0
22243,7.3798285,0.5888672,0.94605637,2.5010376,0.31860352,2.5859985,104.0
22244,7.3798285,0.5888672,0.94605637,1.5739014,0.20072022,2.7856567,104.0
22245,3.3823907,2.7860336,-2.1266403,1.5739014,0.20072022,2.7856567,104.0
22246,3.3823907,2.7860336,-2.1266403,1.7385132,0.1539917,2.6645875,104.0
22247,1.2547164,3.4487839,-3.9446373,1.7385132,0.1539917,2.6645875,104.0
22248,1.2547164,3.4487839,-3.9446373,1.8521484,0.41949463,2.4776733,104.0
22249,0.5462415,4.260334,-3.7013054,1.8521484,0.41949463,2.4776733,104.0
22250,0.5462415,4.260334,-3.7013054,1.0651978,0.5628662,2.0507448,104.0
22251,0.2224791,5.4431076,-2.5554504,1.0651978,0.5628662,2.0507448,104.0
22252,0.2224791,5.4431076,-2.5554504,-0.3345337,0.36002198,1.7300171,104.0
22253,-0.010627508,5.2684174,-1.8226318,-0.3345337,0.36002198,1.7300171,104.0
22254,-0.010627508,5.2684174,-1.8226318,-1.1947632,0.026550293,1.808606,104.0
22255,0.14309716,2.608242,-1.3868027,-1.1947632,0.026550293,1.808606,104.0
22256,0.14309716,2.608242,-1.3868027,-0.814563,-0.18054199,1.6832886,104.0
22257,1.0463014,-0.5764923,-0.583992,-0.814563,-0.18054199,1.6832886,104.0
22258,1.0463014,-0.5764923,-0.583992,-0.4725952,-0.16673584,1.5239868,104.0
22259,2.0979054,-1.8400993,0.4623108,-0.4725952,-0.16673584,1.5239868,104.0
22260,2.0979054,-1.8400993,0.4623108,-0.92926025,-0.040356446,1.44646,104.0
22261,2.4778483,-1.842453,1.1166153,-0.92926025,-0.040356446,1.44646,104.0
22262,2.4778483,-1.842453,1.1166153,-1.2754761,0.08920898,1.5632813,104.0
22263,2.089249,-2.1106339,1.0161209,-1.2754761,0.08920898,1.5632813,104.0
22264,2.089249,-2.1106339,1.0161209,-1.0715698,0.31860352,1.5420411,104.0
22265,1.0976686,-2.5230026,0.60946655,-1.0715698,0.31860352,1.5420411,104.0
22266,1.0976686,-2.5230026,0.60946655,-0.5809204,0.35471192,1.5271729,104.0
22267,-0.022280134,-2.34803,0.6849365,-0.5809204,0.35471192,1.5271729,104.0
22268,-0.022280134,-2.34803,0.6849365,-0.090270996,0.20496826,1.2202514,104.0
22269,-0.52809024,-1.3872871,1.3425293,-0.090270996,0.20496826,1.2202514,104.0
22270,-0.52809024,-1.3872871,1.3425293,-0.17735596,-0.14655761,0.8846558,104.0
22271,-0.24239406,-0.28105545,1.9051132,-0.17735596,-0.14655761,0.8846558,104.0
22272,-0.24239406,-0.28105545,1.9051132,-0.3451538,-0.4078125,0.67225343,104.0
22273,0.36736405,0.17723083,1.9030724,-0.3451538,-0.4078125,0.67225343,104.0
22274,0.36736405,0.17723083,1.9030724,-0.6786255,-0.6074707,0.71579593,104.0
22275,0.80720913,0.07525635,1.1427078,-0.6786255,-0.6074707,0.71579593,104.0
22276,0.80720913,0.07525635,1.1427078,-0.59047854,-0.7763306,0.7338501,104.0
22277,1.0731843,0.1734848,-0.050216675,-0.59047854,-0.7763306,0.7338501,104.0
22278,1.0731843,0.1734848,-0.050216675,-0.5607422,-0.9717407,0.7975708,104.0
22279,1.5713527,0.26710892,-0.7799568,-0.5607422,-0.9717407,0.7975708,104.0
22280,1.5713527,0.26710892,-0.7799568,-0.3164795,-1.0418335,1.1352905,104.0
22281,2.0194724,-0.24832535,-0.82611465,-0.3164795,-1.0418335,1.1352905,104.0
22282,2.0194724,-0.24832535,-0.82611465,0.19541016,-0.84748536,1.2425537,104.0
22283,1.5889299,-0.9617691,-0.65675354,0.19541016,-0.84748536,1.2425537,104.0
22284,1.5889299,-0.9617691,-0.65675354,0.3334717,-0.7041138,1.3944215,104.0
22285,0.70725226,-1.2914124,-0.4123764,0.3334717,-0.7041138,1.3944215,104.0
22286,0.70725226,-1.2914124,-0.4123764,0.22196046,-0.85598147,1.2967163,104.0
22287,0.3466978,-1.0630722,-0.40859985,0.22196046,-0.85598147,1.2967163,104.0
22288,0.3466978,-1.0630722,-0.40859985,-0.21134034,-0.8952759,1.1809571,104.0
22289,0.4540794,-0.8232956,-0.96131897,-0.21134034,-0.8952759,1.1809571,104.0
22290,0.4540794,-0.8232956,-0.96131897,-0.7986328,-1.0556396,1.2000732,104.0
22291,0.4540794,-0.8232956,-0.96131897,-0.7986328,-1.0556396,1.2000732,103.0
22292,0.67062426,-1.5720978,-1.8597679,-0.7986328,-1.0556396,1.2000732,103.0
22293,0.67062426,-1.5720978,-1.8597679,-0.4980835,-1.1544068,1.1289185,103.0
22294,1.0230961,-2.8759995,-2.1857872,-0.4980835,-1.1544068,1.1289185,103.0
22295,1.0230961,-2.8759995,-2.1857872,-0.008496094,-1.1937011,0.98873293,103.0
22296,1.4142046,-3.0097122,-1.9106293,-0.008496094,-1.1937011,0.98873293,103.0
22297,1.4142046,-3.0097122,-1.9106293,0.15080567,-0.91757816,0.78376466,103.0
22298,1.4563515,-1.8088837,-1.8932877,0.15080567,-0.91757816,0.78376466,103.0
22299,1.4563515,-1.8088837,-1.8932877,-0.083898924,-0.90802,0.77739257,103.0
22300,1.403924,-0.67596436,-2.1566353,-0.083898924,-0.90802,0.77739257,103.0
22301,1.403924,-0.67596436,-2.1566353,0.22727051,-0.73703617,0.7954468,103.0
22302,1.4798408,-0.13663483,-1.8967209,0.22727051,-0.73703617,0.7954468,103.0
22303,1.4798408,-0.13663483,-1.8967209,0.5766724,-0.6180908,0.8782837,103.0
22304,1.4205179,0.12474823,-0.46915817,0.5766724,-0.6180908,0.8782837,103.0
22305,1.4205179,0.12474823,-0.46915817,0.76358646,-0.45560303,0.93775636,103.0
22306,1.2178841,0.09609985,1.2121849,0.76358646,-0.45560303,0.93775636,103.0
22307,1.2178841,0.09609985,1.2121849,0.23895264,-0.44073486,0.9897949,103.0
22308,0.9026642,-0.21232605,1.524044,0.23895264,-0.44073486,0.9897949,103.0
22309,0.9026642,-0.21232605,1.524044,0.13062744,-0.5883545,1.0768799,103.0
22310,0.6782837,-0.26592255,0.63858414,0.13062744,-0.5883545,1.0768799,103.0
22311,0.6782837,-0.26592255,0.63858414,0.2357666,-0.7858887,1.0354614,103.0
22312,0.643384,-0.08100891,-0.14474869,0.2357666,-0.7858887,1.0354614,103.0
22313,0.643384,-0.08100891,-0.14474869,0.115759276,-0.8581055,1.1575928,103.0
22314,0.5503764,-0.3406372,-0.43515778,0.115759276,-0.8581055,1.1575928,103.0
22315,0.5503764,-0.3406372,-0.43515778,-0.14761963,-1.0248413,1.2574219,103.0
22316,0.46480083,-1.4322281,-0.56220245,-0.14761963,-1.0248413,1.2574219,103.0
22317,0.46480083,-1.4322281,-0.56220245,-0.20709229,-1.1586548,1.2436157,103.0
22318,0.47704077,-2.3129196,-0.74422073,-0.20709229,-1.1586548,1.2436157,103.0
22319,0.47704077,-2.3129196,-0.74422073,0.24320069,-1.1650269,1.0588257,103.0
22320,0.40207958,-2.0117722,-0.99962616,0.24320069,-1.1650269,1.0588257,103.0
22321,0.40207958,-2.0117722,-0.99962616,0.058410645,-1.2914063,0.9430664,103.0
22322,0.36231327,-1.6310577,-1.3975525,0.058410645,-1.2914063,0.9430664,103.0
22323,0.36231327,-1.6310577,-1.3975525,0.07115479,-1.2436157,0.7805786,103.0
