,accx,accy,accz,gyrox,gyroy,gyroz,heart rate
22286,open,open,open,open,open,open,open
22287,-0.55386615,-0.6655397,-0.47741407,-0.5065796,0.121069334,0.23151855,164.0
22288,-0.55386615,-0.6655397,-0.47741407,-0.31966552,0.11151123,-0.14868164,164.0
22289,-0.42979944,-0.50423354,-0.40374523,-0.31966552,0.11151123,-0.14868164,164.0
22290,-0.42979944,-0.50423354,-0.40374523,-0.21134034,0.06478272,0.023364259,164.0
22291,1.1247761,-3.7679987,0.7730609,-0.21134034,0.06478272,0.023364259,164.0
22292,1.1247761,-3.7679987,0.7730609,-0.15186767,0.03079834,-0.021240234,164.0
22293,0.8709636,-2.991108,0.370646,-0.15186767,0.03079834,-0.021240234,164.0
22294,0.8709636,-2.991108,0.370646,-0.22089843,0.028674318,-0.060534667,164.0
22295,0.6192318,-2.3589873,0.40165597,-0.22089843,0.028674318,-0.060534667,164.0
22296,0.6192318,-2.3589873,0.40165597,-0.20603028,-0.023364259,-0.047790527,164.0
22297,0.36560035,-1.9178419,0.5572623,-0.20603028,-0.023364259,-0.047790527,164.0
22298,0.36560035,-1.9178419,0.5572623,-0.15930176,-0.08814698,-0.021240234,164.0
22299,0.19654524,-1.5660119,0.5933807,-0.15930176,-0.08814698,-0.021240234,164.0
22300,0.19654524,-1.5660119,0.5933807,-0.15717773,-0.14549561,-0.011682129,164.0
22301,0.13565415,-1.2653704,0.51805174,-0.15717773,-0.14549561,-0.011682129,164.0
22302,0.13565415,-1.2653704,0.51805174,-0.16036378,-0.19434814,-0.022302246,164.0
22303,0.13565415,-1.2653704,0.51805174,-0.17947999,-0.20709229,-0.03186035,164.0
22304,0.16598177,-1.0263467,0.45588422,-0.17947999,-0.20709229,-0.03186035,164.0
22305,-0.7101467,3.750456,-1.346694,-0.17947999,-0.20709229,-0.03186035,164.0
22306,-0.7101467,3.750456,-1.346694,-0.19222413,-0.20284425,-0.04460449,164.0
22307,-0.40974337,2.8659778,-0.8791863,-0.19222413,-0.20284425,-0.04460449,164.0
22308,-0.40974337,2.8659778,-0.8791863,-0.2347046,-0.15505372,-0.098767094,164.0
22309,-0.2930535,2.266293,-0.6277142,-0.2347046,-0.15505372,-0.098767094,164.0
22310,-0.2930535,2.266293,-0.6277142,-0.25594482,-0.12531738,-0.12213135,164.0
22311,-0.09635687,1.7402196,-0.33071136,-0.25594482,-0.12531738,-0.12213135,164.0
22312,-0.09635687,1.7402196,-0.33071136,-0.28568116,-0.0361084,-0.13699952,164.0
22313,-0.038401425,1.4806035,-0.25012815,-0.28568116,-0.0361084,-0.13699952,164.0
22314,-0.038401425,1.4806035,-0.25012815,-0.32922363,0.0031860352,-0.1444336,164.0
22315,0.11940092,1.5551006,-0.40780514,-0.32922363,0.0031860352,-0.1444336,164.0
22316,0.11940092,1.5551006,-0.40780514,-0.5299439,0.11151123,-0.19647217,164.0
22317,0.16633373,1.4004526,-0.48710838,-0.5299439,0.11151123,-0.19647217,164.0
22318,0.16633373,1.4004526,-0.48710838,-0.6149048,0.13168946,-0.22302246,164.0
22319,0.22032285,1.1805794,-0.93595135,-0.6149048,0.13168946,-0.22302246,164.0
22320,0.22032285,1.1805794,-0.93595135,-0.69986576,0.14230958,-0.32816163,164.0
22321,0.15680027,1.0466974,-0.837848,-0.69986576,0.14230958,-0.32816163,164.0
22322,0.15680027,1.0466974,-0.837848,-0.6595093,0.12850343,-0.3971924,164.0
22323,-0.048546612,1.3410933,-0.7179835,-0.6595093,0.12850343,-0.3971924,164.0
22324,-0.048546612,1.3410933,-0.7179835,-0.9589966,0.17629395,-0.6860596,164.0
22325,-0.047357798,1.4104601,-0.63995075,-0.9589966,0.17629395,-0.6860596,164.0
22326,-0.047357798,1.4104601,-0.63995075,-1.1055542,0.23895264,-0.82836914,164.0
22327,-0.3545,1.4223012,-0.6180763,-1.1055542,0.23895264,-0.82836914,164.0
22328,-0.3545,1.4223012,-0.6180763,-1.170337,0.34940186,-1.1512207,164.0
22329,-0.3545,1.4223012,-0.6180763,-1.1437867,0.32072756,-1.1873292,164.0
22330,-0.60952777,1.2106802,-0.25971985,-1.1437867,0.32072756,-1.1873292,164.0
22331,-1.5429323,0.94310474,0.43509522,-1.1437867,0.32072756,-1.1873292,164.0
22332,-1.5429323,0.94310474,0.43509522,-1.3965454,0.21346436,-1.3243287,164.0
22333,-2.2979324,0.9374794,0.56456786,-1.3965454,0.21346436,-1.3243287,164.0
22334,-2.2979324,0.9374794,0.56456786,-1.9551636,0.1178833,-1.532483,164.0
22335,-2.4645667,0.7733966,0.5032046,-1.9551636,0.1178833,-1.532483,164.0
22336,-2.4645667,0.7733966,0.5032046,-2.160132,0.0063720704,-1.5813354,164.0
22337,-2.1224222,0.042862773,0.9755495,-2.160132,0.0063720704,-1.5813354,164.0
22338,-2.1224222,0.042862773,0.9755495,-1.177771,-0.26019287,-1.5303589,164.0
22339,-1.4351816,-0.4348992,1.2553664,-1.177771,-0.26019287,-1.5303589,164.0
22340,-1.4351816,-0.4348992,1.2553664,-0.26868898,-0.48640138,-1.4581422,164.0
22341,-0.69548416,-0.17515326,0.29408807,-0.26868898,-0.48640138,-1.4581422,164.0
22342,-0.69548416,-0.17515326,0.29408807,-0.16142578,-0.7455322,-1.4560181,164.0
22343,-0.15768123,0.06132996,-1.2164264,-0.16142578,-0.7455322,-1.4560181,164.0
22344,-0.15768123,0.06132996,-1.2164264,0.060534667,-1.1597168,-1.5261109,164.0
22345,0.3722558,-0.008358002,-1.7581142,0.060534667,-1.1597168,-1.5261109,164.0
22346,0.3722558,-0.008358002,-1.7581142,0.68712157,-1.6153198,-1.6779785,164.0
22347,1.1053363,-0.028915405,-1.1823459,0.68712157,-1.6153198,-1.6779785,164.0
22348,1.1053363,-0.028915405,-1.1823459,0.88253176,-1.7958618,-1.8871949,164.0
22349,1.8740884,-0.10587156,-0.35765648,0.88253176,-1.7958618,-1.8871949,164.0
22350,1.8740884,-0.10587156,-0.35765648,0.5894165,-1.7480713,-2.066675,164.0
22351,2.4505525,-0.3819263,0.17471462,0.5894165,-1.7480713,-2.066675,164.0
22352,2.4505525,-0.3819263,0.17471462,0.058410645,-1.6386842,-2.2164185,164.0
22353,2.8030934,-0.49521387,0.43609738,0.058410645,-1.6386842,-2.2164185,164.0
22354,2.8030934,-0.49521387,0.43609738,-0.4704712,-1.4156617,-2.2450929,164.0
22355,2.8030934,-0.49521387,0.43609738,-1.0439576,-1.0513916,-2.2397828,164.0
22356,2.8507266,-0.17485762,0.36544284,-1.0439576,-1.0513916,-2.2397828,164.0
22357,2.6040921,0.09329271,-0.13281661,-1.0439576,-1.0513916,-2.2397828,164.0
22358,2.6040921,0.09329271,-0.13281661,-1.724707,-0.63826907,-2.1548219,164.0
22359,2.096909,-1.0304196,-0.45697355,-1.724707,-0.63826907,-2.1548219,164.0
22360,2.096909,-1.0304196,-0.45697355,-1.8755127,-0.36533204,-1.4815063,164.0
22361,1.4787357,-3.7753854,0.16893041,-1.8755127,-0.36533204,-1.4815063,164.0
22362,1.4787357,-3.7753854,0.16893041,0.11257324,-0.3334717,-0.49383545,164.0
22363,0.46202898,-4.4969077,1.3091556,0.11257324,-0.3334717,-0.49383545,164.0
22364,0.46202898,-4.4969077,1.3091556,2.061365,-0.7083618,0.26868898,164.0
22365,-0.31856036,-1.1456339,1.5911722,2.061365,-0.7083618,0.26868898,164.0
22366,-0.31856036,-1.1456339,1.5911722,0.66588134,-0.14655761,0.22089843,164.0
22367,-0.5688987,1.8397306,0.7533821,0.66588134,-0.14655761,0.22089843,164.0
22368,-0.5688987,1.8397306,0.7533821,0.74659425,-0.24638672,0.4619751,164.0
22369,-0.93992114,2.0532665,-0.10338563,0.74659425,-0.24638672,0.4619751,164.0
22370,-0.93992114,2.0532665,-0.10338563,3.0256715,-1.0981201,0.23045655,164.0
22371,-0.95105803,1.8111312,0.0280703,3.0256715,-1.0981201,0.23045655,164.0
22372,-0.95105803,1.8111312,0.0280703,2.8504395,-0.95368654,-0.029736329,164.0
22373,-0.5735905,1.1707312,0.46833026,2.8504395,-0.95368654,-0.029736329,164.0
22374,-0.5735905,1.1707312,0.46833026,2.259961,-0.93563235,0.21346436,164.0
22375,-0.43686318,0.0541631,0.1034728,2.259961,-0.93563235,0.21346436,164.0
22376,-0.43686318,0.0541631,0.1034728,1.898877,-0.73809814,0.2347046,164.0
22377,-0.49499834,-0.1140914,-0.7514991,1.898877,-0.73809814,0.2347046,164.0
22378,-0.49499834,-0.1140914,-0.7514991,1.7820557,-0.7593384,-0.04991455,164.0
22379,-0.49786627,0.24922982,-1.8991729,1.7820557,-0.7593384,-0.04991455,164.0
22380,-0.49786627,0.24922982,-1.8991729,1.2478638,-0.7147339,0.021240234,164.0
22381,-0.6893331,-0.29241303,-1.8956445,1.2478638,-0.7147339,0.021240234,164.0
22382,-0.6893331,-0.29241303,-1.8956445,1.4167236,-0.8358032,0.22514649,164.0
22383,-1.434804,-1.6819285,-2.1511104,1.4167236,-0.8358032,0.22514649,164.0
22384,-1.434804,-1.6819285,-2.1511104,2.266333,-1.1013062,0.38232422,164.0
22385,-2.0569496,-2.3032577,-1.8572165,2.266333,-1.1013062,0.38232422,164.0
22386,-2.0569496,-2.3032577,-1.8572165,2.972571,-1.3880494,0.38657227,164.0
22387,-1.7748321,-1.3329748,-0.86063886,2.972571,-1.3880494,0.38657227,164.0
22388,-1.7748321,-1.3329748,-0.86063886,3.623584,-1.5218629,0.15186767,164.0
22389,-0.654021,0.42722368,0.450112,3.623584,-1.5218629,0.15186767,164.0
22390,-0.654021,0.42722368,0.450112,3.4823365,-1.5664673,0.0053100586,164.0
22391,0.5805918,1.8124332,1.0257635,3.4823365,-1.5664673,0.0053100586,164.0
22392,0.5805918,1.8124332,1.0257635,3.0416017,-1.531421,-0.08496094,164.0
22393,1.5321126,2.3800735,1.271502,3.0416017,-1.531421,-0.08496094,164.0
22394,1.5321126,2.3800735,1.271502,2.3895264,-1.1629028,-0.18054199,164.0
22395,2.6459293,2.9135194,3.0461566,2.3895264,-1.1629028,-0.18054199,164.0
22396,2.6459293,2.9135194,3.0461566,1.7820557,-0.31966552,-0.4694092,164.0
22397,3.1611283,4.565911,3.4508781,1.7820557,-0.31966552,-0.4694092,164.0
22398,3.1611283,4.565911,3.4508781,-1.3052124,0.07434082,-0.51826173,164.0
22399,1.983285,3.9065619,0.43569028,-1.3052124,0.07434082,-0.51826173,164.0
22400,1.983285,3.9065619,0.43569028,-2.0369384,0.24957275,-0.30054933,164.0
22401,-0.10881877,-0.68572474,-2.2836256,-2.0369384,0.24957275,-0.30054933,164.0
22402,-0.10881877,-0.68572474,-2.2836256,-1.0524536,0.12850343,-0.057348635,164.0
22403,-1.4338934,-4.0579305,-2.7021203,-1.0524536,0.12850343,-0.057348635,164.0
22404,-1.4338934,-4.0579305,-2.7021203,0.083898924,0.059472658,0.04885254,164.0
22405,-1.2133623,-3.5382633,-1.5226214,0.083898924,0.059472658,0.04885254,164.0
22406,-1.2133623,-3.5382633,-1.5226214,0.23682861,0.11363526,-0.115759276,164.0
22407,-0.45297742,-1.3101518,-0.15750146,0.23682861,0.11363526,-0.115759276,164.0
22408,-0.45297742,-1.3101518,-0.15750146,-0.13487549,0.22196046,-0.17735596,164.0
22409,-0.16758215,0.361278,0.7293089,-0.13487549,0.22196046,-0.17735596,164.0
22410,-0.16758215,0.361278,0.7293089,-0.5734863,0.35046387,-0.18903808,164.0
22411,-0.14549148,0.7628017,0.8212523,-0.5734863,0.35046387,-0.18903808,164.0
22412,-0.14549148,0.7628017,0.8212523,-1.083252,0.51826173,-0.10089111,164.0
22413,-0.05465007,0.051537752,0.36054188,-1.083252,0.51826173,-0.10089111,164.0
22414,-0.05465007,0.051537752,0.36054188,-0.59897465,0.35471192,-0.012744141,164.0
22415,0.0105035305,-0.37618923,-0.14374423,-0.59897465,0.35471192,-0.012744141,164.0
22416,0.0105035305,-0.37618923,-0.14374423,-0.5713623,0.35895997,0.08071289,164.0
22417,-0.050996542,-0.11174238,-0.4414358,-0.5713623,0.35895997,0.08071289,164.0
22418,-0.050996542,-0.11174238,-0.4414358,-0.7147339,0.52675784,0.20284425,164.0
22419,-0.008790374,-0.14915949,-0.43716967,-0.7147339,0.52675784,0.20284425,164.0
22420,-0.008790374,-0.14915949,-0.43716967,-0.56392825,0.6244629,0.35577393,164.0
22421,0.2809316,-0.24452293,-0.18393981,-0.56392825,0.6244629,0.35577393,164.0
22422,0.2809316,-0.24452293,-0.18393981,-0.29417726,0.61702883,0.46622315,164.0
22423,0.5627701,0.18790221,0.010697246,-0.29417726,0.61702883,0.46622315,164.0
22424,0.5627701,0.18790221,0.010697246,-0.74447024,0.80819094,0.54375,164.0
22425,0.5165491,0.28162056,0.17116761,-0.74447024,0.80819094,0.54375,164.0
22426,0.5165491,0.28162056,0.17116761,-0.8400513,0.9515625,0.75615233,164.0
22427,0.16633987,0.18741804,0.31037158,-0.8400513,0.9515625,0.75615233,164.0
22428,0.16633987,0.18741804,0.31037158,-0.82730716,1.085376,0.88040775,164.0
22429,-0.3780365,0.2950883,-0.3158263,-0.82730716,1.085376,0.88040775,164.0
22430,-0.3780365,0.2950883,-0.3158263,-1.0705079,1.084314,1.0237793,164.0
22431,-0.7575562,-0.4127087,-0.84694815,-1.0705079,1.084314,1.0237793,164.0
22432,-0.7575562,-0.4127087,-0.84694815,-0.25594482,0.97280276,1.2043213,164.0
22433,-0.5682398,-0.85366553,-0.25266838,-0.25594482,0.97280276,1.2043213,164.0
22434,-0.5682398,-0.85366553,-0.25266838,-0.29205322,1.1416626,1.2096313,164.0
22435,-0.023512721,-0.13520294,0.5480362,-0.29205322,1.1416626,1.2096313,164.0
22436,-0.023512721,-0.13520294,0.5480362,-0.7306641,1.363623,1.269104,164.0
22437,0.3382089,0.46932787,0.6783094,-0.7306641,1.363623,1.269104,164.0
22438,0.3382089,0.46932787,0.6783094,-0.9345703,1.359375,1.3859253,164.0
22439,0.27866042,0.452098,0.16397321,-0.9345703,1.359375,1.3859253,164.0
22440,0.27866042,0.452098,0.16397321,-1.0482056,1.359375,1.4666382,164.0
22441,0.051199794,-0.02577275,-0.1609357,-1.0482056,1.359375,1.4666382,164.0
22442,0.051199794,-0.02577275,-0.1609357,-0.98129886,1.3498169,1.5707153,164.0
22443,-0.12500691,-0.38802546,-0.031702638,-0.98129886,1.3498169,1.5707153,164.0
22444,-0.12500691,-0.38802546,-0.031702638,-1.0227174,1.363623,1.6333741,164.0
22445,-0.14783263,-0.34761518,0.2689982,-1.0227174,1.363623,1.6333741,164.0
22446,-0.14783263,-0.34761518,0.2689982,-0.89102787,1.3296387,1.7608155,164.0
22447,-0.11465287,0.013008952,0.57837,-0.89102787,1.3296387,1.7608155,164.0
22448,-0.11465287,0.013008952,0.57837,-0.99935305,1.3381348,1.7533814,164.0
22449,-0.23516715,0.20318061,0.80346745,-0.99935305,1.3381348,1.7533814,164.0
22450,-0.23516715,0.20318061,0.80346745,-1.2393677,1.351941,1.7586914,164.0
22451,-0.32062882,-0.18317086,1.0316045,-1.2393677,1.351941,1.7586914,164.0
22452,-0.32062882,-0.18317086,1.0316045,-1.2361816,1.3179566,1.7576294,164.0
22453,-0.1738981,-0.24380231,1.2265288,-1.2361816,1.3179566,1.7576294,164.0
22454,-0.1738981,-0.24380231,1.2265288,-1.4634522,1.3052124,1.7480713,164.0
22455,-0.075214684,0.3761862,1.2803441,-1.4634522,1.3052124,1.7480713,164.0
22456,-0.075214684,0.3761862,1.2803441,-1.807544,1.445398,1.6429322,164.0
22457,0.19436926,0.5918669,1.2334062,-1.807544,1.445398,1.6429322,164.0
22458,0.19436926,0.5918669,1.2334062,-2.2089844,1.5845215,1.6726685,164.0
22459,0.99312973,0.096992075,0.96192026,-2.2089844,1.5845215,1.6726685,164.0
22460,0.99312973,0.096992075,0.96192026,-2.5445802,1.8479004,1.7650635,164.0
22461,1.8770844,-0.27282143,0.2650684,-2.5445802,1.8479004,1.7650635,164.0
22462,1.8770844,-0.27282143,0.2650684,-2.8759277,1.9498535,1.8850708,164.0
22463,1.7323928,0.3167526,-0.290936,-2.8759277,1.9498535,1.8850708,164.0
22464,1.7323928,0.3167526,-0.290936,-2.538208,1.5494751,1.8479004,164.0
22465,0.53497434,2.0821862,-0.5457127,-2.538208,1.5494751,1.8479004,164.0
22466,0.53497434,2.0821862,-0.5457127,-3.7340333,1.6609863,1.5877075,164.0
22467,-0.698522,3.5257833,-2.7832744,-3.7340333,1.6609863,1.5877075,164.0
22468,-0.698522,3.5257833,-2.7832744,-4.7440066,0.47896728,1.3912354,164.0
22469,-0.46472573,0.5131438,-5.2723713,-4.7440066,0.47896728,1.3912354,164.0
22470,-0.46472573,0.5131438,-5.2723713,-2.1218994,-0.23682861,2.4160767,164.0
22471,0.88125896,-4.1112137,-3.6439958,-2.1218994,-0.23682861,2.4160767,164.0
22472,0.88125896,-4.1112137,-3.6439958,1.3742431,-1.4284058,2.3130615,164.0
22473,2.0519187,-3.5613952,0.5621594,1.3742431,-1.4284058,2.3130615,164.0
22474,2.0519187,-3.5613952,0.5621594,-1.0046631,-0.47896728,2.2684572,164.0
22475,2.7121773,-0.40526855,3.2823324,-1.0046631,-0.47896728,2.2684572,164.0
22476,2.7121773,-0.40526855,3.2823324,-3.2104614,-0.19328614,2.5052857,164.0
22477,2.5384064,1.8828897,3.2948115,-3.2104614,-0.19328614,2.5052857,164.0
22478,2.5384064,1.8828897,3.2948115,-4.0250244,-0.4895874,2.4118288,164.0
22479,1.6659913,2.9915535,2.366208,-4.0250244,-0.4895874,2.4118288,164.0
22480,1.6659913,2.9915535,2.366208,-4.156714,-0.48427734,2.0974731,164.0
22481,0.7522998,2.4881892,2.371067,-4.156714,-0.48427734,2.0974731,164.0
22482,0.7522998,2.4881892,2.371067,-2.0741088,-1.0142212,1.81604,164.0
22483,0.042098522,2.899316,3.2325103,-2.0741088,-1.0142212,1.81604,164.0
22484,0.042098522,2.899316,3.2325103,-1.6641724,-1.1883911,0.7062378,164.0
22485,-0.3937869,4.7575145,3.576963,-1.6641724,-1.1883911,0.7062378,164.0
22486,-0.3937869,4.7575145,3.576963,-4.145032,-0.5649902,0.0722168,164.0
22487,-0.88260746,5.1651793,2.952073,-4.145032,-0.5649902,0.0722168,164.0
22488,-0.88260746,5.1651793,2.952073,-7.0528197,0.04991455,-1.0959961,164.0
22489,-1.1344185,2.8531885,2.370472,-7.0528197,0.04991455,-1.0959961,164.0
22490,-1.1344185,2.8531885,2.370472,-9.142859,1.3105224,-2.0454347,164.0
22491,-1.8443756,-1.2656422,2.0427523,-9.142859,1.3105224,-2.0454347,164.0
22492,-1.8443756,-1.2656422,2.0427523,-7.0995483,2.1293335,-3.1913452,164.0
22493,-3.7435913,-5.1784563,0.7915015,-7.0995483,2.1293335,-3.1913452,164.0
22494,-3.7435913,-5.1784563,0.7915015,-2.3035035,2.3268678,-3.3219726,164.0
22495,-5.233655,-7.6638956,-1.3897481,-2.3035035,2.3268678,-3.3219726,164.0
22496,-5.233655,-7.6638956,-1.3897481,1.4092896,2.4713013,-3.1127565,164.0
22497,-5.679844,-8.944861,-3.2273748,1.4092896,2.4713013,-3.1127565,164.0
22498,-5.679844,-8.944861,-3.2273748,1.632312,2.6837037,-2.0974731,164.0
22499,-6.497318,-9.674505,-4.5030913,1.632312,2.6837037,-2.0974731,164.0
22500,-6.497318,-9.674505,-4.5030913,3.4249878,2.0326905,-1.0577637,164.0
22501,-7.446536,-7.7662888,-5.5841627,3.4249878,2.0326905,-1.0577637,164.0
22502,-7.446536,-7.7662888,-5.5841627,4.254419,1.3731812,-0.67437744,164.0
22503,-5.9193745,-3.4346986,-5.1799154,4.254419,1.3731812,-0.67437744,164.0
22504,-5.9193745,-3.4346986,-5.1799154,3.5556152,0.9897949,0.29417726,164.0
22505,-2.5419812,-0.4085741,-2.8484247,3.5556152,0.9897949,0.29417726,164.0
22506,-2.5419812,-0.4085741,-2.8484247,3.9220092,0.4163086,1.4177856,164.0
22507,-0.12568712,0.3634243,-1.2277876,3.9220092,0.4163086,1.4177856,164.0
22508,-0.12568712,0.3634243,-1.2277876,3.9995363,-0.16673584,2.5987427,164.0
22509,0.6522455,0.16831541,-1.363761,3.9995363,-0.16673584,2.5987427,164.0
22510,0.6522455,0.16831541,-1.363761,4.6654177,-0.7423462,3.175415,164.0
22511,1.0276313,0.5601287,-1.8468194,4.6654177,-0.7423462,3.175415,164.0
22512,1.0276313,0.5601287,-1.8468194,4.636743,-1.0917481,3.3856933,164.0
22513,1.6197734,1.4370189,-2.2237325,4.636743,-1.0917481,3.3856933,164.0
22514,1.6197734,1.4370189,-2.2237325,4.414783,-1.4910644,3.6830566,164.0
22515,2.325006,1.6999693,-2.4561467,4.414783,-1.4910644,3.6830566,164.0
22516,2.325006,1.6999693,-2.4561467,4.5443482,-1.9307374,3.8136842,164.0
22517,2.325006,1.6999693,-2.4561467,4.5443482,-1.9307374,3.8136842,0.0
22518,2.9768138,1.4489281,-2.2442021,4.5443482,-1.9307374,3.8136842,0.0
22519,2.9768138,1.4489281,-2.2442021,4.14397,-2.1484497,3.9496217,0.0
22520,3.2918637,1.1537471,-1.9681768,4.14397,-2.1484497,3.9496217,0.0
22521,3.2918637,1.1537471,-1.9681768,3.361267,-2.3162477,3.9050171,0.0
22522,3.3085275,0.9891231,-1.467608,3.361267,-2.3162477,3.9050171,0.0
22523,3.3085275,0.9891231,-1.467608,3.3017945,-2.5190918,3.7042968,0.0
22524,3.2486775,1.1166525,-0.3847065,3.3017945,-2.5190918,3.7042968,0.0
22525,3.2486775,1.1166525,-0.3847065,2.9449584,-2.4659913,3.43667,0.0
22526,3.1846232,1.0798819,0.60915375,2.9449584,-2.4659913,3.43667,0.0
22527,3.1846232,1.0798819,0.60915375,2.794153,-2.453247,3.1350586,0.0
22528,3.2167537,0.67199874,0.9661193,2.794153,-2.453247,3.1350586,0.0
22529,3.2167537,0.67199874,0.9661193,2.6550293,-2.3714721,2.6815796,0.0
22530,3.6068015,0.37540412,1.0592356,2.6550293,-2.3714721,2.6815796,0.0
22531,3.6068015,0.37540412,1.0592356,2.1240234,-2.1006591,2.5052857,0.0
22532,4.252592,0.665277,2.1581674,2.1240234,-2.1006591,2.5052857,0.0
22533,4.252592,0.665277,2.1581674,2.0114503,-1.5133667,2.0114503,0.0
22534,4.6027694,1.8180615,4.866927,2.0114503,-1.5133667,2.0114503,0.0
22535,4.6027694,1.8180615,4.866927,1.1958252,-0.3706421,1.5908936,0.0
22536,4.2682996,2.7765195,5.597375,1.1958252,-0.3706421,1.5908936,0.0
22537,4.2682996,2.7765195,5.597375,-0.81881106,0.43011475,1.357251,0.0
22538,2.0816321,3.0125487,1.895124,-0.81881106,0.43011475,1.357251,0.0
22539,2.0816321,3.0125487,1.895124,-3.2763062,0.65632325,1.1937011,0.0
22540,-1.2619772,2.3664966,-2.0637836,-3.2763062,0.65632325,1.1937011,0.0
22541,-1.2619772,2.3664966,-2.0637836,-3.0978882,0.07434082,1.170337,0.0
22542,-3.4230826,0.9261074,-2.5814223,-3.0978882,0.07434082,1.170337,0.0
22543,-3.4230826,0.9261074,-2.5814223,-1.1724609,-0.6616333,1.0726318,0.0
22544,-3.7471454,0.028544605,-0.54692507,-1.1724609,-0.6616333,1.0726318,0.0
22545,-3.7471454,0.028544605,-0.54692507,-0.7147339,-0.77739257,0.96430665,0.0
22546,-2.9780507,-0.20306766,1.6155605,-0.7147339,-0.77739257,0.96430665,0.0
22547,-2.9780507,-0.20306766,1.6155605,-1.1894531,-0.51826173,0.91120607,0.0
22548,-2.1682315,-0.6006255,2.5167527,-1.1894531,-0.51826173,0.91120607,0.0
22549,-2.1682315,-0.6006255,2.5167527,-1.3848633,-0.28674316,1.1469727,0.0
22550,-1.6451322,-1.4798657,2.066405,-1.3848633,-0.28674316,1.1469727,0.0
22551,-1.6451322,-1.4798657,2.066405,-1.0089111,-0.2538208,1.4570801,0.0
22552,-1.2613816,-1.8871641,0.8789176,-1.0089111,-0.2538208,1.4570801,0.0
22553,-1.2613816,-1.8871641,0.8789176,-0.37382814,-0.3993164,1.4432739,0.0
22554,-0.8553699,-1.1565819,-0.107217476,-0.37382814,-0.3993164,1.4432739,0.0
22555,-0.8553699,-1.1565819,-0.107217476,-0.35789797,-0.4258667,1.5675293,0.0
22556,-0.40927154,-0.0332855,-0.36850104,-0.35789797,-0.4258667,1.5675293,0.0
22557,-0.40927154,-0.0332855,-0.36850104,-0.35789797,-0.44604492,1.622754,0.0
22558,-0.030676544,0.6824048,-0.17678326,-0.35789797,-0.44604492,1.622754,0.0
22559,-0.030676544,0.6824048,-0.17678326,-0.49171144,-0.42905274,1.5760254,0.0
22560,0.20353496,0.74608254,-0.027632654,-0.49171144,-0.42905274,1.5760254,0.0
22561,0.20353496,0.74608254,-0.027632654,-1.0715698,-0.31966552,1.5834595,0.0
22562,0.2385726,0.08616048,-0.04053873,-1.0715698,-0.31966552,1.5834595,0.0
22563,0.2385726,0.08616048,-0.04053873,-1.1257324,-0.37382814,1.7098389,0.0
22564,0.14245725,-0.8907762,-0.13022152,-1.1257324,-0.37382814,1.7098389,0.0
22565,0.14245725,-0.8907762,-0.13022152,-0.6669434,-0.49171144,1.7756836,0.0
22566,0.11394137,-1.3570912,-0.21637204,-0.6669434,-0.49171144,1.7756836,0.0
22567,0.11394137,-1.3570912,-0.21637204,-0.30373535,-0.5649902,1.8489624,0.0
22568,0.23210764,-0.96485996,-0.22433054,-0.30373535,-0.5649902,1.8489624,0.0
22569,0.23210764,-0.96485996,-0.22433054,-0.13487549,-0.5341919,1.8702027,0.0
22570,0.3293873,-0.1599251,-0.2007901,-0.13487549,-0.5341919,1.8702027,0.0
22571,0.3293873,-0.1599251,-0.2007901,-0.38975832,-0.5979126,1.6397461,0.0
22572,0.28832674,0.29915953,-0.05191624,-0.38975832,-0.5979126,1.6397461,0.0
22573,0.28832674,0.29915953,-0.05191624,-0.65632325,-0.5607422,1.3933594,0.0
22574,0.06458473,-0.18724704,0.42929223,-0.65632325,-0.5607422,1.3933594,0.0
22575,0.06458473,-0.18724704,0.42929223,-0.6223389,-0.8007569,1.269104,0.0
22576,-0.44065404,-0.8253958,0.93029904,-0.6223389,-0.8007569,1.269104,0.0
22577,-0.44065404,-0.8253958,0.93029904,-0.3536499,-1.002539,1.1873292,0.0
22578,-0.90544075,-0.4013201,0.9537485,-0.3536499,-1.002539,1.1873292,0.0
22579,-0.90544075,-0.4013201,0.9537485,-0.22514649,-1.0492676,0.98236084,0.0
22580,-0.7491695,1.126051,0.38172442,-0.22514649,-1.0492676,0.98236084,0.0
22581,-0.7491695,1.126051,0.38172442,-0.47365722,-1.0237793,0.7412842,0.0
22582,0.07551789,2.43994,-0.43277967,-0.47365722,-1.0237793,0.7412842,0.0
22583,0.07551789,2.43994,-0.43277967,-1.3413209,-0.7848267,0.7434082,0.0
22584,0.66794604,1.7075062,-0.9296954,-1.3413209,-0.7848267,0.7434082,0.0
22585,0.66794604,1.7075062,-0.9296954,-1.3264526,-0.8973999,0.72004396,0.0
22586,0.49231577,-0.67232513,-0.9276309,-1.3264526,-0.8973999,0.72004396,0.0
22587,0.49231577,-0.67232513,-0.9276309,-0.5703003,-1.1522827,0.92713624,0.0
22588,-0.09632075,-2.421112,-0.69488794,-0.5703003,-1.1522827,0.92713624,0.0
22589,-0.09632075,-2.421112,-0.69488794,0.14337158,-1.3455689,0.9197022,0.0
22590,-0.4990781,-2.281775,-0.49547338,0.14337158,-1.3455689,0.9197022,0.0
22591,-0.4990781,-2.281775,-0.49547338,0.23682861,-1.3784913,0.8230591,0.0
22592,-0.3939036,-0.8391042,-0.39819753,0.23682861,-1.3784913,0.8230591,0.0
22593,-0.3939036,-0.8391042,-0.39819753,0.07646485,-1.2860962,0.6786255,0.0
22594,0.06008464,0.4224422,-0.28417087,0.07646485,-1.2860962,0.6786255,0.0
22595,0.06008464,0.4224422,-0.28417087,-0.013806152,-1.2223755,0.58410645,0.0
22596,0.42450815,0.7776145,-0.1686331,-0.013806152,-1.2223755,0.58410645,0.0
22597,0.42450815,0.7776145,-0.1686331,-0.0541626,-1.2043213,0.5331299,0.0
22598,0.4766183,0.724887,-0.13319755,-0.0541626,-1.2043213,0.5331299,0.0
22599,0.4766183,0.724887,-0.13319755,-0.14974366,-1.1363525,0.58304447,0.0
22600,0.36227608,0.63645256,-0.10449505,-0.14974366,-1.1363525,0.58304447,0.0
22601,0.36227608,0.63645256,-0.10449505,-0.35789797,-1.0174073,0.63826907,0.0
22602,0.23575592,0.5209052,-0.24190903,-0.35789797,-1.0174073,0.63826907,0.0
22603,0.23575592,0.5209052,-0.24190903,-0.45347902,-0.9388184,0.6637573,0.0
22604,0.10097051,0.24401903,-0.5379486,-0.45347902,-0.9388184,0.6637573,0.0
22605,0.10097051,0.24401903,-0.5379486,-0.36002198,-0.95793456,0.7890747,0.0
22606,0.008046925,-0.08909869,-0.5291871,-0.36002198,-0.95793456,0.7890747,0.0
22607,0.008046925,-0.08909869,-0.5291871,0.05628662,-0.9855469,0.8421753,0.0
22608,0.009110868,-0.2753927,-0.18364012,0.05628662,-0.9855469,0.8421753,0.0
22609,0.009110868,-0.2753927,-0.18364012,-0.04248047,-0.9781128,0.93775636,0.0
22610,0.001685679,-0.2589128,-0.019800305,-0.04248047,-0.9781128,0.93775636,0.0
22611,0.001685679,-0.2589128,-0.019800305,-0.12213135,-0.93775636,0.92076415,0.0
22612,0.013421297,-0.092078924,0.16595912,-0.12213135,-0.93775636,0.92076415,0.0
22613,0.013421297,-0.092078924,0.16595912,-0.12850343,-0.85704345,0.81987303,0.0
22614,-0.07848418,0.007367134,0.5356116,-0.12850343,-0.85704345,0.81987303,0.0
22615,-0.07848418,0.007367134,0.5356116,-0.37701416,-0.7965088,0.815625,0.0
22616,-0.17285818,0.08953625,0.5461407,-0.37701416,-0.7965088,0.815625,0.0
22617,-0.17285818,0.08953625,0.5461407,-0.542688,-0.76358646,0.7189819,0.0
22618,-0.08156049,0.1883282,0.15113378,-0.542688,-0.76358646,0.7189819,0.0
22619,-0.08156049,0.1883282,0.15113378,-0.29099122,-1.0354614,0.82730716,0.0
22620,-0.03410822,0.57715183,0.03748417,-0.29099122,-1.0354614,0.82730716,0.0
22621,-0.03410822,0.57715183,0.03748417,-0.013806152,-1.2531738,0.80819094,0.0
22622,-0.38302392,0.75836456,0.54274374,-0.013806152,-1.2531738,0.80819094,0.0
22623,-0.38302392,0.75836456,0.54274374,-0.727478,-1.085376,0.8973999,0.0
22624,-0.8734602,0.3878318,0.7805085,-0.727478,-1.085376,0.8973999,0.0
22625,-0.8734602,0.3878318,0.7805085,-0.727478,-1.085376,0.8973999,0.0
22626,-0.8734602,0.3878318,0.7805085,-0.7954468,-1.173523,1.0790039,0.0
22627,-1.0607555,0.13810968,0.1757496,-0.7954468,-1.173523,1.0790039,0.0
22628,-1.0607555,0.13810968,0.1757496,-1.0354614,-1.0174073,1.1204224,0.0
22629,-0.6830526,0.11649361,-0.9239389,-1.0354614,-1.0174073,1.1204224,0.0
22630,-0.6830526,0.11649361,-0.9239389,-1.0248413,-0.9781128,0.90908206,0.0
22631,0.10570635,-0.05410734,-1.554117,-1.0248413,-0.9781128,0.90908206,0.0
22632,0.10570635,-0.05410734,-1.554117,-0.6988037,-1.0726318,1.0195312,0.0
22633,0.19208461,-0.43869603,-0.9646803,-0.6988037,-1.0726318,1.0195312,0.0
22634,0.19208461,-0.43869603,-0.9646803,-0.3706421,-1.1416626,0.6552612,0.0
22635,-0.2872991,-0.4917649,0.2119838,-0.3706421,-1.1416626,0.6552612,0.0
22636,-0.2872991,-0.4917649,0.2119838,-1.1066163,-0.9451904,0.73597413,0.0
22637,-0.51700974,-0.59049445,0.5558052,-1.1066163,-0.9451904,0.73597413,0.0
22638,-0.51700974,-0.59049445,0.5558052,-1.3083985,-0.8262451,0.6414551,0.0
22639,-0.3665985,-0.8183062,-0.02470398,-1.3083985,-0.8262451,0.6414551,0.0
22640,-0.3665985,-0.8183062,-0.02470398,-0.6435791,-0.81243896,0.544812,0.0
22641,0.1440381,-0.44723535,-0.3142333,-0.6435791,-0.81243896,0.544812,0.0
22642,0.1440381,-0.44723535,-0.3142333,-0.28355715,-0.6573853,0.55968016,0.0
22643,0.6475181,0.3684324,0.04648924,-0.28355715,-0.6573853,0.55968016,0.0
22644,0.6475181,0.3684324,0.04648924,-0.6531372,-0.5214478,0.4800293,0.0
22645,0.60546565,0.8931224,0.434335,-0.6531372,-0.5214478,0.4800293,0.0
22646,0.60546565,0.8931224,0.434335,-1.002539,-0.5129517,0.31223145,0.0
22647,0.069199204,0.47588706,0.57312715,-1.002539,-0.5129517,0.31223145,0.0
22648,0.069199204,0.47588706,0.57312715,-0.71579593,-0.51932377,0.36002198,0.0
22649,-0.5603999,-0.46507895,0.5599421,-0.71579593,-0.51932377,0.36002198,0.0
22650,-0.5603999,-0.46507895,0.5599421,-0.42268068,-0.60109866,0.18585205,0.0
22651,-0.8397018,-0.7658498,0.2594161,-0.42268068,-0.60109866,0.18585205,0.0
22652,-0.8397018,-0.7658498,0.2594161,-0.11469727,-0.72323,0.4067505,0.0
22653,-0.52453244,-0.18924236,-0.12966192,-0.11469727,-0.72323,0.4067505,0.0
22654,-0.52453244,-0.18924236,-0.12966192,0.37807617,-0.8464233,0.3345337,0.0
22655,0.12845756,0.50004655,-0.094159186,0.37807617,-0.8464233,0.3345337,0.0
22656,0.12845756,0.50004655,-0.094159186,0.52888185,-0.8241211,0.3345337,0.0
22657,0.49522212,0.81619936,0.19806135,0.52888185,-0.8241211,0.3345337,0.0
22658,0.49522212,0.81619936,0.19806135,-0.043542482,-0.7062378,0.35577393,0.0
22659,0.32718354,0.7086846,0.073610246,-0.043542482,-0.7062378,0.35577393,0.0
22660,0.32718354,0.7086846,0.073610246,-0.2623169,-0.634021,0.3462158,0.0
22661,0.041495383,0.28614938,-0.35461283,-0.2623169,-0.634021,0.3462158,0.0
22662,0.041495383,0.28614938,-0.35461283,-0.15080567,-0.58198243,0.36320803,0.0
22663,-0.013788559,-0.094530225,-0.4680164,-0.15080567,-0.58198243,0.36320803,0.0
22664,-0.013788559,-0.094530225,-0.4680164,-0.10620117,-0.5076416,0.3430298,0.0
22665,-0.011189535,-0.240883,-0.16804099,-0.10620117,-0.5076416,0.3430298,0.0
22666,-0.011189535,-0.240883,-0.16804099,-0.13487549,-0.43117675,0.32178956,0.0
22667,-0.013089813,-0.16172493,0.1254549,-0.13487549,-0.43117675,0.32178956,0.0
22668,-0.013089813,-0.16172493,0.1254549,-0.1720459,-0.362146,0.32178956,0.0
22669,0.03990657,-0.048374057,0.23133314,-0.1720459,-0.362146,0.32178956,0.0
22670,0.03990657,-0.048374057,0.23133314,-0.07965088,-0.33028564,0.28355715,0.0
22671,0.026725061,-0.042153835,0.2670977,-0.07965088,-0.33028564,0.28355715,0.0
22672,0.026725061,-0.042153835,0.2670977,-0.04460449,-0.34090576,0.1996582,0.0
22673,-0.107758135,-0.09857899,0.24417132,-0.04460449,-0.34090576,0.1996582,0.0
22674,-0.107758135,-0.09857899,0.24417132,-0.020178223,-0.35577393,0.14337158,0.0
22675,-0.137415,0.3364933,0.7517946,-0.020178223,-0.35577393,0.14337158,0.0
22676,-0.137415,0.3364933,0.7517946,0.070092775,-0.38657227,0.0998291,0.0
22677,-0.14171912,0.32937533,0.40973645,0.070092775,-0.38657227,0.0998291,0.0
22678,-0.14171912,0.32937533,0.40973645,0.18372802,-0.39188233,0.083898924,0.0
22679,-0.020064749,0.38255545,0.2370665,0.18372802,-0.39188233,0.083898924,0.0
22680,-0.020064749,0.38255545,0.2370665,0.22089843,-0.3717041,0.06796875,0.0
22681,0.065271445,0.43814886,0.2217943,0.22089843,-0.3717041,0.06796875,0.0
22682,0.065271445,0.43814886,0.2217943,0.13806152,-0.32391357,0.08283692,0.0
22683,0.05418249,0.4317935,0.17500627,0.13806152,-0.32391357,0.08283692,0.0
22684,0.05418249,0.4317935,0.17500627,0.19328614,-0.28568116,0.083898924,0.0
22685,0.08926884,0.28775656,0.09231216,0.19328614,-0.28568116,0.083898924,0.0
22686,0.08926884,0.28775656,0.09231216,0.26444092,-0.23045655,0.098767094,0.0
22687,0.143168,0.08485614,0.118100226,0.26444092,-0.23045655,0.098767094,0.0
22688,0.143168,0.08485614,0.118100226,0.33665773,-0.19328614,0.078588866,0.0
22689,0.123176984,0.019764788,0.21985859,0.33665773,-0.19328614,0.078588866,0.0
22690,0.123176984,0.019764788,0.21985859,0.23895264,-0.118945315,0.070092775,0.0
22691,0.09256014,0.076163396,0.1674152,0.23895264,-0.118945315,0.070092775,0.0
22692,0.09256014,0.076163396,0.1674152,0.25700685,-0.07434082,0.06903076,0.0
22693,0.0734866,0.059343807,0.05193752,0.25700685,-0.07434082,0.06903076,0.0
22694,0.0734866,0.059343807,0.05193752,0.34940186,-0.03186035,0.021240234,0.0
22695,0.0690798,-0.05568658,0.1180881,0.34940186,-0.03186035,0.021240234,0.0
22696,0.0690798,-0.05568658,0.1180881,0.3079834,0.06478272,-0.033984374,0.0
22697,0.038125172,-0.102019966,0.20485866,0.3079834,0.06478272,-0.033984374,0.0
22698,0.038125172,-0.102019966,0.20485866,0.18797608,0.12956543,-0.060534667,0.0
22699,-0.048613638,0.037988514,0.020112514,0.18797608,0.12956543,-0.060534667,0.0
22700,-0.048613638,0.037988514,0.020112514,0.15930176,0.16354981,-0.058410645,0.0
22701,-0.08597343,0.13372333,-0.2507801,0.15930176,0.16354981,-0.058410645,0.0
22702,-0.08597343,0.13372333,-0.2507801,0.38763428,0.21452637,-0.08071289,0.0
22703,-0.0064374357,0.076424465,-0.1999405,0.38763428,0.21452637,-0.08071289,0.0
22704,-0.0064374357,0.076424465,-0.1999405,0.6287109,0.20496826,-0.12319336,0.0
22705,0.09635152,0.09527044,0.12011352,0.6287109,0.20496826,-0.12319336,0.0
22706,0.09635152,0.09527044,0.12011352,0.5607422,0.27612305,-0.09133301,0.0
22707,0.1426818,0.24076714,0.2930879,0.5607422,0.27612305,-0.09133301,0.0
22708,0.1426818,0.24076714,0.2930879,0.3525879,0.34727785,-0.083898924,0.0
22709,0.1623022,0.30672503,0.29266125,0.3525879,0.34727785,-0.083898924,0.0
22710,0.1623022,0.30672503,0.29266125,0.2442627,0.39400634,-0.08814698,0.0
22711,0.12786421,0.13694498,0.2674786,0.2442627,0.39400634,-0.08814698,0.0
22712,0.12786421,0.13694498,0.2674786,0.25913087,0.41418457,-0.10407715,0.0
22713,-0.040079236,-0.06828825,0.24547702,0.25913087,0.41418457,-0.10407715,0.0
22714,-0.040079236,-0.06828825,0.24547702,0.30479738,0.38869628,-0.13168946,0.0
22715,-0.220955,0.016048104,0.13792215,0.30479738,0.38869628,-0.13168946,0.0
22716,-0.220955,0.016048104,0.13792215,0.0180542,0.4598511,-0.12000733,0.0
22717,-0.2397889,0.08503087,-0.05162517,0.0180542,0.4598511,-0.12000733,0.0
22718,-0.2397889,0.08503087,-0.05162517,0.21346436,0.46409914,-0.13168946,0.0
22719,-0.15669928,-0.035405487,-0.17678598,0.21346436,0.46409914,-0.13168946,0.0
22720,-0.15669928,-0.035405487,-0.17678598,0.5246338,0.44923097,-0.16567384,0.0
22721,-0.046648495,0.09442952,-0.16879696,0.5246338,0.44923097,-0.16567384,0.0
22722,-0.046648495,0.09442952,-0.16879696,0.2548828,0.51826173,-0.032922365,0.0
22723,-0.026442334,0.49785808,-0.1288608,0.2548828,0.51826173,-0.032922365,0.0
22724,-0.026442334,0.49785808,-0.1288608,0.0063720704,0.50233155,0.009558106,0.0
22725,-0.17446198,0.8776444,-0.14008816,0.0063720704,0.50233155,0.009558106,0.0
22726,-0.17446198,0.8776444,-0.14008816,-0.081774905,0.29205322,-0.029736329,0.0
22727,-0.4412908,2.1394324,-0.23902366,-0.081774905,0.29205322,-0.029736329,0.0
22728,-0.4412908,2.1394324,-0.23902366,-0.7051758,0.12319336,-0.7678345,0.0
22729,-0.3410331,2.6221173,-0.052742362,-0.7051758,0.12319336,-0.7678345,0.0
22730,-0.3410331,2.6221173,-0.052742362,-0.7051758,0.12319336,-0.7678345,0.0
22731,-0.3410331,2.6221173,-0.052742362,-1.2319336,0.32816163,-0.51826173,0.0
22732,0.0124396235,-0.47077549,0.55785495,-1.2319336,0.32816163,-0.51826173,0.0
22733,0.0124396235,-0.47077549,0.55785495,-0.7742066,0.06159668,-0.1539917,0.0
22734,0.047598183,-3.641623,0.9948802,-0.7742066,0.06159668,-0.1539917,0.0
22735,0.047598183,-3.641623,0.9948802,0.3536499,-0.26444092,-0.12000733,0.0
22736,0.12585932,-2.9797778,1.2753475,0.3536499,-0.26444092,-0.12000733,0.0
22737,0.12585932,-2.9797778,1.2753475,0.37595215,-0.16248779,-0.07965088,0.0
22738,0.52098775,-0.59430814,1.4178977,0.37595215,-0.16248779,-0.07965088,0.0
22739,0.52098775,-0.59430814,1.4178977,0.08496094,-0.078588866,0.09239502,0.0
22740,0.6685358,0.5135061,1.1023235,0.08496094,-0.078588866,0.09239502,0.0
22741,0.6685358,0.5135061,1.1023235,-0.10513916,-0.0541626,0.20284425,0.0
22742,0.28630573,0.54436207,0.32375336,-0.10513916,-0.0541626,0.20284425,0.0
22743,0.28630573,0.54436207,0.32375336,-0.24320069,-0.16142578,0.271875,0.0
22744,-0.3181478,0.6730751,-0.44362187,-0.24320069,-0.16142578,0.271875,0.0
22745,-0.3181478,0.6730751,-0.44362187,-0.38551027,-0.18160401,0.23895264,0.0
22746,-0.7007097,0.7136432,-0.7937647,-0.38551027,-0.18160401,0.23895264,0.0
22747,-0.7007097,0.7136432,-0.7937647,-0.36851808,-0.25806886,0.1985962,0.0
22748,-0.8384608,0.8761514,-0.7378438,-0.36851808,-0.25806886,0.1985962,0.0
22749,-0.8384608,0.8761514,-0.7378438,-0.42692873,-0.42374268,-0.10407715,0.0
22750,-0.8832931,1.2181574,-0.54651284,-0.42692873,-0.42374268,-0.10407715,0.0
22751,-0.8832931,1.2181574,-0.54651284,-0.5883545,-0.28674316,-0.09770508,0.0
22752,-0.7194519,0.8264669,-0.47949544,-0.5883545,-0.28674316,-0.09770508,0.0
22753,-0.7194519,0.8264669,-0.47949544,-0.725354,-0.38975832,-0.17629395,0.0
22754,-0.2979614,0.06584883,-0.5903591,-0.725354,-0.38975832,-0.17629395,0.0
22755,-0.2979614,0.06584883,-0.5903591,-0.71791995,-0.43967286,-0.016992187,0.0
22756,0.08798587,-0.7348698,-0.5926242,-0.71791995,-0.43967286,-0.016992187,0.0
22757,0.08798587,-0.7348698,-0.5926242,-0.32816163,-0.50870365,0.12956543,0.0
22758,0.32242733,-1.2793753,-0.15765648,-0.32816163,-0.50870365,0.12956543,0.0
22759,0.32242733,-1.2793753,-0.15765648,-0.090270996,-0.5522461,0.14018555,0.0
22760,0.55940676,-0.9527117,0.5056497,-0.090270996,-0.5522461,0.14018555,0.0
22761,0.55940676,-0.9527117,0.5056497,-0.43117675,-0.4163086,0.25700685,0.0
22762,0.7068882,-0.3042348,0.75816965,-0.43117675,-0.4163086,0.25700685,0.0
22763,0.7068882,-0.3042348,0.75816965,-0.81243896,-0.32178956,0.32285157,0.0
22764,0.4801712,-0.1056315,0.5353565,-0.81243896,-0.32178956,0.32285157,0.0
22765,0.4801712,-0.1056315,0.5353565,-0.67331547,-0.3334717,0.2888672,0.0
22766,-0.09611207,-0.27453208,0.2218399,-0.67331547,-0.3334717,0.2888672,0.0
22767,-0.09611207,-0.27453208,0.2218399,-0.3717041,-0.40993652,0.18479005,0.0
22768,-0.6250708,-0.370883,-0.024969459,-0.3717041,-0.40993652,0.18479005,0.0
22769,-0.6250708,-0.370883,-0.024969459,-0.14230958,-0.5140137,0.06478272,0.0
22770,-0.78703177,-0.255056,-0.18367183,-0.14230958,-0.5140137,0.06478272,0.0
22771,-0.78703177,-0.255056,-0.18367183,-0.06796875,-0.60109866,-0.029736329,0.0
22772,-0.44864398,-0.18785828,-0.21375877,-0.06796875,-0.60109866,-0.029736329,0.0
22773,-0.44864398,-0.18785828,-0.21375877,-0.1709839,-0.5479981,-0.070092775,0.0
22774,0.19236654,-0.15785499,-0.15327021,-0.1709839,-0.5479981,-0.070092775,0.0
22775,0.19236654,-0.15785499,-0.15327021,-0.16036378,-0.5256958,-0.07965088,0.0
22776,0.6850822,0.03503193,0.0053379536,-0.16036378,-0.5256958,-0.07965088,0.0
22777,0.6850822,0.03503193,0.0053379536,-0.29311523,-0.39082032,0.019116212,0.0
22778,0.75464535,0.19058658,0.19194126,-0.29311523,-0.39082032,0.019116212,0.0
22779,0.75464535,0.19058658,0.19194126,-0.41737062,-0.25594482,0.052038576,0.0
22780,0.5115044,0.099893585,0.23698807,-0.41737062,-0.25594482,0.052038576,0.0
22781,0.5115044,0.099893585,0.23698807,-0.4056885,-0.19222413,0.11469727,0.0
22782,0.07087343,-0.03301238,0.16662902,-0.4056885,-0.19222413,0.11469727,0.0
22783,0.07087343,-0.03301238,0.16662902,-0.22408448,-0.26337892,0.09133301,0.0
22784,-0.412979,-0.04291381,0.123488784,-0.22408448,-0.26337892,0.09133301,0.0
22785,-0.412979,-0.04291381,0.123488784,-0.12319336,-0.3164795,0.0361084,0.0
22786,-0.5682372,-0.028801262,0.12161815,-0.12319336,-0.3164795,0.0361084,0.0
22787,-0.5682372,-0.028801262,0.12161815,-0.08814698,-0.33878174,-0.046728518,0.0
22788,-0.22535393,5.3076446E-4,0.11742395,-0.08814698,-0.33878174,-0.046728518,0.0
22789,-0.22535393,5.3076446E-4,0.11742395,-0.020178223,-0.3355957,-0.012744141,0.0
22790,0.2527735,-0.056582227,0.099237025,-0.020178223,-0.3355957,-0.012744141,0.0
22791,0.2527735,-0.056582227,0.099237025,-0.04991455,-0.29099122,0.06159668,0.0
22792,0.52339804,-0.21815397,0.080866694,-0.04991455,-0.29099122,0.06159668,0.0
22793,0.52339804,-0.21815397,0.080866694,0.053100586,-0.2357666,0.14018555,0.0
22794,0.40795183,-0.084850326,0.076497555,0.053100586,-0.2357666,0.14018555,0.0
22795,0.40795183,-0.084850326,0.076497555,-0.010620117,-0.17841797,0.17416993,0.0
22796,0.055218875,0.2672638,-0.038081765,-0.010620117,-0.17841797,0.17416993,0.0
22797,0.055218875,0.2672638,-0.038081765,-0.18797608,-0.028674318,0.17947999,0.0
22798,-0.20434785,0.3222827,-0.22112703,-0.18797608,-0.028674318,0.17947999,0.0
22799,-0.20434785,0.3222827,-0.22112703,-0.087084964,-0.046728518,0.14230958,0.0
22800,-0.31748217,0.1431411,-0.31757545,-0.087084964,-0.046728518,0.14230958,0.0
22801,-0.31748217,0.1431411,-0.31757545,-0.06159668,-0.03717041,0.090270996,0.0
22802,-0.32324845,-0.09209112,-0.28145295,-0.06159668,-0.03717041,0.090270996,0.0
22803,-0.32324845,-0.09209112,-0.28145295,-0.043542482,-0.03717041,0.009558106,0.0
22804,-0.18029064,-0.20011333,-0.14232546,-0.043542482,-0.03717041,0.009558106,0.0
22805,-0.18029064,-0.20011333,-0.14232546,-0.10089111,-0.033984374,-0.010620117,0.0
22806,0.029876351,-0.12089389,-0.062236845,-0.10089111,-0.033984374,-0.010620117,0.0
22807,0.029876351,-0.12089389,-0.062236845,-0.2803711,-0.026550293,-0.057348635,0.0
22808,0.17895481,-0.069725364,-0.12426457,-0.2803711,-0.026550293,-0.057348635,0.0
22809,0.17895481,-0.069725364,-0.12426457,-0.5129517,-0.040356446,-0.107263185,0.0
22810,0.14980447,-0.049042013,-0.12848881,-0.5129517,-0.040356446,-0.107263185,0.0
22811,0.14980447,-0.049042013,-0.12848881,-0.6223389,-0.012744141,-0.15505372,0.0
22812,-0.016289234,0.09195536,0.007731408,-0.6223389,-0.012744141,-0.15505372,0.0
22813,-0.016289234,0.09195536,0.007731408,-0.47684327,-0.016992187,-0.124255374,0.0
22814,-0.13301429,0.375139,0.044368714,-0.47684327,-0.016992187,-0.124255374,0.0
22815,-0.13301429,0.375139,0.044368714,-0.35152587,-0.011682129,-0.124255374,0.0
22816,-0.1075955,0.43830702,0.028280616,-0.35152587,-0.011682129,-0.124255374,0.0
22817,-0.1075955,0.43830702,0.028280616,-0.36320803,-0.0063720704,-0.10089111,0.0
22818,0.14718777,0.22901475,-0.063203126,-0.36320803,-0.0063720704,-0.10089111,0.0
22819,0.14718777,0.22901475,-0.063203126,-0.45878908,0.007434082,-0.03079834,0.0
22820,0.1637219,0.082894415,0.0537588,-0.45878908,0.007434082,-0.03079834,0.0
22821,0.1637219,0.082894415,0.0537588,-0.36427003,0.0063720704,-0.012744141,0.0
22822,0.05729589,-0.046538472,0.18585372,-0.36427003,0.0063720704,-0.012744141,0.0
22823,0.05729589,-0.046538472,0.18585372,-0.21240234,-0.021240234,-0.015930176,0.0
22824,0.029222935,-0.023290336,0.11270887,-0.21240234,-0.021240234,-0.015930176,0.0
22825,0.029222935,-0.023290336,0.11270887,-0.28568116,-0.027612304,-0.021240234,0.0
22826,0.08739202,-0.22327095,-0.145392,-0.28568116,-0.027612304,-0.021240234,0.0
22827,0.08739202,-0.22327095,-0.145392,-0.25913087,-0.033984374,-0.05522461,0.0
22828,0.06830229,-0.27353865,-0.11415297,-0.25913087,-0.033984374,-0.05522461,0.0
22829,0.06830229,-0.27353865,-0.11415297,-0.14655761,-0.04141846,-0.06265869,0.0
22830,0.029300034,-0.20048375,-0.08502355,-0.14655761,-0.04141846,-0.06265869,0.0
22831,0.029300034,-0.20048375,-0.08502355,0.052038576,-0.04248047,-0.06796875,0.0
22832,0.01838632,-0.06965214,-0.08670783,0.052038576,-0.04248047,-0.06796875,0.0
22833,0.01838632,-0.06965214,-0.08670783,0.03717041,-0.053100586,-0.06478272,0.0
22834,0.006689042,0.11693454,-0.13486919,0.03717041,-0.053100586,-0.06478272,0.0
22835,0.006689042,0.11693454,-0.13486919,-0.014868164,-0.03717041,-0.09451904,0.0
22836,-0.004548669,0.05829373,-0.13267562,-0.014868164,-0.03717041,-0.09451904,0.0
22837,-0.004548669,0.05829373,-0.13267562,0.013806152,-0.039294433,-0.09451904,0.0
22838,0.010008529,-0.107820585,-0.1665287,0.013806152,-0.039294433,-0.09451904,0.0
22839,0.010008529,-0.107820585,-0.1665287,0.0010620117,-0.0361084,-0.07115479,0.0
22840,-0.033216327,-0.01309973,-0.14610139,0.0010620117,-0.0361084,-0.07115479,0.0
22841,-0.033216327,-0.01309973,-0.14610139,-0.08920898,-0.022302246,-0.09133301,0.0
22842,-0.08870685,0.177008,-0.22534057,-0.08920898,-0.022302246,-0.09133301,0.0
22843,-0.08870685,0.177008,-0.22534057,-0.16036378,0.04141846,-0.10195313,0.0
22844,-0.023675442,0.034648404,-0.18965967,-0.16036378,0.04141846,-0.10195313,0.0
22845,-0.023675442,0.034648404,-0.18965967,-0.09770508,0.03717041,-0.1083252,0.0
22846,0.19336434,-0.262772,-0.09475753,-0.09770508,0.03717041,-0.1083252,0.0
22847,0.19336434,-0.262772,-0.09475753,-0.06796875,0.022302246,-0.0637207,0.0
22848,0.41570222,-0.39220002,0.017297,-0.06796875,0.022302246,-0.0637207,0.0
22849,0.41570222,-0.39220002,0.017297,-0.30373535,0.06265869,-0.029736329,0.0
22850,0.46774244,-0.4468899,0.12374972,-0.30373535,0.06265869,-0.029736329,0.0
22851,0.46774244,-0.4468899,0.12374972,-0.271875,0.10195313,-0.0031860352,0.0
22852,0.2240963,-0.3542893,0.17152175,-0.271875,0.10195313,-0.0031860352,0.0
22853,0.2240963,-0.3542893,0.17152175,-0.0541626,0.06478272,0.014868164,0.0
22854,-0.06767121,-0.107076466,0.10590637,-0.0541626,0.06478272,0.014868164,0.0
22855,-0.06767121,-0.107076466,0.10590637,0.058410645,0.10301514,0.011682129,0.0
22856,-0.04294312,-0.11597124,0.0521079,0.058410645,0.10301514,0.011682129,0.0
22857,-0.04294312,-0.11597124,0.0521079,0.17416993,0.053100586,0.021240234,0.0
22858,-0.20292139,-0.38485464,0.28743827,0.17416993,0.053100586,0.021240234,0.0
22859,-0.20292139,-0.38485464,0.28743827,0.035046387,0.15823975,0.18479005,0.0
22860,-0.5604451,-0.3010478,0.66752386,0.035046387,0.15823975,0.18479005,0.0
22861,-0.5604451,-0.3010478,0.66752386,0.1539917,0.24107666,0.06796875,0.0
22862,-0.09159334,-0.22701988,0.54799616,0.1539917,0.24107666,0.06796875,0.0
22863,-0.09159334,-0.22701988,0.54799616,0.14230958,0.21877442,0.30161133,0.0
22864,0.7898723,-0.5625241,0.23353851,0.14230958,0.21877442,0.30161133,0.0
22865,0.7898723,-0.5625241,0.23353851,0.45135498,0.11257324,0.4364868,0.0
22866,0.42301112,-0.28279513,0.17070532,0.45135498,0.11257324,0.4364868,0.0
22867,0.42301112,-0.28279513,0.17070532,0.6605713,0.121069334,0.47684327,0.0
22868,-0.5568304,0.23594654,-0.008638382,0.6605713,0.121069334,0.47684327,0.0
22869,-0.5568304,0.23594654,-0.008638382,0.89421386,0.118945315,0.56605226,0.0
22870,-0.71963423,0.24450678,-0.3765518,0.89421386,0.118945315,0.56605226,0.0
22871,-0.71963423,0.24450678,-0.3765518,1.1883911,0.06478272,0.5766724,0.0
22872,-0.33670592,0.20509028,-0.5447107,1.1883911,0.06478272,0.5766724,0.0
22873,-0.33670592,0.20509028,-0.5447107,1.3806152,0.14974366,0.5299439,0.0
22874,-0.0076948106,0.31398678,-0.44306836,1.3806152,0.14974366,0.5299439,0.0
22875,-0.0076948106,0.31398678,-0.44306836,1.6556762,0.2516968,0.5501221,0.0
22876,0.2982143,-0.08696976,-0.3457633,1.6556762,0.2516968,0.5501221,0.0
22877,0.2982143,-0.08696976,-0.3457633,2.2971313,0.39506838,0.71579593,0.0
22878,0.36878383,-0.7856647,-0.37631768,2.2971313,0.39506838,0.71579593,0.0
22879,0.36878383,-0.7856647,-0.37631768,3.0522218,0.2516968,0.7434082,0.0
22880,0.36878383,-0.7856647,-0.37631768,3.0522218,0.2516968,0.7434082,94.0
22881,-0.12606668,-0.9414102,-0.4205488,3.0522218,0.2516968,0.7434082,94.0
22882,-0.12606668,-0.9414102,-0.4205488,3.696863,0.08920898,0.88040775,94.0
22883,-1.1048084,0.3042937,-0.8108531,3.696863,0.08920898,0.88040775,94.0
22884,-1.1048084,0.3042937,-0.8108531,3.5885377,-0.7975708,0.541626,94.0
22885,-1.0608853,1.877102,-1.1512582,3.5885377,-0.7975708,0.541626,94.0
22886,-1.0608853,1.877102,-1.1512582,1.8776368,-0.10089111,1.1140503,94.0
22887,0.417405,0.7105561,-1.0409406,1.8776368,-0.10089111,1.1140503,94.0
22888,0.417405,0.7105561,-1.0409406,1.721521,0.107263185,1.3699951,94.0
22889,1.012635,-1.7675903,-1.17671,1.721521,0.107263185,1.3699951,94.0
22890,1.012635,-1.7675903,-1.17671,3.9889162,-0.35152587,1.2414917,94.0
22891,0.23267879,-1.5114355,-1.1638656,3.9889162,-0.35152587,1.2414917,94.0
22892,0.23267879,-1.5114355,-1.1638656,4.4126587,-0.29948732,1.083252,94.0
22893,-0.45194292,1.6806464,-0.8670666,4.4126587,-0.29948732,1.083252,94.0
22894,-0.45194292,1.6806464,-0.8670666,2.8504395,-0.20921631,0.7306641,94.0
22895,-0.74077797,4.503685,-0.5589243,2.8504395,-0.20921631,0.7306641,94.0
22896,-0.74077797,4.503685,-0.5589243,0.42161867,0.11044922,0.2177124,94.0
22897,-0.86522985,4.3550963,-0.04445386,0.42161867,0.11044922,0.2177124,94.0
22898,-0.86522985,4.3550963,-0.04445386,-0.6000366,-0.047790527,-0.35683593,94.0
22899,-0.42227423,2.6661448,0.6660483,-0.6000366,-0.047790527,-0.35683593,94.0
22900,-0.42227423,2.6661448,0.6660483,-0.8581055,-0.15186767,-1.1416626,94.0
22901,0.75414836,1.9975276,1.1455462,-0.8581055,-0.15186767,-1.1416626,94.0
22902,0.75414836,1.9975276,1.1455462,-2.8270752,0.047790527,-1.4007934,94.0
22903,1.7258162,1.8290036,0.61373925,-2.8270752,0.047790527,-1.4007934,94.0
22904,1.7258162,1.8290036,0.61373925,-5.0965943,0.40462646,-1.5739014,94.0
22905,1.7945325,1.08968,-0.44707012,-5.0965943,0.40462646,-1.5739014,94.0
22906,1.7945325,1.08968,-0.44707012,-5.8230104,0.35577393,-1.7268311,94.0
22907,1.5861509,-1.8467376,-0.27154768,-5.8230104,0.35577393,-1.7268311,94.0
22908,1.5861509,-1.8467376,-0.27154768,-3.43667,1.1820191,-0.8007569,94.0
22909,0.89676493,-7.4540505,0.93043035,-3.43667,1.1820191,-0.8007569,94.0
22910,0.89676493,-7.4540505,0.93043035,-0.46728516,-0.050976563,1.0450195,94.0
22911,-0.7558669,-7.3199544,1.0821495,-0.46728516,-0.050976563,1.0450195,94.0
22912,-0.7558669,-7.3199544,1.0821495,0.08602295,0.053100586,-1.5707153,94.0
22913,-1.1259948,0.22341889,0.39790952,0.08602295,0.053100586,-1.5707153,94.0
22914,-1.1259948,0.22341889,0.39790952,-2.2833252,0.30267334,-0.121069334,94.0
22915,-0.742373,5.359973,-0.48593265,-2.2833252,0.30267334,-0.121069334,94.0
22916,-0.742373,5.359973,-0.48593265,-2.3852785,0.15717773,-0.7986328,94.0
22917,-0.6517475,4.733779,-1.2645762,-2.3852785,0.15717773,-0.7986328,94.0
22918,-0.6517475,4.733779,-1.2645762,-2.3236816,-0.09664307,-0.6435791,94.0
22919,-0.77503574,0.51738214,-0.9664217,-2.3236816,-0.09664307,-0.6435791,94.0
22920,-0.77503574,0.51738214,-0.9664217,-2.179248,-0.059472658,-0.6818115,94.0
22921,-1.0085418,-2.5042827,0.079474926,-2.179248,-0.059472658,-0.6818115,94.0
22922,-1.0085418,-2.5042827,0.079474926,-2.1590698,-0.15186767,-1.0174073,94.0
22923,-1.0639013,-2.4769614,0.69371915,-2.1590698,-0.15186767,-1.0174073,94.0
22924,-1.0639013,-2.4769614,0.69371915,-1.9307374,-0.11044922,-0.6966797,94.0
22925,-0.60042524,-1.5623431,1.0176218,-1.9307374,-0.11044922,-0.6966797,94.0
22926,-0.60042524,-1.5623431,1.0176218,-1.3976074,0.08496094,-0.7083618,94.0
22927,-0.0032527447,-1.263998,1.1314925,-1.3976074,0.08496094,-0.7083618,94.0
22928,-0.0032527447,-1.263998,1.1314925,-0.86978763,0.015930176,-0.61065674,94.0
22929,0.25569862,-1.2511886,0.917987,-0.86978763,0.015930176,-0.61065674,94.0
22930,0.25569862,-1.2511886,0.917987,-0.44498292,0.007434082,-0.45560303,94.0
22931,0.16559404,-1.1173205,0.29453364,-0.44498292,0.007434082,-0.45560303,94.0
22932,0.16559404,-1.1173205,0.29453364,-0.07646485,-0.18054199,-0.3345337,94.0
22933,0.0080856085,-1.1814175,0.1642402,-0.07646485,-0.18054199,-0.3345337,94.0
22934,0.0080856085,-1.1814175,0.1642402,0.4258667,-0.16885987,-0.2899292,94.0
22935,0.23627806,-0.9895921,1.1523883,0.4258667,-0.16885987,-0.2899292,94.0
22936,0.23627806,-0.9895921,1.1523883,0.7189819,-0.15930176,-0.24957275,94.0
22937,0.83550686,-0.01672256,1.6756704,0.7189819,-0.15930176,-0.24957275,94.0
22938,0.83550686,-0.01672256,1.6756704,0.40037844,-0.1178833,-0.13806152,94.0
22939,1.1631931,0.73935634,0.72035813,0.40037844,-0.1178833,-0.13806152,94.0
22940,1.1631931,0.73935634,0.72035813,0.30054933,-0.04460449,-0.033984374,94.0
22941,1.094385,0.22847241,0.106645346,0.30054933,-0.04460449,-0.033984374,94.0
22942,1.094385,0.22847241,0.106645346,0.63826907,0.20496826,0.04885254,94.0
22943,0.8392654,-0.27053022,0.9421644,0.63826907,0.20496826,0.04885254,94.0
22944,0.8392654,-0.27053022,0.9421644,0.8846558,-0.057348635,0.013806152,94.0
22945,0.109351784,0.28078043,1.506942,0.8846558,-0.057348635,0.013806152,94.0
22946,0.109351784,0.28078043,1.506942,0.55968016,0.15186767,0.15717773,94.0
22947,-1.0113101,0.6455106,0.69154,0.55968016,0.15186767,0.15717773,94.0
22948,-1.0113101,0.6455106,0.69154,1.0375855,0.057348635,-0.028674318,94.0
22949,-1.322073,0.37868875,-0.52492964,1.0375855,0.057348635,-0.028674318,94.0
22950,-1.322073,0.37868875,-0.52492964,0.9611206,-0.02442627,-0.08496094,94.0
22951,-0.6433395,0.2542938,-0.9768163,0.9611206,-0.02442627,-0.08496094,94.0
22952,-0.6433395,0.2542938,-0.9768163,0.5214478,0.10407715,-0.08496094,94.0
22953,0.006239027,0.38940918,-0.7008989,0.5214478,0.10407715,-0.08496094,94.0
22954,0.006239027,0.38940918,-0.7008989,0.1359375,0.29417726,-0.05628662,94.0
22955,0.033567905,0.40524074,-0.25904673,0.1359375,0.29417726,-0.05628662,94.0
22956,0.033567905,0.40524074,-0.25904673,0.118945315,0.3069214,-0.06796875,94.0
22957,-0.24271357,0.32623118,-0.015403867,0.118945315,0.3069214,-0.06796875,94.0
22958,-0.24271357,0.32623118,-0.015403867,0.08496094,0.31860352,-0.14337158,94.0
22959,-0.317706,0.25123155,0.09905386,0.08496094,0.31860352,-0.14337158,94.0
22960,-0.317706,0.25123155,0.09905386,-0.052038576,0.32816163,-0.18585205,94.0
22961,-0.25271213,0.19203748,0.27981687,-0.052038576,0.32816163,-0.18585205,94.0
22962,-0.25271213,0.19203748,0.27981687,0.058410645,0.21452637,-0.19753419,94.0
22963,-0.16642755,0.17561485,0.29986668,0.058410645,0.21452637,-0.19753419,94.0
22964,-0.16642755,0.17561485,0.29986668,0.12319336,0.11257324,-0.1731079,94.0
22965,-0.0755859,0.20830195,0.13866043,0.12319336,0.11257324,-0.1731079,94.0
22966,-0.0755859,0.20830195,0.13866043,0.047790527,0.08814698,-0.21877442,94.0
22967,0.58706546,-0.1799771,-0.8424164,0.047790527,0.08814698,-0.21877442,94.0
22968,0.58706546,-0.1799771,-0.8424164,0.095581055,0.04248047,-0.24001466,94.0
22969,0.5448965,-0.21047339,-0.7501294,0.095581055,0.04248047,-0.24001466,94.0
22970,0.5448965,-0.21047339,-0.7501294,0.14124756,0.016992187,-0.2803711,94.0
22971,0.50911057,-0.16319072,-0.67675143,0.14124756,0.016992187,-0.2803711,94.0
22972,0.50911057,-0.16319072,-0.67675143,0.15823975,-0.011682129,-0.2623169,94.0
22973,0.3909921,-0.050657563,-0.6274607,0.15823975,-0.011682129,-0.2623169,94.0
22974,0.3909921,-0.050657563,-0.6274607,0.20178223,-0.022302246,-0.25700685,94.0
22975,0.28324047,-0.018028498,-0.5862093,0.20178223,-0.022302246,-0.25700685,94.0
22976,0.28324047,-0.018028498,-0.5862093,0.29630128,-0.032922365,-0.25594482,94.0
22977,0.30039608,-0.07825336,-0.52311784,0.29630128,-0.032922365,-0.25594482,94.0
22978,0.30039608,-0.07825336,-0.52311784,0.24957275,-0.011682129,-0.25063476,94.0
22979,0.3827241,-0.033171535,-0.4101935,0.24957275,-0.011682129,-0.25063476,94.0
22980,0.3827241,-0.033171535,-0.4101935,0.24957275,-0.011682129,-0.25063476,95.0
22981,0.3827241,-0.033171535,-0.4101935,0.2347046,0.008496094,-0.2782471,95.0
22982,0.37888438,0.12847987,-0.26570362,0.2347046,0.008496094,-0.2782471,95.0
22983,0.37888438,0.12847987,-0.26570362,0.1731079,0.05628662,-0.21558838,95.0
22984,0.35438925,0.031726763,-0.14566837,0.1731079,0.05628662,-0.21558838,95.0
22985,0.35438925,0.031726763,-0.14566837,0.25913087,0.07965088,-0.22408448,95.0
22986,0.4053498,-0.25564885,-0.07963285,0.25913087,0.07965088,-0.22408448,95.0
22987,0.4053498,-0.25564885,-0.07963285,0.14868164,0.078588866,-0.118945315,95.0
22988,0.42104495,-0.23103277,-0.055564187,0.14868164,0.078588866,-0.118945315,95.0
22989,0.42104495,-0.23103277,-0.055564187,0.2166504,0.08283692,-0.18372802,95.0
22990,0.366731,0.0060551316,-0.035491392,0.2166504,0.08283692,-0.18372802,95.0
22991,0.366731,0.0060551316,-0.035491392,0.24320069,0.04991455,-0.09770508,95.0
22992,0.34755957,-0.032204226,0.003137648,0.24320069,0.04991455,-0.09770508,95.0
22993,0.34755957,-0.032204226,0.003137648,0.31966552,0.07327881,-0.07965088,95.0
22994,0.5203816,-0.19324386,0.08675084,0.31966552,0.07327881,-0.07965088,95.0
22995,0.5203816,-0.19324386,0.08675084,0.43861085,0.046728518,0.016992187,95.0
22996,0.62111485,-0.10947791,0.10637577,0.43861085,0.046728518,0.016992187,95.0
22997,0.62111485,-0.10947791,0.10637577,0.3058594,0.0541626,0.1539917,95.0
22998,0.44722152,-0.111349404,-0.004364714,0.3058594,0.0541626,0.1539917,95.0
22999,0.44722152,-0.111349404,-0.004364714,0.5235718,0.12000733,0.24851075,95.0
23000,0.20190561,-0.360747,-0.056079663,0.5235718,0.12000733,0.24851075,95.0
23001,0.20190561,-0.360747,-0.056079663,0.6202149,0.13806152,0.3175415,95.0
23002,0.10498154,-0.390624,0.072995156,0.6202149,0.13806152,0.3175415,95.0
23003,0.10498154,-0.390624,0.072995156,0.43967286,0.21134034,0.39082032,95.0
23004,0.06732261,-0.110777974,0.15943372,0.43967286,0.21134034,0.39082032,95.0
23005,0.06732261,-0.110777974,0.15943372,0.2782471,0.17947999,0.4609131,95.0
23006,-0.16374445,-0.042870402,0.09724913,0.2782471,0.17947999,0.4609131,95.0
23007,-0.16374445,-0.042870402,0.09724913,0.37807617,0.1539917,0.49064943,95.0
23008,-0.47625923,-0.3393867,0.014115222,0.37807617,0.1539917,0.49064943,95.0
23009,-0.47625923,-0.3393867,0.014115222,0.65632325,-0.015930176,0.39400634,95.0
23010,-0.575026,-0.61834776,-0.025158018,0.65632325,-0.015930176,0.39400634,95.0
23011,-0.575026,-0.61834776,-0.025158018,0.5957886,-0.09239502,0.452417,95.0
23012,-0.5879993,-0.44688767,-0.07751167,0.5957886,-0.09239502,0.452417,95.0
23013,-0.5879993,-0.44688767,-0.07751167,0.5235718,-0.11469727,0.36320803,95.0
23014,-0.7002823,0.15896934,-0.23135749,0.5235718,-0.11469727,0.36320803,95.0
23015,-0.7002823,0.15896934,-0.23135749,0.52888185,-0.14868164,0.37489015,95.0
23016,-0.7780481,0.93612325,-0.58677053,0.52888185,-0.14868164,0.37489015,95.0
23017,-0.7780481,0.93612325,-0.58677053,0.2803711,-0.087084964,0.30054933,95.0
23018,-0.6598775,1.448569,-1.0553662,0.2803711,-0.087084964,0.30054933,95.0
23019,-0.6598775,1.448569,-1.0553662,0.10195313,-0.038232423,0.38551027,95.0
23020,-0.2923551,1.5349417,-1.4143614,0.10195313,-0.038232423,0.38551027,95.0
23021,-0.2923551,1.5349417,-1.4143614,-0.025488282,0.016992187,0.24638672,95.0
23022,0.29795188,1.3686272,-1.5163157,-0.025488282,0.016992187,0.24638672,95.0
23023,0.29795188,1.3686272,-1.5163157,-0.23895264,0.16885987,0.2262085,95.0
23024,0.774653,0.87631047,-1.3158846,-0.23895264,0.16885987,0.2262085,95.0
23025,0.774653,0.87631047,-1.3158846,-0.25913087,0.17735596,0.13487549,95.0
23026,0.7648274,0.2557481,-0.9011208,-0.25913087,0.17735596,0.13487549,95.0
23027,0.7648274,0.2557481,-0.9011208,-0.26337892,0.18160401,0.06584473,95.0
23028,0.41125154,-0.22291619,-0.292503,-0.26337892,0.18160401,0.06584473,95.0
23029,0.41125154,-0.22291619,-0.292503,-0.18372802,0.18054199,-0.04885254,95.0
23030,0.12967259,-0.6081181,0.39032626,-0.18372802,0.18054199,-0.04885254,95.0
23031,0.12967259,-0.6081181,0.39032626,-0.093457036,0.18903808,-0.012744141,95.0
23032,-0.048923016,-0.8777909,0.93417263,-0.093457036,0.18903808,-0.012744141,95.0
23033,-0.048923016,-0.8777909,0.93417263,-0.107263185,0.1985962,-0.11257324,95.0
23034,-0.19565696,-0.7357777,1.152929,-0.107263185,0.1985962,-0.11257324,95.0
23035,-0.19565696,-0.7357777,1.152929,-0.26868898,0.27718505,-0.09664307,95.0
23036,-0.1975168,-0.32371736,0.97876406,-0.26868898,0.27718505,-0.09664307,95.0
23037,-0.1975168,-0.32371736,0.97876406,-0.42905274,0.36427003,-0.07115479,95.0
23038,0.03484547,-0.05697193,0.5532749,-0.42905274,0.36427003,-0.07115479,95.0
23039,0.03484547,-0.05697193,0.5532749,-0.48427734,0.42692873,0.008496094,95.0
23040,0.45415813,0.094986424,0.16442174,-0.48427734,0.42692873,0.008496094,95.0
23041,0.45415813,0.094986424,0.16442174,-0.46728516,0.5256958,0.11682129,95.0
23042,0.7956996,0.24047889,-0.086406946,-0.46728516,0.5256958,0.11682129,95.0
23043,0.7956996,0.24047889,-0.086406946,-0.6000366,0.6669434,0.29417726,95.0
23044,1.5234616,-5.7347045,-3.1466403,-0.6000366,0.6669434,0.29417726,95.0
23045,1.5234616,-5.7347045,-3.1466403,-0.62340087,0.7975708,0.38657227,95.0
23046,1.068867,-4.8558054,-2.7147365,-0.62340087,0.7975708,0.38657227,95.0
23047,1.068867,-4.8558054,-2.7147365,-0.5883545,0.92076415,0.57454836,95.0
23048,0.60084546,-4.2606697,-2.196704,-0.5883545,0.92076415,0.57454836,95.0
23049,0.60084546,-4.2606697,-2.196704,-0.5331299,1.0004151,0.45347902,95.0
23050,0.28635263,-3.3998814,-1.7040062,-0.5331299,1.0004151,0.45347902,95.0
23051,0.28635263,-3.3998814,-1.7040062,-0.7051758,1.1129884,0.4885254,95.0
23052,0.12035406,-2.5094924,-1.3529875,-0.7051758,1.1129884,0.4885254,95.0
23053,0.12035406,-2.5094924,-1.3529875,-0.7784546,1.1480347,0.37489015,95.0
23054,0.042364836,-1.8909559,-1.1042285,-0.7784546,1.1480347,0.37489015,95.0
23055,0.042364836,-1.8909559,-1.1042285,-0.7869507,1.1533448,0.33134767,95.0
23056,-0.06403291,-1.677743,-0.8545742,-0.7869507,1.1533448,0.33134767,95.0
23057,-0.06403291,-1.677743,-0.8545742,-0.70305175,1.0981201,0.3079834,95.0
23058,-0.25103104,-1.5702581,-0.6353073,-0.70305175,1.0981201,0.3079834,95.0
23059,-0.25103104,-1.5702581,-0.6353073,-0.5033936,0.9685547,0.2623169,95.0
23060,-0.3147775,-1.242681,-0.4970398,-0.5033936,0.9685547,0.2623169,95.0
23061,-0.3147775,-1.242681,-0.4970398,-0.3462158,0.7954468,0.26762697,95.0
23062,-0.0645051,-0.8225751,-0.3423829,-0.3462158,0.7954468,0.26762697,95.0
23063,-0.0645051,-0.8225751,-0.3423829,-0.1985962,0.5936646,0.24532472,95.0
23064,0.32272458,-0.5398474,-0.06660652,-0.1985962,0.5936646,0.24532472,95.0
23065,0.32272458,-0.5398474,-0.06660652,-0.14124756,0.41524658,0.23258057,95.0
23066,0.4243418,-0.46376228,0.17703724,-0.14124756,0.41524658,0.23258057,95.0
23067,0.4243418,-0.46376228,0.17703724,-0.18160401,0.28568116,0.16461182,95.0
23068,0.2140584,-0.46287966,0.15515518,-0.18160401,0.28568116,0.16461182,95.0
23069,0.2140584,-0.46287966,0.15515518,-0.24957275,0.15823975,0.09451904,95.0
23070,0.040350676,-0.4772005,0.0067658424,-0.24957275,0.15823975,0.09451904,95.0
23071,0.040350676,-0.4772005,0.0067658424,-0.15186767,0.032922365,-0.038232423,95.0
23072,0.0018727779,-0.46346188,-0.038398266,-0.15186767,0.032922365,-0.038232423,95.0
23073,0.0018727779,-0.46346188,-0.038398266,-0.1720459,-0.012744141,-0.2166504,95.0
23074,-0.007815838,-0.37351608,-0.10900211,-0.1720459,-0.012744141,-0.2166504,95.0
23075,-0.007815838,-0.37351608,-0.10900211,-0.44498292,-0.021240234,-0.4428589,95.0
23076,0.113571525,-0.22851276,-0.35259485,-0.44498292,-0.021240234,-0.4428589,95.0
23077,0.113571525,-0.22851276,-0.35259485,-0.76358646,0.032922365,-0.7317261,95.0
23078,0.34125996,-0.2735572,-0.5720053,-0.76358646,0.032922365,-0.7317261,95.0
23079,0.34125996,-0.2735572,-0.5720053,-0.8591675,0.18903808,-1.0099732,95.0
23080,0.10792017,-0.4677596,-0.7240591,-0.8591675,0.18903808,-1.0099732,95.0
23081,0.10792017,-0.4677596,-0.7240591,-0.813501,0.22833252,-1.270166,95.0
23082,-0.3287151,-0.09159088,-0.9153924,-0.813501,0.22833252,-1.270166,95.0
23083,-0.3287151,-0.09159088,-0.9153924,-0.56817627,0.29523927,-1.2202514,95.0
23084,0.035770535,0.5340028,-0.9067278,-0.56817627,0.29523927,-1.2202514,95.0
23085,0.035770535,0.5340028,-0.9067278,-0.15505372,0.31223145,-1.1129884,95.0
23086,0.85503244,0.6436453,-0.60093117,-0.15505372,0.31223145,-1.1129884,95.0
23087,0.85503244,0.6436453,-0.60093117,-0.083898924,0.3695801,-1.2170655,95.0
23088,0.85503244,0.6436453,-0.60093117,-0.083898924,0.3695801,-1.2170655,96.0
23089,1.186748,0.5876827,-0.24274445,-0.083898924,0.3695801,-1.2170655,96.0
23090,1.186748,0.5876827,-0.24274445,-0.1709839,0.50020754,-1.2892822,96.0
23091,1.0605557,0.58105946,-0.095477104,-0.1709839,0.50020754,-1.2892822,96.0
23092,1.0605557,0.58105946,-0.095477104,-0.2888672,0.66588134,-1.2797241,96.0
23093,0.8325753,0.41877842,-0.28303432,-0.2888672,0.66588134,-1.2797241,96.0
23094,0.8325753,0.41877842,-0.28303432,-0.30267334,0.7051758,-1.3168945,96.0
23095,0.62072325,0.20797205,-0.5090809,-0.30267334,0.7051758,-1.3168945,96.0
23096,0.62072325,0.20797205,-0.5090809,-0.15823975,0.8092529,-1.3264526,96.0
23097,0.5602503,0.110066414,-0.28997993,-0.15823975,0.8092529,-1.3264526,96.0
23098,0.5602503,0.110066414,-0.28997993,0.15186767,0.9133301,-1.3115845,96.0
23099,0.7015207,0.42595625,0.28486156,0.15186767,0.9133301,-1.3115845,96.0
23100,0.7015207,0.42595625,0.28486156,0.20709229,0.9388184,-1.3445069,96.0
23101,0.9427717,0.9876518,0.515841,0.20709229,0.9388184,-1.3445069,96.0
23102,0.9427717,0.9876518,0.515841,-0.15186767,1.0216553,-1.1937011,96.0
23103,1.0538878,1.0320282,0.19103003,-0.15186767,1.0216553,-1.1937011,96.0
23104,1.0538878,1.0320282,0.19103003,-0.1529297,1.0067872,-1.1363525,96.0
23105,0.9850292,0.54016113,7.772446E-5,-0.1529297,1.0067872,-1.1363525,96.0
23106,0.9850292,0.54016113,7.772446E-5,0.18691407,1.080066,-1.0450195,96.0
23107,0.87215424,0.12062979,0.2651868,0.18691407,1.080066,-1.0450195,96.0
23108,0.87215424,0.12062979,0.2651868,0.23258057,1.0864381,-0.9505005,96.0
23109,0.7920351,0.2606759,0.46045256,0.23258057,1.0864381,-0.9505005,96.0
23110,0.7920351,0.2606759,0.46045256,-0.06584473,1.1098022,-0.89208984,96.0
23111,0.788352,0.6179886,0.40052748,-0.06584473,1.1098022,-0.89208984,96.0
23112,0.788352,0.6179886,0.40052748,-0.13168946,1.0970582,-0.8241211,96.0
23113,0.8676691,0.6490536,0.38218975,-0.13168946,1.0970582,-0.8241211,96.0
23114,0.8676691,0.6490536,0.38218975,-0.008496094,1.0460815,-0.76358646,96.0
23115,0.97634983,0.5255909,0.38069057,-0.008496094,1.0460815,-0.76358646,96.0
23116,0.97634983,0.5255909,0.38069057,0.045666505,1.1108643,-0.725354,96.0
23117,0.9916878,0.33289957,0.40025568,0.045666505,1.1108643,-0.725354,96.0
23118,0.9916878,0.33289957,0.40025568,0.362146,1.1490967,-0.7041138,96.0
23119,0.9258084,0.26180315,0.47783422,0.362146,1.1490967,-0.7041138,96.0
23120,0.9258084,0.26180315,0.47783422,0.43967286,1.1905152,-0.70092773,96.0
23121,0.77592516,0.61057806,0.47229433,0.43967286,1.1905152,-0.70092773,96.0
23122,0.77592516,0.61057806,0.47229433,0.38657227,1.2584839,-0.6711914,96.0
23123,0.7845707,0.6653056,0.440372,0.38657227,1.2584839,-0.6711914,96.0
23124,0.7845707,0.6653056,0.440372,0.5150757,1.3052124,-0.68924564,96.0
23125,0.7469921,0.3843689,0.56140375,0.5150757,1.3052124,-0.68924564,96.0
23126,0.7469921,0.3843689,0.56140375,0.6435791,1.3657471,-0.7126099,96.0
23127,0.64443207,-0.03742647,0.80042934,0.6435791,1.3657471,-0.7126099,96.0
23128,0.64443207,-0.03742647,0.80042934,0.7720825,1.3413209,-0.85704345,96.0
23129,0.54142475,-0.26701403,1.0816522,0.7720825,1.3413209,-0.85704345,96.0
23130,0.54142475,-0.26701403,1.0816522,0.6425171,1.4039795,-0.92926025,96.0
23131,0.4798193,-0.40651894,1.3192279,0.6425171,1.4039795,-0.92926025,96.0
23132,0.4798193,-0.40651894,1.3192279,0.74871826,1.3795532,-1.0004151,96.0
23133,0.47518826,-0.47628927,1.3551626,0.74871826,1.3795532,-1.0004151,96.0
23134,0.47518826,-0.47628927,1.3551626,0.9589966,1.3222046,-1.1214844,96.0
23135,0.56979895,-0.8730483,1.4138544,0.9589966,1.3222046,-1.1214844,96.0
23136,0.56979895,-0.8730483,1.4138544,1.1937011,1.2531738,-1.0524536,96.0
23137,0.52228165,-1.4195204,1.5832441,1.1937011,1.2531738,-1.0524536,96.0
23138,0.52228165,-1.4195204,1.5832441,1.9328613,0.89208984,-1.1639649,96.0
23139,0.4688387,-0.59265995,1.6123962,1.9328613,0.89208984,-1.1639649,96.0
23140,0.4688387,-0.59265995,1.6123962,1.6408081,0.9589966,-1.2797241,96.0
23141,0.79089165,1.3942928,1.3226441,1.6408081,0.9589966,-1.2797241,96.0
23142,0.79089165,1.3942928,1.3226441,1.1682129,1.0662597,-1.0970582,96.0
23143,1.0114002,2.7424245,0.3891089,1.1682129,1.0662597,-1.0970582,96.0
23144,1.0114002,2.7424245,0.3891089,0.86341554,1.0503296,-1.0609497,96.0
23145,0.5936661,2.9211855,-1.4593916,0.86341554,1.0503296,-1.0609497,96.0
23146,0.5936661,2.9211855,-1.4593916,-0.26019287,0.7805786,-1.0747559,96.0
23147,-0.12172222,2.545701,-1.9537315,-0.26019287,0.7805786,-1.0747559,96.0
23148,-0.12172222,2.545701,-1.9537315,0.2782471,0.92926025,-1.2945923,96.0
23149,-0.07717514,1.150538,0.2552886,0.2782471,0.92926025,-1.2945923,96.0
23150,-0.07717514,1.150538,0.2552886,0.9366943,1.2563599,-1.1894531,96.0
23151,0.9243927,-0.5562053,2.2969065,0.9366943,1.2563599,-1.1894531,96.0
23152,0.9243927,-0.5562053,2.2969065,0.16461182,1.7002808,-1.4878784,96.0
23153,1.8864622,-1.7151303,2.4308114,0.16461182,1.7002808,-1.4878784,96.0
23154,1.8864622,-1.7151303,2.4308114,0.11151123,1.905249,-1.2988404,96.0
23155,1.7765646,-1.903574,1.8681965,0.11151123,1.905249,-1.2988404,96.0
23156,1.7765646,-1.903574,1.8681965,1.5282348,1.4995606,-1.3338867,96.0
23157,0.324584,0.34322977,1.1713883,1.5282348,1.4995606,-1.3338867,96.0
23158,0.324584,0.34322977,1.1713883,1.5962037,1.3476928,-1.7013428,96.0
23159,-0.878602,2.5636096,0.8989148,1.5962037,1.3476928,-1.7013428,96.0
23160,-0.878602,2.5636096,0.8989148,1.1448487,1.6163819,-1.5675293,96.0
23161,-0.5714359,2.4449427,1.4151036,1.1448487,1.6163819,-1.5675293,96.0
23162,-0.5714359,2.4449427,1.4151036,1.3391968,1.2722901,-1.6439942,96.0
23163,0.3557291,1.745749,1.5411406,1.3391968,1.2722901,-1.6439942,96.0
23164,0.3557291,1.745749,1.5411406,1.2021973,0.9866089,-1.5685914,96.0
23165,0.70764256,1.7270923,1.135598,1.2021973,0.9866089,-1.5685914,96.0
23166,0.70764256,1.7270923,1.135598,1.1108643,0.7434082,-1.5569092,96.0
23167,0.6323862,2.0916715,0.8385687,1.1108643,0.7434082,-1.5569092,96.0
23168,0.6323862,2.0916715,0.8385687,0.6924316,0.721106,-1.6907227,96.0
23169,0.53385067,1.9268405,0.7903007,0.6924316,0.721106,-1.6907227,96.0
23170,0.53385067,1.9268405,0.7903007,0.48215333,0.67225343,-1.6238159,96.0
23171,0.42205143,1.3572196,0.84935486,0.48215333,0.67225343,-1.6238159,96.0
23172,0.42205143,1.3572196,0.84935486,0.48533937,0.6149048,-1.5887696,96.0
23173,0.30066586,1.222177,0.8284707,0.48533937,0.6149048,-1.5887696,96.0
23174,0.30066586,1.222177,0.8284707,0.48533937,0.5341919,-1.6195679,96.0
23175,0.1843195,1.4020092,0.6561116,0.48533937,0.5341919,-1.6195679,96.0
23176,0.1843195,1.4020092,0.6561116,0.23045655,0.56392825,-1.6981567,96.0
23177,-0.021391869,1.2283335,0.48060226,0.23045655,0.56392825,-1.6981567,96.0
23178,-0.021391869,1.2283335,0.48060226,0.078588866,0.4970215,-1.724707,96.0
23179,-0.24871731,0.9305916,0.58269966,0.078588866,0.4970215,-1.724707,96.0
23180,-0.24871731,0.9305916,0.58269966,0.12213135,0.4619751,-1.8542725,96.0
23181,-0.24539757,1.0208282,0.7663672,0.12213135,0.4619751,-1.8542725,96.0
23182,-0.24539757,1.0208282,0.7663672,-0.04141846,0.45878908,-2.0008302,96.0
23183,-0.048441887,1.1663697,0.6473346,-0.04141846,0.45878908,-2.0008302,96.0
23184,-0.048441887,1.1663697,0.6473346,-0.47578126,0.3971924,-2.0741088,96.0
23185,-0.040620804,1.1801295,0.37543607,-0.47578126,0.3971924,-2.0741088,96.0
23186,-0.040620804,1.1801295,0.37543607,-0.7848267,0.18585205,-2.0932252,96.0
23187,-0.5386486,1.4203854,0.38959455,-0.7848267,0.18585205,-2.0932252,96.0
23188,-0.5386486,1.4203854,0.38959455,-1.0821899,0.10089111,-2.1155274,96.0
23189,-1.0099964,1.7118821,0.50070167,-1.0821899,0.10089111,-2.1155274,96.0
23190,-1.0099964,1.7118821,0.50070167,-1.358313,0.14974366,-2.2854493,96.0
23191,-0.7373066,1.4756947,0.23402071,-1.358313,0.14974366,-2.2854493,96.0
23192,-0.7373066,1.4756947,0.23402071,-1.6471802,0.17416993,-2.342798,96.0
23193,-0.034352303,0.7573867,-0.3135891,-1.6471802,0.17416993,-2.342798,96.0
23194,-0.034352303,0.7573867,-0.3135891,-1.8001099,0.3175415,-2.4320068,96.0
23195,0.2574911,0.3673718,-0.6132736,-1.8001099,0.3175415,-2.4320068,96.0
23196,0.2574911,0.3673718,-0.6132736,-1.7353271,0.3982544,-2.434131,96.0
23197,0.114928246,0.5528207,-0.2026794,-1.7353271,0.3982544,-2.434131,96.0
23198,0.114928246,0.5528207,-0.2026794,-1.6960328,0.64995116,-2.5127199,96.0
23199,-0.28436375,0.88217354,0.5458398,-1.6960328,0.64995116,-2.5127199,96.0
23200,-0.28436375,0.88217354,0.5458398,-1.5590333,0.7582764,-2.6518433,96.0
23201,-1.3198004,0.534462,0.92323184,-1.5590333,0.7582764,-2.6518433,96.0
23202,-1.3198004,0.534462,0.92323184,-0.6839356,0.7614624,-2.2822633,96.0
23203,-2.0727224,0.0029845238,0.9547231,-0.6839356,0.7614624,-2.2822633,96.0
23204,-2.0727224,0.0029845238,0.9547231,-0.1709839,0.5798584,-2.521216,96.0
23205,-1.6037469,0.4234569,1.0720916,-0.1709839,0.5798584,-2.521216,96.0
23206,-1.6037469,0.4234569,1.0720916,-1.0821899,0.8421753,-2.4819214,96.0
23207,-0.8117819,0.5307088,1.3880687,-1.0821899,0.8421753,-2.4819214,96.0
23208,-0.8117819,0.5307088,1.3880687,-1.2521118,0.8878418,-2.1909301,96.0
23209,-0.37339973,-0.045489073,1.5745907,-1.2521118,0.8878418,-2.1909301,96.0
23210,-0.37339973,-0.045489073,1.5745907,-0.4067505,0.71579593,-2.0273805,96.0
23211,-0.26355124,3.5190582E-4,1.223259,-0.4067505,0.71579593,-2.0273805,96.0
23212,-0.26355124,3.5190582E-4,1.223259,0.17841797,0.4885254,-1.7863038,96.0
23213,-0.44884157,0.29613113,0.21411753,0.17841797,0.4885254,-1.7863038,96.0
23214,-0.44884157,0.29613113,0.21411753,0.09664307,0.3079834,-1.4570801,96.0
23215,-0.9546299,0.21699524,-0.31684065,0.09664307,0.3079834,-1.4570801,96.0
23216,-0.9546299,0.21699524,-0.31684065,0.06796875,0.13275146,-1.263794,96.0
23217,-1.6153517,0.05543208,0.3873844,0.06796875,0.13275146,-1.263794,96.0
23218,-1.6153517,0.05543208,0.3873844,-0.5607422,0.20921631,-1.1108643,96.0
23219,-2.5349202,0.115451574,1.148787,-0.5607422,0.20921631,-1.1108643,96.0
23220,-2.5349202,0.115451574,1.148787,-1.3838013,0.13912354,-0.9611206,96.0
23221,-3.424323,0.59038377,0.63056517,-1.3838013,0.13912354,-0.9611206,96.0
23222,-3.424323,0.59038377,0.63056517,-1.3891114,0.18585205,-0.9600586,96.0
23223,-3.3751154,0.73734593,-0.45591164,-1.3891114,0.18585205,-0.9600586,96.0
23224,-3.3751154,0.73734593,-0.45591164,-0.8591675,0.0053100586,-0.4800293,96.0
23225,-2.5149238,-0.32049942,-0.27119923,-0.8591675,0.0053100586,-0.4800293,96.0
23226,-2.5149238,-0.32049942,-0.27119923,-0.45135498,-0.022302246,0.21346436,96.0
23227,-2.1150517,-1.5228181,1.1439295,-0.45135498,-0.022302246,0.21346436,96.0
23228,-2.1150517,-1.5228181,1.1439295,-0.8230591,0.0361084,0.72323,96.0
23229,-2.586463,-1.7523487,2.2634592,-0.8230591,0.0361084,0.72323,96.0
23230,-2.586463,-1.7523487,2.2634592,-2.3077514,0.29311523,1.2234375,96.0
23231,-2.8516166,-1.5378163,2.5208263,-2.3077514,0.29311523,1.2234375,96.0
23232,-2.8516166,-1.5378163,2.5208263,-3.6628785,0.7476563,1.7385132,96.0
23233,-2.4944403,-1.2658854,2.5042586,-3.6628785,0.7476563,1.7385132,96.0
23234,-2.4944403,-1.2658854,2.5042586,-3.4281738,0.91757816,2.1176515,96.0
23235,-1.9349444,-0.43101883,2.5873303,-3.4281738,0.91757816,2.1176515,96.0
23236,-1.9349444,-0.43101883,2.5873303,-2.4723632,0.99722904,2.2843874,96.0
23237,-1.1389834,0.70625925,2.630497,-2.4723632,0.99722904,2.2843874,96.0
23238,-1.1389834,0.70625925,2.630497,-1.9987061,1.2266235,2.538208,96.0
23239,-0.17427264,1.1963551,2.4108067,-1.9987061,1.2266235,2.538208,96.0
23240,-0.17427264,1.1963551,2.4108067,-1.4294678,1.3954834,2.627417,96.0
23241,0.64358974,0.91069746,1.8658895,-1.4294678,1.3954834,2.627417,96.0
23242,0.64358974,0.91069746,1.8658895,-0.46622315,1.4018555,2.5838745,96.0
23243,1.3134435,0.57159996,1.1049795,-0.46622315,1.4018555,2.5838745,96.0
23244,1.3134435,0.57159996,1.1049795,0.5140137,1.2924683,2.3874023,96.0
23245,1.8414531,0.8735521,0.37022686,0.5140137,1.2924683,2.3874023,96.0
23246,1.8414531,0.8735521,0.37022686,0.99722904,1.1204224,1.9679078,96.0
23247,2.28659,1.2920547,-0.16679478,0.99722904,1.1204224,1.9679078,96.0
23248,2.28659,1.2920547,-0.16679478,1.1384766,0.97067875,1.6100098,96.0
23249,2.5499387,1.2730968,-0.7265873,1.1384766,0.97067875,1.6100098,96.0
23250,2.5499387,1.2730968,-0.7265873,1.7289551,0.46834716,1.0938721,96.0
23251,2.4677708,1.4084187,-1.3988237,1.7289551,0.46834716,1.0938721,96.0
23252,2.4677708,1.4084187,-1.3988237,1.8765748,0.14549561,0.33134767,96.0
23253,2.250877,1.6252456,-1.74683,1.8765748,0.14549561,0.33134767,96.0
23254,2.250877,1.6252456,-1.74683,1.8521484,-0.0541626,-0.2623169,96.0
23255,2.0481381,1.1510267,-1.4570217,1.8521484,-0.0541626,-0.2623169,96.0
23256,2.0481381,1.1510267,-1.4570217,1.8192261,-0.32178956,-0.7104859,96.0
23257,2.0720434,-0.29318,-0.5059128,1.8192261,-0.32178956,-0.7104859,96.0
23258,2.0720434,-0.29318,-0.5059128,2.2992554,-0.362146,-0.9430664,96.0
23259,2.320013,-1.4310651,0.47957134,2.2992554,-0.362146,-0.9430664,96.0
23260,2.320013,-1.4310651,0.47957134,2.4107666,-0.45666504,-1.083252,96.0
23261,2.283208,-0.6933017,0.36612797,2.4107666,-0.45666504,-1.083252,96.0
23262,2.283208,-0.6933017,0.36612797,1.4581422,-0.37807617,-1.3912354,96.0
23263,1.926774,1.1249118,-0.87881374,1.4581422,-0.37807617,-1.3912354,96.0
23264,1.926774,1.1249118,-0.87881374,0.3419678,-0.3440918,-1.7799317,96.0
23265,1.4488654,2.543057,-2.0317006,0.3419678,-0.3440918,-1.7799317,96.0
23266,1.4488654,2.543057,-2.0317006,-0.12850343,-0.5256958,-2.086853,96.0
23267,0.93660736,3.0480318,-2.20644,-0.12850343,-0.5256958,-2.086853,96.0
23268,0.93660736,3.0480318,-2.20644,-0.3175415,-0.631897,-2.356604,96.0
23269,0.41633892,2.3831644,-1.7613926,-0.3175415,-0.631897,-2.356604,96.0
23270,0.41633892,2.3831644,-1.7613926,0.027612304,-0.9398804,-2.434131,96.0
23271,-0.25922632,-1.0213008,-0.642818,0.027612304,-0.9398804,-2.434131,96.0
23272,-0.25922632,-1.0213008,-0.642818,1.0482056,-1.2457398,-1.7841797,96.0
23273,0.4894085,-8.159167,2.25253,1.0482056,-1.2457398,-1.7841797,96.0
23274,0.4894085,-8.159167,2.25253,-1.2457398,-0.42268068,1.9126831,96.0
23275,0.21131468,-7.665957,2.919651,-1.2457398,-0.42268068,1.9126831,96.0
23276,0.21131468,-7.665957,2.919651,3.4908326,-1.3774292,-1.2138795,96.0
23277,-1.1651039,1.8192854,1.0045319,3.4908326,-1.3774292,-1.2138795,96.0
23278,-1.1651039,1.8192854,1.0045319,0.18266602,-0.33240968,0.12531738,96.0
23279,-1.8566189,5.719149,-0.43051767,0.18266602,-0.33240968,0.12531738,96.0
23280,-1.8566189,5.719149,-0.43051767,-1.4379638,0.20284425,0.29205322,96.0
23281,-2.2257004,2.246108,-1.4399834,-1.4379638,0.20284425,0.29205322,96.0
23282,-2.2257004,2.246108,-1.4399834,0.070092775,-0.23364258,0.12850343,96.0
23283,-2.2297425,-1.3294806,-1.8560028,0.070092775,-0.23364258,0.12850343,96.0
23284,-2.2297425,-1.3294806,-1.8560028,0.6977417,-0.37382814,-0.14974366,96.0
23285,-1.603313,-1.3051004,-1.293982,0.6977417,-0.37382814,-0.14974366,96.0
23286,-1.603313,-1.3051004,-1.293982,0.26656494,-0.10620117,-0.14761963,96.0
23287,-0.6257534,0.17188644,-0.6947069,0.26656494,-0.10620117,-0.14761963,96.0
23288,-0.6257534,0.17188644,-0.6947069,0.24001466,0.019116212,-0.29523927,96.0
23289,0.07620382,0.8898406,-0.45959854,0.24001466,0.019116212,-0.29523927,96.0
23290,0.07620382,0.8898406,-0.45959854,0.0998291,0.07327881,-0.4258667,96.0
23291,0.15422487,0.909297,-0.4136138,0.0998291,0.07327881,-0.4258667,96.0
23292,0.15422487,0.909297,-0.4136138,-0.03186035,0.1083252,-0.4970215,96.0
23293,-0.21506023,0.5988002,-0.35928488,-0.03186035,0.1083252,-0.4970215,96.0
23294,-0.21506023,0.5988002,-0.35928488,0.23682861,0.010620117,-0.5713623,96.0
23295,-0.21506023,0.5988002,-0.35928488,0.23682861,0.010620117,-0.5713623,95.0
23296,-0.58728266,0.47855186,-0.17382908,0.23682861,0.010620117,-0.5713623,95.0
23297,-0.58728266,0.47855186,-0.17382908,0.4078125,-0.06265869,-0.6414551,95.0
23298,-0.70599556,0.48989725,0.18445969,0.4078125,-0.06265869,-0.6414551,95.0
23299,-0.70599556,0.48989725,0.18445969,0.2527588,-0.015930176,-0.6414551,95.0
23300,-0.6944473,0.21096087,0.47945213,0.2527588,-0.015930176,-0.6414551,95.0
23301,-0.6944473,0.21096087,0.47945213,0.2782471,-0.009558106,-0.63614506,95.0
23302,-0.663187,0.116839886,0.4985032,0.2782471,-0.009558106,-0.63614506,95.0
23303,-0.663187,0.116839886,0.4985032,0.26975098,0.081774905,-0.6860596,95.0
23304,-0.5089431,0.19601107,0.29671478,0.26975098,0.081774905,-0.6860596,95.0
23305,-0.5089431,0.19601107,0.29671478,0.07115479,0.17629395,-0.64782715,95.0
23306,-0.36759138,-0.015005112,-0.056109905,0.07115479,0.17629395,-0.64782715,95.0
23307,-0.36759138,-0.015005112,-0.056109905,0.09239502,0.20178223,-0.58198243,95.0
23308,-0.35337496,-0.21486044,-0.566226,0.09239502,0.20178223,-0.58198243,95.0
23309,-0.35337496,-0.21486044,-0.566226,0.32072756,0.14655761,-0.6074707,95.0
23310,-0.3554418,-0.04514265,-0.95549536,0.32072756,0.14655761,-0.6074707,95.0
23311,-0.3554418,-0.04514265,-0.95549536,0.47896728,0.033984374,-0.6881836,95.0
23312,-0.35921907,0.1547184,-0.8149457,0.47896728,0.033984374,-0.6881836,95.0
23313,-0.35921907,0.1547184,-0.8149457,0.5299439,-0.16248779,-0.7604004,95.0
23314,-0.519675,0.15928507,-0.052933216,0.5299439,-0.16248779,-0.7604004,95.0
23315,-0.519675,0.15928507,-0.052933216,0.60216063,-0.16461182,-0.6818115,95.0
23316,-0.70121384,0.37567043,0.6218376,0.60216063,-0.16461182,-0.6818115,95.0
23317,-0.70121384,0.37567043,0.6218376,0.69986576,-0.13381349,-0.55755615,95.0
23318,-0.68289495,0.7352772,0.57343435,0.69986576,-0.13381349,-0.55755615,95.0
23319,-0.68289495,0.7352772,0.57343435,0.630835,-0.16248779,-0.6552612,95.0
23320,-0.54330087,0.72037506,0.02448225,0.630835,-0.16248779,-0.6552612,95.0
23321,-0.54330087,0.72037506,0.02448225,0.62340087,-0.21452637,-0.5957886,95.0
23322,-0.45168185,0.48185444,-0.5955634,0.62340087,-0.21452637,-0.5957886,95.0
23323,-0.45168185,0.48185444,-0.5955634,0.73597413,-0.25594482,-0.5479981,95.0
23324,-0.3890798,0.38807154,-0.8289652,0.73597413,-0.25594482,-0.5479981,95.0
23325,-0.3890798,0.38807154,-0.8289652,0.8251831,-0.26019287,-0.5703003,95.0
23326,0.0962801,0.91033506,-1.1069098,0.8251831,-0.26019287,-0.5703003,95.0
23327,0.0962801,0.91033506,-1.1069098,0.6000366,-0.21027832,-0.6711914,95.0
23328,0.14831305,0.93504286,-1.0000052,0.6000366,-0.21027832,-0.6711914,95.0
23329,0.14831305,0.93504286,-1.0000052,0.43861085,-0.16461182,-0.724292,95.0
23330,0.25517392,0.71518517,-0.9621625,0.43861085,-0.16461182,-0.724292,95.0
23331,0.25517392,0.71518517,-0.9621625,0.2538208,-0.2177124,-0.78164065,95.0
23332,0.05421233,0.3388958,-0.80316496,0.2538208,-0.2177124,-0.78164065,95.0
23333,0.05421233,0.3388958,-0.80316496,0.3090454,-0.26762697,-0.7784546,95.0
23334,-0.15500665,0.050120354,-0.481143,0.3090454,-0.26762697,-0.7784546,95.0
23335,-0.15500665,0.050120354,-0.481143,0.62764895,-0.38657227,-0.84748536,95.0
23336,-0.2749331,0.2819786,-0.42998266,0.62764895,-0.38657227,-0.84748536,95.0
23337,-0.2749331,0.2819786,-0.42998266,0.54906005,-0.4067505,-0.88253176,95.0
23338,-0.4855349,0.8126068,-0.55616856,0.54906005,-0.4067505,-0.88253176,95.0
23339,-0.4855349,0.8126068,-0.55616856,0.88359374,-0.6796875,-0.8644776,95.0
23340,-0.5238161,0.4247074,-0.40554285,0.88359374,-0.6796875,-0.8644776,95.0
23341,-0.5238161,0.4247074,-0.40554285,1.3721192,-0.84323734,-0.815625,95.0
23342,-0.16484141,0.0827589,0.49420595,1.3721192,-0.84323734,-0.815625,95.0
23343,-0.16484141,0.0827589,0.49420595,1.2234375,-0.7975708,-0.7604004,95.0
23344,-0.14521527,0.13284492,0.36755705,1.2234375,-0.7975708,-0.7604004,95.0
23345,-0.14521527,0.13284492,0.36755705,1.0577637,-0.7317261,-0.7593384,95.0
23346,-0.21045923,0.38757467,0.23376703,1.0577637,-0.7317261,-0.7593384,95.0
23347,-0.21045923,0.38757467,0.23376703,0.7954468,-0.63933104,-0.67437744,95.0
23348,-0.3079183,0.29195642,-0.36264467,0.7954468,-0.63933104,-0.67437744,95.0
23349,-0.3079183,0.29195642,-0.36264467,1.1236085,-0.7051758,-0.65419924,95.0
23350,-0.033334255,0.34569883,-0.7322664,1.1236085,-0.7051758,-0.65419924,95.0
23351,-0.033334255,0.34569883,-0.7322664,0.98873293,-0.62764895,-0.6446411,95.0
23352,0.13608885,0.5325041,-1.0411477,0.98873293,-0.62764895,-0.6446411,95.0
23353,0.13608885,0.5325041,-1.0411477,0.7072998,-0.5607422,-0.54375,95.0
23354,-0.22497892,0.02158451,-1.8690145,0.7072998,-0.5607422,-0.54375,95.0
23355,-0.22497892,0.02158451,-1.8690145,1.4018555,-0.8952759,-0.31329346,95.0
23356,-0.31325948,-0.34208298,-1.9292448,1.4018555,-0.8952759,-0.31329346,95.0
23357,-0.31325948,-0.34208298,-1.9292448,2.4012086,-1.0269654,-0.36851808,95.0
23358,0.30495882,0.6325712,-0.8634763,2.4012086,-1.0269654,-0.36851808,95.0
23359,0.30495882,0.6325712,-0.8634763,1.1066163,-0.60959476,-0.34940186,95.0
23360,0.44659162,0.8715844,-0.62905025,1.1066163,-0.60959476,-0.34940186,95.0
23361,0.44659162,0.8715844,-0.62905025,1.1236085,-0.71367186,-0.15505372,95.0
23362,-0.078249216,-0.07059145,-0.9300225,1.1236085,-0.71367186,-0.15505372,95.0
23363,-0.078249216,-0.07059145,-0.9300225,1.7013428,-0.7699585,-0.09664307,95.0
23364,-0.31251407,-0.23047209,-0.8725703,1.7013428,-0.7699585,-0.09664307,95.0
23365,-0.31251407,-0.23047209,-0.8725703,1.5059327,-0.66481936,-0.11044922,95.0
23366,-0.099169016,0.32867146,-0.73169875,1.5059327,-0.66481936,-0.11044922,95.0
23367,-0.099169016,0.32867146,-0.73169875,1.3073364,-0.6117188,-0.07327881,95.0
23368,0.18119931,0.61691666,-0.65075207,1.3073364,-0.6117188,-0.07327881,95.0
23369,0.18119931,0.61691666,-0.65075207,1.350879,-0.6202149,-0.016992187,95.0
23370,0.34742522,0.768106,-0.6335411,1.350879,-0.6202149,-0.016992187,95.0
23371,0.34742522,0.768106,-0.6335411,1.0981201,-0.5235718,0.0021240234,95.0
23372,0.47872138,0.8994827,-0.65179145,1.0981201,-0.5235718,0.0021240234,95.0
23373,0.47872138,0.8994827,-0.65179145,0.93138427,-0.43011475,0.039294433,95.0
23374,0.50441265,0.87942505,-0.7216773,0.93138427,-0.43011475,0.039294433,95.0
23375,0.50441265,0.87942505,-0.7216773,0.71579593,-0.3536499,0.1444336,95.0
23376,0.31866693,0.6713257,-0.9001446,0.71579593,-0.3536499,0.1444336,95.0
23377,0.31866693,0.6713257,-0.9001446,0.72854006,-0.33240968,0.1539917,95.0
23378,0.0019061565,0.24830341,-1.0203476,0.72854006,-0.33240968,0.1539917,95.0
23379,0.0019061565,0.24830341,-1.0203476,0.63933104,-0.32816163,0.15823975,95.0
23380,-0.29958606,-0.3673973,-0.8605896,0.63933104,-0.32816163,0.15823975,95.0
23381,-0.29958606,-0.3673973,-0.8605896,0.7168579,-0.3154175,0.124255374,95.0
23382,-0.2883749,-0.49977684,-0.43711674,0.7168579,-0.3154175,0.124255374,95.0
23383,-0.2883749,-0.49977684,-0.43711674,0.5787964,-0.23258057,0.015930176,95.0
23384,0.073572636,0.14413643,-0.14824075,0.5787964,-0.23258057,0.015930176,95.0
23385,0.073572636,0.14413643,-0.14824075,0.1709839,-0.09770508,-0.053100586,95.0
23386,0.34129214,0.68912506,-0.21323371,0.1709839,-0.09770508,-0.053100586,95.0
23387,0.34129214,0.68912506,-0.21323371,-0.070092775,-0.070092775,-0.046728518,95.0
23388,0.20749426,0.5229559,-0.44119245,-0.070092775,-0.070092775,-0.046728518,95.0
23389,0.20749426,0.5229559,-0.44119245,0.0063720704,-0.06584473,-0.004248047,95.0
23390,-0.14189029,-0.04119301,-0.57802725,0.0063720704,-0.06584473,-0.004248047,95.0
23391,-0.14189029,-0.04119301,-0.57802725,0.16673584,-0.107263185,0.04141846,95.0
23392,-0.33557034,-0.31286144,-0.49210927,0.16673584,-0.107263185,0.04141846,95.0
23393,-0.33557034,-0.31286144,-0.49210927,0.3791382,-0.14018555,0.028674318,95.0
23394,-0.28433776,-0.08269882,-0.23312834,0.3791382,-0.14018555,0.028674318,95.0
23395,-0.28433776,-0.08269882,-0.23312834,0.1709839,-0.07540283,0.015930176,95.0
23396,-0.17716503,0.19045734,-0.110562734,0.1709839,-0.07540283,0.015930176,95.0
23397,-0.17716503,0.19045734,-0.110562734,0.15930176,-0.10407715,-0.012744141,95.0
23398,-0.1603477,0.10756588,-0.090024896,0.15930176,-0.10407715,-0.012744141,95.0
23399,-0.1603477,0.10756588,-0.090024896,0.18797608,-0.13381349,-0.06584473,95.0
23400,-0.16615653,-0.03510189,-0.023265034,0.18797608,-0.13381349,-0.06584473,95.0
23401,-0.16615653,-0.03510189,-0.023265034,0.0063720704,-0.06796875,-0.12850343,95.0
23402,-0.16615653,-0.03510189,-0.023265034,0.0063720704,-0.06796875,-0.12850343,92.0
23403,-1.671414,-6.807281,-0.04850705,0.0063720704,-0.06796875,-0.12850343,92.0
23404,-1.671414,-6.807281,-0.04850705,-0.059472658,-0.06478272,-0.18054199,92.0
23405,-1.3470188,-5.455029,-0.27392527,-0.059472658,-0.06478272,-0.18054199,92.0
23406,-1.3470188,-5.455029,-0.27392527,0.12213135,-0.13168946,-0.1359375,92.0
23407,-1.110159,-4.486069,-0.17288777,0.12213135,-0.13168946,-0.1359375,92.0
23408,-1.110159,-4.486069,-0.17288777,0.3058594,-0.16461182,-0.12956543,92.0
23409,-0.85929424,-3.4867437,0.061213702,0.3058594,-0.16461182,-0.12956543,92.0
23410,-0.85929424,-3.4867437,0.061213702,0.03079834,-0.098767094,-0.1444336,92.0
23411,-0.67111456,-2.6321197,0.077425554,0.03079834,-0.098767094,-0.1444336,92.0
23412,-0.67111456,-2.6321197,0.077425554,-0.020178223,-0.11363526,-0.1996582,92.0
23413,-0.5772603,-2.14958,-0.027048811,-0.020178223,-0.11363526,-0.1996582,92.0
23414,-0.5772603,-2.14958,-0.027048811,0.081774905,-0.15080567,-0.17629395,92.0
23415,-0.47450358,-1.8505356,0.05953771,0.081774905,-0.15080567,-0.17629395,92.0
23416,-0.47450358,-1.8505356,0.05953771,0.14549561,-0.15080567,-0.18479005,92.0
23417,-0.3512093,-1.4894129,0.1973372,0.14549561,-0.15080567,-0.18479005,92.0
23418,-0.3512093,-1.4894129,0.1973372,0.0021240234,-0.10620117,-0.20072022,92.0
23419,-0.25392887,-1.1480489,0.12063831,0.0021240234,-0.10620117,-0.20072022,92.0
23420,-0.25392887,-1.1480489,0.12063831,-0.020178223,-0.107263185,-0.2347046,92.0
23421,-0.1647886,-0.9913884,-0.011594817,-0.020178223,-0.107263185,-0.2347046,92.0
23422,-0.1647886,-0.9913884,-0.011594817,-0.12213135,-0.087084964,-0.26337892,92.0
23423,-0.091389,-0.9911576,-0.021910131,-0.12213135,-0.087084964,-0.26337892,92.0
23424,-0.091389,-0.9911576,-0.021910131,-0.12850343,-0.0637207,-0.2623169,92.0
23425,-0.04825768,-0.85558474,-0.0018786909,-0.12850343,-0.0637207,-0.2623169,92.0
23426,-0.04825768,-0.85558474,-0.0018786909,-0.11469727,-0.083898924,-0.26656494,92.0
23427,-0.045283377,-0.5770459,-0.052943382,-0.11469727,-0.083898924,-0.26656494,92.0
23428,-0.045283377,-0.5770459,-0.052943382,-0.08283692,-0.0998291,-0.26337892,92.0
23429,-0.053133443,-0.3351597,-0.07170041,-0.08283692,-0.0998291,-0.26337892,92.0
23430,-0.053133443,-0.3351597,-0.07170041,-0.038232423,-0.11151123,-0.2442627,92.0
23431,-0.038881272,-0.07957795,-0.045080055,-0.038232423,-0.11151123,-0.2442627,92.0
23432,-0.038881272,-0.07957795,-0.045080055,-0.13062744,-0.07115479,-0.21346436,92.0
23433,-0.018995643,0.0357517,-0.15518026,-0.13062744,-0.07115479,-0.21346436,92.0
23434,-0.018995643,0.0357517,-0.15518026,-0.13275146,-0.10089111,-0.18160401,92.0
23435,0.08381471,-0.25284398,-0.2970202,-0.13275146,-0.10089111,-0.18160401,92.0
23436,0.08381471,-0.25284398,-0.2970202,-0.07646485,-0.08283692,-0.16992188,92.0
23437,0.5409776,-0.79133767,-0.26709616,-0.07646485,-0.08283692,-0.16992188,92.0
23438,0.5409776,-0.79133767,-0.26709616,-0.13912354,-0.090270996,0.0063720704,92.0
23439,0.6694764,-0.4926893,-0.24905288,-0.13912354,-0.090270996,0.0063720704,92.0
23440,0.6694764,-0.4926893,-0.24905288,-0.28674316,0.058410645,0.12531738,92.0
23441,0.12321538,0.24211566,-0.34901038,-0.28674316,0.058410645,0.12531738,92.0
23442,0.12321538,0.24211566,-0.34901038,-0.15717773,-0.047790527,0.06478272,92.0
23443,-0.14896184,-0.041292824,-0.19717705,-0.15717773,-0.047790527,0.06478272,92.0
23444,-0.14896184,-0.041292824,-0.19717705,-0.3175415,0.028674318,0.15186767,92.0
23445,-0.05331254,-0.45658165,0.14128178,-0.3175415,0.028674318,0.15186767,92.0
23446,-0.05331254,-0.45658165,0.14128178,-0.4333008,0.070092775,0.12319336,92.0
23447,-0.085093856,-0.35635418,0.319544,-0.4333008,0.070092775,0.12319336,92.0
23448,-0.085093856,-0.35635418,0.319544,-0.542688,0.06265869,0.0541626,92.0
23449,-0.23949844,0.02170378,0.3704301,-0.542688,0.06265869,0.0541626,92.0
23450,-0.23949844,0.02170378,0.3704301,-0.6180908,0.10620117,-0.04885254,92.0
23451,-0.18849814,0.44592747,0.272577,-0.6180908,0.10620117,-0.04885254,92.0
23452,-0.18849814,0.44592747,0.272577,-1.0290893,0.26444092,-0.13487549,92.0
23453,0.1521678,0.8587073,-0.012455985,-1.0290893,0.26444092,-0.13487549,92.0
23454,0.1521678,0.8587073,-0.012455985,-1.453894,0.3355957,-0.3175415,92.0
23455,0.41691244,1.198001,-0.31593403,-1.453894,0.3355957,-0.3175415,92.0
23456,0.41691244,1.198001,-0.31593403,-1.9742798,0.4959595,-0.46622315,92.0
23457,0.44150114,1.1671532,-0.5688361,-1.9742798,0.4959595,-0.46622315,92.0
23458,0.44150114,1.1671532,-0.5688361,-2.5636964,0.6159668,-0.6488892,92.0
23459,0.41604275,1.1900703,-0.7651031,-2.5636964,0.6159668,-0.6488892,92.0
23460,0.41604275,1.1900703,-0.7651031,-3.6766846,0.89421386,-0.7582764,92.0
23461,0.41069067,1.1207086,-0.9288794,-3.6766846,0.89421386,-0.7582764,92.0
23462,0.41069067,1.1207086,-0.9288794,-4.616565,1.0428956,-0.71791995,92.0
23463,0.16927522,0.213022,-0.31275684,-4.616565,1.0428956,-0.71791995,92.0
23464,0.16927522,0.213022,-0.31275684,-4.499744,1.1395386,-0.46516114,92.0
23465,-0.8233933,-2.8257618,0.48645228,-4.499744,1.1395386,-0.46516114,92.0
23466,-0.8233933,-2.8257618,0.48645228,-2.3013794,0.6775635,0.32709962,92.0
23467,-1.897472,-5.5147843,0.41468674,-2.3013794,0.6775635,0.32709962,92.0
23468,-1.897472,-5.5147843,0.41468674,1.5547851,-0.2814331,-0.38338622,92.0
23469,-1.3664151,-2.650426,0.6159413,1.5547851,-0.2814331,-0.38338622,92.0
23470,-1.3664151,-2.650426,0.6159413,-0.25594482,0.15823975,-0.37595215,92.0
23471,0.2974929,1.548397,0.6009562,-0.25594482,0.15823975,-0.37595215,92.0
23472,0.2974929,1.548397,0.6009562,-1.725769,0.49489745,-0.41737062,92.0
23473,0.97515255,2.049533,-0.069003105,-1.725769,0.49489745,-0.41737062,92.0
23474,0.97515255,2.049533,-0.069003105,-1.2021973,0.27506104,-0.39400634,92.0
23475,0.6388989,1.1471826,-0.6378563,-1.2021973,0.27506104,-0.39400634,92.0
23476,0.6388989,1.1471826,-0.6378563,-1.0821899,0.31116945,-0.29205322,92.0
23477,0.3877549,0.5287324,-0.5937079,-1.0821899,0.31116945,-0.29205322,92.0
23478,0.3877549,0.5287324,-0.5937079,-1.173523,0.46622315,-0.059472658,92.0
23479,0.44244266,0.22880869,-0.24494922,-1.173523,0.46622315,-0.059472658,92.0
23480,0.44244266,0.22880869,-0.24494922,-0.9143921,0.47684327,0.15080567,92.0
23481,0.55811673,-0.025131762,0.10341805,-0.9143921,0.47684327,0.15080567,92.0
23482,0.55811673,-0.025131762,0.10341805,-1.4942505,0.88996583,0.7349121,92.0
23483,0.4893645,-0.13136029,0.4892164,-1.4942505,0.88996583,0.7349121,92.0
23484,0.4893645,-0.13136029,0.4892164,-0.4333008,0.5777344,0.67650145,92.0
23485,0.39908433,0.28866178,0.5132115,-0.4333008,0.5777344,0.67650145,92.0
23486,0.39908433,0.28866178,0.5132115,-0.26762697,0.5649902,0.9324463,92.0
23487,0.28234124,0.5209807,0.46260777,-0.26762697,0.5649902,0.9324463,92.0
23488,0.28234124,0.5209807,0.46260777,-0.26762697,0.5649902,0.9324463,91.0
23489,0.28234124,0.5209807,0.46260777,-0.7338501,0.6839356,0.83898926,91.0
23490,-0.19553816,0.3180663,0.4917415,-0.7338501,0.6839356,0.83898926,91.0
23491,-0.19553816,0.3180663,0.4917415,-0.48321533,0.58198243,0.8517334,91.0
23492,-0.81805164,0.12881827,0.88645965,-0.48321533,0.58198243,0.8517334,91.0
23493,-0.81805164,0.12881827,0.88645965,-0.4885254,0.635083,0.7784546,91.0
23494,-1.0803447,-0.101095766,1.5066165,-0.4885254,0.635083,0.7784546,91.0
23495,-1.0803447,-0.101095766,1.5066165,-0.06903076,0.49489745,0.7943848,91.0
23496,-1.1212215,-0.11433609,1.4732009,-0.06903076,0.49489745,0.7943848,91.0
23497,-1.1212215,-0.11433609,1.4732009,0.16142578,0.37382814,0.7412842,91.0
23498,-1.1837571,0.09959559,0.8362268,0.16142578,0.37382814,0.7412842,91.0
23499,-1.1837571,0.09959559,0.8362268,0.271875,0.24957275,0.6287109,91.0
23500,-1.0843103,0.23797727,0.30024362,0.271875,0.24957275,0.6287109,91.0
23501,-1.0843103,0.23797727,0.30024362,0.37595215,0.20390625,0.5299439,91.0
23502,-0.8698897,0.16411227,0.14971638,0.37595215,0.20390625,0.5299439,91.0
23503,-0.8698897,0.16411227,0.14971638,0.58304447,0.12213135,0.40993652,91.0
23504,-0.74310416,0.030008078,0.04528582,0.58304447,0.12213135,0.40993652,91.0
23505,-0.74310416,0.030008078,0.04528582,0.8050049,-0.0180542,0.29311523,91.0
23506,-0.6003183,0.14202404,-0.21956968,0.8050049,-0.0180542,0.29311523,91.0
23507,-0.6003183,0.14202404,-0.21956968,0.6754395,-0.09451904,0.11682129,91.0
23508,-0.31912184,0.3824303,-0.6070156,0.6754395,-0.09451904,0.11682129,91.0
23509,-0.31912184,0.3824303,-0.6070156,0.5278198,-0.16461182,-0.090270996,91.0
23510,0.029101968,0.546911,-0.9579147,0.5278198,-0.16461182,-0.090270996,91.0
23511,0.029101968,0.546911,-0.9579147,0.20709229,-0.21134034,-0.22939454,91.0
23512,0.30897492,0.5247481,-1.0321033,0.20709229,-0.21134034,-0.22939454,91.0
23513,0.30897492,0.5247481,-1.0321033,0.14018555,-0.3154175,-0.35789797,91.0
23514,0.50391823,0.40107292,-0.94842434,0.14018555,-0.3154175,-0.35789797,91.0
23515,0.50391823,0.40107292,-0.94842434,0.22833252,-0.43117675,-0.47684327,91.0
23516,0.6439793,0.2820034,-0.94473803,0.22833252,-0.43117675,-0.47684327,91.0
23517,0.6439793,0.2820034,-0.94473803,0.5065796,-0.55543214,-0.6701294,91.0
23518,0.70293975,-0.24624789,-0.96814394,0.5065796,-0.55543214,-0.6701294,91.0
23519,0.70293975,-0.24624789,-0.96814394,0.53950197,-0.6573853,-0.52675784,91.0
23520,0.79015946,-1.1142713,-0.51144147,0.53950197,-0.6573853,-0.52675784,91.0
23521,0.79015946,-1.1142713,-0.51144147,1.0407715,-0.7147339,-0.4333008,91.0
23522,0.95455194,-1.3274643,0.27184048,1.0407715,-0.7147339,-0.4333008,91.0
23523,0.95455194,-1.3274643,0.27184048,0.91120607,-0.51188964,-0.30054933,91.0
23524,1.0073793,-1.2409632,0.5079631,0.91120607,-0.51188964,-0.30054933,91.0
23525,1.0073793,-1.2409632,0.5079631,0.7327881,-0.41949463,-0.1731079,91.0
23526,0.86278826,-1.5446872,0.32989344,0.7327881,-0.41949463,-0.1731079,91.0
23527,0.86278826,-1.5446872,0.32989344,0.9388184,-0.39188233,-0.083898924,91.0
23528,0.62692493,-1.2259231,0.033287317,0.9388184,-0.39188233,-0.083898924,91.0
23529,0.62692493,-1.2259231,0.033287317,1.3168945,-0.48746338,0.1083252,91.0
23530,0.27657658,0.1579212,-0.55985695,1.3168945,-0.48746338,0.1083252,91.0
23531,0.27657658,0.1579212,-0.55985695,1.1044922,-0.53950197,0.1083252,91.0
23532,0.0029141307,1.1557314,-0.78183335,1.1044922,-0.53950197,0.1083252,91.0
23533,0.0029141307,1.1557314,-0.78183335,1.454956,-0.7614624,0.022302246,91.0
23534,-0.12878442,1.0067873,-0.2790922,1.454956,-0.7614624,0.022302246,91.0
23535,-0.12878442,1.0067873,-0.2790922,1.2489258,-0.78376466,0.16036378,91.0
23536,-0.549695,0.097019255,-0.04400128,1.2489258,-0.78376466,0.16036378,91.0
23537,-0.549695,0.097019255,-0.04400128,1.3200806,-0.84536135,0.2984253,91.0
23538,-1.0994117,-0.9454925,-0.37078452,1.3200806,-0.84536135,0.2984253,91.0
23539,-1.0994117,-0.9454925,-0.37078452,1.62594,-0.8857178,0.38444826,91.0
23540,-1.0684943,-1.025437,-0.39567548,1.62594,-0.8857178,0.38444826,91.0
23541,-1.0684943,-1.025437,-0.39567548,1.9732178,-0.84748536,0.16354981,91.0
23542,-0.33908498,-0.007495582,-0.08693838,1.9732178,-0.84748536,0.16354981,91.0
23543,-0.33908498,-0.007495582,-0.08693838,1.2223755,-0.6945557,0.16354981,91.0
23544,-0.31787443,-0.15780312,-0.016193748,1.2223755,-0.6945557,0.16354981,91.0
23545,-0.31787443,-0.15780312,-0.016193748,1.4857544,-0.8400513,0.4078125,91.0
23546,-0.7632839,-1.1566868,0.17214024,1.4857544,-0.8400513,0.4078125,91.0
23547,-0.7632839,-1.1566868,0.17214024,2.4872315,-0.9802368,0.31966552,91.0
23548,-0.38002414,-0.59308624,0.50883037,2.4872315,-0.9802368,0.31966552,91.0
23549,-0.38002414,-0.59308624,0.50883037,2.2918212,-0.9345703,0.24638672,91.0
23550,0.37920824,0.70225215,0.7576136,2.2918212,-0.9345703,0.24638672,91.0
23551,0.37920824,0.70225215,0.7576136,2.0252564,-0.8729736,0.093457036,91.0
23552,0.93277335,1.446018,0.745129,2.0252564,-0.8729736,0.093457036,91.0
23553,0.93277335,1.446018,0.745129,1.5781494,-0.73809814,-0.0031860352,91.0
23554,1.1056181,1.4592681,0.24259977,1.5781494,-0.73809814,-0.0031860352,91.0
23555,1.1056181,1.4592681,0.24259977,1.09281,-0.6680054,-0.060534667,91.0
23556,1.0040624,1.152998,-0.16678444,1.09281,-0.6680054,-0.060534667,91.0
23557,1.0040624,1.152998,-0.16678444,0.6159668,-0.5171997,-0.23151855,91.0
23558,0.79028606,0.68946385,0.057124197,0.6159668,-0.5171997,-0.23151855,91.0
23559,0.79028606,0.68946385,0.057124197,0.3971924,-0.41312256,-0.3462158,91.0
23560,0.63015366,0.46973515,0.41266716,0.3971924,-0.41312256,-0.3462158,91.0
23561,0.63015366,0.46973515,0.41266716,0.04141846,-0.27293703,-0.48427734,91.0
23562,0.5359955,0.5591011,0.3217719,0.04141846,-0.27293703,-0.48427734,91.0
23563,0.5359955,0.5591011,0.3217719,-0.35577393,-0.17947999,-0.5586182,91.0
23564,0.3893311,0.14038393,-0.12046334,-0.35577393,-0.17947999,-0.5586182,91.0
23565,0.3893311,0.14038393,-0.12046334,-0.42799073,-0.10938721,-0.5479981,91.0
23566,0.14555913,-0.880393,-0.5256065,-0.42799073,-0.10938721,-0.5479981,91.0
23567,0.14555913,-0.880393,-0.5256065,-0.20709229,-0.11044922,-0.51082766,91.0
23568,-0.097322226,-1.6686455,-0.50368834,-0.20709229,-0.11044922,-0.51082766,91.0
23569,-0.097322226,-1.6686455,-0.50368834,0.20496826,-0.20709229,-0.5692383,91.0
23570,-0.3443861,-1.310478,-0.107455075,0.20496826,-0.20709229,-0.5692383,91.0
23571,-0.3443861,-1.310478,-0.107455075,0.1083252,-0.23258057,-0.58410645,91.0
23572,-0.5361779,-0.40137315,0.31508577,0.1083252,-0.23258057,-0.58410645,91.0
23573,-0.5361779,-0.40137315,0.31508577,-0.3090454,-0.115759276,-0.5479981,91.0
23574,-0.3791498,-0.009611726,0.8284968,-0.3090454,-0.115759276,-0.5479981,91.0
23575,-0.3791498,-0.009611726,0.8284968,0.16885987,-0.13168946,-0.60109866,91.0
23576,0.04304248,0.67841905,0.84539026,0.16885987,-0.13168946,-0.60109866,91.0
23577,0.04304248,0.67841905,0.84539026,-0.3462158,-0.10301514,-0.5076416,91.0
23578,0.3924784,1.3202865,0.070513874,-0.3462158,-0.10301514,-0.5076416,91.0
23579,0.3924784,1.3202865,0.070513874,-0.71791995,0.13912354,-0.24001466,91.0
23580,0.59818685,0.6877112,-0.8012427,-0.71791995,0.13912354,-0.24001466,91.0
23581,0.59818685,0.6877112,-0.8012427,-0.41949463,0.19116211,0.07115479,91.0
23582,0.6931491,-0.46598098,-1.165335,-0.41949463,0.19116211,0.07115479,91.0
23583,0.6931491,-0.46598098,-1.165335,-0.02442627,0.18160401,0.21558838,91.0
23584,0.3981228,-0.7422672,-0.683916,-0.02442627,0.18160401,0.21558838,91.0
23585,0.3981228,-0.7422672,-0.683916,-0.12850343,0.21983643,0.35577393,91.0
23586,-0.16562045,-0.46008575,0.08992779,-0.12850343,0.21983643,0.35577393,91.0
23587,-0.16562045,-0.46008575,0.08992779,-0.32285157,0.3164795,0.44923097,91.0
23588,-0.16562045,-0.46008575,0.08992779,-0.35789797,0.3706421,0.4694092,91.0
23589,-0.16562045,-0.46008575,0.08992779,-0.35789797,0.3706421,0.4694092,95.0
23590,-0.53078735,-0.34824437,0.5209901,-0.35789797,0.3706421,0.4694092,95.0
23591,-0.4472983,-0.26154226,0.35634285,-0.35789797,0.3706421,0.4694092,95.0
23592,-0.4472983,-0.26154226,0.35634285,-0.5734863,0.45347902,0.452417,95.0
23593,-0.06478447,-0.23950726,-0.17521626,-0.5734863,0.45347902,0.452417,95.0
23594,-0.06478447,-0.23950726,-0.17521626,-0.6425171,0.53100586,0.53100586,95.0
23595,0.20867044,-0.30330014,-0.4668454,-0.6425171,0.53100586,0.53100586,95.0
23596,0.20867044,-0.30330014,-0.4668454,-0.36639404,0.47896728,0.6775635,95.0
23597,0.19456089,-0.0717417,-0.3512351,-0.36639404,0.47896728,0.6775635,95.0
23598,0.19456089,-0.0717417,-0.3512351,-0.40037844,0.55543214,0.7508423,95.0
23599,-0.0040559173,0.43688154,-0.09555107,-0.40037844,0.55543214,0.7508423,95.0
23600,-0.0040559173,0.43688154,-0.09555107,-0.47471926,0.5979126,0.7975708,95.0
23601,-0.18093032,0.7062435,0.0998531,-0.47471926,0.5979126,0.7975708,95.0
23602,-0.18093032,0.7062435,0.0998531,-0.7072998,0.70305175,0.8007569,95.0
23603,-0.128631,0.6769577,0.46799284,-0.7072998,0.70305175,0.8007569,95.0
23604,-0.128631,0.6769577,0.46799284,-1.0312134,0.9281983,0.7614624,95.0
23605,0.30225885,0.8933484,1.0602098,-1.0312134,0.9281983,0.7614624,95.0
23606,0.30225885,0.8933484,1.0602098,-1.6450561,1.3009644,0.66481936,95.0
23607,0.8340312,1.5245908,1.3868275,-1.6450561,1.3009644,0.66481936,95.0
23608,0.8340312,1.5245908,1.3868275,-2.7314942,1.7321411,0.65207523,95.0
23609,0.94378746,1.7617016,0.95918125,-2.7314942,1.7321411,0.65207523,95.0
23610,0.94378746,1.7617016,0.95918125,-3.7042968,2.0974731,0.68074954,95.0
23611,0.6486945,1.327623,-0.101038784,-3.7042968,2.0974731,0.68074954,95.0
23612,0.6486945,1.327623,-0.101038784,-3.7828858,2.0656128,0.72854006,95.0
23613,0.3632915,0.876698,-1.1368858,-3.7828858,2.0656128,0.72854006,95.0
23614,0.3632915,0.876698,-1.1368858,-3.9368775,2.085791,0.724292,95.0
23615,0.13988864,0.67565036,-1.5142572,-3.9368775,2.085791,0.724292,95.0
23616,0.13988864,0.67565036,-1.5142572,-3.8359864,2.0826051,0.80606693,95.0
23617,-0.012197971,0.6550466,-1.3623213,-3.8359864,2.0826051,0.80606693,95.0
23618,-0.012197971,0.6550466,-1.3623213,-3.9613037,2.1548219,0.74447024,95.0
23619,-0.57570076,0.0898087,-2.4095469,-3.9613037,2.1548219,0.74447024,95.0
23620,-0.57570076,0.0898087,-2.4095469,-4.263977,1.6535523,1.1979493,95.0
23621,-1.8640641,-1.9019811,-4.55254,-4.263977,1.6535523,1.1979493,95.0
23622,-1.8640641,-1.9019811,-4.55254,-2.4107666,0.7168579,0.903772,95.0
23623,-2.5030677,-3.554202,-4.331607,-2.4107666,0.7168579,0.903772,95.0
23624,-2.5030677,-3.554202,-4.331607,0.78164065,-0.10089111,0.95581055,95.0
23625,-1.5861456,-2.8854516,-0.5652735,0.78164065,-0.10089111,0.95581055,95.0
23626,-1.5861456,-2.8854516,-0.5652735,1.722583,0.008496094,0.8867798,95.0
23627,-0.064936996,-1.4394038,3.349063,1.722583,0.008496094,0.8867798,95.0
23628,-0.064936996,-1.4394038,3.349063,1.0205933,0.3334717,0.99085695,95.0
23629,0.9886144,-1.1286104,4.1628075,1.0205933,0.3334717,0.99085695,95.0
23630,0.9886144,-1.1286104,4.1628075,0.62552494,0.71367186,1.2457398,95.0
23631,1.2695903,-0.93626237,2.421164,0.62552494,0.71367186,1.2457398,95.0
23632,1.2695903,-0.93626237,2.421164,0.58410645,0.25700685,1.3965454,95.0
23633,1.2883528,1.070558,0.46217537,0.58410645,0.25700685,1.3965454,95.0
23634,1.2883528,1.070558,0.46217537,-0.6977417,0.36002198,1.1448487,95.0
23635,1.4496398,2.7623181,-0.6002548,-0.6977417,0.36002198,1.1448487,95.0
23636,1.4496398,2.7623181,-0.6002548,-2.2089844,0.4725952,1.358313,95.0
23637,1.243684,2.0082552,-0.84631705,-2.2089844,0.4725952,1.358313,95.0
23638,1.243684,2.0082552,-0.84631705,-1.8213501,-0.14337158,1.2839721,95.0
23639,0.6638315,1.1623905,-0.40191936,-1.8213501,-0.14337158,1.2839721,95.0
23640,0.6638315,1.1623905,-0.40191936,-1.537793,-0.64570314,0.9866089,95.0
23641,0.20555258,1.594512,0.6638161,-1.537793,-0.64570314,0.9866089,95.0
23642,0.20555258,1.594512,0.6638161,-1.0089111,-0.71367186,0.4619751,95.0
23643,-0.0853138,1.5649285,1.819029,-1.0089111,-0.71367186,0.4619751,95.0
23644,-0.0853138,1.5649285,1.819029,-0.7890747,-1.0513916,0.68712157,95.0
23645,-0.08774567,1.2488422,2.1400743,-0.7890747,-1.0513916,0.68712157,95.0
23646,-0.08774567,1.2488422,2.1400743,-1.4719483,-1.0790039,0.35046387,95.0
23647,0.13359988,1.5239396,1.5171375,-1.4719483,-1.0790039,0.35046387,95.0
23648,0.13359988,1.5239396,1.5171375,-1.5983276,-1.1151123,0.1444336,95.0
23649,0.38909435,1.7068958,1.0287491,-1.5983276,-1.1151123,0.1444336,95.0
23650,0.38909435,1.7068958,1.0287491,-1.8319702,-1.4114136,-0.0998291,95.0
23651,0.2379235,1.7130265,1.4676404,-1.8319702,-1.4114136,-0.0998291,95.0
23652,0.2379235,1.7130265,1.4676404,-2.2843874,-1.5048707,-0.24638672,95.0
23653,-1.1848443,1.9341786,1.5406163,-2.2843874,-1.5048707,-0.24638672,95.0
23654,-1.1848443,1.9341786,1.5406163,-2.812207,-2.0380006,-1.26167,95.0
23655,-2.1158686,1.5742717,0.49578643,-2.812207,-2.0380006,-1.26167,95.0
23656,-2.1158686,1.5742717,0.49578643,-5.037122,-1.4900025,-1.4623902,95.0
23657,-1.2843453,0.92785,0.98328686,-5.037122,-1.4900025,-1.4623902,95.0
23658,-1.2843453,0.92785,0.98328686,-5.423694,-0.15611573,-2.9821289,95.0
23659,-0.8936384,0.48118353,3.407186,-5.423694,-0.15611573,-2.9821289,95.0
23660,-0.8936384,0.48118353,3.407186,-3.3687012,0.64782715,-4.185388,95.0
23661,-0.84992045,-2.3885152,4.651347,-3.3687012,0.64782715,-4.185388,95.0
23662,-0.84992045,-2.3885152,4.651347,-2.552014,1.5696534,-2.7495484,95.0
23663,-0.54984605,-7.0298676,3.632101,-2.552014,1.5696534,-2.7495484,95.0
23664,-0.54984605,-7.0298676,3.632101,-2.2546508,2.267395,-2.1399536,95.0
23665,-1.0356898,-9.290349,1.8913012,-2.2546508,2.267395,-2.1399536,95.0
23666,-1.0356898,-9.290349,1.8913012,-1.81073,2.626355,-1.5951416,95.0
23667,-2.3516965,-8.365604,0.62749434,-1.81073,2.626355,-1.5951416,95.0
23668,-2.3516965,-8.365604,0.62749434,-1.2871583,2.9332764,-0.4088745,95.0
23669,-3.7167943,-6.0176063,-0.7961488,-1.2871583,2.9332764,-0.4088745,95.0
23670,-3.7167943,-6.0176063,-0.7961488,0.047790527,2.9152222,0.4428589,95.0
23671,-4.274461,-3.1763163,-2.655095,0.047790527,2.9152222,0.4428589,95.0
23672,-4.274461,-3.1763163,-2.655095,1.3041505,2.6911378,1.0067872,95.0
23673,-3.3818731,-0.5774908,-4.122794,1.3041505,2.6911378,1.0067872,95.0
23674,-3.3818731,-0.5774908,-4.122794,1.9657837,2.3268678,1.4294678,95.0
23675,-1.476165,0.7551341,-4.5986137,1.9657837,2.3268678,1.4294678,95.0
23676,-1.476165,0.7551341,-4.5986137,2.6571534,1.9116211,1.8340943,95.0
23677,0.28956366,0.61253023,-4.4388885,2.6571534,1.9116211,1.8340943,95.0
23678,0.28956366,0.61253023,-4.4388885,3.4717164,1.268042,2.1431396,95.0
23679,1.3175519,-0.116714,-4.4028935,3.4717164,1.268042,2.1431396,95.0
23680,1.3175519,-0.116714,-4.4028935,3.9591796,0.5278198,2.5944946,95.0
23681,1.9545419,-0.70319796,-4.125025,3.9591796,0.5278198,2.5944946,95.0
23682,1.9545419,-0.70319796,-4.125025,4.326636,-0.03717041,2.8801758,95.0
23683,2.3508651,-0.8497534,-3.2736893,4.326636,-0.03717041,2.8801758,95.0
23684,2.3508651,-0.8497534,-3.2736893,4.8087893,-0.69986576,3.353833,95.0
23685,2.3087196,-0.3068533,-2.9610534,4.8087893,-0.69986576,3.353833,95.0
23686,2.3087196,-0.3068533,-2.9610534,4.984021,-1.1586548,3.722351,95.0
23687,2.3087196,-0.3068533,-2.9610534,4.984021,-1.1586548,3.722351,100.0
23688,2.1734772,0.44185877,-3.3309765,4.984021,-1.1586548,3.722351,100.0
23689,2.1734772,0.44185877,-3.3309765,4.7418823,-1.5983276,3.9411256,100.0
23690,2.2690551,1.0204182,-3.0670881,4.7418823,-1.5983276,3.9411256,100.0
23691,2.2690551,1.0204182,-3.0670881,4.5687747,-1.9275513,3.9984741,100.0
23692,2.511216,1.7524185,-1.693099,4.5687747,-1.9275513,3.9984741,100.0
23693,2.511216,1.7524185,-1.693099,3.9198854,-1.8765748,4.059009,100.0
23694,2.5763922,2.2574034,-0.14761877,3.9198854,-1.8765748,4.059009,100.0
23695,2.5763922,2.2574034,-0.14761877,3.2019653,-1.7087768,3.9390016,100.0
23696,2.4214287,1.9756002,0.8121786,3.2019653,-1.7087768,3.9390016,100.0
23697,2.4214287,1.9756002,0.8121786,2.6677735,-1.4432739,3.8200562,100.0
23698,2.835837,1.2200553,1.6838007,2.6677735,-1.4432739,3.8200562,100.0
23699,2.835837,1.2200553,1.6838007,4.134412,-1.1968873,3.6034057,100.0
23700,3.350835,4.1869574,1.867048,4.134412,-1.1968873,3.6034057,100.0
23701,3.350835,4.1869574,1.867048,4.9362307,-1.7077149,1.264856,100.0
23702,3.5525796,8.685772,1.3080673,4.9362307,-1.7077149,1.264856,100.0
23703,3.5525796,8.685772,1.3080673,-1.6248779,0.31966552,1.8043579,100.0
23704,2.9484234,6.4967136,0.7033019,-1.6248779,0.31966552,1.8043579,100.0
23705,2.9484234,6.4967136,0.7033019,-3.7382812,0.72323,1.3689331,100.0
23706,0.77719593,-0.15089583,0.08102512,-3.7382812,0.72323,1.3689331,100.0
23707,0.77719593,-0.15089583,0.08102512,-2.630603,0.06690674,1.6238159,100.0
23708,-1.8536706,-4.9344983,0.46933675,-2.630603,0.06690674,1.6238159,100.0
23709,-1.8536706,-4.9344983,0.46933675,-1.2170655,-0.17947999,1.442212,100.0
23710,-3.2023213,-5.229386,1.7108455,-1.2170655,-0.17947999,1.442212,100.0
23711,-3.2023213,-5.229386,1.7108455,-0.20284425,-0.24638672,1.7693115,100.0
23712,-3.4694011,-2.7190192,2.6846066,-0.20284425,-0.24638672,1.7693115,100.0
23713,-3.4694011,-2.7190192,2.6846066,0.6159668,-0.06478272,1.7310791,100.0
23714,-3.247054,0.21068561,2.7588303,0.6159668,-0.06478272,1.7310791,100.0
23715,-3.247054,0.21068561,2.7588303,0.21134034,0.3536499,1.5940796,100.0
23716,-2.4470572,1.6992859,2.0568447,0.21134034,0.3536499,1.5940796,100.0
23717,-2.4470572,1.6992859,2.0568447,-0.22302246,0.5777344,1.5898316,100.0
23718,-1.3749799,1.6349659,1.0230026,-0.22302246,0.5777344,1.5898316,100.0
23719,-1.3749799,1.6349659,1.0230026,-0.2803711,0.57454836,1.5781494,100.0
23720,-0.410604,1.1947646,0.14666134,-0.2803711,0.57454836,1.5781494,100.0
23721,-0.410604,1.1947646,0.14666134,-0.57561034,0.49489745,1.5749635,100.0
23722,0.15409738,1.0641247,-0.27261233,-0.57561034,0.49489745,1.5749635,100.0
23723,0.15409738,1.0641247,-0.27261233,-0.83686525,0.2899292,1.5643433,100.0
23724,-0.004908085,1.3785214,-0.3290274,-0.83686525,0.2899292,1.5643433,100.0
23725,-0.004908085,1.3785214,-0.3290274,-0.8602295,-0.14549561,1.2797241,100.0
23726,-0.14584541,1.4849949,-0.113087654,-0.8602295,-0.14549561,1.2797241,100.0
23727,-0.14584541,1.4849949,-0.113087654,-1.3689331,-0.015930176,1.1310425,100.0
23728,0.13055271,0.4209305,0.4145592,-1.3689331,-0.015930176,1.1310425,100.0
23729,0.13055271,0.4209305,0.4145592,-1.265918,-0.12000733,1.2595459,100.0
23730,0.1745838,-1.4087024,0.85232604,-1.265918,-0.12000733,1.2595459,100.0
23731,0.1745838,-1.4087024,0.85232604,-0.75615233,-0.24320069,1.531421,100.0
23732,-0.20678073,-2.2995448,0.7914312,-0.75615233,-0.24320069,1.531421,100.0
23733,-0.20678073,-2.2995448,0.7914312,-0.118945315,-0.44816896,1.44646,100.0
23734,-0.548823,-1.0035276,0.5727812,-0.118945315,-0.44816896,1.44646,100.0
23735,-0.548823,-1.0035276,0.5727812,-0.052038576,-0.4630371,1.2361816,100.0
23736,-0.46208087,1.3064675,0.6817357,-0.052038576,-0.4630371,1.2361816,100.0
23737,-0.46208087,1.3064675,0.6817357,-0.59047854,-0.2357666,1.1267945,100.0
23738,-0.23592448,2.5667927,0.77795696,-0.59047854,-0.2357666,1.1267945,100.0
23739,-0.23592448,2.5667927,0.77795696,-1.4432739,-0.09451904,1.09281,100.0
23740,-0.23502865,2.0749307,0.5765648,-1.4432739,-0.09451904,1.09281,100.0
23741,-0.23502865,2.0749307,0.5765648,-2.2068603,0.0031860352,0.98873293,100.0
23742,-0.3015361,0.41946614,0.35182798,-2.2068603,0.0031860352,0.98873293,100.0
23743,-0.3015361,0.41946614,0.35182798,-1.808606,-0.1901001,1.0407715,100.0
23744,-0.2995419,-1.446312,0.23835933,-1.808606,-0.1901001,1.0407715,100.0
23745,-0.2995419,-1.446312,0.23835933,-0.5798584,-0.44816896,1.3264526,100.0
23746,-0.24742159,-2.2065246,0.2093032,-0.5798584,-0.44816896,1.3264526,100.0
23747,-0.24742159,-2.2065246,0.2093032,0.021240234,-0.57561034,1.454956,100.0
23748,-0.11323269,-1.4387794,0.07458365,0.021240234,-0.57561034,1.454956,100.0
23749,-0.11323269,-1.4387794,0.07458365,-0.21877442,-0.42905274,1.6142578,100.0
23750,-0.1175881,-0.24404103,-0.1834727,-0.21877442,-0.42905274,1.6142578,100.0
23751,-0.1175881,-0.24404103,-0.1834727,-0.56605226,-0.30267334,1.6503662,100.0
23752,-0.285257,0.4818912,-0.46773767,-0.56605226,-0.30267334,1.6503662,100.0
23753,-0.285257,0.4818912,-0.46773767,-0.5076416,-0.23895264,1.7066529,100.0
23754,-0.24474613,0.7262722,-0.7387165,-0.5076416,-0.23895264,1.7066529,100.0
23755,-0.24474613,0.7262722,-0.7387165,-0.5734863,-0.18797608,1.6546143,100.0
23756,-0.0010215193,0.65051246,-0.8379093,-0.5734863,-0.18797608,1.6546143,100.0
23757,-0.0010215193,0.65051246,-0.8379093,-0.89102787,-0.09239502,1.6652344,100.0
23758,0.10913152,0.2638304,-0.8667508,-0.89102787,-0.09239502,1.6652344,100.0
23759,0.10913152,0.2638304,-0.8667508,-0.90270996,-0.11682129,1.6461182,100.0
23760,0.076343305,-0.14114517,-0.87576145,-0.90270996,-0.11682129,1.6461182,100.0
23761,0.076343305,-0.14114517,-0.87576145,-0.85598147,-0.19541016,1.5717773,100.0
23762,0.06794721,-0.34270132,-0.6441883,-0.85598147,-0.19541016,1.5717773,100.0
23763,0.06794721,-0.34270132,-0.6441883,-0.7986328,-0.271875,1.5643433,100.0
23764,0.041955423,-0.3681674,-0.1644839,-0.7986328,-0.271875,1.5643433,100.0
23765,0.041955423,-0.3681674,-0.1644839,-0.9239502,-0.30373535,1.6036377,100.0
23766,-0.109563105,-0.31776392,0.322783,-0.9239502,-0.30373535,1.6036377,100.0
23767,-0.109563105,-0.31776392,0.322783,-0.93775636,-0.36851808,1.6121339,100.0
23768,-0.32528478,-0.14864472,0.65225714,-0.93775636,-0.36851808,1.6121339,100.0
23769,-0.32528478,-0.14864472,0.65225714,-0.85385746,-0.43754885,1.722583,100.0
23770,-0.395262,0.06917016,0.83478177,-0.85385746,-0.43754885,1.722583,100.0
23771,-0.395262,0.06917016,0.83478177,-0.905896,-0.44816896,1.8022339,100.0
23772,-0.33194447,0.22221845,0.7843782,-0.905896,-0.44816896,1.8022339,100.0
23773,-0.33194447,0.22221845,0.7843782,-0.7327881,-0.5809204,1.8022339,100.0
23774,-0.14520645,0.48385388,0.2843263,-0.7327881,-0.5809204,1.8022339,100.0
23775,-0.14520645,0.48385388,0.2843263,-0.50870365,-0.73703617,1.6928467,100.0
23776,0.27459413,0.76071596,-0.43114495,-0.50870365,-0.73703617,1.6928467,100.0
23777,0.27459413,0.76071596,-0.43114495,-0.19328614,-0.98448485,1.5749635,100.0
23778,0.6642676,0.8178257,-0.88845843,-0.19328614,-0.98448485,1.5749635,100.0
23779,0.6642676,0.8178257,-0.88845843,-0.03079834,-1.2882203,1.4284058,100.0
23780,0.85498583,0.49770534,-0.7694704,-0.03079834,-1.2882203,1.4284058,100.0
23781,0.85498583,0.49770534,-0.7694704,-0.3802002,-1.4199097,1.2712281,100.0
23782,0.57541937,-0.6559739,-0.18057877,-0.3802002,-1.4199097,1.2712281,100.0
23783,0.57541937,-0.6559739,-0.18057877,-0.8963379,-1.6004517,1.273352,100.0
23784,-0.48785788,-3.1206043,0.35159412,-0.8963379,-1.6004517,1.273352,100.0
23785,-0.48785788,-3.1206043,0.35159412,-0.38338622,-1.811792,1.7767457,100.0
23786,-1.6809357,-4.8578973,0.64488614,-0.38338622,-1.811792,1.7767457,100.0
23787,-1.6809357,-4.8578973,0.64488614,1.3976074,-2.0114503,1.442212,100.0
23788,-1.4649513,-2.4750507,0.5805452,1.3976074,-2.0114503,1.442212,100.0
23789,-1.4649513,-2.4750507,0.5805452,0.99510497,-1.7119629,1.1214844,100.0
23790,0.18554628,1.8589731,0.18050058,0.99510497,-1.7119629,1.1214844,100.0
23791,0.18554628,1.8589731,0.18050058,-0.7763306,-1.2149414,1.0046631,100.0
23792,1.6916378,3.7710166,-0.22292131,-0.7763306,-1.2149414,1.0046631,100.0
23793,1.6916378,3.7710166,-0.22292131,-1.0269654,-1.1289185,0.6074707,100.0
23794,2.097817,3.0841472,-0.5978439,-1.0269654,-1.1289185,0.6074707,100.0
23795,2.097817,3.0841472,-0.5978439,-1.902063,-0.95793456,0.9281983,100.0
23796,1.2238958,0.6946249,-0.91673946,-1.902063,-0.95793456,0.9281983,100.0
23797,1.2238958,0.6946249,-0.91673946,-1.6960328,-1.09281,0.93563235,100.0
23798,-0.31814903,-2.372535,-1.0206963,-1.6960328,-1.09281,0.93563235,100.0
23799,-0.31814903,-2.372535,-1.0206963,-0.57242435,-1.268042,1.3731812,100.0
23800,-1.4285061,-3.4787898,-0.7744306,-0.57242435,-1.268042,1.3731812,100.0
23801,-1.4285061,-3.4787898,-0.7744306,0.6138428,-1.4528321,1.0184692,100.0
23802,-1.4285061,-3.4787898,-0.7744306,0.6138428,-1.4528321,1.0184692,108.0
23803,-1.3018503,-1.7127926,-0.25350446,0.6138428,-1.4528321,1.0184692,108.0
23804,-1.3018503,-1.7127926,-0.25350446,0.5161377,-1.4315919,0.98236084,108.0
23805,-0.42882153,0.5210012,0.37637126,0.5161377,-1.4315919,0.98236084,108.0
23806,-0.42882153,0.5210012,0.37637126,0.07540283,-1.359375,0.815625,108.0
23807,0.23144229,1.4198893,0.7947738,0.07540283,-1.359375,0.815625,108.0
23808,0.23144229,1.4198893,0.7947738,0.07540283,-1.4772583,0.6244629,108.0
23809,0.51607424,1.3430037,0.7815832,0.07540283,-1.4772583,0.6244629,108.0
23810,0.51607424,1.3430037,0.7815832,-0.23045655,-1.4177856,0.6988037,108.0
23811,0.95873344,1.3387463,0.4175029,-0.23045655,-1.4177856,0.6988037,108.0
23812,0.95873344,1.3387463,0.4175029,-0.06796875,-1.2542359,0.5097656,108.0
23813,1.1873358,1.8651254,-0.27410313,-0.06796875,-1.2542359,0.5097656,108.0
23814,1.1873358,1.8651254,-0.27410313,-0.98236084,-1.3222046,0.7869507,108.0
23815,0.33625787,0.86688066,-0.73172146,-0.98236084,-1.3222046,0.7869507,108.0
23816,0.33625787,0.86688066,-0.73172146,-0.80819094,-1.179895,0.69136965,108.0
23817,-0.91767585,-1.116554,-0.98241085,-0.80819094,-1.179895,0.69136965,108.0
23818,-0.91767585,-1.116554,-0.98241085,0.28355715,-1.4836304,0.82836914,108.0
23819,-1.5290138,-1.8742125,-0.85619235,0.28355715,-1.4836304,0.82836914,108.0
23820,-1.5290138,-1.8742125,-0.85619235,0.0031860352,-1.2170655,1.2977784,108.0
23821,-1.2339777,-1.530974,-0.26499534,0.0031860352,-1.2170655,1.2977784,108.0
23822,-1.2339777,-1.530974,-0.26499534,0.91864014,-1.4156617,0.90058595,108.0
23823,-0.1388911,-0.016991138,0.28939533,0.91864014,-1.4156617,0.90058595,108.0
23824,-0.1388911,-0.016991138,0.28939533,0.21983643,-1.3689331,1.0046631,108.0
23825,0.56092083,0.97496915,0.62002945,0.21983643,-1.3689331,1.0046631,108.0
23826,0.56092083,0.97496915,0.62002945,0.24320069,-1.4868164,0.9239502,108.0
23827,0.61480117,0.87493384,1.0224396,0.24320069,-1.4868164,0.9239502,108.0
23828,0.61480117,0.87493384,1.0224396,0.20072022,-1.4326538,0.8867798,108.0
23829,0.8392042,0.72952473,1.207588,0.20072022,-1.4326538,0.8867798,108.0
23830,0.8392042,0.72952473,1.207588,0.33984375,-1.1852051,0.5734863,108.0
23831,0.9442271,1.3129045,0.6100889,0.33984375,-1.1852051,0.5734863,108.0
23832,0.9442271,1.3129045,0.6100889,-0.50233155,-1.3391968,0.7062378,108.0
23833,0.5924911,1.4461976,0.16630599,-0.50233155,-1.3391968,0.7062378,108.0
23834,0.5924911,1.4461976,0.16630599,-1.1873292,-1.0715698,0.52675784,108.0
23835,-0.97238165,-0.47095942,-0.6572628,-1.1873292,-1.0715698,0.52675784,108.0
23836,-0.97238165,-0.47095942,-0.6572628,-0.9260742,-1.1098022,0.55968016,108.0
23837,-1.3092408,-1.3469824,-0.55721897,-0.9260742,-1.1098022,0.55968016,108.0
23838,-1.3092408,-1.3469824,-0.55721897,-0.7593384,-1.081128,0.4885254,108.0
23839,-1.3828052,-2.8076885,-0.866283,-0.7593384,-1.081128,0.4885254,108.0
23840,-1.3828052,-2.8076885,-0.866283,0.43967286,-1.0460815,0.32072756,108.0
23841,-0.8755191,-2.0912802,-0.7954556,0.43967286,-1.0460815,0.32072756,108.0
23842,-0.8755191,-2.0912802,-0.7954556,0.4322388,-0.8857178,0.32497558,108.0
