,accx,accy,accz,gyrox,gyroy,gyroz,heart rate
17591,open,open,open,open,open,open,open
17592,0.90544605,-0.90719604,0.47610092,-0.22408448,0.70198977,0.45029297,141.0
17593,0.90544605,-0.90719604,0.47610092,1.634436,0.41737062,0.6966797,141.0
17594,0.90544605,-0.90719604,0.47610092,-0.2888672,0.18797608,0.11044922,141.0
17595,0.70229864,-0.7670288,0.39521408,-0.2888672,0.18797608,0.11044922,141.0
17596,0.53989077,-0.68091965,0.338974,-0.2888672,0.18797608,0.11044922,141.0
17597,0.53989077,-0.68091965,0.338974,-0.5150757,0.16248779,0.0637207,141.0
17598,-0.3231659,1.0687904,-1.2963486,-0.5150757,0.16248779,0.0637207,141.0
17599,-0.3231659,1.0687904,-1.2963486,-0.63933104,0.12319336,0.093457036,141.0
17600,-0.21501446,0.54120255,-0.9159851,-0.63933104,0.12319336,0.093457036,141.0
17601,-0.21501446,0.54120255,-0.9159851,-0.49489745,0.06265869,0.121069334,141.0
17602,-0.119594574,0.27944565,-0.5093498,-0.49489745,0.06265869,0.121069334,141.0
17603,-0.119594574,0.27944565,-0.5093498,-0.3430298,-0.0021240234,0.081774905,141.0
17604,-0.080685616,0.17473984,-0.24452972,-0.3430298,-0.0021240234,0.081774905,141.0
17605,-0.080685616,0.17473984,-0.24452972,-0.30161133,-0.046728518,0.023364259,141.0
17606,-0.060837746,0.10401535,-0.090862274,-0.30161133,-0.046728518,0.023364259,141.0
17607,-0.060837746,0.10401535,-0.090862274,-0.2984253,-0.07115479,-0.08283692,141.0
17608,-0.034742355,0.009555817,0.023990631,-0.2984253,-0.07115479,-0.08283692,141.0
17609,-0.034742355,0.009555817,0.023990631,-0.2899292,-0.09133301,-0.18266602,141.0
17610,-0.034742355,0.009555817,0.023990631,-0.16992188,-0.11682129,-0.24107666,141.0
17611,0.0019664764,-0.09882355,0.11193848,-0.16992188,-0.11682129,-0.24107666,141.0
17612,0.0123643875,-0.1608696,0.14577866,-0.16992188,-0.11682129,-0.24107666,141.0
17613,0.0123643875,-0.1608696,0.14577866,-0.040356446,-0.14974366,-0.2548828,141.0
17614,-0.021822453,-0.12504578,0.12056351,-0.040356446,-0.14974366,-0.2548828,141.0
17615,-0.021822453,-0.12504578,0.12056351,-0.0063720704,-0.16354981,-0.23682861,141.0
17616,-0.062794685,-0.03302002,0.077884674,-0.0063720704,-0.16354981,-0.23682861,141.0
17617,-0.062794685,-0.03302002,0.077884674,-0.035046387,-0.15717773,-0.17735596,141.0
17618,-0.09181309,0.023658752,0.057777405,-0.035046387,-0.15717773,-0.17735596,141.0
17619,-0.09181309,0.023658752,0.057777405,-0.0998291,-0.14230958,-0.14549561,141.0
17620,-0.12459803,0.02960968,0.05552292,-0.0998291,-0.14230958,-0.14549561,141.0
17621,-0.12459803,0.02960968,0.05552292,-0.15611573,-0.12319336,-0.12319336,141.0
17622,-0.120735645,-0.027778625,0.058750153,-0.15611573,-0.12319336,-0.12319336,141.0
17623,-0.120735645,-0.027778625,0.058750153,-0.17629395,-0.10938721,-0.07965088,141.0
17624,-0.0798893,-0.09954071,0.076286316,-0.17629395,-0.10938721,-0.07965088,141.0
17625,-0.0798893,-0.09954071,0.076286316,-0.15717773,-0.0998291,-0.053100586,141.0
17626,-0.037764072,-0.11761093,0.10807419,-0.15717773,-0.0998291,-0.053100586,141.0
17627,-0.037764072,-0.11761093,0.10807419,-0.13487549,-0.10089111,-0.020178223,141.0
17628,-0.01786995,-0.10572052,0.13356781,-0.13487549,-0.10089111,-0.020178223,141.0
17629,-0.01786995,-0.10572052,0.13356781,-0.13062744,-0.08496094,-0.03079834,141.0
17630,-0.010377407,-0.089019775,0.13288116,-0.13062744,-0.08496094,-0.03079834,141.0
17631,-0.010377407,-0.089019775,0.13288116,-0.07540283,-0.08283692,-0.02442627,141.0
17632,0.015562534,-0.08004379,0.105472565,-0.07540283,-0.08283692,-0.02442627,141.0
17633,0.015562534,-0.08004379,0.105472565,0.04141846,-0.087084964,-0.020178223,141.0
17634,0.053941727,-0.047592163,0.052066803,0.04141846,-0.087084964,-0.020178223,141.0
17635,0.053941727,-0.047592163,0.052066803,0.14124756,-0.0998291,0.0063720704,141.0
17636,0.07028961,0.012233734,7.209778E-4,0.14124756,-0.0998291,0.0063720704,141.0
17637,0.07028961,0.012233734,7.209778E-4,0.1359375,-0.10407715,-0.021240234,141.0
17638,0.06997681,0.047912598,-0.050704956,0.1359375,-0.10407715,-0.021240234,141.0
17639,0.06997681,0.047912598,-0.050704956,0.10938721,-0.10089111,-0.04141846,141.0
17640,0.08906269,0.029945374,-0.084121704,0.10938721,-0.10089111,-0.04141846,141.0
17641,0.08906269,0.029945374,-0.084121704,0.10938721,-0.1083252,-0.060534667,141.0
17642,0.10336685,0.011711121,-0.08686447,0.10938721,-0.1083252,-0.060534667,141.0
17643,0.10336685,0.011711121,-0.08686447,0.07115479,-0.10620117,-0.08814698,141.0
17644,0.10948753,0.012836456,-0.06896973,0.07115479,-0.10620117,-0.08814698,141.0
17645,0.10948753,0.012836456,-0.06896973,0.058410645,-0.09664307,-0.08283692,141.0
17646,0.113627434,0.011695862,-0.07220459,0.058410645,-0.09664307,-0.08283692,141.0
17647,0.113627434,0.011695862,-0.07220459,0.013806152,-0.093457036,-0.08814698,141.0
17648,0.102181435,-0.008369446,-0.102710724,0.013806152,-0.093457036,-0.08814698,141.0
17649,0.102181435,-0.008369446,-0.102710724,0.06796875,-0.095581055,-0.06159668,141.0
17650,0.09495306,-0.0065345764,-0.12513733,0.06796875,-0.095581055,-0.06159668,141.0
17651,0.09495306,-0.0065345764,-0.12513733,0.08071289,-0.10407715,-0.06796875,141.0
17652,0.06052065,0.03753662,-0.13233566,0.08071289,-0.10407715,-0.06796875,141.0
17653,0.06052065,0.03753662,-0.13233566,0.0021240234,-0.093457036,-0.06690674,141.0
17654,0.026028633,0.078956604,-0.12129974,0.0021240234,-0.093457036,-0.06690674,141.0
17655,0.026028633,0.078956604,-0.12129974,-0.02442627,-0.09239502,-0.04460449,141.0
17656,0.021860123,0.087882996,-0.11110306,-0.02442627,-0.09239502,-0.04460449,141.0
17657,0.021860123,0.087882996,-0.11110306,-0.05628662,-0.087084964,-0.0053100586,141.0
17658,0.019282818,0.085380554,-0.109046936,-0.05628662,-0.087084964,-0.0053100586,141.0
17659,0.019282818,0.085380554,-0.109046936,-0.10407715,-0.07965088,0.027612304,141.0
17660,-0.0024571419,0.061481476,-0.10454559,-0.10407715,-0.07965088,0.027612304,141.0
17661,-0.0024571419,0.061481476,-0.10454559,-0.16673584,-0.06690674,0.05628662,141.0
17662,-0.0024571419,0.061481476,-0.10454559,-0.15080567,-0.058410645,0.095581055,141.0
17663,-0.012183189,0.022315979,-0.10081482,-0.15080567,-0.058410645,0.095581055,141.0
17664,-0.016924381,-0.011638641,-0.08670807,-0.15080567,-0.058410645,0.095581055,141.0
17665,-0.016924381,-0.011638641,-0.08670807,-0.1539917,-0.039294433,0.13381349,141.0
17666,-0.04937935,-0.019454956,-0.093631744,-0.1539917,-0.039294433,0.13381349,141.0
17667,-0.04937935,-0.019454956,-0.093631744,-0.17416993,-0.016992187,0.18160401,141.0
17668,-0.07507467,-0.04548645,-0.10095596,-0.17416993,-0.016992187,0.18160401,141.0
17669,-0.07507467,-0.04548645,-0.10095596,-0.24638672,0.007434082,0.30373535,141.0
17670,-0.081885815,-0.18614578,-0.056949615,-0.24638672,0.007434082,0.30373535,141.0
17671,-0.081885815,-0.18614578,-0.056949615,-0.3334717,0.023364259,0.42905274,141.0
17672,-0.09570885,-0.40098953,0.03586197,-0.3334717,0.023364259,0.42905274,141.0
17673,-0.09570885,-0.40098953,0.03586197,-0.3430298,0.032922365,0.5586182,141.0
17674,-0.14381552,-0.5653229,0.14907837,-0.3430298,0.032922365,0.5586182,141.0
17675,-0.14381552,-0.5653229,0.14907837,-0.36108398,0.05522461,0.56605226,141.0
17676,-0.14439821,-0.52724457,0.23221207,-0.36108398,0.05522461,0.56605226,141.0
17677,-0.14439821,-0.52724457,0.23221207,-0.51082766,0.14018555,0.6786255,141.0
17678,-0.068582535,-0.12889862,0.15244293,-0.51082766,0.14018555,0.6786255,141.0
17679,-0.068582535,-0.12889862,0.15244293,-0.3536499,0.27718505,0.59260255,141.0
17680,-0.07073498,0.06042862,-0.073532104,-0.3536499,0.27718505,0.59260255,141.0
17681,-0.07073498,0.06042862,-0.073532104,-0.271875,0.29948732,0.18691407,141.0
17682,-0.07323837,-0.18859482,-0.28260422,-0.271875,0.29948732,0.18691407,141.0
17683,-0.07323837,-0.18859482,-0.28260422,-0.33984375,0.3982544,0.42161867,141.0
17684,0.027139187,-0.46147156,-0.45929718,-0.33984375,0.3982544,0.42161867,141.0
17685,0.027139187,-0.46147156,-0.45929718,-0.5065796,0.48109132,0.28780517,141.0
17686,0.10243654,-0.73814774,-0.64224243,-0.5065796,0.48109132,0.28780517,141.0
17687,0.10243654,-0.73814774,-0.64224243,-0.6775635,0.5936646,0.26019287,141.0
17688,0.010977745,-1.0276642,-0.8570938,-0.6775635,0.5936646,0.26019287,141.0
17689,0.010977745,-1.0276642,-0.8570938,-0.9420044,0.6839356,0.1539917,141.0
17690,-0.33436966,-1.3824005,-1.0194778,-0.9420044,0.6839356,0.1539917,141.0
17691,-0.33436966,-1.3824005,-1.0194778,-1.1894531,0.7508423,0.016992187,141.0
17692,-0.81876516,-1.7118034,-1.0120659,-1.1894531,0.7508423,0.016992187,141.0
17693,-0.81876516,-1.7118034,-1.0120659,-1.4921265,0.81031495,-0.13168946,141.0
17694,-1.1860666,-1.925621,-0.80326843,-1.4921265,0.81031495,-0.13168946,141.0
17695,-1.1860666,-1.925621,-0.80326843,-1.8627685,0.8517334,-0.33134767,141.0
17696,-1.3303232,-2.079815,-0.47371674,-1.8627685,0.8517334,-0.33134767,141.0
17697,-1.3303232,-2.079815,-0.47371674,-2.2142944,0.8326172,-0.4609131,141.0
17698,-1.3139534,-2.2421112,-0.13445282,-2.2142944,0.8326172,-0.4609131,141.0
17699,-1.3139534,-2.2421112,-0.13445282,-2.4734254,0.7519043,-0.53525394,141.0
17700,-1.2311678,-2.371544,0.20019913,-2.4734254,0.7519043,-0.53525394,141.0
17701,-1.2311678,-2.371544,0.20019913,-2.710254,0.62127686,-0.6053467,141.0
17702,-1.1704321,-2.409111,0.53110886,-2.710254,0.62127686,-0.6053467,141.0
17703,-1.1704321,-2.409111,0.53110886,-3.1456788,0.50870365,-0.630835,141.0
17704,-1.1184139,-2.592781,0.8567238,-3.1456788,0.50870365,-0.630835,141.0
17705,-1.1184139,-2.592781,0.8567238,-3.793506,0.3802002,-0.6669434,141.0
17706,-0.9793997,-3.0895462,1.1387978,-3.793506,0.3802002,-0.6669434,141.0
17707,-0.9793997,-3.0895462,1.1387978,-4.3043337,0.19647217,-0.5734863,141.0
17708,-0.8075676,-3.6394348,1.3603783,-4.3043337,0.19647217,-0.5734863,141.0
17709,-0.8075676,-3.6394348,1.3603783,-4.601697,-0.11044922,-0.40993652,141.0
17710,-0.70082664,-4.0936737,1.5996399,-4.601697,-0.11044922,-0.40993652,141.0
17711,-0.70082664,-4.0936737,1.5996399,-4.595325,-0.3993164,-0.31329346,141.0
17712,-0.50486374,-4.6484756,1.839428,-4.595325,-0.3993164,-0.31329346,141.0
17713,-0.50486374,-4.6484756,1.839428,-4.3276978,-0.6287109,-0.33878174,141.0
17714,-0.08842468,-5.2018967,1.89365,-4.3276978,-0.6287109,-0.33878174,141.0
17715,-0.08842468,-5.2018967,1.89365,-3.9952881,-0.8581055,-0.31435546,141.0
17716,0.404212,-5.658844,1.7397003,-3.9952881,-0.8581055,-0.31435546,141.0
17717,0.404212,-5.658844,1.7397003,-3.6034057,-0.996167,-0.24001466,141.0
17718,0.77394295,-6.085083,1.625721,-3.6034057,-0.996167,-0.24001466,141.0
17719,0.77394295,-6.085083,1.625721,-2.6157348,-1.175647,-0.16567384,141.0
17720,1.1176529,-6.092827,1.6419373,-2.6157348,-1.175647,-0.16567384,141.0
17721,1.1176529,-6.092827,1.6419373,-1.0875,-1.356189,-0.16036378,141.0
17722,1.5793638,-5.027336,1.4849396,-1.0875,-1.356189,-0.16036378,141.0
17723,1.5793638,-5.027336,1.4849396,0.09770508,-1.4305298,-0.10938721,141.0
17724,1.9705715,-3.0187225,0.920166,0.09770508,-1.4305298,-0.10938721,141.0
17725,1.9705715,-3.0187225,0.920166,0.6042847,-1.3869873,0.08283692,141.0
17726,2.036931,-1.1525955,0.16821289,0.6042847,-1.3869873,0.08283692,141.0
17727,2.036931,-1.1525955,0.16821289,0.78376466,-1.3689331,0.18054199,141.0
17728,1.8573523,-0.1882019,-0.524292,0.78376466,-1.3689331,0.18054199,141.0
17729,1.8573523,-0.1882019,-0.524292,0.9505005,-1.4241577,0.13806152,141.0
17730,1.7741756,0.114967346,-1.077858,0.9505005,-1.4241577,0.13806152,141.0
17731,1.7741756,0.114967346,-1.077858,1.0779419,-1.5038086,0.081774905,141.0
17732,2.0071702,0.15060425,-1.2017136,1.0779419,-1.5038086,0.081774905,141.0
17733,2.0071702,0.15060425,-1.2017136,1.0959961,-1.5462891,0.11151123,141.0
17734,2.4443102,0.06613922,-0.9784088,1.0959961,-1.5462891,0.11151123,141.0
17735,2.4443102,0.06613922,-0.9784088,1.0237793,-1.5866455,0.11469727,141.0
17736,2.8610635,0.09768677,-0.9197273,1.0237793,-1.5866455,0.11469727,141.0
17737,2.8610635,0.09768677,-0.9197273,0.82836914,-1.6397461,0.053100586,141.0
17738,3.1380696,0.2834015,-1.0860901,0.82836914,-1.6397461,0.053100586,141.0
17739,3.1380696,0.2834015,-1.0860901,0.3717041,-1.6907227,0.020178223,141.0
17740,3.3550115,0.17830658,-1.1082382,0.3717041,-1.6907227,0.020178223,141.0
17741,3.3550115,0.17830658,-1.1082382,0.0053100586,-1.5993897,0.052038576,141.0
17742,3.6723025,-0.5196991,-0.8727112,0.0053100586,-1.5993897,0.052038576,141.0
17743,3.6723025,-0.5196991,-0.8727112,0.08283692,-1.5144287,0.14018555,141.0
17744,4.078833,-1.2451019,-0.51140213,0.08283692,-1.5144287,0.14018555,141.0
17745,4.078833,-1.2451019,-0.51140213,0.41843262,-1.4889405,0.13912354,141.0
17746,4.1453667,-1.0955658,-0.29018784,0.41843262,-1.4889405,0.13912354,141.0
17747,4.1453667,-1.0955658,-0.29018784,0.17629395,-1.4645141,0.2166504,141.0
17748,3.276474,-0.13137054,-0.41280365,0.17629395,-1.4645141,0.2166504,141.0
17749,3.276474,-0.13137054,-0.41280365,-0.6573853,-1.2191895,0.48533937,141.0
17750,1.6994872,0.58610535,-0.8160324,-0.6573853,-1.2191895,0.48533937,141.0
17751,1.6994872,0.58610535,-0.8160324,-1.1692749,-0.98448485,0.68074954,141.0
17752,0.48352778,0.34494781,-1.3076973,-1.1692749,-0.98448485,0.68074954,141.0
17753,0.48352778,0.34494781,-1.3076973,-1.0588257,-0.8708496,0.71791995,141.0
17754,0.1194638,-0.4769516,-1.6705093,-1.0588257,-0.8708496,0.71791995,141.0
17755,0.1194638,-0.4769516,-1.6705093,-0.8219971,-0.8602295,0.6552612,141.0
17756,0.4429099,-1.2572098,-1.0759811,-0.8219971,-0.8602295,0.6552612,141.0
17757,0.4429099,-1.2572098,-1.0759811,-0.28568116,-0.44073486,0.37489015,141.0
17758,0.8185369,-1.585823,0.71368027,-0.28568116,-0.44073486,0.37489015,141.0
17759,0.8185369,-1.585823,0.71368027,0.7880127,-0.4895874,0.65207523,141.0
17760,0.7746049,-1.4520721,2.3379364,0.7880127,-0.4895874,0.65207523,141.0
17761,0.7746049,-1.4520721,2.3379364,-0.078588866,-0.004248047,0.9802368,141.0
17762,0.5219178,-1.4291611,2.8569489,-0.078588866,-0.004248047,0.9802368,141.0
17763,0.5219178,-1.4291611,2.8569489,-1.6546143,0.8315552,0.811377,141.0
17764,0.16349375,-1.9245529,1.4601822,-1.6546143,0.8315552,0.811377,141.0
17765,0.16349375,-1.9245529,1.4601822,-2.2397828,1.0195312,0.5703003,141.0
17766,-0.5852206,-2.179329,-0.9446335,-2.2397828,1.0195312,0.5703003,141.0
17767,-0.5852206,-2.179329,-0.9446335,-1.808606,0.2899292,1.0227174,141.0
17768,-1.7230837,-1.4528961,-2.0066223,-1.808606,0.2899292,1.0227174,141.0
17769,-1.7230837,-1.4528961,-2.0066223,-0.087084964,-0.26444092,1.2372437,141.0
17770,-2.2353272,0.3183365,-1.2735481,-0.087084964,-0.26444092,1.2372437,141.0
17771,-2.2353272,0.3183365,-1.2735481,1.2744141,-0.35895997,0.6966797,141.0
17772,-1.4686818,1.9592361,0.036239624,1.2744141,-0.35895997,0.6966797,141.0
17773,-1.4686818,1.9592361,0.036239624,0.3355957,-0.059472658,0.32178956,141.0
17774,-0.085028455,1.6451721,0.29856873,0.3355957,-0.059472658,0.32178956,141.0
17775,-0.085028455,1.6451721,0.29856873,-1.5526612,0.053100586,0.39613038,141.0
17776,0.43811738,-0.22540283,-0.70656586,-1.5526612,0.053100586,0.39613038,141.0
17777,0.43811738,-0.22540283,-0.70656586,-1.4061035,-0.29205322,0.65207523,141.0
17778,-0.5449651,-1.9482269,-1.6916428,-1.4061035,-0.29205322,0.65207523,141.0
17779,-0.5449651,-1.9482269,-1.6916428,-0.10620117,-0.57242435,0.50445557,141.0
17780,-1.6657939,-2.4811401,-1.5574646,-0.10620117,-0.57242435,0.50445557,141.0
17781,-1.6657939,-2.4811401,-1.5574646,0.6605713,-0.51826173,0.6775635,141.0
17782,-1.5152768,-1.4549179,-0.854393,0.6605713,-0.51826173,0.6775635,141.0
17783,-1.5152768,-1.4549179,-0.854393,0.44604492,-0.4364868,0.5076416,141.0
17784,-0.8347435,0.13917542,-0.82766724,0.44604492,-0.4364868,0.5076416,141.0
17785,-0.8347435,0.13917542,-0.82766724,-0.038232423,-0.4258667,0.47790527,141.0
17786,-0.9030732,0.68331146,-1.7761612,-0.038232423,-0.4258667,0.47790527,141.0
17787,-0.9030732,0.68331146,-1.7761612,0.17629395,-0.82836914,0.26019287,141.0
17788,-1.3848364,-0.2770691,-2.6600418,0.17629395,-0.82836914,0.26019287,141.0
17789,-1.3848364,-0.2770691,-2.6600418,1.3222046,-1.084314,0.29630128,141.0
17790,-1.1498492,-1.2875137,-2.7002144,1.3222046,-1.084314,0.29630128,141.0
17791,-1.1498492,-1.2875137,-2.7002144,1.3222046,-1.084314,0.29630128,0.0
17792,-1.1498492,-1.2875137,-2.7002144,2.2801392,-1.3498169,0.1529297,0.0
17793,0.023357868,-0.78162384,-1.7765656,2.2801392,-1.3498169,0.1529297,0.0
17794,0.023357868,-0.78162384,-1.7765656,2.6762695,-1.3944215,0.14868164,0.0
17795,1.5073948,0.9714203,-0.06612396,2.6762695,-1.3944215,0.14868164,0.0
17796,1.5073948,0.9714203,-0.06612396,2.624231,-1.2298096,0.093457036,0.0
17797,2.8525834,2.6113358,1.7009964,2.624231,-1.2298096,0.093457036,0.0
17798,2.8525834,2.6113358,1.7009964,2.5626342,-0.9303223,-0.04885254,0.0
17799,3.93131,2.8039017,3.506012,2.5626342,-0.9303223,-0.04885254,0.0
17800,3.93131,2.8039017,3.506012,2.0273805,-0.41206056,0.24851075,0.0
17801,4.251445,2.0568924,5.204506,2.0273805,-0.41206056,0.24851075,0.0
17802,4.251445,2.0568924,5.204506,0.46516114,0.18797608,0.44710693,0.0
17803,2.8052816,2.3812332,3.88348,0.46516114,0.18797608,0.44710693,0.0
17804,2.8052816,2.3812332,3.88348,-0.8708496,0.631897,-0.2888672,0.0
17805,0.07303393,2.1409378,0.100997925,-0.8708496,0.631897,-0.2888672,0.0
17806,0.07303393,2.1409378,0.100997925,-1.0036011,0.50870365,0.17735596,0.0
17807,-1.3887653,-0.14787292,-1.6826782,-1.0036011,0.50870365,0.17735596,0.0
17808,-1.3887653,-0.14787292,-1.6826782,0.32816163,0.2166504,0.08071289,0.0
17809,-1.2001724,-1.5270538,-0.9405365,0.32816163,0.2166504,0.08071289,0.0
17810,-1.2001724,-1.5270538,-0.9405365,0.34833986,0.20178223,-0.15186767,0.0
17811,-0.8509094,-0.7165985,0.33198547,0.34833986,0.20178223,-0.15186767,0.0
17812,-0.8509094,-0.7165985,0.33198547,-0.33028564,0.38975832,-0.18585205,0.0
17813,-0.8024683,0.42604828,0.7636223,-0.33028564,0.38975832,-0.18585205,0.0
17814,-0.8024683,0.42604828,0.7636223,-0.6244629,0.44073486,-0.30479738,0.0
17815,-0.5806954,0.37869263,0.39146423,-0.6244629,0.44073486,-0.30479738,0.0
17816,-0.5806954,0.37869263,0.39146423,-0.6510132,0.42799073,-0.12213135,0.0
17817,-0.31166327,0.1048584,0.055591583,-0.6510132,0.42799073,-0.12213135,0.0
17818,-0.31166327,0.1048584,0.055591583,-0.49489745,0.33984375,-0.1359375,0.0
17819,0.3016826,-0.16267395,-0.42685318,-0.49489745,0.33984375,-0.1359375,0.0
17820,0.3016826,-0.16267395,-0.42685318,-0.65632325,0.44073486,0.0010620117,0.0
17821,0.18132412,-0.1745758,-0.61118317,-0.65632325,0.44073486,0.0010620117,0.0
17822,0.18132412,-0.1745758,-0.61118317,-0.8581055,0.36851808,-0.0998291,0.0
17823,-1.1510589,-0.45318604,-0.9031906,-0.8581055,0.36851808,-0.0998291,0.0
17824,-1.1510589,-0.45318604,-0.9031906,-0.46622315,0.14549561,0.06159668,0.0
17825,-1.263706,-0.80444336,-0.452816,-0.46622315,0.14549561,0.06159668,0.0
17826,-1.263706,-0.80444336,-0.452816,-0.32922363,0.18266602,0.13381349,0.0
17827,-0.50652146,-1.1352692,0.6359253,-0.32922363,0.18266602,0.13381349,0.0
17828,-0.50652146,-1.1352692,0.6359253,-0.58198243,0.15186767,0.03186035,0.0
17829,-0.33107165,-0.66739655,0.3049202,-0.58198243,0.15186767,0.03186035,0.0
17830,-0.33107165,-0.66739655,0.3049202,-0.7593384,0.1709839,0.08071289,0.0
17831,-0.3783949,-0.29890442,-0.59474945,-0.7593384,0.1709839,0.08071289,0.0
17832,-0.3783949,-0.29890442,-0.59474945,-0.45454103,0.12850343,0.14868164,0.0
17833,-0.27272326,-0.51174164,-0.5032768,-0.45454103,0.12850343,0.14868164,0.0
17834,-0.27272326,-0.51174164,-0.5032768,-0.46516114,0.1709839,0.20284425,0.0
17835,-0.110256255,-0.96432495,0.30900955,-0.46516114,0.1709839,0.20284425,0.0
17836,-0.110256255,-0.96432495,0.30900955,-0.9611206,0.4258667,0.31329346,0.0
17837,-0.23428655,-0.9021225,0.33763885,-0.9611206,0.4258667,0.31329346,0.0
17838,-0.23428655,-0.9021225,0.33763885,-1.1087402,0.4895874,0.37595215,0.0
17839,-0.37162113,-0.9966736,0.008686066,-1.1087402,0.4895874,0.37595215,0.0
17840,-0.37162113,-0.9966736,0.008686066,-1.4984986,0.725354,0.4439209,0.0
17841,-0.35111773,-1.0336914,-0.33060074,-1.4984986,0.725354,0.4439209,0.0
17842,-0.35111773,-1.0336914,-0.33060074,-1.634436,0.7858887,0.45454103,0.0
17843,-0.24855775,-1.0729828,-0.4186287,-1.634436,0.7858887,0.45454103,0.0
17844,-0.24855775,-1.0729828,-0.4186287,-1.993396,0.99722904,0.6531372,0.0
17845,-0.45404637,-1.0485687,-0.47203827,-1.993396,0.99722904,0.6531372,0.0
17846,-0.45404637,-1.0485687,-0.47203827,-2.0454347,1.0301514,0.8050049,0.0
17847,-1.0625169,-1.0341339,-1.3222237,-2.0454347,1.0301514,0.8050049,0.0
17848,-1.0625169,-1.0341339,-1.3222237,-1.9668458,0.92713624,0.83474123,0.0
17849,-1.2461073,-1.0870361,-1.8404198,-1.9668458,0.92713624,0.83474123,0.0
17850,-1.2461073,-1.0870361,-1.8404198,-1.9530395,0.9505005,0.994043,0.0
17851,-1.3700548,-1.4731598,-2.385704,-1.9530395,0.9505005,0.994043,0.0
17852,-1.3700548,-1.4731598,-2.385704,-1.7756836,0.94412845,1.1501588,0.0
17853,-1.1685538,-1.7764282,-1.9127655,-1.7756836,0.94412845,1.1501588,0.0
17854,-1.1685538,-1.7764282,-1.9127655,-1.6769165,0.98236084,1.1586548,0.0
17855,-1.2195354,-1.5129166,-1.4853287,-1.6769165,0.98236084,1.1586548,0.0
17856,-1.2195354,-1.5129166,-1.4853287,-2.4054565,0.8379273,1.2000732,0.0
17857,-1.7624693,-0.38389587,-2.2990646,-2.4054565,0.8379273,1.2000732,0.0
17858,-1.7624693,-0.38389587,-2.2990646,-3.062842,0.541626,0.65632325,0.0
17859,-1.8833032,-1.2857895,-3.3639946,-3.062842,0.541626,0.65632325,0.0
17860,-1.8833032,-1.2857895,-3.3639946,-2.626355,0.5692383,1.447522,0.0
17861,-1.1165547,-2.2796707,-2.850338,-2.626355,0.5692383,1.447522,0.0
17862,-1.1165547,-2.2796707,-2.850338,-1.8054199,0.48215333,1.264856,0.0
17863,0.44487882,-3.5384674,-1.7978859,-1.8054199,0.48215333,1.264856,0.0
17864,0.44487882,-3.5384674,-1.7978859,-0.98236084,0.2081543,1.3264526,0.0
17865,1.1094189,-2.2590714,-1.0277863,-0.98236084,0.2081543,1.3264526,0.0
17866,1.1094189,-2.2590714,-1.0277863,-1.8627685,0.078588866,1.5239868,0.0
17867,0.8754134,0.19054413,-0.5151253,-1.8627685,0.078588866,1.5239868,0.0
17868,0.8754134,0.19054413,-0.5151253,-1.8340943,0.12850343,1.5834595,0.0
17869,-0.052159548,0.71839905,0.038780212,-1.8340943,0.12850343,1.5834595,0.0
17870,-0.052159548,0.71839905,0.038780212,-1.1512207,0.04141846,2.156946,0.0
17871,-1.4581096,-0.21607971,0.59381866,-1.1512207,0.04141846,2.156946,0.0
17872,-1.4581096,-0.21607971,0.59381866,-0.08920898,-0.44179687,1.8266602,0.0
17873,-3.0296836,0.2138443,0.51327515,-0.08920898,-0.44179687,1.8266602,0.0
17874,-3.0296836,0.2138443,0.51327515,-0.27612305,-0.3069214,1.5940796,0.0
17875,-3.9044113,0.9226303,0.18101883,-0.27612305,-0.3069214,1.5940796,0.0
17876,-3.9044113,0.9226303,0.18101883,-1.0386475,0.13381349,1.4018555,0.0
17877,-4.2387514,0.22602081,0.20271301,-1.0386475,0.13381349,1.4018555,0.0
17878,-4.2387514,0.22602081,0.20271301,-0.63614506,-0.11044922,1.088562,0.0
17879,-4.6834087,-0.24954224,-0.34217834,-0.63614506,-0.11044922,1.088562,0.0
17880,-4.6834087,-0.24954224,-0.34217834,-0.1901001,-0.4428589,0.4322388,0.0
17881,-5.0035267,0.5951309,-0.8897476,-0.1901001,-0.4428589,0.4322388,0.0
17882,-5.0035267,0.5951309,-0.8897476,0.13487549,-0.16885987,-0.55543214,0.0
17883,-5.03788,1.035965,-0.2129364,0.13487549,-0.16885987,-0.55543214,0.0
17884,-5.03788,1.035965,-0.2129364,0.7168579,0.04460449,-1.273352,0.0
17885,-4.846161,0.1235199,0.6072159,0.7168579,0.04460449,-1.273352,0.0
17886,-4.846161,0.1235199,0.6072159,1.1161743,0.2347046,-1.2860962,0.0
17887,-4.6730223,-0.99542236,0.6725998,1.1161743,0.2347046,-1.2860962,0.0
17888,-4.6730223,-0.99542236,0.6725998,1.6450561,0.21134034,-1.453894,0.0
17889,-4.783596,-1.224968,0.33385468,1.6450561,0.21134034,-1.453894,0.0
17890,-4.783596,-1.224968,0.33385468,2.1495118,0.06796875,-1.4623902,0.0
17891,-4.8107634,-0.97008514,-0.03540802,2.1495118,0.06796875,-1.4623902,0.0
17892,-4.8107634,-0.97008514,-0.03540802,2.5552003,-0.1444336,-1.4007934,0.0
17893,-3.7126493,-1.4467316,-0.27802277,2.5552003,-0.1444336,-1.4007934,0.0
17894,-3.7126493,-1.4467316,-0.27802277,2.4596193,-0.36745605,-0.53950197,0.0
17895,-1.4125748,-1.934288,-0.1989708,2.4596193,-0.36745605,-0.53950197,0.0
17896,-1.4125748,-1.934288,-0.1989708,2.972571,-0.6446411,-0.06796875,0.0
17897,0.4711733,-1.0748444,0.028118134,2.972571,-0.6446411,-0.06796875,0.0
17898,0.4711733,-1.0748444,0.028118134,3.3336549,-0.98236084,-0.058410645,0.0
17899,1.115305,-0.058380127,0.073532104,3.3336549,-0.98236084,-0.058410645,0.0
17900,1.115305,-0.058380127,0.073532104,2.8684938,-1.4326538,0.44498292,0.0
17901,1.6300249,-0.42674255,0.43779373,2.8684938,-1.4326538,0.44498292,0.0
17902,1.6300249,-0.42674255,0.43779373,3.076648,-1.717273,1.3137085,0.0
17903,2.911539,-1.2019196,1.4834862,3.076648,-1.717273,1.3137085,0.0
17904,2.911539,-1.2019196,1.4834862,3.7701416,-1.9509156,1.5186768,0.0
17905,4.064498,-0.39796448,2.6058922,3.7701416,-1.9509156,1.5186768,0.0
17906,4.064498,-0.39796448,2.6058922,4.0239625,-2.0995972,1.6238159,0.0
17907,4.141674,1.9580917,3.1254234,4.0239625,-2.0995972,1.6238159,0.0
17908,4.141674,1.9580917,3.1254234,3.4717164,-2.0135744,1.7905518,0.0
17909,3.6871061,4.0464783,2.9740334,3.4717164,-2.0135744,1.7905518,0.0
17910,3.6871061,4.0464783,2.9740334,3.0161133,-1.8298463,1.8574585,0.0
17911,3.6501245,4.9180145,2.650711,3.0161133,-1.8298463,1.8574585,0.0
17912,3.6501245,4.9180145,2.650711,3.1223145,-1.7714356,1.7597535,0.0
17913,4.09626,5.3271866,2.660904,3.1223145,-1.7714356,1.7597535,0.0
17914,4.09626,5.3271866,2.660904,3.1424928,-1.4846925,1.6100098,0.0
17915,4.2743225,5.6730194,2.9999123,3.1424928,-1.4846925,1.6100098,0.0
17916,4.2743225,5.6730194,2.9999123,2.4001465,-1.0821899,1.627002,0.0
17917,3.5818362,5.4168854,3.1297264,2.4001465,-1.0821899,1.627002,0.0
17918,3.5818362,5.4168854,3.1297264,1.7533814,-0.76358646,1.3986695,0.0
17919,2.3192286,4.614769,2.58712,1.7533814,-0.76358646,1.3986695,0.0
17920,2.3192286,4.614769,2.58712,1.170337,-0.49489745,1.2085694,0.0
17921,1.3032465,3.877205,1.5792084,1.170337,-0.49489745,1.2085694,0.0
17922,1.3032465,3.877205,1.5792084,0.8496094,-0.32709962,1.085376,0.0
17923,1.0254097,3.0381775,0.445961,0.8496094,-0.32709962,1.085376,0.0
17924,1.0254097,3.0381775,0.445961,0.61915284,-0.13381349,1.0949341,0.0
17925,0.9392123,2.188675,0.15605927,0.61915284,-0.13381349,1.0949341,0.0
17926,0.9392123,2.188675,0.15605927,0.45560303,-0.14868164,1.2128174,0.0
17927,0.95584965,0.9237213,-0.3780365,0.45560303,-0.14868164,1.2128174,0.0
17928,0.95584965,0.9237213,-0.3780365,0.27293703,-0.23789063,1.2584839,0.0
17929,0.95584965,0.9237213,-0.3780365,0.27293703,-0.23789063,1.2584839,0.0
17930,0.84721136,0.36344147,-0.6386566,0.27293703,-0.23789063,1.2584839,0.0
17931,0.84721136,0.36344147,-0.6386566,0.2538208,-0.2527588,1.3498169,0.0
17932,0.80530834,0.4481659,-0.47198486,0.2538208,-0.2527588,1.3498169,0.0
17933,0.80530834,0.4481659,-0.47198486,0.19753419,-0.19541016,1.4209718,0.0
17934,0.6713581,0.7289047,-0.11272049,0.19753419,-0.19541016,1.4209718,0.0
17935,0.6713581,0.7289047,-0.11272049,0.26125488,-0.18797608,1.3933594,0.0
17936,0.06700611,0.79141235,0.07631683,0.26125488,-0.18797608,1.3933594,0.0
17937,0.06700611,0.79141235,0.07631683,-0.06265869,-0.21346436,1.4836304,0.0
17938,-0.7373495,0.27960205,0.20089722,-0.06265869,-0.21346436,1.4836304,0.0
17939,-0.7373495,0.27960205,0.20089722,-0.49171144,-0.26444092,1.7236451,0.0
17940,-1.2012196,-0.66872406,0.62683105,-0.49171144,-0.26444092,1.7236451,0.0
17941,-1.2012196,-0.66872406,0.62683105,-0.4704712,-0.33665773,2.0220704,0.0
17942,-1.1084366,-1.068367,1.3598404,-0.4704712,-0.33665773,2.0220704,0.0
17943,-1.1084366,-1.068367,1.3598404,0.29205322,-0.41206056,2.1049073,0.0
17944,-0.650372,-0.18795776,1.9885216,0.29205322,-0.41206056,2.1049073,0.0
17945,-0.650372,-0.18795776,1.9885216,0.6149048,-0.362146,2.1399536,0.0
17946,-0.31520748,1.2457504,2.2161102,0.6149048,-0.362146,2.1399536,0.0
17947,-0.31520748,1.2457504,2.2161102,0.3727661,-0.1539917,2.1176515,0.0
17948,-0.28334284,2.0588074,1.9489746,0.3727661,-0.1539917,2.1176515,0.0
17949,-0.28334284,2.0588074,1.9489746,0.2527588,-0.029736329,2.0156982,0.0
17950,-0.23100758,2.025879,1.257885,0.2527588,-0.029736329,2.0156982,0.0
17951,-0.23100758,2.025879,1.257885,0.33665773,-0.0053100586,1.9700317,0.0
17952,0.004293442,1.7226105,0.5235901,0.33665773,-0.0053100586,1.9700317,0.0
17953,0.004293442,1.7226105,0.5235901,0.39188233,-0.02442627,1.905249,0.0
17954,0.14574432,1.4897995,0.023288727,0.39188233,-0.02442627,1.905249,0.0
17955,0.14574432,1.4897995,0.023288727,0.1996582,0.0063720704,1.7746216,0.0
17956,0.044793606,1.0447464,-0.27144623,0.1996582,0.0063720704,1.7746216,0.0
17957,0.044793606,1.0447464,-0.27144623,-0.11044922,0.058410645,1.720459,0.0
17958,-0.28141356,0.16551971,-0.49999237,-0.11044922,0.058410645,1.720459,0.0
17959,-0.28141356,0.16551971,-0.49999237,-0.33240968,0.009558106,1.8532104,0.0
17960,-0.6785364,-0.74819946,-0.70752716,-0.33240968,0.009558106,1.8532104,0.0
17961,-0.6785364,-0.74819946,-0.70752716,-0.32072756,-0.050976563,1.903125,0.0
17962,-0.7416816,-1.3170166,-0.76612854,-0.32072756,-0.050976563,1.903125,0.0
17963,-0.7416816,-1.3170166,-0.76612854,-0.0541626,-0.124255374,1.7894897,0.0
17964,-0.3175516,-1.4772339,-0.59555817,-0.0541626,-0.124255374,1.7894897,0.0
17965,-0.3175516,-1.4772339,-0.59555817,-0.270813,-0.18372802,1.4145997,0.0
17966,0.07368088,-1.4042969,-0.35256958,-0.270813,-0.18372802,1.4145997,0.0
17967,0.07368088,-1.4042969,-0.35256958,-1.0503296,-0.14974366,1.2234375,0.0
17968,-0.016201973,-1.6772842,-0.18677902,-1.0503296,-0.14974366,1.2234375,0.0
17969,-0.016201973,-1.6772842,-0.18677902,-1.5547851,-0.1996582,1.2584839,0.0
17970,-0.3194561,-2.2511292,0.054885864,-1.5547851,-0.1996582,1.2584839,0.0
17971,-0.3194561,-2.2511292,0.054885864,-1.1873292,-0.4704712,1.4199097,0.0
17972,-0.408885,-1.8235016,0.57567215,-1.1873292,-0.4704712,1.4199097,0.0
17973,-0.408885,-1.8235016,0.57567215,-0.16461182,-0.7306641,1.724707,0.0
17974,-0.14176846,0.07582855,0.9916916,-0.16461182,-0.7306641,1.724707,0.0
17975,-0.14176846,0.07582855,0.9916916,0.5320679,-0.77526855,1.8553345,0.0
17976,0.16025496,2.06707,0.7253456,0.5320679,-0.77526855,1.8553345,0.0
17977,0.16025496,2.06707,0.7253456,0.80394286,-0.84748536,1.4677002,0.0
17978,0.22784996,2.822647,-0.057052612,0.80394286,-0.84748536,1.4677002,0.0
17979,0.22784996,2.822647,-0.057052612,0.7147339,-1.0067872,1.1533448,0.0
17980,0.3844285,2.205307,-0.67398834,0.7147339,-1.0067872,1.1533448,0.0
17981,0.3844285,2.205307,-0.67398834,0.34833986,-1.1459106,1.075818,0.0
17982,0.8941393,0.9772186,-0.759552,0.34833986,-1.1459106,1.075818,0.0
17983,0.8941393,0.9772186,-0.759552,0.33984375,-1.2521118,0.9526245,0.0
17984,1.3971109,-0.027442932,-0.5459137,0.33984375,-1.2521118,0.9526245,0.0
17985,1.3971109,-0.027442932,-0.5459137,0.37807617,-1.3381348,0.92501223,0.0
17986,1.4141974,-0.4585266,-0.31297684,0.37807617,-1.3381348,0.92501223,0.0
17987,1.4141974,-0.4585266,-0.31297684,0.14655761,-1.2999023,1.0227174,0.0
17988,0.9296613,-0.57958984,-0.1675682,0.14655761,-1.2999023,1.0227174,0.0
17989,0.9296613,-0.57958984,-0.1675682,-0.16461182,-1.1459106,1.1193603,0.0
17990,0.35859728,-0.70308685,-0.14325714,-0.16461182,-1.1459106,1.1193603,0.0
17991,0.35859728,-0.70308685,-0.14325714,-0.20921631,-1.0142212,1.2202514,0.0
17992,0.084106445,-0.69062805,-0.2575493,-0.20921631,-1.0142212,1.2202514,0.0
17993,0.084106445,-0.69062805,-0.2575493,0.07540283,-0.9398804,1.3253907,0.0
17994,0.21639442,-0.31168365,-0.5461159,0.07540283,-0.9398804,1.3253907,0.0
17995,0.21639442,-0.31168365,-0.5461159,0.41524658,-0.9165161,1.3232666,0.0
17996,0.64706564,0.39325714,-0.86040497,0.41524658,-0.9165161,1.3232666,0.0
17997,0.64706564,0.39325714,-0.86040497,0.5129517,-0.8931519,1.3859253,0.0
17998,1.0518565,1.0400925,-0.92399216,0.5129517,-0.8931519,1.3859253,0.0
17999,1.0518565,1.0400925,-0.92399216,0.40993652,-0.86978763,1.351941,0.0
18000,1.1754084,1.1804352,-0.67162704,0.40993652,-0.86978763,1.351941,0.0
18001,1.1754084,1.1804352,-0.67162704,0.23895264,-0.815625,1.2977784,0.0
18002,1.0625191,0.6973038,-0.2040863,0.23895264,-0.815625,1.2977784,0.0
18003,1.0625191,0.6973038,-0.2040863,0.13275146,-0.74447024,1.3232666,0.0
18004,0.8865385,-0.1091156,0.25961685,0.13275146,-0.74447024,1.3232666,0.0
18005,0.8865385,-0.1091156,0.25961685,0.2548828,-0.66269535,1.2882203,0.0
18006,0.7043605,-0.84438324,0.57437897,0.2548828,-0.66269535,1.2882203,0.0
18007,0.7043605,-0.84438324,0.57437897,0.5140137,-0.64782715,1.2075074,0.0
18008,0.41827345,-1.2802429,0.6366272,0.5140137,-0.64782715,1.2075074,0.0
18009,0.41827345,-1.2802429,0.6366272,0.37489015,-0.68074954,1.4315919,0.0
18010,0.019262314,-1.102417,0.32004166,0.37489015,-0.68074954,1.4315919,0.0
18011,0.019262314,-1.102417,0.32004166,0.6053467,-0.542688,1.3721192,0.0
18012,0.02709198,-0.5336075,-0.22615814,0.6053467,-0.542688,1.3721192,0.0
18013,0.02709198,-0.5336075,-0.22615814,0.47684327,-0.5246338,1.179895,0.0
18014,0.4313171,-0.33224487,-0.60814667,0.47684327,-0.5246338,1.179895,0.0
18015,0.4313171,-0.33224487,-0.60814667,0.023364259,-0.67331547,1.0567017,0.0
18016,0.40135264,-0.8537216,-0.20136261,0.023364259,-0.67331547,1.0567017,0.0
18017,0.40135264,-0.8537216,-0.20136261,0.16248779,-0.994043,1.176709,0.0
18018,0.20161176,-1.351059,0.9721756,0.16248779,-0.994043,1.176709,0.0
18019,0.20161176,-1.351059,0.9721756,1.1448487,-1.1310425,1.2383057,0.0
18020,0.61938286,-0.43733978,1.5033379,1.1448487,-1.1310425,1.2383057,0.0
18021,0.61938286,-0.43733978,1.5033379,1.8415283,-1.171399,1.1299804,0.0
18022,1.3944321,1.9451447,0.68963623,1.8415283,-1.171399,1.1299804,0.0
18023,1.3944321,1.9451447,0.68963623,1.265918,-0.96218264,1.0524536,0.0
18024,1.798517,3.7224045,-0.55718994,1.265918,-0.96218264,1.0524536,0.0
18025,1.798517,3.7224045,-0.55718994,-0.05628662,-0.74022216,1.0471436,0.0
18026,1.3922682,3.0387268,-1.2810898,-0.05628662,-0.74022216,1.0471436,0.0
18027,1.3922682,3.0387268,-1.2810898,-0.6403931,-0.724292,1.0301514,0.0
18028,0.62129736,0.29087067,-1.0914841,-0.6403931,-0.724292,1.0301514,0.0
18029,0.62129736,0.29087067,-1.0914841,-0.3791382,-0.8814697,1.0630738,0.0
18030,0.21127129,-1.9031906,-0.40052795,-0.3791382,-0.8814697,1.0630738,0.0
18031,0.21127129,-1.9031906,-0.40052795,0.66481936,-1.0917481,0.86978763,0.0
18032,0.33824325,-2.0281906,0.13562012,0.66481936,-1.0917481,0.86978763,0.0
18033,0.33824325,-2.0281906,0.13562012,0.6244629,-1.0768799,0.80181885,0.0
18034,0.33824325,-2.0281906,0.13562012,0.6244629,-1.0768799,0.80181885,0.0
18035,0.8232192,-1.1217804,0.31739426,0.6244629,-1.0768799,0.80181885,0.0
18036,0.8232192,-1.1217804,0.31739426,0.36639404,-0.99722904,0.8358032,0.0
18037,1.401007,-0.18101501,0.17649841,0.36639404,-0.99722904,0.8358032,0.0
18038,1.401007,-0.18101501,0.17649841,0.55543214,-0.8931519,0.7582764,0.0
18039,1.718291,0.62789154,-0.29099274,0.55543214,-0.8931519,0.7582764,0.0
18040,1.718291,0.62789154,-0.29099274,0.47365722,-0.8294312,0.7519043,0.0
18041,1.5563712,1.2638016,-0.81305695,0.47365722,-0.8294312,0.7519043,0.0
18042,1.5563712,1.2638016,-0.81305695,0.47471926,-0.7423462,0.70198977,0.0
18043,1.179179,1.1216736,-0.97566605,0.47471926,-0.7423462,0.70198977,0.0
18044,1.179179,1.1216736,-0.97566605,0.55755615,-0.63826907,0.7943848,0.0
18045,0.9428793,0.31245422,-0.6659813,0.55755615,-0.63826907,0.7943848,0.0
18046,0.9428793,0.31245422,-0.6659813,0.92501223,-0.5564942,0.81668705,0.0
18047,0.7576726,-0.07065582,-0.26311874,0.92501223,-0.5564942,0.81668705,0.0
18048,0.7576726,-0.07065582,-0.26311874,1.1395386,-0.47790527,0.74022216,0.0
18049,0.38438517,0.47266388,-0.32774353,1.1395386,-0.47790527,0.74022216,0.0
18050,0.38438517,0.47266388,-0.32774353,0.5522461,-0.4078125,0.5894165,0.0
18051,-0.028881028,1.103241,-0.7628555,0.5522461,-0.4078125,0.5894165,0.0
18052,-0.028881028,1.103241,-0.7628555,0.07646485,-0.35152587,0.49171144,0.0
18053,0.023953281,0.77671814,-0.878315,0.07646485,-0.35152587,0.49171144,0.0
18054,0.023953281,0.77671814,-0.878315,0.124255374,-0.35152587,0.62552494,0.0
18055,0.5810889,0.1563034,-0.45538712,0.124255374,-0.35152587,0.62552494,0.0
18056,0.5810889,0.1563034,-0.45538712,0.64995116,-0.32816163,0.5065796,0.0
18057,1.0512236,0.37724304,0.04982376,0.64995116,-0.32816163,0.5065796,0.0
18058,1.0512236,0.37724304,0.04982376,0.26444092,-0.19116211,0.5012695,0.0
18059,1.077832,1.0077515,0.2261734,0.26444092,-0.19116211,0.5012695,0.0
18060,1.077832,1.0077515,0.2261734,-0.6818115,-0.059472658,0.46516114,0.0
18061,0.8062842,0.8909683,0.12779999,-0.6818115,-0.059472658,0.46516114,0.0
18062,0.8062842,0.8909683,0.12779999,-1.4114136,0.0010620117,0.4800293,0.0
18063,0.4763384,-0.2110672,-0.028438568,-1.4114136,0.0010620117,0.4800293,0.0
18064,0.4763384,-0.2110672,-0.028438568,-1.358313,-0.059472658,0.48746338,0.0
18065,0.05046773,-1.4305496,-0.11670685,-1.358313,-0.059472658,0.48746338,0.0
18066,0.05046773,-1.4305496,-0.11670685,-1.1204224,-0.18585205,0.52888185,0.0
18067,-0.500202,-1.8809662,-0.13697052,-1.1204224,-0.18585205,0.52888185,0.0
18068,-0.500202,-1.8809662,-0.13697052,-0.6839356,-0.34090576,0.5320679,0.0
18069,-0.7975371,-1.6469879,-0.13287735,-0.6839356,-0.34090576,0.5320679,0.0
18070,-0.7975371,-1.6469879,-0.13287735,-0.17947999,-0.40993652,0.5320679,0.0
18071,-0.4588061,-1.3582764,-0.1024704,-0.17947999,-0.40993652,0.5320679,0.0
18072,-0.4588061,-1.3582764,-0.1024704,0.42799073,-0.42268068,0.5628662,0.0
18073,0.33456647,-1.0095062,-0.10139847,0.42799073,-0.42268068,0.5628662,0.0
18074,0.33456647,-1.0095062,-0.10139847,1.0036011,-0.42905274,0.4980835,0.0
18075,0.9348041,-0.46468353,-0.20365143,1.0036011,-0.42905274,0.4980835,0.0
18076,0.9348041,-0.46468353,-0.20365143,1.0641358,-0.40250245,0.3717041,0.0
18077,0.8836465,-0.02772522,-0.34628296,1.0641358,-0.40250245,0.3717041,0.0
18078,0.8836465,-0.02772522,-0.34628296,0.85491943,-0.39506838,0.27718505,0.0
18079,0.3215413,0.00566864,-0.34036636,0.85491943,-0.39506838,0.27718505,0.0
18080,0.3215413,0.00566864,-0.34036636,0.7805786,-0.4343628,0.20709229,0.0
18081,-0.25344813,-0.087127686,-0.20592499,0.7805786,-0.4343628,0.20709229,0.0
18082,-0.25344813,-0.087127686,-0.20592499,0.7508423,-0.3971924,0.19647217,0.0
18083,-0.3979733,0.11380768,-0.1321106,0.7508423,-0.3971924,0.19647217,0.0
18084,-0.3979733,0.11380768,-0.1321106,0.48427734,-0.31010744,0.2347046,0.0
18085,-0.07096648,0.4444275,-0.1876831,0.48427734,-0.31010744,0.2347046,0.0
18086,-0.07096648,0.4444275,-0.1876831,0.25913087,-0.29736328,0.21240234,0.0
18087,0.36576104,0.53996277,-0.27142334,0.25913087,-0.29736328,0.21240234,0.0
18088,0.36576104,0.53996277,-0.27142334,0.3164795,-0.36851808,0.1709839,0.0
18089,0.5782534,0.5724106,-0.15803146,0.3164795,-0.36851808,0.1709839,0.0
18090,0.5782534,0.5724106,-0.15803146,0.35789797,-0.4428589,0.10938721,0.0
18091,0.66412854,0.52288055,0.108379364,0.35789797,-0.4428589,0.10938721,0.0
18092,0.66412854,0.52288055,0.108379364,0.035046387,-0.46516114,0.23364258,0.0
18093,0.72334385,0.051506042,0.48345566,0.035046387,-0.46516114,0.23364258,0.0
18094,0.72334385,0.051506042,0.48345566,-0.4439209,-0.38338622,0.3791382,0.0
18095,0.7483895,-0.47246552,0.97296906,-0.4439209,-0.38338622,0.3791382,0.0
18096,0.7483895,-0.47246552,0.97296906,-0.38338622,-0.24320069,0.45666504,0.0
18097,0.60061586,-0.53012085,1.1154251,-0.38338622,-0.24320069,0.45666504,0.0
18098,0.60061586,-0.53012085,1.1154251,-0.6138428,-0.098767094,0.4609131,0.0
18099,0.211169,-0.20626068,0.84446716,-0.6138428,-0.098767094,0.4609131,0.0
18100,0.211169,-0.20626068,0.84446716,-0.5522461,-0.03079834,0.48746338,0.0
18101,-0.16204631,-0.05872345,0.47281647,-0.5522461,-0.03079834,0.48746338,0.0
18102,-0.16204631,-0.05872345,0.47281647,0.087084964,0.0541626,0.44923097,0.0
18103,-0.29476166,-0.13282776,0.0057678223,0.087084964,0.0541626,0.44923097,0.0
18104,-0.29476166,-0.13282776,0.0057678223,0.65207523,0.08920898,0.47684327,0.0
18105,-0.3060974,0.054122925,-0.49185944,0.65207523,0.08920898,0.47684327,0.0
18106,-0.3060974,0.054122925,-0.49185944,0.8421753,0.13699952,0.51932377,0.0
18107,-0.3184253,0.63262177,-0.8699646,0.8421753,0.13699952,0.51932377,0.0
18108,-0.3184253,0.63262177,-0.8699646,0.7072998,0.1901001,0.44073486,0.0
18109,-0.412333,1.3461456,-1.2182388,0.7072998,0.1901001,0.44073486,0.0
18110,-0.412333,1.3461456,-1.2182388,0.42268068,0.17841797,0.25913087,0.0
18111,-0.57663155,1.7478409,-1.6226883,0.42268068,0.17841797,0.25913087,0.0
18112,-0.57663155,1.7478409,-1.6226883,-0.07327881,0.13168946,0.10195313,0.0
18113,-0.6072037,1.4611511,-1.8319283,-0.07327881,0.13168946,0.10195313,0.0
18114,-0.6072037,1.4611511,-1.8319283,-0.47365722,0.07327881,-0.027612304,0.0
18115,-0.36986947,0.74046326,-1.6579857,-0.47365722,0.07327881,-0.027612304,0.0
18116,-0.36986947,0.74046326,-1.6579857,-0.43861085,0.027612304,-0.115759276,0.0
18117,-0.0014375448,1.6784668E-4,-1.2726402,-0.43861085,0.027612304,-0.115759276,0.0
18118,-0.0014375448,1.6784668E-4,-1.2726402,-0.815625,0.14230958,-0.0063720704,0.0
18119,0.31713605,-0.94890594,-1.0190163,-0.815625,0.14230958,-0.0063720704,0.0
18120,0.31713605,-0.94890594,-1.0190163,-1.2308716,0.1359375,-0.009558106,0.0
18121,0.6488993,-2.0295715,-0.9397507,-1.2308716,0.1359375,-0.009558106,0.0
18122,0.6488993,-2.0295715,-0.9397507,-1.0227174,0.11257324,-0.16885987,0.0
18123,1.102103,-1.8756104,-0.8460655,-1.0227174,0.11257324,-0.16885987,0.0
18124,1.102103,-1.8756104,-0.8460655,-0.54693604,0.04991455,-0.6425171,0.0
18125,1.4809134,0.15683746,-0.23565292,-0.54693604,0.04991455,-0.6425171,0.0
18126,1.4809134,0.15683746,-0.23565292,-0.29736328,0.26975098,-1.0046631,0.0
18127,1.4986346,1.889679,1.0759163,-0.29736328,0.26975098,-1.0046631,0.0
18128,1.4986346,1.889679,1.0759163,-0.28674316,0.3355957,-0.7455322,0.0
18129,1.319159,1.4886856,2.7406769,-0.28674316,0.3355957,-0.7455322,0.0
18130,1.319159,1.4886856,2.7406769,-0.27293703,0.5533081,-0.8581055,0.0
18131,1.187676,-0.39574432,4.416588,-0.27293703,0.5533081,-0.8581055,0.0
18132,1.187676,-0.39574432,4.416588,0.1901001,0.67225343,-0.7614624,0.0
18133,0.1780827,-2.4303207,4.784954,0.1901001,0.67225343,-0.7614624,0.0
18134,0.1780827,-2.4303207,4.784954,-0.62552494,0.66269535,-0.33240968,0.0
18135,-2.1814597,-3.095932,2.8294678,-0.62552494,0.66269535,-0.33240968,0.0
18136,-2.1814597,-3.095932,2.8294678,-1.448584,0.48215333,-0.1359375,0.0
18137,-3.7694843,-1.9444962,0.10772705,-1.448584,0.48215333,-0.1359375,0.0
18138,-3.7694843,-1.9444962,0.10772705,-0.9547486,0.13168946,-0.053100586,0.0
18139,-2.7595694,-0.2676239,-1.4909439,-0.9547486,0.13168946,-0.053100586,0.0
18140,-2.7595694,-0.2676239,-1.4909439,0.47365722,0.12000733,-0.452417,0.0
18141,-0.55851007,0.5363922,-1.701374,0.47365722,0.12000733,-0.452417,0.0
18142,-0.55851007,0.5363922,-1.701374,1.1575928,-0.047790527,-0.4088745,0.0
18143,0.74352396,0.72945404,-1.0542145,1.1575928,-0.047790527,-0.4088745,0.0
18144,0.74352396,0.72945404,-1.0542145,1.4230957,-0.06265869,-0.27718505,0.0
18145,1.0402782,1.2593536,-0.2064209,1.4230957,-0.06265869,-0.27718505,0.0
18146,1.0402782,1.2593536,-0.2064209,1.1310425,0.095581055,-0.24638672,0.0
18147,1.0089071,1.6419296,0.443161,1.1310425,0.095581055,-0.24638672,0.0
18148,1.0089071,1.6419296,0.443161,0.44073486,0.22408448,-0.098767094,0.0
18149,0.7699064,1.1171799,0.7785034,0.44073486,0.22408448,-0.098767094,0.0
18150,0.7699064,1.1171799,0.7785034,-0.20496826,0.3175415,0.083898924,0.0
18151,0.20514631,0.1922226,0.7565689,-0.20496826,0.3175415,0.083898924,0.0
18152,0.20514631,0.1922226,0.7565689,-0.32497558,0.29948732,0.008496094,0.0
18153,-0.5896915,-0.24215698,0.37415314,-0.32497558,0.29948732,0.008496094,0.0
18154,-0.5896915,-0.24215698,0.37415314,-0.4715332,0.26656494,-0.17629395,0.0
18155,-1.3388431,-0.16569519,-0.29722214,-0.4715332,0.26656494,-0.17629395,0.0
18156,-1.3388431,-0.16569519,-0.29722214,-0.8517334,0.08920898,-0.33771974,0.0
18157,-1.7305961,-0.5459366,-0.67383575,-0.8517334,0.08920898,-0.33771974,0.0
18158,-1.7305961,-0.5459366,-0.67383575,-1.1299804,0.10195313,-0.2538208,0.0
18159,-1.5869915,-1.2995758,-0.5997238,-1.1299804,0.10195313,-0.2538208,0.0
18160,-1.5869915,-1.2995758,-0.5997238,-0.25806886,-0.081774905,-0.20921631,0.0
18161,-0.89607024,-0.8080063,-0.47257614,-0.25806886,-0.081774905,-0.20921631,0.0
18162,-0.89607024,-0.8080063,-0.47257614,0.52038574,-0.10938721,-0.3175415,0.0
18163,-0.10396558,0.85393524,-0.3018875,0.52038574,-0.10938721,-0.3175415,0.0
18164,-0.10396558,0.85393524,-0.3018875,0.27399904,-0.11044922,-0.23789063,0.0
18165,0.05695206,2.0794601,-0.39352417,0.27399904,-0.11044922,-0.23789063,0.0
18166,0.05695206,2.0794601,-0.39352417,-0.45135498,-0.2357666,-0.24001466,0.0
18167,-0.42256582,1.8256683,-0.5675049,-0.45135498,-0.2357666,-0.24001466,0.0
18168,-0.42256582,1.8256683,-0.5675049,-1.265918,-0.22833252,-0.4078125,0.0
18169,-0.68249846,0.16370392,-0.40018463,-1.265918,-0.22833252,-0.4078125,0.0
18170,-0.68249846,0.16370392,-0.40018463,-1.1915772,-0.15186767,-0.42161867,0.0
18171,-0.14131126,-1.7215805,-0.16165161,-1.1915772,-0.15186767,-0.42161867,0.0
18172,-0.14131126,-1.7215805,-0.16165161,-0.3058594,-0.3090454,-0.3791382,0.0
18173,0.65369904,-2.247757,0.00308609,-0.3058594,-0.3090454,-0.3791382,0.0
18174,0.65369904,-2.247757,0.00308609,-0.19541016,-0.3727661,-0.36851808,0.0
18175,1.0318338,-1.1559067,0.05664444,-0.19541016,-0.3727661,-0.36851808,0.0
18176,1.0318338,-1.1559067,0.05664444,-0.7540283,-0.27718505,-0.3802002,0.0
18177,0.97530836,-0.21315002,-0.02193451,-0.7540283,-0.27718505,-0.3802002,0.0
18178,0.97530836,-0.21315002,-0.02193451,-1.360437,-0.043542482,-0.37701416,0.0
18179,0.78086925,-0.513916,-0.18387985,-1.360437,-0.043542482,-0.37701416,0.0
18180,0.78086925,-0.513916,-0.18387985,-1.3370727,0.02442627,-0.28780517,0.0
18181,0.6574225,-1.1289291,-0.37265015,-1.3370727,0.02442627,-0.28780517,0.0
18182,0.6574225,-1.1289291,-0.37265015,-0.9802368,-0.02442627,-0.23258057,0.0
18183,0.49026906,-1.2291794,-0.45781326,-0.9802368,-0.02442627,-0.23258057,0.0
18184,0.49026906,-1.2291794,-0.45781326,-1.1416626,0.004248047,-0.18160401,0.0
18185,0.20475185,-1.1464157,-0.4840393,-1.1416626,0.004248047,-0.18160401,0.0
18186,0.20475185,-1.1464157,-0.4840393,-1.3891114,0.0,-0.15823975,0.0
18187,0.16704857,-1.1870651,-0.37561035,-1.3891114,0.0,-0.15823975,0.0
18188,0.16704857,-1.1870651,-0.37561035,-1.2977784,0.0180542,-0.06584473,0.0
18189,0.45318234,-1.2028961,-0.016918182,-1.2977784,0.0180542,-0.06584473,0.0
18190,0.45318234,-1.2028961,-0.016918182,-1.0556396,0.026550293,-0.09239502,0.0
18191,0.45318234,-1.2028961,-0.016918182,-1.0556396,0.026550293,-0.09239502,78.0
18192,0.5764009,-1.1717911,0.2896881,-1.0556396,0.026550293,-0.09239502,78.0
18193,0.5764009,-1.1717911,0.2896881,-0.8442993,0.07434082,-0.11044922,78.0
18194,0.5208254,-1.1092987,0.28033447,-0.8442993,0.07434082,-0.11044922,78.0
18195,0.5208254,-1.1092987,0.28033447,-0.4343628,0.07327881,-0.038232423,78.0
18196,0.66082525,-0.9808731,-0.0014266968,-0.4343628,0.07327881,-0.038232423,78.0
18197,0.66082525,-0.9808731,-0.0014266968,-0.24638672,0.090270996,0.007434082,78.0
18198,0.7986065,-0.84762573,-0.38876343,-0.24638672,0.090270996,0.007434082,78.0
18199,0.7986065,-0.84762573,-0.38876343,-0.24851075,0.11682129,0.058410645,78.0
18200,0.44577003,-0.6509552,-0.67456055,-0.24851075,0.11682129,0.058410645,78.0
18201,0.44577003,-0.6509552,-0.67456055,-0.1263794,0.10089111,0.05522461,78.0
18202,-0.33262956,-0.44602966,-0.8190918,-0.1263794,0.10089111,0.05522461,78.0
18203,-0.33262956,-0.44602966,-0.8190918,-0.04885254,0.059472658,0.0,78.0
18204,-0.85310316,-0.43283844,-0.86097336,-0.04885254,0.059472658,0.0,78.0
18205,-0.85310316,-0.43283844,-0.86097336,0.053100586,-0.013806152,-0.019116212,78.0
18206,-0.67994344,-0.43811798,-0.8223114,0.053100586,-0.013806152,-0.019116212,78.0
18207,-0.67994344,-0.43811798,-0.8223114,0.16248779,-0.04991455,-0.038232423,78.0
18208,-0.12985563,-0.21253967,-0.7131729,0.16248779,-0.04991455,-0.038232423,78.0
18209,-0.12985563,-0.21253967,-0.7131729,0.17416993,-0.019116212,-0.032922365,78.0
18210,0.27184796,0.11558533,-0.5674362,0.17416993,-0.019116212,-0.032922365,78.0
18211,0.27184796,0.11558533,-0.5674362,0.095581055,-0.0031860352,-0.025488282,78.0
18212,0.32768345,0.14432526,-0.38482285,0.095581055,-0.0031860352,-0.025488282,78.0
18213,0.32768345,0.14432526,-0.38482285,-0.0361084,0.0010620117,-0.009558106,78.0
18214,0.16638255,-0.087905884,-0.2115593,-0.0361084,0.0010620117,-0.009558106,78.0
18215,0.16638255,-0.087905884,-0.2115593,0.039294433,-0.0021240234,-0.0180542,78.0
18216,0.037329674,-0.20195007,-0.113521576,0.039294433,-0.0021240234,-0.0180542,78.0
18217,0.037329674,-0.20195007,-0.113521576,0.095581055,-0.0031860352,-0.016992187,78.0
18218,0.011064887,-0.06223297,-0.07343292,0.095581055,-0.0031860352,-0.016992187,78.0
18219,0.011064887,-0.06223297,-0.07343292,0.08496094,-0.010620117,-0.035046387,78.0
18220,-0.040757418,0.106025696,-0.008880615,0.08496094,-0.010620117,-0.035046387,78.0
18221,-0.040757418,0.106025696,-0.008880615,0.06478272,-0.028674318,-0.06796875,78.0
18222,-0.11948335,0.10057831,0.078567505,0.06478272,-0.028674318,-0.06796875,78.0
18223,-0.11948335,0.10057831,0.078567505,0.18372802,-0.025488282,-0.09770508,78.0
18224,-0.023845911,0.042266846,0.14112473,0.18372802,-0.025488282,-0.09770508,78.0
18225,-0.023845911,0.042266846,0.14112473,0.32391357,-0.008496094,-0.11044922,78.0
18226,0.195413,0.10272217,0.14432144,0.32391357,-0.008496094,-0.11044922,78.0
18227,0.195413,0.10272217,0.14432144,0.27293703,-0.03186035,-0.11469727,78.0
18228,0.13769019,0.23461914,0.13809204,0.27293703,-0.03186035,-0.11469727,78.0
18229,0.13769019,0.23461914,0.13809204,0.095581055,-0.043542482,-0.14337158,78.0
18230,-0.17159832,0.28923035,0.16480637,0.095581055,-0.043542482,-0.14337158,78.0
18231,-0.17159832,0.28923035,0.16480637,0.16354981,-0.026550293,-0.14868164,78.0
18232,-0.18686366,0.2183609,0.16410828,0.16354981,-0.026550293,-0.14868164,78.0
18233,-0.18686366,0.2183609,0.16410828,0.28674316,-0.052038576,-0.1359375,78.0
18234,0.107991934,0.18328094,0.1482315,0.28674316,-0.052038576,-0.1359375,78.0
18235,0.107991934,0.18328094,0.1482315,0.33771974,-0.04885254,-0.11469727,78.0
18236,0.31617868,0.29005432,0.14445114,0.33771974,-0.04885254,-0.11469727,78.0
18237,0.31617868,0.29005432,0.14445114,0.27293703,-0.015930176,-0.0637207,78.0
18238,0.44301856,0.2925644,0.22986603,0.27293703,-0.015930176,-0.0637207,78.0
18239,0.44301856,0.2925644,0.22986603,0.15505372,0.014868164,0.0180542,78.0
18240,0.50725913,0.13384247,0.3745308,0.15505372,0.014868164,0.0180542,78.0
18241,0.50725913,0.13384247,0.3745308,0.2803711,0.057348635,0.033984374,78.0
18242,0.29976487,0.08301544,0.40560532,0.2803711,0.057348635,0.033984374,78.0
18243,0.29976487,0.08301544,0.40560532,0.4959595,0.07115479,0.052038576,78.0
18244,-0.04324484,0.23082733,0.41134644,0.4959595,0.07115479,0.052038576,78.0
18245,-0.04324484,0.23082733,0.41134644,0.77526855,0.18160401,0.1274414,78.0
18246,-0.20741081,0.33647156,0.48632812,0.77526855,0.18160401,0.1274414,78.0
18247,-0.20741081,0.33647156,0.48632812,0.8028809,0.24320069,0.26337892,78.0
18248,-0.4129989,0.39022064,0.5925636,0.8028809,0.24320069,0.26337892,78.0
18249,-0.4129989,0.39022064,0.5925636,0.4598511,0.45772704,0.39082032,78.0
18250,-0.81282103,0.45113373,0.5375862,0.4598511,0.45772704,0.39082032,78.0
18251,-0.81282103,0.45113373,0.5375862,0.7880127,0.5363159,0.38869628,78.0
18252,-0.9523442,0.37995148,0.25139618,0.7880127,0.5363159,0.38869628,78.0
18253,-0.9523442,0.37995148,0.25139618,1.2531738,0.5214478,0.5012695,78.0
18254,-0.7148417,0.4335022,0.07070923,1.2531738,0.5214478,0.5012695,78.0
18255,-0.7148417,0.4335022,0.07070923,1.5654052,0.4609131,0.5171997,78.0
18256,-0.5500473,0.68426514,0.17375565,1.5654052,0.4609131,0.5171997,78.0
18257,-0.5500473,0.68426514,0.17375565,1.6471802,0.5076416,0.5278198,78.0
18258,-0.5506823,0.86608887,0.29998016,1.6471802,0.5076416,0.5278198,78.0
18259,-0.5506823,0.86608887,0.29998016,1.537793,0.42055663,0.57561034,78.0
18260,-0.65165424,1.3289948,0.18817902,1.537793,0.42055663,0.57561034,78.0
18261,-0.65165424,1.3289948,0.18817902,1.0959961,0.1996582,0.48533937,78.0
18262,-1.0203346,2.0619278,0.31636047,1.0959961,0.1996582,0.48533937,78.0
18263,-1.0203346,2.0619278,0.31636047,1.1533448,0.29523927,0.270813,78.0
18264,-1.1413043,1.9497375,0.8521843,1.1533448,0.29523927,0.270813,78.0
18265,-1.1413043,1.9497375,0.8521843,1.6885986,0.19222413,0.6425171,78.0
18266,-0.4447329,1.3565292,1.4573593,1.6885986,0.19222413,0.6425171,78.0
18267,-0.4447329,1.3565292,1.4573593,2.2004883,0.14974366,0.75509036,78.0
18268,0.2232298,1.5550232,2.0364227,2.2004883,0.14974366,0.75509036,78.0
18269,0.2232298,1.5550232,2.0364227,2.0380006,0.24532472,0.88996583,78.0
18270,-0.13750505,2.4468002,2.1782951,2.0380006,0.24532472,0.88996583,78.0
18271,-0.13750505,2.4468002,2.1782951,1.4698242,0.42692873,0.9143921,78.0
18272,-1.10871,2.918869,1.7998161,1.4698242,0.42692873,0.9143921,78.0
18273,-1.10871,2.918869,1.7998161,0.6966797,0.63933104,0.7848267,78.0
18274,-1.7590506,2.2944183,1.3125687,0.6966797,0.63933104,0.7848267,78.0
18275,-1.7590506,2.2944183,1.3125687,0.3993164,0.76677245,0.7317261,78.0
18276,-1.9022479,0.91916656,0.7555237,0.3993164,0.76677245,0.7317261,78.0
18277,-1.9022479,0.91916656,0.7555237,0.48427734,0.7975708,0.74871826,78.0
18278,-1.8555875,-0.17263031,-0.032470703,0.48427734,0.7975708,0.74871826,78.0
18279,-1.8555875,-0.17263031,-0.032470703,0.65632325,0.66481936,0.7041138,78.0
18280,-1.6540378,-0.2030716,-0.81433105,0.65632325,0.66481936,0.7041138,78.0
18281,-1.6540378,-0.2030716,-0.81433105,0.72004396,0.5883545,0.57242435,78.0
18282,-1.3407841,0.5807266,-1.3925056,0.72004396,0.5883545,0.57242435,78.0
18283,-1.3407841,0.5807266,-1.3925056,0.8581055,0.29099122,0.4078125,78.0
18284,-1.1982622,1.6697769,-1.8951569,0.8581055,0.29099122,0.4078125,78.0
18285,-1.1982622,1.6697769,-1.8951569,0.7688965,-0.09451904,0.0031860352,78.0
18286,-1.083024,2.4789886,-2.186451,0.7688965,-0.09451904,0.0031860352,78.0
18287,-1.083024,2.4789886,-2.186451,0.09770508,-0.41843262,-0.38763428,78.0
18288,-0.46247625,2.3122559,-1.9129524,0.09770508,-0.41843262,-0.38763428,78.0
18289,-0.46247625,2.3122559,-1.9129524,-0.94731444,-0.56817627,-0.5246338,78.0
18290,0.6933856,0.9491043,-1.6327553,-0.94731444,-0.56817627,-0.5246338,78.0
18291,0.6933856,0.9491043,-1.6327553,-1.9392334,-0.75296634,-0.37595215,78.0
18292,1.7805021,-1.0662994,-2.0161896,-1.9392334,-0.75296634,-0.37595215,78.0
18293,1.7805021,-1.0662994,-2.0161896,-1.9848999,-1.0556396,-0.2899292,78.0
18294,2.3106077,-2.4636765,-2.5662346,-1.9848999,-1.0556396,-0.2899292,78.0
18295,2.3106077,-2.4636765,-2.5662346,-1.0375855,-1.3476928,-0.62764895,78.0
18296,2.4490843,-2.3671722,-2.5872421,-1.0375855,-1.3476928,-0.62764895,78.0
18297,2.4490843,-2.3671722,-2.5872421,0.0021240234,-1.538855,-0.724292,78.0
18298,2.8678002,-0.7835541,-1.0819511,0.0021240234,-1.538855,-0.724292,78.0
18299,2.8678002,-0.7835541,-1.0819511,0.42055663,-1.0259033,-1.0556396,78.0
18300,3.8098896,2.2525864,1.3469048,0.42055663,-1.0259033,-1.0556396,78.0
18301,3.8098896,2.2525864,1.3469048,-1.2563599,-0.4895874,-1.628064,78.0
18302,4.4171014,3.7855759,2.066002,-1.2563599,-0.4895874,-1.628064,78.0
18303,4.4171014,3.7855759,2.066002,-4.6887817,0.20709229,-0.21983643,78.0
18304,3.312868,0.36209106,0.95500946,-4.6887817,0.20709229,-0.21983643,78.0
18305,3.312868,0.36209106,0.95500946,-5.413074,0.79332274,0.13487549,78.0
18306,-0.060252428,-5.453964,-0.080192566,-5.413074,0.79332274,0.13487549,78.0
18307,-0.060252428,-5.453964,-0.080192566,-2.3385499,-0.22196046,-0.37489015,78.0
18308,-0.060252428,-5.453964,-0.080192566,-2.3385499,-0.22196046,-0.37489015,78.0
18309,-3.8972497,-7.428673,-0.15655136,-2.3385499,-0.22196046,-0.37489015,78.0
18310,-3.8972497,-7.428673,-0.15655136,0.9770508,-1.2223755,-1.1968873,78.0
18311,-5.4086204,-4.3977203,1.4281425,0.9770508,-1.2223755,-1.1968873,78.0
18312,-5.4086204,-4.3977203,1.4281425,2.6475952,-1.4369019,-1.3455689,78.0
18313,-3.8916426,-0.7482071,3.4172554,2.6475952,-1.4369019,-1.3455689,78.0
18314,-3.8916426,-0.7482071,3.4172554,0.631897,-0.71579593,-0.8708496,78.0
18315,-1.1252891,0.9530716,2.4754295,0.631897,-0.71579593,-0.8708496,78.0
18316,-1.1252891,0.9530716,2.4754295,-1.7947998,-0.44923097,-0.8230591,78.0
18317,0.96261054,0.94059753,-0.6832199,-1.7947998,-0.44923097,-0.8230591,78.0
18318,0.96261054,0.94059753,-0.6832199,-3.0023072,-0.95368654,-1.1246704,78.0
18319,2.028841,-0.3343277,-2.4925842,-3.0023072,-0.95368654,-1.1246704,78.0
18320,2.028841,-0.3343277,-2.4925842,-2.698572,-0.6690674,-0.9791748,78.0
18321,2.630641,-2.731392,-2.2840118,-2.698572,-0.6690674,-0.9791748,78.0
18322,2.630641,-2.731392,-2.2840118,-1.7024049,-0.44179687,-0.63720703,78.0
18323,3.012594,-3.7955246,-1.3663063,-1.7024049,-0.44179687,-0.63720703,78.0
18324,3.012594,-3.7955246,-1.3663063,0.37595215,-0.5766724,-0.6690674,78.0
18325,2.9126265,-2.1441116,-0.3314743,0.37595215,-0.5766724,-0.6690674,78.0
18326,2.9126265,-2.1441116,-0.3314743,0.58623046,-0.5320679,-0.6680054,78.0
18327,2.4377794,0.14337921,0.44683075,0.58623046,-0.5320679,-0.6680054,78.0
18328,2.4377794,0.14337921,0.44683075,-0.22089843,-0.19116211,-0.5479981,78.0
18329,2.0322182,1.0276108,0.6350746,-0.22089843,-0.19116211,-0.5479981,78.0
18330,2.0322182,1.0276108,0.6350746,-1.0354614,-0.081774905,-0.3706421,78.0
18331,1.9284115,0.6179886,0.77506256,-1.0354614,-0.081774905,-0.3706421,78.0
18332,1.9284115,0.6179886,0.77506256,-0.8400513,0.08496094,-0.22833252,78.0
18333,1.8364549,0.38955688,0.96925354,-0.8400513,0.08496094,-0.22833252,78.0
18334,1.8364549,0.38955688,0.96925354,-0.48321533,0.21983643,-0.28780517,78.0
18335,2.0911732,0.8936157,1.5056152,-0.48321533,0.21983643,-0.28780517,78.0
18336,2.0911732,0.8936157,1.5056152,0.12956543,0.15186767,0.012744141,78.0
18337,1.0804338,0.83841705,1.0391846,0.12956543,0.15186767,0.012744141,78.0
18338,1.0804338,0.83841705,1.0391846,-0.18903808,0.18691407,0.012744141,78.0
18339,-2.4323816,-0.07384491,-0.52319336,-0.18903808,0.18691407,0.012744141,78.0
18340,-2.4323816,-0.07384491,-0.52319336,-0.087084964,0.058410645,0.014868164,78.0
18341,-2.357795,-0.6146927,-0.8585968,-0.087084964,0.058410645,0.014868164,78.0
18342,-2.357795,-0.6146927,-0.8585968,-0.070092775,0.007434082,0.07965088,78.0
18343,-0.5201106,-1.3085403,-1.2550278,-0.070092775,0.007434082,0.07965088,78.0
18344,-0.5201106,-1.3085403,-1.2550278,0.0063720704,0.06690674,-0.18479005,78.0
18345,-0.07611036,-0.8454056,-0.88043976,0.0063720704,0.06690674,-0.18479005,78.0
18346,-0.07611036,-0.8454056,-0.88043976,-0.16992188,0.06796875,-0.15930176,78.0
18347,-0.24446988,0.24068451,0.007575989,-0.16992188,0.06796875,-0.15930176,78.0
18348,-0.24446988,0.24068451,0.007575989,-0.2814331,0.053100586,-0.18585205,78.0
18349,-0.3300364,0.3409729,0.17015839,-0.2814331,0.053100586,-0.18585205,78.0
18350,-0.3300364,0.3409729,0.17015839,-0.22196046,0.007434082,-0.15930176,78.0
18351,-0.3515656,0.4420166,0.34907532,-0.22196046,0.007434082,-0.15930176,78.0
18352,-0.3515656,0.4420166,0.34907532,-0.06796875,-0.07115479,-0.047790527,78.0
18353,-0.20105219,0.40665436,0.26063156,-0.06796875,-0.07115479,-0.047790527,78.0
18354,-0.20105219,0.40665436,0.26063156,-0.043542482,-0.087084964,-0.015930176,78.0
18355,0.015183687,0.32954407,-0.13832092,-0.043542482,-0.087084964,-0.015930176,78.0
18356,0.015183687,0.32954407,-0.13832092,-0.004248047,-0.1274414,0.07965088,78.0
18357,0.043494463,0.18997955,-0.25468826,-0.004248047,-0.1274414,0.07965088,78.0
18358,0.043494463,0.18997955,-0.25468826,0.053100586,-0.12956543,0.10195313,78.0
18359,0.121587515,0.059425354,-0.5953407,0.053100586,-0.12956543,0.10195313,78.0
18360,0.121587515,0.059425354,-0.5953407,0.07434082,-0.11044922,0.11469727,78.0
18361,0.12585902,0.092659,-0.57842255,0.07434082,-0.11044922,0.11469727,78.0
18362,0.12585902,0.092659,-0.57842255,0.022302246,-0.08283692,0.14337158,78.0
18363,0.14326525,0.2186203,-0.5937805,0.022302246,-0.08283692,0.14337158,78.0
18364,0.14326525,0.2186203,-0.5937805,0.046728518,-0.0180542,0.18479005,78.0
18365,0.17371869,0.22414398,-0.5758896,0.046728518,-0.0180542,0.18479005,78.0
18366,0.17371869,0.22414398,-0.5758896,0.010620117,0.025488282,0.25913087,78.0
18367,0.20782256,0.101638794,-0.48542023,0.010620117,0.025488282,0.25913087,78.0
18368,0.20782256,0.101638794,-0.48542023,0.0541626,0.06159668,0.3355957,78.0
18369,0.3178084,0.014137268,-0.22350311,0.0541626,0.06159668,0.3355957,78.0
18370,0.3178084,0.014137268,-0.22350311,0.19434814,0.06903076,0.38975832,78.0
18371,0.6351061,0.2468338,0.2188034,0.19434814,0.06903076,0.38975832,78.0
18372,0.6351061,0.2468338,0.2188034,0.5140137,0.14655761,0.48533937,78.0
18373,0.59934473,0.37989044,0.24619675,0.5140137,0.14655761,0.48533937,78.0
18374,0.59934473,0.37989044,0.24619675,0.59897465,0.19753419,0.5363159,78.0
18375,0.45009327,0.64619446,-0.21339417,0.59897465,0.19753419,0.5363159,78.0
18376,0.45009327,0.64619446,-0.21339417,0.6701294,0.3430298,0.87191164,78.0
18377,0.307621,0.51452637,-0.3594246,0.6701294,0.3430298,0.87191164,78.0
18378,0.307621,0.51452637,-0.3594246,0.71791995,0.44604492,0.96430665,78.0
18379,0.74758625,0.009643555,-0.3846588,0.71791995,0.44604492,0.96430665,78.0
18380,0.74758625,0.009643555,-0.3846588,0.39400634,0.66481936,1.0970582,78.0
18381,1.7982769,-0.7004852,0.23033142,0.39400634,0.66481936,1.0970582,78.0
18382,1.7982769,-0.7004852,0.23033142,0.11257324,0.65844727,0.9547486,78.0
18383,2.1463118,-1.5191498,1.046402,0.11257324,0.65844727,0.9547486,78.0
18384,2.1463118,-1.5191498,1.046402,-0.3462158,0.5628662,0.73809814,78.0
18385,0.96679306,-2.6474,1.2633896,-0.3462158,0.5628662,0.73809814,78.0
18386,0.96679306,-2.6474,1.2633896,-0.80394286,0.50445557,0.46409914,78.0
18387,0.96679306,-2.6474,1.2633896,-0.80394286,0.50445557,0.46409914,81.0
18388,-0.95099163,-3.545494,0.77295303,-0.80394286,0.50445557,0.46409914,81.0
18389,-0.95099163,-3.545494,0.77295303,-0.79332274,0.3090454,0.06159668,81.0
18390,-2.4740624,-3.5565186,0.5606842,-0.79332274,0.3090454,0.06159668,81.0
18391,-2.4740624,-3.5565186,0.5606842,-0.19434814,0.19647217,-0.26656494,81.0
18392,-3.5191913,-2.9338531,0.5948982,-0.19434814,0.19647217,-0.26656494,81.0
18393,-3.5191913,-2.9338531,0.5948982,-0.2357666,0.124255374,0.022302246,81.0
18394,-3.9293056,-1.1224594,0.032470703,-0.2357666,0.124255374,0.022302246,81.0
18395,-3.9293056,-1.1224594,0.032470703,1.1129884,-0.11469727,-0.04460449,81.0
18396,-3.1965084,1.3587494,-1.040699,1.1129884,-0.11469727,-0.04460449,81.0
18397,-3.1965084,1.3587494,-1.040699,1.3349488,-0.1985962,-0.21240234,81.0
18398,-1.8317429,3.1675186,-2.2367249,1.3349488,-0.1985962,-0.21240234,81.0
18399,-1.8317429,3.1675186,-2.2367249,0.68499756,-0.21558838,-0.3164795,81.0
18400,-1.0401014,4.593155,-3.1222801,0.68499756,-0.21558838,-0.3164795,81.0
18401,-1.0401014,4.593155,-3.1222801,0.027612304,-0.29099122,-0.7986328,81.0
18402,-0.9963878,4.33844,-2.957531,0.027612304,-0.29099122,-0.7986328,81.0
18403,-0.9963878,4.33844,-2.957531,-0.5713623,-0.118945315,-0.62977296,81.0
18404,-0.4935946,1.7029648,-1.8119621,-0.5713623,-0.118945315,-0.62977296,81.0
18405,-0.4935946,1.7029648,-1.8119621,-0.9505005,-0.019116212,-0.115759276,81.0
18406,0.59801984,0.22111511,-0.5552101,-0.9505005,-0.019116212,-0.115759276,81.0
18407,0.59801984,0.22111511,-0.5552101,0.35471192,-0.121069334,-0.4725952,81.0
18408,1.0954081,0.5965347,0.36362076,0.35471192,-0.121069334,-0.4725952,81.0
18409,1.0954081,0.5965347,0.36362076,0.3154175,-0.083898924,-0.27399904,81.0
18410,1.0871297,0.74165344,0.87002563,0.3154175,-0.083898924,-0.27399904,81.0
18411,1.0871297,0.74165344,0.87002563,-0.270813,0.02442627,-0.0361084,81.0
18412,1.1890763,0.13560486,0.9799919,-0.270813,0.02442627,-0.0361084,81.0
18413,1.1890763,0.13560486,0.9799919,-0.28568116,0.15505372,-0.1263794,81.0
18414,1.128324,-0.52941895,0.75320816,-0.28568116,0.15505372,-0.1263794,81.0
18415,1.128324,-0.52941895,0.75320816,-0.14549561,0.16354981,-0.18903808,81.0
18416,0.77942944,-0.80449677,0.41374588,-0.14549561,0.16354981,-0.18903808,81.0
18417,0.77942944,-0.80449677,0.41374588,-0.08920898,0.22514649,-0.047790527,81.0
18418,0.54645634,-0.85739136,0.24732971,-0.08920898,0.22514649,-0.047790527,81.0
18419,0.54645634,-0.85739136,0.24732971,-0.095581055,0.38657227,-0.08071289,81.0
18420,0.5134957,-0.7802887,0.12731934,-0.095581055,0.38657227,-0.08071289,81.0
18421,0.5134957,-0.7802887,0.12731934,-0.009558106,0.48321533,-0.022302246,81.0
18422,0.3377986,-0.63427734,-0.0119895935,-0.009558106,0.48321533,-0.022302246,81.0
18423,0.3377986,-0.63427734,-0.0119895935,0.32178956,0.48215333,0.09239502,81.0
18424,-0.10583544,-0.16973877,0.11627197,0.32178956,0.48215333,0.09239502,81.0
18425,-0.10583544,-0.16973877,0.11627197,0.7147339,0.5278198,0.18797608,81.0
18426,-0.6333256,0.59765625,0.36828613,0.7147339,0.5278198,0.18797608,81.0
18427,-0.6333256,0.59765625,0.36828613,0.4258667,0.72004396,0.26762697,81.0
18428,-1.0818923,1.0508575,0.24425125,0.4258667,0.72004396,0.26762697,81.0
18429,-1.0818923,1.0508575,0.24425125,-0.35046387,0.9568726,0.27399904,81.0
18430,-1.3431139,0.63142395,-0.24967957,-0.35046387,0.9568726,0.27399904,81.0
18431,-1.3431139,0.63142395,-0.24967957,-0.7604004,1.1660889,0.27293703,81.0
18432,-1.2832314,-0.59223175,-0.46723938,-0.7604004,1.1660889,0.27293703,81.0
18433,-1.2832314,-0.59223175,-0.46723938,-0.9122681,1.5059327,0.3164795,81.0
18434,-0.8680279,-2.310028,0.11054611,-0.9122681,1.5059327,0.3164795,81.0
18435,-0.8680279,-2.310028,0.11054611,-0.9855469,2.0539308,0.60216063,81.0
18436,-0.4253428,-2.9030762,0.73672485,-0.9855469,2.0539308,0.60216063,81.0
18437,-0.4253428,-2.9030762,0.73672485,-0.6117188,2.3013794,0.16354981,81.0
18438,-0.8409212,-2.0572357,0.6563492,-0.6117188,2.3013794,0.16354981,81.0
18439,-0.8409212,-2.0572357,0.6563492,-1.0949341,2.5190918,0.16992188,81.0
18440,-2.2419631,-1.6563263,0.31155396,-1.0949341,2.5190918,0.16992188,81.0
18441,-2.2419631,-1.6563263,0.31155396,-1.0938721,2.709192,-0.06903076,81.0
18442,-3.5758948,-2.1282349,0.10993576,-1.0938721,2.709192,-0.06903076,81.0
18443,-3.5758948,-2.1282349,0.10993576,-1.0365235,2.8440673,-0.4895874,81.0
18444,-4.1557965,-2.5881348,0.16132355,-1.0365235,2.8440673,-0.4895874,81.0
18445,-4.1557965,-2.5881348,0.16132355,-0.91864014,3.1031983,-1.0131592,81.0
18446,-3.9498203,-2.9158096,0.0718689,-0.91864014,3.1031983,-1.0131592,81.0
18447,-3.9498203,-2.9158096,0.0718689,-1.2011353,3.2210815,-1.3891114,81.0
18448,-3.3844779,-2.9837189,0.24455643,-1.2011353,3.2210815,-1.3891114,81.0
18449,-3.3844779,-2.9837189,0.24455643,-0.9632446,3.3283448,-1.7034668,81.0
18450,-3.157558,-2.0004272,1.0567627,-0.9632446,3.3283448,-1.7034668,81.0
18451,-3.157558,-2.0004272,1.0567627,-0.16779785,2.989563,-1.9402955,81.0
18452,-3.4421353,-0.54080963,1.8269539,-0.16779785,2.989563,-1.9402955,81.0
18453,-3.4421353,-0.54080963,1.8269539,-0.8336792,2.802649,-2.4861696,81.0
18454,-3.4971285,-0.16267395,2.4759674,-0.8336792,2.802649,-2.4861696,81.0
18455,-3.4971285,-0.16267395,2.4759674,-1.62594,2.3714721,-2.3895264,81.0
18456,-2.6316385,-0.46772766,2.840271,-1.62594,2.3714721,-2.3895264,81.0
18457,-2.6316385,-0.46772766,2.840271,0.04460449,1.7034668,-2.0411866,81.0
18458,-0.8908329,0.48675537,2.3372917,0.04460449,1.7034668,-2.0411866,81.0
18459,-0.8908329,0.48675537,2.3372917,1.1108643,1.0747559,-2.1091554,81.0
18460,0.46807098,2.6365814,0.9978714,1.1108643,1.0747559,-2.1091554,81.0
18461,0.46807098,2.6365814,0.9978714,0.9409424,0.7890747,-2.1941164,81.0
18462,0.65286255,3.3394318,-0.4558525,0.9409424,0.7890747,-2.1941164,81.0
18463,0.65286255,3.3394318,-0.4558525,0.050976563,0.6202149,-2.1197755,81.0
18464,0.38926983,1.4038315,-1.0959816,0.050976563,0.6202149,-2.1197755,81.0
18465,0.38926983,1.4038315,-1.0959816,0.37382814,0.4980835,-1.8457764,81.0
18466,0.3829856,-0.85944366,-1.0194702,0.37382814,0.4980835,-1.8457764,81.0
18467,0.3829856,-0.85944366,-1.0194702,1.0322754,0.3993164,-1.8563966,81.0
18468,0.44884443,-1.2494049,-1.0357666,1.0322754,0.3993164,-1.8563966,81.0
18469,0.44884443,-1.2494049,-1.0357666,1.0428956,0.54906005,-1.6726685,81.0
18470,0.34085035,-0.15712738,-1.059288,1.0428956,0.54906005,-1.6726685,81.0
18471,0.34085035,-0.15712738,-1.059288,0.9133301,0.58410645,-1.5781494,81.0
18472,0.11469698,1.5240326,-0.9961853,0.9133301,0.58410645,-1.5781494,81.0
18473,0.11469698,1.5240326,-0.9961853,0.61915284,0.6180908,-1.7087768,81.0
18474,0.10452652,2.8211823,-0.6437874,0.61915284,0.6180908,-1.7087768,81.0
18475,0.10452652,2.8211823,-0.6437874,0.035046387,0.7614624,-1.5685914,81.0
18476,0.4176178,2.3539276,0.099494934,0.035046387,0.7614624,-1.5685914,81.0
18477,0.4176178,2.3539276,0.099494934,-0.17947999,0.7720825,-1.4177856,81.0
18478,0.55164766,0.9174881,0.6612854,-0.17947999,0.7720825,-1.4177856,81.0
18479,0.55164766,0.9174881,0.6612854,0.35895997,0.6180908,-1.3614991,81.0
18480,0.39572477,0.26496124,0.74803543,0.35895997,0.6180908,-1.3614991,81.0
18481,0.39572477,0.26496124,0.74803543,0.4088745,0.53525394,-1.2956543,81.0
18482,0.19754934,0.5035324,0.7250786,0.4088745,0.53525394,-1.2956543,81.0
18483,0.19754934,0.5035324,0.7250786,0.20284425,0.44816896,-1.2627319,81.0
18484,0.19754934,0.5035324,0.7250786,0.20284425,0.44816896,-1.2627319,88.0
18485,-0.02089119,0.7070236,0.85500336,0.20284425,0.44816896,-1.2627319,88.0
18486,-0.02089119,0.7070236,0.85500336,0.10620117,0.44179687,-1.2138795,88.0
18487,-0.11558962,0.58490753,0.91339874,0.10620117,0.44179687,-1.2138795,88.0
18488,-0.11558962,0.58490753,0.91339874,0.27718505,0.29311523,-1.170337,88.0
18489,-0.025516033,0.53733826,0.7137909,0.27718505,0.29311523,-1.170337,88.0
18490,-0.025516033,0.53733826,0.7137909,0.33665773,0.22196046,-1.1034302,88.0
18491,0.0556736,0.77948,0.3605461,0.33665773,0.22196046,-1.1034302,88.0
18492,0.0556736,0.77948,0.3605461,0.13381349,0.083898924,-0.996167,88.0
18493,-0.2580247,1.1331863,0.09729767,0.13381349,0.083898924,-0.996167,88.0
18494,-0.2580247,1.1331863,0.09729767,0.083898924,0.10620117,-0.95581055,88.0
18495,-0.7638297,1.0885239,0.0887146,0.083898924,0.10620117,-0.95581055,88.0
18496,-0.7638297,1.0885239,0.0887146,0.15611573,0.21134034,-1.0407715,88.0
18497,-0.7090497,0.62755585,0.16294861,0.15611573,0.21134034,-1.0407715,88.0
18498,-0.7090497,0.62755585,0.16294861,0.1539917,0.33028564,-1.1533448,88.0
18499,-0.13909054,0.20508575,-0.0908699,0.1539917,0.33028564,-1.1533448,88.0
18500,-0.13909054,0.20508575,-0.0908699,-0.12850343,0.4725952,-1.2850342,88.0
18501,0.26904964,-0.21794891,-0.6768608,-0.12850343,0.4725952,-1.2850342,88.0
18502,0.26904964,-0.21794891,-0.6768608,-0.6000366,0.6159668,-1.3933594,88.0
18503,0.19341326,-0.88020325,-1.2183685,-0.6000366,0.6159668,-1.3933594,88.0
18504,0.19341326,-0.88020325,-1.2183685,-0.6796875,0.6669434,-1.5877075,88.0
18505,0.14800453,-1.5768814,-1.4413223,-0.6796875,0.6669434,-1.5877075,88.0
18506,0.14800453,-1.5768814,-1.4413223,-0.44073486,0.59472656,-2.1962402,88.0
18507,0.6612015,-2.460312,-0.9782181,-0.44073486,0.59472656,-2.1962402,88.0
18508,0.6612015,-2.460312,-0.9782181,-0.71579593,0.7890747,-2.4957275,88.0
18509,1.1688418,-3.4374084,0.039382935,-0.71579593,0.7890747,-2.4957275,88.0
18510,1.1688418,-3.4374084,0.039382935,-0.81987303,0.9897949,-2.7506104,88.0
18511,1.0079131,-3.7713852,0.6427498,-0.81987303,0.9897949,-2.7506104,88.0
18512,1.0079131,-3.7713852,0.6427498,-1.273352,1.2977784,-2.7336183,88.0
18513,0.5760083,-3.2479935,0.43408203,-1.273352,1.2977784,-2.7336183,88.0
18514,0.5760083,-3.2479935,0.43408203,-1.448584,1.6004517,-2.7676027,88.0
18515,0.20998907,-1.9936981,-0.17036057,-1.448584,1.6004517,-2.7676027,88.0
18516,0.20998907,-1.9936981,-0.17036057,-1.1618408,1.5685914,-2.8313234,88.0
18517,-0.30931616,-0.7234726,-0.7521324,-1.1618408,1.5685914,-2.8313234,88.0
18518,-0.30931616,-0.7234726,-0.7521324,-1.7098389,1.6801026,-2.5647583,88.0
18519,-0.8371625,-0.54219055,-0.89136505,-1.7098389,1.6801026,-2.5647583,88.0
18520,-0.8371625,-0.54219055,-0.89136505,-2.353418,1.9636596,-2.342798,88.0
18521,-1.1205964,-0.92809296,-0.43904495,-2.353418,1.9636596,-2.342798,88.0
18522,-1.1205964,-0.92809296,-0.43904495,-2.2281005,2.2514648,-2.3735962,88.0
18523,-1.3465137,-0.39580536,-0.40986633,-2.2281005,2.2514648,-2.3735962,88.0
18524,-1.3465137,-0.39580536,-0.40986633,-2.2036743,2.5817506,-2.7410524,88.0
18525,-1.6011982,0.37797546,-1.6237679,-2.2036743,2.5817506,-2.7410524,88.0
18526,-1.6011982,0.37797546,-1.6237679,-3.5821655,3.2062135,-2.9205322,88.0
18527,-1.727931,-0.4845581,-2.9689026,-3.5821655,3.2062135,-2.9205322,88.0
18528,-1.727931,-0.4845581,-2.9689026,-4.3680544,3.6575685,-2.8483155,88.0
18529,-1.6750693,-3.0840454,-2.9658432,-4.3680544,3.6575685,-2.8483155,88.0
18530,-1.6750693,-3.0840454,-2.9658432,-3.4833984,3.882715,-2.4787354,88.0
18531,-1.3875408,-5.4505997,-1.9328156,-3.4833984,3.882715,-2.4787354,88.0
18532,-1.3875408,-5.4505997,-1.9328156,-1.9700317,3.8699708,-2.347046,88.0
18533,-0.8754134,-5.8238525,-1.5129509,-1.9700317,3.8699708,-2.347046,88.0
18534,-0.8754134,-5.8238525,-1.5129509,-1.1873292,3.6841187,-2.18562,88.0
18535,-0.4447279,-3.9916687,-1.665184,-1.1873292,3.6841187,-2.18562,88.0
18536,-0.4447279,-3.9916687,-1.665184,-1.1310425,3.6565063,-2.2854493,88.0
18537,-0.41469383,-2.2109375,-1.6452942,-1.1310425,3.6565063,-2.2854493,88.0
18538,-0.41469383,-2.2109375,-1.6452942,-1.4666382,3.530127,-1.5101807,88.0
18539,-0.9829273,-2.6500626,-1.5841293,-1.4666382,3.530127,-1.5101807,88.0
18540,-0.9829273,-2.6500626,-1.5841293,-1.9976441,2.8260133,-0.78164065,88.0
18541,-2.4437513,-3.6921997,-2.2267036,-1.9976441,2.8260133,-0.78164065,88.0
18542,-2.4437513,-3.6921997,-2.2267036,-2.8578737,2.076233,-0.059472658,88.0
18543,-4.2244587,-2.6618195,-3.8746223,-2.8578737,2.076233,-0.059472658,88.0
18544,-4.2244587,-2.6618195,-3.8746223,-3.4281738,1.2468017,0.6053467,88.0
18545,-5.1632576,0.55944824,-5.3991013,-3.4281738,1.2468017,0.6053467,88.0
18546,-5.1632576,0.55944824,-5.3991013,-3.6841187,0.4970215,1.4082276,88.0
18547,-4.7911654,4.047653,-5.645134,-3.6841187,0.4970215,1.4082276,88.0
18548,-4.7911654,4.047653,-5.645134,-3.439856,-0.087084964,1.6992188,88.0
18549,-3.868577,6.493973,-4.751335,-3.439856,-0.087084964,1.6992188,88.0
18550,-3.868577,6.493973,-4.751335,-2.9332764,-0.42161867,1.5091187,88.0
18551,-3.5502453,7.051193,-3.8832703,-2.9332764,-0.42161867,1.5091187,88.0
18552,-3.5502453,7.051193,-3.8832703,-2.8525636,-0.7317261,1.1023682,88.0
18553,-4.039769,4.3560715,-3.8266602,-2.8525636,-0.7317261,1.1023682,88.0
18554,-4.039769,4.3560715,-3.8266602,-2.2843874,-1.3614991,0.6042847,88.0
18555,-3.8773117,-0.6192398,-2.4805527,-2.2843874,-1.3614991,0.6042847,88.0
18556,-3.8773117,-0.6192398,-2.4805527,0.6510132,-1.5080566,0.70092773,88.0
18557,-2.0252247,-3.7241516,2.0101624,0.6510132,-1.5080566,0.70092773,88.0
18558,-2.0252247,-3.7241516,2.0101624,8.640528,-1.3115845,-0.70305175,88.0
18559,0.5327625,-1.2559433,6.7925644,8.640528,-1.3115845,-0.70305175,88.0
18560,0.5327625,-1.2559433,6.7925644,14.458228,-2.1240234,-2.1431396,88.0
18561,3.3198624,5.322876,8.689728,14.458228,-2.1240234,-2.1431396,88.0
18562,3.3198624,5.322876,8.689728,10.97483,-2.2918212,-1.5494751,88.0
18563,6.7833805,9.559845,7.9834137,10.97483,-2.2918212,-1.5494751,88.0
18564,6.7833805,9.559845,7.9834137,3.615088,-1.989148,-2.6858277,88.0
18565,9.143099,7.2876434,6.069275,3.615088,-1.989148,-2.6858277,88.0
18566,9.143099,7.2876434,6.069275,-1.7034668,-1.5866455,-2.5806885,88.0
18567,9.024709,0.90802,3.643055,-1.7034668,-1.5866455,-2.5806885,88.0
18568,9.024709,0.90802,3.643055,-1.6885986,-1.9742798,-1.536731,88.0
18569,7.892362,-3.0078506,1.639431,-1.6885986,-1.9742798,-1.536731,88.0
18570,7.892362,-3.0078506,1.639431,0.9759888,-2.4872315,-2.3215578,88.0
18571,7.2687726,-2.9591827,1.3556976,0.9759888,-2.4872315,-2.3215578,88.0
18572,7.2687726,-2.9591827,1.3556976,3.6002197,-2.3045654,-1.5685914,88.0
18573,7.4164953,-2.077858,4.0911484,3.6002197,-2.3045654,-1.5685914,88.0
18574,7.4164953,-2.077858,4.0911484,4.1652102,-2.5116577,-0.5320679,88.0
18575,7.2850027,-0.28068542,7.2605515,4.1652102,-2.5116577,-0.5320679,88.0
18576,7.2850027,-0.28068542,7.2605515,0.70198977,-0.62977296,-1.2563599,88.0
18577,4.951525,0.855896,6.2574387,0.70198977,-0.62977296,-1.2563599,88.0
18578,4.951525,0.855896,6.2574387,-2.2153566,0.4895874,-0.23682861,88.0
18579,0.81355166,0.29803467,1.9321976,-2.2153566,0.4895874,-0.23682861,88.0
18580,0.81355166,0.29803467,1.9321976,-0.8602295,-0.013806152,0.05628662,88.0
18581,-2.4865243,0.32196045,-1.8737984,-0.8602295,-0.013806152,0.05628662,88.0
18582,-2.4865243,0.32196045,-1.8737984,0.17416993,-0.07115479,-0.18054199,88.0
18583,-3.0418563,0.7075348,-3.3972092,0.17416993,-0.07115479,-0.18054199,88.0
18584,-3.0418563,0.7075348,-3.3972092,0.3536499,-0.20072022,-0.40462646,88.0
18585,-1.6415782,0.041053772,-3.134346,0.3536499,-0.20072022,-0.40462646,88.0
18586,-1.6415782,0.041053772,-3.134346,0.008496094,-0.45878908,-0.1274414,88.0
18587,-0.20637774,-0.9062042,-1.946125,0.008496094,-0.45878908,-0.1274414,88.0
18588,-0.20637774,-0.9062042,-1.946125,0.20709229,-0.6180908,-0.17735596,88.0
18589,0.20481968,-0.24528503,-1.1516876,0.20709229,-0.6180908,-0.17735596,88.0
18590,0.20481968,-0.24528503,-1.1516876,0.1709839,-0.5936646,-0.43117675,88.0
18591,-0.064903975,1.4911118,-1.4972305,0.1709839,-0.5936646,-0.43117675,88.0
18592,-0.064903975,1.4911118,-1.4972305,0.1709839,-0.5936646,-0.43117675,93.0
18593,-0.064903975,1.4911118,-1.4972305,0.0063720704,-0.634021,-0.53525394,93.0
18594,0.17900944,1.9318085,-1.8207474,0.0063720704,-0.634021,-0.53525394,93.0
18595,0.17900944,1.9318085,-1.8207474,0.27506104,-0.6202149,-0.6605713,93.0
18596,1.2866402,0.7511673,-1.2356987,0.27506104,-0.6202149,-0.6605713,93.0
18597,1.2866402,0.7511673,-1.2356987,0.7699585,-0.67331547,-0.6265869,93.0
18598,2.419864,-0.14091492,-0.056552887,0.7699585,-0.67331547,-0.6265869,93.0
18599,2.419864,-0.14091492,-0.056552887,0.7349121,-0.51826173,-0.5968506,93.0
18600,2.7781641,-0.06447601,0.7135086,0.7349121,-0.51826173,-0.5968506,93.0
18601,2.7781641,-0.06447601,0.7135086,0.038232423,-0.40250245,-0.5809204,93.0
18602,2.100754,-0.12621307,0.6241989,0.038232423,-0.40250245,-0.5809204,93.0
18603,2.100754,-0.12621307,0.6241989,-0.08496094,-0.4067505,-0.28461915,93.0
18604,0.9853761,-0.5086365,0.31897736,-0.08496094,-0.4067505,-0.28461915,93.0
18605,0.9853761,-0.5086365,0.31897736,0.39188233,-0.46516114,-0.1359375,93.0
18606,0.2602858,-0.036582947,0.20724487,0.39188233,-0.46516114,-0.1359375,93.0
18607,0.2602858,-0.036582947,0.20724487,0.6467652,-0.4333008,-0.15505372,93.0
18608,0.12492785,1.0513535,0.23392105,0.6467652,-0.4333008,-0.15505372,93.0
18609,0.12492785,1.0513535,0.23392105,0.2782471,-0.27399904,-0.22089843,93.0
18610,0.38650236,1.3863449,0.28308105,0.2782471,-0.27399904,-0.22089843,93.0
18611,0.38650236,1.3863449,0.28308105,0.09239502,-0.1901001,-0.13275146,93.0
18612,0.71268094,0.9208679,0.2906723,0.09239502,-0.1901001,-0.13275146,93.0
18613,0.71268094,0.9208679,0.2906723,0.26337892,-0.23789063,-0.13487549,93.0
18614,0.7306306,0.6689224,0.081207275,0.26337892,-0.23789063,-0.13487549,93.0
18615,0.7306306,0.6689224,0.081207275,0.14761963,-0.20496826,-0.19116211,93.0
18616,0.479231,0.6788025,-0.21350098,0.14761963,-0.20496826,-0.19116211,93.0
18617,0.479231,0.6788025,-0.21350098,-0.23364258,-0.087084964,-0.20390625,93.0
18618,0.21345073,0.34279633,-0.24318695,-0.23364258,-0.087084964,-0.20390625,93.0
18619,0.21345073,0.34279633,-0.24318695,-0.16673584,-0.078588866,-0.16779785,93.0
18620,0.0227381,-0.0063323975,-0.14480591,-0.16673584,-0.078588866,-0.16779785,93.0
18621,0.0227381,-0.0063323975,-0.14480591,0.016992187,-0.078588866,-0.20709229,93.0
18622,0.013332069,0.20635986,-0.1953888,0.016992187,-0.078588866,-0.20709229,93.0
18623,0.013332069,0.20635986,-0.1953888,-0.050976563,-0.043542482,-0.23789063,93.0
18624,0.1974454,0.5556259,-0.20378113,-0.050976563,-0.043542482,-0.23789063,93.0
18625,0.1974454,0.5556259,-0.20378113,-0.21346436,0.052038576,-0.24213867,93.0
18626,0.31701398,0.4268036,-0.10406494,-0.21346436,0.052038576,-0.24213867,93.0
18627,0.31701398,0.4268036,-0.10406494,-0.27612305,0.087084964,-0.25806886,93.0
18628,0.20199984,0.09525299,-0.038074493,-0.27612305,0.087084964,-0.25806886,93.0
18629,0.20199984,0.09525299,-0.038074493,-0.18797608,0.09133301,-0.25700685,93.0
18630,0.05843824,0.0061187744,0.08732605,-0.18797608,0.09133301,-0.25700685,93.0
18631,0.05843824,0.0061187744,0.08732605,-0.17841797,0.15717773,-0.20603028,93.0
18632,0.034665644,0.030441284,0.3036499,-0.17841797,0.15717773,-0.20603028,93.0
18633,0.034665644,0.030441284,0.3036499,-0.31966552,0.17735596,-0.21027832,93.0
18634,-0.01672554,-0.011054993,0.4185295,-0.31966552,0.17735596,-0.21027832,93.0
18635,-0.01672554,-0.011054993,0.4185295,-0.25913087,0.13912354,-0.20496826,93.0
18636,-0.11709136,-0.092559814,0.37751007,-0.25913087,0.13912354,-0.20496826,93.0
18637,-0.11709136,-0.092559814,0.37751007,-0.18691407,0.12956543,-0.1996582,93.0
18638,-0.13267452,-0.11882019,0.25352097,-0.18691407,0.12956543,-0.1996582,93.0
18639,-0.13267452,-0.11882019,0.25352097,-0.17735596,0.12000733,-0.18797608,93.0
18640,-0.06408638,-0.0815506,0.11144638,-0.17735596,0.12000733,-0.18797608,93.0
18641,-0.06408638,-0.0815506,0.11144638,-0.16354981,0.0998291,-0.22833252,93.0
18642,-0.06896931,-0.07962036,0.04351425,-0.16354981,0.0998291,-0.22833252,93.0
18643,-0.06896931,-0.07962036,0.04351425,-0.121069334,0.08602295,-0.15717773,93.0
18644,-0.08204311,-0.050209045,0.1349678,-0.121069334,0.08602295,-0.15717773,93.0
18645,-0.08204311,-0.050209045,0.1349678,0.0053100586,0.078588866,-0.1178833,93.0
18646,0.041775167,0.048538208,0.20198059,0.0053100586,0.078588866,-0.1178833,93.0
18647,0.041775167,0.048538208,0.20198059,0.023364259,0.07965088,-0.16461182,93.0
18648,0.10553932,0.14378357,0.10028076,0.023364259,0.07965088,-0.16461182,93.0
18649,0.10553932,0.14378357,0.10028076,-0.11257324,0.08814698,-0.107263185,93.0
18650,-0.015690625,0.17728424,0.008396149,-0.11257324,0.08814698,-0.107263185,93.0
18651,-0.015690625,0.17728424,0.008396149,-0.032922365,0.08071289,-0.08496094,93.0
18652,-0.10666871,0.17957306,-0.07060242,-0.032922365,0.08071289,-0.08496094,93.0
18653,-0.10666871,0.17957306,-0.07060242,0.008496094,0.10301514,-0.13381349,93.0
18654,-0.06083548,0.16575623,-0.2269516,0.008496094,0.10301514,-0.13381349,93.0
18655,-0.06083548,0.16575623,-0.2269516,-0.20496826,0.18691407,-0.18797608,93.0
18656,-0.020360291,0.018615723,-0.18093872,-0.20496826,0.18691407,-0.18797608,93.0
18657,-0.020360291,0.018615723,-0.18093872,-0.46622315,0.29630128,-0.21452637,93.0
18658,-0.07649332,-0.27433777,0.011123657,-0.46622315,0.29630128,-0.21452637,93.0
18659,-0.07649332,-0.27433777,0.011123657,-0.42692873,0.29099122,-0.19647217,93.0
18660,-0.04768145,-0.24902344,0.09482193,-0.42692873,0.29099122,-0.19647217,93.0
18661,-0.04768145,-0.24902344,0.09482193,-0.08283692,0.1709839,-0.2538208,93.0
18662,1.4066696E-5,-0.05445099,0.11338043,-0.08283692,0.1709839,-0.2538208,93.0
18663,1.4066696E-5,-0.05445099,0.11338043,-0.21983643,0.14124756,-0.2081543,93.0
18664,-0.12312108,-0.12207794,0.15180969,-0.21983643,0.14124756,-0.2081543,93.0
18665,-0.12312108,-0.12207794,0.15180969,-0.13275146,0.10089111,-0.20284425,93.0
18666,-0.21301103,-0.08370972,0.16537857,-0.13275146,0.10089111,-0.20284425,93.0
18667,-0.21301103,-0.08370972,0.16537857,0.0180542,0.022302246,-0.14868164,93.0
18668,-0.12298447,0.17787933,0.080322266,0.0180542,0.022302246,-0.14868164,93.0
18669,-0.12298447,0.17787933,0.080322266,0.070092775,-0.013806152,-0.15505372,93.0
18670,0.021009386,0.2846222,-0.04434967,0.070092775,-0.013806152,-0.15505372,93.0
18671,0.021009386,0.2846222,-0.04434967,0.040356446,-0.0063720704,-0.15930176,93.0
18672,0.088633716,0.0892334,-0.11621857,0.040356446,-0.0063720704,-0.15930176,93.0
18673,0.088633716,0.0892334,-0.11621857,-0.008496094,-0.015930176,-0.16461182,93.0
18674,0.08269894,-0.071388245,-0.14766312,-0.008496094,-0.015930176,-0.16461182,93.0
18675,0.08269894,-0.071388245,-0.14766312,0.013806152,-0.013806152,-0.18372802,93.0
18676,0.05240184,0.019584656,-0.15351868,0.013806152,-0.013806152,-0.18372802,93.0
18677,0.05240184,0.019584656,-0.15351868,-0.020178223,-0.02442627,-0.17416993,93.0
18678,0.096609,0.15448761,-0.10390854,-0.020178223,-0.02442627,-0.17416993,93.0
18679,0.096609,0.15448761,-0.10390854,-0.070092775,0.009558106,-0.20709229,93.0
18680,0.18381798,-0.02632904,-0.05303955,-0.070092775,0.009558106,-0.20709229,93.0
18681,0.18381798,-0.02632904,-0.05303955,-0.15080567,0.008496094,-0.13275146,93.0
18682,0.19644403,-0.31853485,-0.012649536,-0.15080567,0.008496094,-0.13275146,93.0
18683,0.19644403,-0.31853485,-0.012649536,0.06690674,-0.04460449,-0.115759276,93.0
18684,0.16952091,-0.21873474,-0.018177032,0.06690674,-0.04460449,-0.115759276,93.0
18685,0.16952091,-0.21873474,-0.018177032,0.10620117,-0.0541626,-0.118945315,93.0
18686,0.17669338,0.12440491,-0.060401917,0.10620117,-0.0541626,-0.118945315,93.0
18687,0.17669338,0.12440491,-0.060401917,-0.07327881,-0.04141846,-0.13699952,93.0
18688,0.1519016,0.2548828,-0.09724808,-0.07327881,-0.04141846,-0.13699952,93.0
18689,0.1519016,0.2548828,-0.09724808,-0.09133301,-0.047790527,-0.14337158,93.0
18690,0.07371855,0.15610504,-0.06904602,-0.09133301,-0.047790527,-0.14337158,93.0
18691,0.07371855,0.15610504,-0.06904602,-0.095581055,-0.026550293,-0.13699952,93.0
18692,0.017824948,0.12476349,-0.010131836,-0.095581055,-0.026550293,-0.13699952,93.0
18693,0.017824948,0.12476349,-0.010131836,-0.090270996,-0.02442627,-0.14337158,93.0
18694,-0.010630131,0.26142883,0.044029236,-0.090270996,-0.02442627,-0.14337158,93.0
18695,-0.010630131,0.26142883,0.044029236,-0.03717041,-0.039294433,-0.17735596,93.0
18696,-0.059029043,0.23402405,0.07455444,-0.03717041,-0.039294433,-0.17735596,93.0
18697,-0.059029043,0.23402405,0.07455444,-0.0722168,0.0021240234,-0.26337892,93.0
18698,-0.059029043,0.23402405,0.07455444,-0.0722168,0.0021240234,-0.26337892,91.0
18699,-0.01850009,0.038757324,0.05340576,-0.0722168,0.0021240234,-0.26337892,91.0
18700,-0.01850009,0.038757324,0.05340576,-0.22514649,0.033984374,-0.2984253,91.0
18701,0.13141572,-0.022537231,0.10058594,-0.22514649,0.033984374,-0.2984253,91.0
18702,0.13141572,-0.022537231,0.10058594,-0.25806886,0.0541626,-0.3090454,91.0
18703,0.25403398,0.110694885,0.10467529,-0.25806886,0.0541626,-0.3090454,91.0
18704,0.25403398,0.110694885,0.10467529,-0.3971924,0.0637207,-0.31329346,91.0
18705,0.25018764,0.13798523,-0.008132935,-0.3971924,0.0637207,-0.31329346,91.0
18706,0.25018764,0.13798523,-0.008132935,-0.4895874,0.06584473,-0.31223145,91.0
18707,0.15430045,-0.051208496,-0.14328766,-0.4895874,0.06584473,-0.31223145,91.0
18708,0.15430045,-0.051208496,-0.14328766,-0.3812622,0.028674318,-0.3345337,91.0
18709,0.07776165,-0.33023834,-0.17371368,-0.3812622,0.028674318,-0.3345337,91.0
18710,0.07776165,-0.33023834,-0.17371368,-0.27506104,0.022302246,-0.29417726,91.0
18711,0.1506859,-0.37300873,-0.27627563,-0.27506104,0.022302246,-0.29417726,91.0
18712,0.1506859,-0.37300873,-0.27627563,-0.26975098,0.052038576,-0.2984253,91.0
18713,0.5090741,-0.39530182,-0.7888298,-0.26975098,0.052038576,-0.2984253,91.0
18714,0.5090741,-0.39530182,-0.7888298,-0.37595215,0.098767094,-0.21452637,91.0
18715,0.914083,-0.53834534,-0.99403,-0.37595215,0.098767094,-0.21452637,91.0
18716,0.914083,-0.53834534,-0.99403,-0.011682129,-0.010620117,-0.057348635,91.0
18717,0.62150073,-0.52586365,-0.4479828,-0.011682129,-0.010620117,-0.057348635,91.0
18718,0.62150073,-0.52586365,-0.4479828,0.0541626,0.013806152,-0.0722168,91.0
18719,-0.24679351,-0.37878418,0.024635315,0.0541626,0.013806152,-0.0722168,91.0
18720,-0.24679351,-0.37878418,0.024635315,0.029736329,0.14549561,-0.004248047,91.0
18721,-0.48574042,-0.02658844,0.029083252,0.029736329,0.14549561,-0.004248047,91.0
18722,-0.48574042,-0.02658844,0.029083252,-0.1274414,0.2357666,-0.047790527,91.0
18723,-0.006988406,0.14360046,-0.17578125,-0.1274414,0.2357666,-0.047790527,91.0
18724,-0.006988406,0.14360046,-0.17578125,-0.24638672,0.23895264,0.04460449,91.0
18725,0.38396,0.13562012,-0.004650116,-0.24638672,0.23895264,0.04460449,91.0
18726,0.38396,0.13562012,-0.004650116,-0.33028564,0.3090454,0.045666505,91.0
18727,0.17855477,-0.08227539,0.35474014,-0.33028564,0.3090454,0.045666505,91.0
18728,0.17855477,-0.08227539,0.35474014,-0.38338622,0.34727785,0.1178833,91.0
18729,-0.29128706,-0.29872894,0.4761734,-0.38338622,0.34727785,0.1178833,91.0
18730,-0.29128706,-0.29872894,0.4761734,-0.22302246,0.32391357,0.23258057,91.0
18731,-0.45138896,-0.18627167,0.38978958,-0.22302246,0.32391357,0.23258057,91.0
18732,-0.45138896,-0.18627167,0.38978958,-0.34727785,0.33878174,0.20921631,91.0
18733,-0.39847696,0.01512146,0.24269104,-0.34727785,0.33878174,0.20921631,91.0
18734,-0.39847696,0.01512146,0.24269104,-0.4428589,0.31860352,0.29311523,91.0
18735,-0.39821267,-0.07035828,0.26570892,-0.4428589,0.31860352,0.29311523,91.0
18736,-0.39821267,-0.07035828,0.26570892,-0.21240234,0.33665773,0.3058594,91.0
18737,-0.37251306,-0.4131317,0.35707474,-0.21240234,0.33665773,0.3058594,91.0
18738,-0.37251306,-0.4131317,0.35707474,0.04991455,0.39506838,0.36427003,91.0
18739,-0.21711445,-0.6017227,0.53269196,0.04991455,0.39506838,0.36427003,91.0
18740,-0.21711445,-0.6017227,0.53269196,0.035046387,0.5766724,0.5331299,91.0
18741,-0.26271743,-0.557724,0.68772507,0.035046387,0.5766724,0.5331299,91.0
18742,-0.26271743,-0.557724,0.68772507,-0.35789797,0.71791995,0.68287355,91.0
18743,-0.7457331,-0.66780853,0.43077087,-0.35789797,0.71791995,0.68287355,91.0
18744,-0.7457331,-0.66780853,0.43077087,-0.63933104,0.7476563,0.7508423,91.0
18745,-1.470024,-1.0927582,0.0048446655,-0.63933104,0.7476563,0.7508423,91.0
18746,-1.470024,-1.0927582,0.0048446655,-0.25063476,0.57242435,0.89421386,91.0
18747,-1.9999572,-1.230484,-0.08778763,-0.25063476,0.57242435,0.89421386,91.0
18748,-1.9999572,-1.230484,-0.08778763,0.4088745,0.3717041,0.8527954,91.0
18749,-2.088467,-0.65875244,0.12709427,0.4088745,0.3717041,0.8527954,91.0
18750,-2.088467,-0.65875244,0.12709427,0.58304447,0.29948732,0.8092529,91.0
18751,-1.9236788,0.11476135,0.369812,0.58304447,0.29948732,0.8092529,91.0
18752,-1.9236788,0.11476135,0.369812,0.2548828,0.30267334,0.7869507,91.0
18753,-1.7492213,0.49284363,0.5450325,0.2548828,0.30267334,0.7869507,91.0
18754,-1.7492213,0.49284363,0.5450325,-0.22408448,0.36427003,0.7062378,91.0
18755,-1.6077144,0.548645,0.47681046,-0.22408448,0.36427003,0.7062378,91.0
18756,-1.6077144,0.548645,0.47681046,-0.4333008,0.3695801,0.45560303,91.0
18757,-1.5207298,0.4492035,0.06557846,-0.4333008,0.3695801,0.45560303,91.0
18758,-1.5207298,0.4492035,0.06557846,-0.49064943,0.28780517,0.31329346,91.0
18759,-1.4346137,0.14735413,-0.45285797,-0.49064943,0.28780517,0.31329346,91.0
18760,-1.4346137,0.14735413,-0.45285797,-0.6180908,0.1731079,0.24744873,91.0
18761,-1.2401104,-0.15893555,-0.78970337,-0.6180908,0.1731079,0.24744873,91.0
18762,-1.2401104,-0.15893555,-0.78970337,-0.6042847,0.0998291,0.095581055,91.0
18763,-0.9869125,-0.27066803,-0.8813133,-0.6042847,0.0998291,0.095581055,91.0
18764,-0.9869125,-0.27066803,-0.8813133,-0.40462646,-0.043542482,-0.095581055,91.0
18765,-0.70813346,-0.2026596,-1.0025482,-0.40462646,-0.043542482,-0.095581055,91.0
18766,-0.70813346,-0.2026596,-1.0025482,-0.19116211,-0.2516968,-0.24957275,91.0
18767,-0.38351107,-0.24068451,-1.2214622,-0.19116211,-0.2516968,-0.24957275,91.0
18768,-0.38351107,-0.24068451,-1.2214622,0.045666505,-0.49277344,-0.35046387,91.0
18769,-0.09208727,-0.6445236,-1.3665886,0.045666505,-0.49277344,-0.35046387,91.0
18770,-0.09208727,-0.6445236,-1.3665886,0.2347046,-0.8581055,-0.23045655,91.0
18771,0.25737262,-1.1254349,-1.3567734,0.2347046,-0.8581055,-0.23045655,91.0
18772,0.25737262,-1.1254349,-1.3567734,0.4078125,-1.1066163,-0.1359375,91.0
18773,0.82445264,-1.3095016,-1.0302544,0.4078125,-1.1066163,-0.1359375,91.0
18774,0.82445264,-1.3095016,-1.0302544,0.58304447,-1.3763672,0.11363526,91.0
18775,1.4963298,-1.1076813,-0.55612564,0.58304447,-1.3763672,0.11363526,91.0
18776,1.4963298,-1.1076813,-0.55612564,0.63826907,-1.5749635,0.07115479,91.0
18777,2.034686,-0.41908264,0.1911354,0.63826907,-1.5749635,0.07115479,91.0
18778,2.034686,-0.41908264,0.1911354,1.803296,-1.6195679,-0.10195313,91.0
18779,2.4565086,1.510025,1.4923248,1.803296,-1.6195679,-0.10195313,91.0
18780,2.4565086,1.510025,1.4923248,2.4681153,-1.4602661,-0.21027832,91.0
18781,2.639853,3.5046234,2.3153534,2.4681153,-1.4602661,-0.21027832,91.0
18782,2.639853,3.5046234,2.3153534,0.88359374,-0.8209351,-0.19647217,91.0
18783,2.256084,1.9918365,1.9611931,0.88359374,-0.8209351,-0.19647217,91.0
18784,2.256084,1.9918365,1.9611931,-1.4071655,-0.17841797,0.21027832,91.0
18785,1.5707486,-1.2586441,0.64230347,-1.4071655,-0.17841797,0.21027832,91.0
18786,1.5707486,-1.2586441,0.64230347,-0.61915284,-0.38763428,0.5894165,91.0
18787,0.58227026,-2.1842728,-1.1002197,-0.61915284,-0.38763428,0.5894165,91.0
18788,0.58227026,-2.1842728,-1.1002197,1.0620117,-0.91120607,0.45666504,91.0
18789,-0.86121017,-1.4333954,-1.700428,1.0620117,-0.91120607,0.45666504,91.0
18790,-0.86121017,-1.4333954,-1.700428,1.0513916,-0.85491943,0.48215333,91.0
18791,-1.3878573,-0.13659668,-1.1123428,1.0513916,-0.85491943,0.48215333,91.0
18792,-1.3878573,-0.13659668,-1.1123428,1.2627319,-0.7593384,0.26656494,91.0
18793,-0.19107199,1.1080246,-0.5189743,1.2627319,-0.7593384,0.26656494,91.0
18794,-0.19107199,1.1080246,-0.5189743,1.0768799,-0.6000366,0.090270996,91.0
18795,-0.19107199,1.1080246,-0.5189743,1.0768799,-0.6000366,0.090270996,90.0
18796,1.6314198,1.5630875,-0.21907425,1.0768799,-0.6000366,0.090270996,90.0
18797,1.6314198,1.5630875,-0.21907425,0.9281983,-0.59897465,0.1178833,90.0
18798,2.7158048,1.4839859,0.14435577,0.9281983,-0.59897465,0.1178833,90.0
18799,2.7158048,1.4839859,0.14435577,0.994043,-0.31329346,0.31860352,90.0
18800,3.3930297,1.4230804,1.4534225,0.994043,-0.31329346,0.31860352,90.0
18801,3.3930297,1.4230804,1.4534225,0.6159668,0.5331299,0.35577393,90.0
18802,3.842732,2.0387955,1.4004974,0.6159668,0.5331299,0.35577393,90.0
18803,3.842732,2.0387955,1.4004974,-0.65207523,0.5299439,0.13275146,90.0
18804,2.382743,1.7960663,-0.57777023,-0.65207523,0.5299439,0.13275146,90.0
18805,2.382743,1.7960663,-0.57777023,-1.2011353,0.9133301,0.8644776,90.0
18806,-0.3160224,-0.66145325,-1.3640709,-1.2011353,0.9133301,0.8644776,90.0
18807,-0.3160224,-0.66145325,-1.3640709,-0.40356445,0.5894165,0.61278075,90.0
18808,-1.955528,-2.249977,-0.4790001,-0.40356445,0.5894165,0.61278075,90.0
18809,-1.955528,-2.249977,-0.4790001,0.34727785,0.5479981,0.45347902,90.0
18810,-2.3582702,-1.2740784,0.5182648,0.34727785,0.5479981,0.45347902,90.0
18811,-2.3582702,-1.2740784,0.5182648,-0.6000366,0.8336792,0.44073486,90.0
18812,-2.5244455,-0.047302246,0.27542496,-0.6000366,0.8336792,0.44073486,90.0
18813,-2.5244455,-0.047302246,0.27542496,-1.0248413,0.6881836,0.24957275,90.0
18814,-2.5831308,-0.45716858,0.0683136,-1.0248413,0.6881836,0.24957275,90.0
18815,-2.5831308,-0.45716858,0.0683136,-0.4959595,0.5278198,0.54693604,90.0
18816,-1.7352912,-1.3353119,0.5174446,-0.4959595,0.5278198,0.54693604,90.0
18817,-1.7352912,-1.3353119,0.5174446,-0.2803711,0.49171144,0.32072756,90.0
18818,-0.29951233,-1.2326889,0.5831795,-0.2803711,0.49171144,0.32072756,90.0
18819,-0.29951233,-1.2326889,0.5831795,-0.8506714,0.5809204,0.630835,90.0
18820,0.24485058,-0.36156464,-9.994507E-4,-0.8506714,0.5809204,0.630835,90.0
18821,0.24485058,-0.36156464,-9.994507E-4,-0.9897949,0.44073486,0.62977296,90.0
18822,-0.80409515,0.05445099,-0.6346016,-0.9897949,0.44073486,0.62977296,90.0
18823,-0.80409515,0.05445099,-0.6346016,-0.8772217,0.3079834,0.8750977,90.0
18824,-1.8451682,-0.7447586,-0.57377243,-0.8772217,0.3079834,0.8750977,90.0
18825,-1.8451682,-0.7447586,-0.57377243,-0.85704345,0.27506104,0.84748536,90.0
18826,-1.7228631,-1.4480667,-0.30268097,-0.85704345,0.27506104,0.84748536,90.0
18827,-1.7228631,-1.4480667,-0.30268097,-1.1437867,0.2516968,1.0535157,90.0
18828,-1.0668403,-1.2750778,0.39611435,-1.1437867,0.2516968,1.0535157,90.0
18829,-1.0668403,-1.2750778,0.39611435,-1.4071655,0.44604492,1.4114136,90.0
18830,-0.95028615,-1.2161942,0.84467316,-1.4071655,0.44604492,1.4114136,90.0
18831,-0.95028615,-1.2161942,0.84467316,-1.6429322,0.41206056,1.4071655,90.0
18832,-1.6268916,-1.5709152,-0.4155197,-1.6429322,0.41206056,1.4071655,90.0
18833,-1.6268916,-1.5709152,-0.4155197,-2.1038454,0.27293703,1.4326538,90.0
18834,-1.7599485,-1.815567,-1.720417,-2.1038454,0.27293703,1.4326538,90.0
18835,-1.7599485,-1.815567,-1.720417,-2.4861696,0.4364868,1.7618774,90.0
18836,-1.3033323,-1.9402161,-1.5186157,-2.4861696,0.4364868,1.7618774,90.0
18837,-1.3033323,-1.9402161,-1.5186157,-2.6592774,0.3706421,1.6779785,90.0
18838,-1.6386621,-2.011612,-1.5014648,-2.6592774,0.3706421,1.6779785,90.0
18839,-1.6386621,-2.011612,-1.5014648,-2.267395,0.2166504,1.3859253,90.0
18840,-2.4247603,-2.11174,-2.6588745,-2.267395,0.2166504,1.3859253,90.0
18841,-2.4247603,-2.11174,-2.6588745,-1.9413575,0.18372802,1.7746216,90.0
18842,-2.3202162,-2.0805511,-2.9376106,-1.9413575,0.18372802,1.7746216,90.0
18843,-2.3202162,-2.0805511,-2.9376106,-1.9583496,0.13487549,2.0135744,90.0
18844,-1.03337,-2.152359,-2.560772,-1.9583496,0.13487549,2.0135744,90.0
18845,-1.03337,-2.152359,-2.560772,-1.9158691,-0.54375,1.1437867,90.0
18846,-0.9642935,-1.156311,-1.9971542,-1.9158691,-0.54375,1.1437867,90.0
18847,-0.9642935,-1.156311,-1.9971542,-1.1182984,-0.6616333,0.62764895,90.0
18848,-2.6896477,-0.3486328,-1.136467,-1.1182984,-0.6616333,0.62764895,90.0
18849,-2.6896477,-0.3486328,-1.136467,-1.179895,-0.8442993,1.6376221,90.0
18850,-2.4667935,-1.1713867,-0.76272583,-1.179895,-0.8442993,1.6376221,90.0
18851,-2.4667935,-1.1713867,-0.76272583,-1.3976074,-0.8644776,1.6206299,90.0
18852,-0.083286285,-3.4295883,-0.33465576,-1.3976074,-0.8644776,1.6206299,90.0
18853,-0.083286285,-3.4295883,-0.33465576,-0.31010744,-1.0322754,1.7013428,90.0
18854,0.60900545,-2.457901,-0.39588928,-0.31010744,-1.0322754,1.7013428,90.0
18855,0.60900545,-2.457901,-0.39588928,-0.09451904,-1.2425537,1.8638306,90.0
18856,2.022458,1.9785461,-0.43769455,-0.09451904,-1.2425537,1.8638306,90.0
18857,2.022458,1.9785461,-0.43769455,-0.63720703,-1.5760254,1.4900025,90.0
18858,1.5084329,2.8662262,-0.18379593,-0.63720703,-1.5760254,1.4900025,90.0
18859,1.5084329,2.8662262,-0.18379593,-1.0142212,-1.4666382,1.4443359,90.0
18860,0.1979208,0.44776917,1.8302803,-1.0142212,-1.4666382,1.4443359,90.0
18861,0.1979208,0.44776917,1.8302803,-0.0021240234,-0.9505005,2.085791,90.0
18862,-0.51283026,-1.0730667,2.3246002,-0.0021240234,-0.9505005,2.085791,90.0
18863,-0.51283026,-1.0730667,2.3246002,0.86553955,-1.183081,1.9806519,90.0
18864,-2.1411972,0.8312454,2.5361786,0.86553955,-1.183081,1.9806519,90.0
18865,-2.1411972,0.8312454,2.5361786,1.3423828,-0.7582764,1.4432739,90.0
18866,-2.485919,2.8575516,1.8972778,1.3423828,-0.7582764,1.4432739,90.0
18867,-2.485919,2.8575516,1.8972778,-0.015930176,-0.43754885,1.6673584,90.0
18868,-4.960232,3.6372528,-1.0413933,-0.015930176,-0.43754885,1.6673584,90.0
18869,-4.960232,3.6372528,-1.0413933,-3.8423584,-0.35683593,1.0142212,90.0
18870,-5.125119,1.9151306,-2.4588585,-3.8423584,-0.35683593,1.0142212,90.0
18871,-5.125119,1.9151306,-2.4588585,-3.63208,-0.5055176,0.42268068,90.0
18872,-6.0653296,-0.8882065,-3.569481,-3.63208,-0.5055176,0.42268068,90.0
18873,-6.0653296,-0.8882065,-3.569481,-0.5033936,-0.3706421,-0.7508423,90.0
18874,-5.743353,-3.3962326,-1.712471,-0.5033936,-0.3706421,-0.7508423,90.0
18875,-5.743353,-3.3962326,-1.712471,4.1811404,-1.7799317,-0.035046387,90.0
18876,-4.696538,-1.4350281,2.192768,4.1811404,-1.7799317,-0.035046387,90.0
18877,-4.696538,-1.4350281,2.192768,7.761182,-1.531421,-0.9589966,90.0
18878,-4.478031,3.9319763,5.176796,7.761182,-1.531421,-0.9589966,90.0
18879,-4.478031,3.9319763,5.176796,4.1152954,-0.50445557,-0.79969484,90.0
18880,-4.439725,5.7718277,4.8865166,4.1152954,-0.50445557,-0.79969484,90.0
18881,-4.439725,5.7718277,4.8865166,0.16461182,0.2623169,-0.2081543,90.0
18882,-3.7042942,2.2621002,1.0740929,0.16461182,0.2623169,-0.2081543,90.0
18883,-3.7042942,2.2621002,1.0740929,-1.1841431,-0.28355715,-0.89421386,90.0
18884,-2.0977116,-3.3959274,-2.5501862,-1.1841431,-0.28355715,-0.89421386,90.0
18885,-2.0977116,-3.3959274,-2.5501862,1.085376,-0.95581055,0.42905274,90.0
18886,0.2459526,-5.946518,-2.6190948,1.085376,-0.95581055,0.42905274,90.0
18887,0.2459526,-5.946518,-2.6190948,4.5401,-1.6185058,0.77314454,90.0
18888,1.6834812,-3.7328491,-1.3780022,4.5401,-1.6185058,0.77314454,90.0
18889,1.6834812,-3.7328491,-1.3780022,4.3977904,-1.7884277,1.2064453,90.0
18890,0.96110344,0.5927353,-0.15379333,4.3977904,-1.7884277,1.2064453,90.0
18891,0.96110344,0.5927353,-0.15379333,3.7669556,-1.9116211,1.8829468,90.0
18892,-0.2808609,3.2963715,0.44582367,3.7669556,-1.9116211,1.8829468,90.0
18893,-0.2808609,3.2963715,0.44582367,3.7669556,-1.9116211,1.8829468,99.0
18894,-0.2808609,3.2963715,0.44582367,3.2157714,-2.2833252,2.1218994,99.0
18895,0.6258602,3.6741943,0.58935165,3.2157714,-2.2833252,2.1218994,99.0
18896,0.6258602,3.6741943,0.58935165,3.1509888,-2.4075806,2.1240234,99.0
18897,3.6755543,2.877945,1.3029251,3.1509888,-2.4075806,2.1240234,99.0
18898,3.6755543,2.877945,1.3029251,3.2295778,-2.430945,2.436255,99.0
18899,6.4531517,2.1317902,2.8143005,3.2295778,-2.430945,2.436255,99.0
18900,6.4531517,2.1317902,2.8143005,3.9092653,-2.6486573,2.3895264,99.0
18901,7.542588,3.485321,5.052395,3.9092653,-2.6486573,2.3895264,99.0
18902,7.542588,3.485321,5.052395,4.0983033,-1.9222412,1.9572877,99.0
18903,6.7082157,6.0826035,6.91391,4.0983033,-1.9222412,1.9572877,99.0
18904,6.7082157,6.0826035,6.91391,2.5222778,-1.0917481,1.7809937,99.0
18905,4.459505,6.5013275,6.3774414,2.5222778,-1.0917481,1.7809937,99.0
18906,4.459505,6.5013275,6.3774414,-0.16673584,-0.3536499,1.3030884,99.0
18907,2.17737,4.054138,3.857788,-0.16673584,-0.3536499,1.3030884,99.0
18908,2.17737,4.054138,3.857788,-0.9611206,-0.019116212,1.5016845,99.0
18909,0.85008717,1.3295517,1.198597,-0.9611206,-0.019116212,1.5016845,99.0
18910,0.85008717,1.3295517,1.198597,-0.74659425,-0.06903076,1.5834595,99.0
18911,0.3419714,0.041923523,-0.8179283,-0.74659425,-0.06903076,1.5834595,99.0
18912,0.3419714,0.041923523,-0.8179283,-0.7965088,-0.11682129,1.7066529,99.0
18913,0.253973,-0.17285919,-2.2074432,-0.7965088,-0.11682129,1.7066529,99.0
18914,0.253973,-0.17285919,-2.2074432,-1.7459472,-0.270813,1.6131958,99.0
18915,0.5487714,-0.6862335,-2.9997902,-1.7459472,-0.270813,1.6131958,99.0
18916,0.5487714,-0.6862335,-2.9997902,-3.2391357,-0.33878174,1.6917847,99.0
18917,0.94460773,-2.235733,-2.477188,-3.2391357,-0.33878174,1.6917847,99.0
18918,0.94460773,-2.235733,-2.477188,-2.814331,-0.5299439,1.9732178,99.0
18919,0.58255386,-3.1912003,-0.8087616,-2.814331,-0.5299439,1.9732178,99.0
18920,0.58255386,-3.1912003,-0.8087616,0.11682129,-0.99085695,2.1813722,99.0
18921,-0.058163643,-1.3067551,0.610363,0.11682129,-0.99085695,2.1813722,99.0
18922,-0.058163643,-1.3067551,0.610363,1.3901733,-0.8209351,2.2153566,99.0
18923,0.2224145,2.6429367,0.8882675,1.3901733,-0.8209351,2.2153566,99.0
18924,0.2224145,2.6429367,0.8882675,0.6637573,-0.40250245,1.7087768,99.0
18925,0.85390806,4.931816,0.2762909,0.6637573,-0.40250245,1.7087768,99.0
18926,0.85390806,4.931816,0.2762909,-1.3200806,-0.070092775,1.7979859,99.0
18927,0.8463712,2.762169,-0.4103279,-1.3200806,-0.070092775,1.7979859,99.0
18928,0.8463712,2.762169,-0.4103279,-2.1452637,-0.19753419,2.1303957,99.0
18929,0.08355427,-1.5381622,-0.43596268,-2.1452637,-0.19753419,2.1303957,99.0
18930,0.08355427,-1.5381622,-0.43596268,-0.81031495,-0.6775635,2.1463258,99.0
18931,-0.9458761,-3.6944351,0.25723267,-0.81031495,-0.6775635,2.1463258,99.0
18932,-0.9458761,-3.6944351,0.25723267,0.4078125,-0.9420044,2.1558838,99.0
18933,-1.5403924,-2.8365173,0.84804535,0.4078125,-0.9420044,2.1558838,99.0
18934,-1.5403924,-2.8365173,0.84804535,0.16461182,-0.901648,2.179248,99.0
18935,-1.266396,-0.93852234,0.5357361,0.16461182,-0.901648,2.179248,99.0
18936,-1.266396,-0.93852234,0.5357361,-0.5564942,-1.0683838,2.079419,99.0
18937,-0.29052162,0.020149231,-0.3130226,-0.5564942,-1.0683838,2.079419,99.0
18938,-0.29052162,0.020149231,-0.3130226,-0.91864014,-1.4740723,1.8627685,99.0
18939,0.64375496,-0.33029175,-0.5161743,-0.91864014,-1.4740723,1.8627685,99.0
18940,0.64375496,-0.33029175,-0.5161743,-0.6414551,-1.8691406,1.5972656,99.0
18941,0.93752575,-1.0302811,0.23812103,-0.6414551,-1.8691406,1.5972656,99.0
18942,0.93752575,-1.0302811,0.23812103,-0.22196046,-2.085791,1.0970582,99.0
18943,0.7164879,-1.6559982,1.2336502,-0.22196046,-2.085791,1.0970582,99.0
18944,0.7164879,-1.6559982,1.2336502,-0.2538208,-2.1218994,0.6669434,99.0
18945,0.32373953,-1.968338,1.4887543,-0.2538208,-2.1218994,0.6669434,99.0
18946,0.32373953,-1.968338,1.4887543,-0.098767094,-2.2026124,0.5012695,99.0
18947,0.20365715,-1.4524307,0.6187973,-0.098767094,-2.2026124,0.5012695,99.0
18948,0.20365715,-1.4524307,0.6187973,0.41206056,-2.2865112,0.7699585,99.0
18949,0.7724476,-0.15048218,-0.738163,0.41206056,-2.2865112,0.7699585,99.0
18950,0.7724476,-0.15048218,-0.738163,1.0736939,-2.3714721,0.80181885,99.0
18951,1.7001481,0.9082413,-1.8033257,1.0736939,-2.3714721,0.80181885,99.0
18952,1.7001481,0.9082413,-1.8033257,1.4114136,-2.2153566,0.64995116,99.0
18953,2.1756334,1.0618362,-2.081688,1.4114136,-2.2153566,0.64995116,99.0
18954,2.1756334,1.0618362,-2.081688,1.4443359,-2.1866822,0.31010744,99.0
18955,1.7909584,0.4033966,-1.4698067,1.4443359,-2.1866822,0.31010744,99.0
18956,1.7909584,0.4033966,-1.4698067,0.630835,-1.8723267,0.33984375,99.0
18957,1.2570095,-0.40483093,-0.58464813,0.630835,-1.8723267,0.33984375,99.0
18958,1.2570095,-0.40483093,-0.58464813,0.32497558,-1.6163819,0.3430298,99.0
18959,1.486052,-0.24485016,-0.18666458,0.32497558,-1.6163819,0.3430298,99.0
18960,1.486052,-0.24485016,-0.18666458,0.4980835,-1.350879,0.25806886,99.0
18961,2.350121,0.9068756,-0.25901413,0.4980835,-1.350879,0.25806886,99.0
18962,2.350121,0.9068756,-0.25901413,0.8517334,-1.2383057,0.31329346,99.0
18963,3.0143864,2.3013153,-0.22914886,0.8517334,-1.2383057,0.31329346,99.0
18964,3.0143864,2.3013153,-0.22914886,1.171399,-1.1639649,0.40037844,99.0
18965,2.9342265,2.86409,0.12416458,1.171399,-1.1639649,0.40037844,99.0
18966,2.9342265,2.86409,0.12416458,0.9154541,-0.9515625,0.52038574,99.0
18967,2.1681454,2.374817,0.28697586,0.9154541,-0.9515625,0.52038574,99.0
18968,2.1681454,2.374817,0.28697586,0.61702883,-0.76464844,0.634021,99.0
18969,1.1750681,1.3506851,0.011222839,0.61702883,-0.76464844,0.634021,99.0
18970,1.1750681,1.3506851,0.011222839,0.87191164,-0.7104859,0.721106,99.0
18971,0.48641682,0.48692322,-0.26332474,0.87191164,-0.7104859,0.721106,99.0
18972,0.48641682,0.48692322,-0.26332474,1.2850342,-0.62552494,0.817749,99.0
18973,0.45340347,0.359375,-0.3007965,1.2850342,-0.62552494,0.817749,99.0
18974,0.45340347,0.359375,-0.3007965,1.4645141,-0.5097656,0.8209351,99.0
18975,0.88727117,0.64455414,-0.06518555,1.4645141,-0.5097656,0.8209351,99.0
18976,0.88727117,0.64455414,-0.06518555,1.0556396,-0.33665773,0.7688965,99.0
18977,1.1781031,0.8291931,0.45791245,1.0556396,-0.33665773,0.7688965,99.0
18978,1.1781031,0.8291931,0.45791245,0.8028809,-0.3430298,0.59472656,99.0
18979,0.97024125,0.8500824,1.0246048,0.8028809,-0.3430298,0.59472656,99.0
18980,0.97024125,0.8500824,1.0246048,0.80394286,-0.43011475,0.50020754,99.0
18981,0.59449136,0.8387604,1.298111,0.80394286,-0.43011475,0.50020754,99.0
18982,0.59449136,0.8387604,1.298111,0.8644776,-0.5341919,0.4333008,99.0
18983,0.49818832,1.1120605,1.1020889,0.8644776,-0.5341919,0.4333008,99.0
18984,0.49818832,1.1120605,1.1020889,0.73809814,-0.4725952,0.4056885,99.0
18985,0.59184897,1.3992462,0.46038055,0.73809814,-0.4725952,0.4056885,99.0
18986,0.59184897,1.3992462,0.46038055,0.44604492,-0.42692873,0.36851808,99.0
18987,0.5762014,1.2422256,-0.32040405,0.44604492,-0.42692873,0.36851808,99.0
18988,0.5762014,1.2422256,-0.32040405,0.5129517,-0.37382814,0.36427003,99.0
18989,0.6070671,0.65039825,-0.71530914,0.5129517,-0.37382814,0.36427003,99.0
18990,0.6070671,0.65039825,-0.71530914,0.7189819,-0.27293703,0.33134767,99.0
18991,0.6930023,0.26278687,-0.5781822,0.7189819,-0.27293703,0.33134767,99.0
18992,0.6930023,0.26278687,-0.5781822,0.70198977,-0.2166504,0.25806886,99.0
18993,0.4343579,0.4030609,-0.15202332,0.70198977,-0.2166504,0.25806886,99.0
18994,0.4343579,0.4030609,-0.15202332,0.62340087,-0.1720459,0.2899292,99.0
18995,0.16191505,0.59622955,0.4603157,0.62340087,-0.1720459,0.2899292,99.0
18996,0.16191505,0.59622955,0.4603157,0.43861085,-0.04460449,0.45347902,99.0
18997,0.31217366,0.86411285,0.8129921,0.43861085,-0.04460449,0.45347902,99.0
18998,0.31217366,0.86411285,0.8129921,0.43861085,-0.04460449,0.45347902,106.0
18999,0.31217366,0.86411285,0.8129921,0.040356446,0.1083252,0.38763428,106.0
19000,0.49596697,1.2164612,0.37317276,0.040356446,0.1083252,0.38763428,106.0
19001,0.49596697,1.2164612,0.37317276,-0.19116211,0.14655761,0.3355957,106.0
19002,0.44777456,1.0217896,-0.35021973,-0.19116211,0.14655761,0.3355957,106.0
19003,0.44777456,1.0217896,-0.35021973,-0.0541626,0.026550293,0.30267334,106.0
19004,0.31289494,0.4590683,-0.37740326,-0.0541626,0.026550293,0.30267334,106.0
19005,0.31289494,0.4590683,-0.37740326,0.29417726,-0.24744873,0.31116945,106.0
19006,0.08696151,0.29360962,0.40387344,0.29417726,-0.24744873,0.31116945,106.0
19007,0.08696151,0.29360962,0.40387344,0.4056885,-0.54906005,0.3525879,106.0
19008,-0.2382555,0.55319977,1.1684227,0.4056885,-0.54906005,0.3525879,106.0
19009,-0.2382555,0.55319977,1.1684227,0.05522461,-0.7168579,0.4163086,106.0
19010,-0.47158584,0.4819107,1.1365814,0.05522461,-0.7168579,0.4163086,106.0
19011,-0.47158584,0.4819107,1.1365814,-0.16885987,-0.8050049,0.4609131,106.0
19012,-0.4177472,-0.07884979,0.25553894,-0.16885987,-0.8050049,0.4609131,106.0
19013,-0.4177472,-0.07884979,0.25553894,-0.09451904,-0.84748536,0.48640138,106.0
19014,-0.011456072,-0.38152313,-0.9036751,-0.09451904,-0.84748536,0.48640138,106.0
19015,-0.011456072,-0.38152313,-0.9036751,0.21027832,-0.8602295,0.50870365,106.0
19016,0.56549335,0.013298035,-1.6290932,0.21027832,-0.8602295,0.50870365,106.0
19017,0.56549335,0.013298035,-1.6290932,0.27293703,-0.77526855,0.5883545,106.0
19018,0.9982443,0.749527,-1.6449623,0.27293703,-0.77526855,0.5883545,106.0
19019,0.9982443,0.749527,-1.6449623,0.098767094,-0.631897,0.67650145,106.0
19020,1.1371208,1.2005768,-1.1892471,0.098767094,-0.631897,0.67650145,106.0
19021,1.1371208,1.2005768,-1.1892471,-0.22196046,-0.45347902,0.7848267,106.0
19022,1.077934,1.2729492,-0.72119904,-0.22196046,-0.45347902,0.7848267,106.0
19023,1.077934,1.2729492,-0.72119904,-0.5894165,-0.32922363,0.81243896,106.0
19024,0.90503526,1.2424927,-0.43690872,-0.5894165,-0.32922363,0.81243896,106.0
19025,0.90503526,1.2424927,-0.43690872,-0.9791748,-0.2527588,0.74447024,106.0
19026,0.63645506,0.3525772,-0.16664124,-0.9791748,-0.2527588,0.74447024,106.0
19027,0.63645506,0.3525772,-0.16664124,-1.8797607,-0.050976563,0.8464233,106.0
19028,0.44923973,-1.7708664,0.4138298,-1.8797607,-0.050976563,0.8464233,106.0
19029,0.44923973,-1.7708664,0.4138298,-2.440503,0.16992188,0.9515625,106.0
19030,0.21894991,-4.0187073,0.7192459,-2.440503,0.16992188,0.9515625,106.0
19031,0.21894991,-4.0187073,0.7192459,-1.2287476,0.15930176,0.7954468,106.0
19032,-0.18620491,-5.2556,0.49319458,-1.2287476,0.15930176,0.7954468,106.0
19033,-0.18620491,-5.2556,0.49319458,-0.6159668,-0.121069334,0.75615233,106.0
19034,-0.63999176,-4.503174,0.32688904,-0.6159668,-0.121069334,0.75615233,106.0
19035,-0.63999176,-4.503174,0.32688904,-0.18585205,-0.18372802,0.5065796,106.0
19036,-1.1120667,-2.6576385,0.20298004,-0.18585205,-0.18372802,0.5065796,106.0
19037,-1.1120667,-2.6576385,0.20298004,-0.6053467,-0.22408448,0.48109132,106.0
19038,-1.2577565,-1.0426483,-0.12142944,-0.6053467,-0.22408448,0.48109132,106.0
19039,-1.2577565,-1.0426483,-0.12142944,-0.61702883,-0.28780517,0.46409914,106.0
19040,-0.65410554,0.009567261,-0.65448,-0.61702883,-0.28780517,0.46409914,106.0
19041,-0.65410554,0.009567261,-0.65448,-0.45347902,-0.3695801,0.40993652,106.0
19042,0.3153752,0.42932892,-1.0684586,-0.45347902,-0.3695801,0.40993652,106.0
19043,0.3153752,0.42932892,-1.0684586,-0.33134767,-0.4248047,0.38657227,106.0
19044,0.8001517,0.3300476,-1.1753731,-0.33134767,-0.4248047,0.38657227,106.0
19045,0.8001517,0.3300476,-1.1753731,-0.22302246,-0.44923097,0.38338622,106.0
19046,0.6786101,-0.10920715,-1.014679,-0.22302246,-0.44923097,0.38338622,106.0
19047,0.6786101,-0.10920715,-1.014679,-0.13699952,-0.45029297,0.36533204,106.0
19048,0.37935042,-0.6650543,-0.7546005,-0.13699952,-0.45029297,0.36533204,106.0
19049,0.37935042,-0.6650543,-0.7546005,0.03186035,-0.46728516,0.3802002,106.0
19050,0.1321913,-0.9832382,-0.5193558,0.03186035,-0.46728516,0.3802002,106.0
19051,0.1321913,-0.9832382,-0.5193558,0.31329346,-0.542688,0.33028564,106.0
19052,-0.06526744,-0.73278046,-0.3078804,0.31329346,-0.542688,0.33028564,106.0
19053,-0.06526744,-0.73278046,-0.3078804,0.52250975,-0.64782715,0.24001466,106.0
19054,-0.115995646,-0.14962769,-0.021781921,0.52250975,-0.64782715,0.24001466,106.0
19055,-0.115995646,-0.14962769,-0.021781921,0.5798584,-0.6956177,0.11044922,106.0
19056,0.04690075,0.047668457,0.38422394,0.5798584,-0.6956177,0.11044922,106.0
19057,0.04690075,0.047668457,0.38422394,0.68287355,-0.7391602,0.11257324,106.0
19058,0.2375083,0.254776,0.6219063,0.68287355,-0.7391602,0.11257324,106.0
19059,0.2375083,0.254776,0.6219063,0.6605713,-0.82836914,-0.04991455,106.0
19060,0.24877131,0.6243973,0.46362305,0.6605713,-0.82836914,-0.04991455,106.0
19061,0.24877131,0.6243973,0.46362305,0.2357666,-0.6966797,-0.04991455,106.0
19062,0.332855,0.5636749,0.025829315,0.2357666,-0.6966797,-0.04991455,106.0
19063,0.332855,0.5636749,0.025829315,-0.015930176,-0.6064087,0.011682129,106.0
19064,0.6256468,0.50045013,-0.34947968,-0.015930176,-0.6064087,0.011682129,106.0
19065,0.6256468,0.50045013,-0.34947968,0.0031860352,-0.52888185,-0.12531738,106.0
19066,0.7848191,0.5825119,-0.5270462,0.0031860352,-0.52888185,-0.12531738,106.0
19067,0.7848191,0.5825119,-0.5270462,-0.36002198,-0.37807617,-0.107263185,106.0
19068,0.7041371,0.5172882,-0.6973114,-0.36002198,-0.37807617,-0.107263185,106.0
19069,0.7041371,0.5172882,-0.6973114,-0.4991455,-0.23045655,-0.13699952,106.0
19070,0.55817056,0.15232086,-0.9682617,-0.4991455,-0.23045655,-0.13699952,106.0
19071,0.55817056,0.15232086,-0.9682617,-0.35471192,-0.30267334,-0.16142578,106.0
19072,0.3744173,-0.31433868,-1.0137558,-0.35471192,-0.30267334,-0.16142578,106.0
19073,0.3744173,-0.31433868,-1.0137558,-0.15823975,-0.3090454,-0.2262085,106.0
19074,0.17852569,-0.52163696,-0.60720825,-0.15823975,-0.3090454,-0.2262085,106.0
19075,0.17852569,-0.52163696,-0.60720825,-0.19116211,-0.23789063,-0.27718505,106.0
19076,0.060410738,-0.6330185,-0.15219879,-0.19116211,-0.23789063,-0.27718505,106.0
19077,0.060410738,-0.6330185,-0.15219879,-0.3345337,-0.1731079,-0.3334717,106.0
19078,0.05637312,-0.96798706,0.057365417,-0.3345337,-0.1731079,-0.3334717,106.0
19079,0.05637312,-0.96798706,0.057365417,-0.5543701,-0.06584473,-0.2814331,106.0
19080,0.27947354,-0.929245,0.1606865,-0.5543701,-0.06584473,-0.2814331,106.0
19081,0.27947354,-0.929245,0.1606865,-0.32178956,-0.052038576,-0.3791382,106.0
19082,0.548054,-0.31524658,0.1453476,-0.32178956,-0.052038576,-0.3791382,106.0
19083,0.548054,-0.31524658,0.1453476,-0.49171144,0.033984374,-0.45878908,106.0
19084,0.67268395,-0.12687683,-0.046722412,-0.49171144,0.033984374,-0.45878908,106.0
19085,0.67268395,-0.12687683,-0.046722412,-0.66481936,0.21983643,-0.4067505,106.0
19086,0.9845338,-0.64256287,0.033786774,-0.66481936,0.21983643,-0.4067505,106.0
19087,0.9845338,-0.64256287,0.033786774,-0.4725952,0.2899292,-0.41206056,106.0
19088,1.3065968,-1.1472778,0.4453621,-0.4725952,0.2899292,-0.41206056,106.0
19089,1.3065968,-1.1472778,0.4453621,-0.36851808,0.16142578,-0.5033936,106.0
19090,0.75722814,-0.46756744,0.44194794,-0.36851808,0.16142578,-0.5033936,106.0
19091,0.75722814,-0.46756744,0.44194794,0.025488282,-0.0010620117,-0.5872925,106.0
19092,-0.52556515,1.057663,-0.0737381,0.025488282,-0.0010620117,-0.5872925,106.0
19093,-0.52556515,1.057663,-0.0737381,0.08814698,0.11682129,-0.4428589,106.0
19094,-1.0037286,1.5141449,-0.46751022,0.08814698,0.11682129,-0.4428589,106.0
19095,-1.0037286,1.5141449,-0.46751022,-0.20921631,0.3982544,-0.29948732,106.0
19096,-0.014555216,0.5635376,-0.32354736,-0.20921631,0.3982544,-0.29948732,106.0
19097,-0.014555216,0.5635376,-0.32354736,-0.22939454,0.5703003,-0.15930176,106.0
19098,1.0638075,-0.3760605,0.08860016,-0.22939454,0.5703003,-0.15930176,106.0
19099,1.0638075,-0.3760605,0.08860016,-0.14018555,0.5543701,-0.1083252,106.0
19100,1.0638075,-0.3760605,0.08860016,-0.14018555,0.5543701,-0.1083252,112.0
19101,0.9475913,-0.37623596,0.2912407,-0.14018555,0.5543701,-0.1083252,112.0
19102,0.9475913,-0.37623596,0.2912407,-0.24851075,0.57561034,-0.04991455,112.0
19103,-0.027473927,-0.038902283,0.29135132,-0.24851075,0.57561034,-0.04991455,112.0
19104,-0.027473927,-0.038902283,0.29135132,-0.6180908,0.58623046,0.020178223,112.0
19105,-0.7919133,-0.2131424,0.41865158,-0.6180908,0.58623046,0.020178223,112.0
19106,-0.7919133,-0.2131424,0.41865158,-0.6796875,0.5055176,-0.022302246,112.0
19107,-0.87485147,-0.849144,0.5847893,-0.6796875,0.5055176,-0.022302246,112.0
19108,-0.87485147,-0.849144,0.5847893,-0.44179687,0.35789797,-0.18903808,112.0
19109,-0.66116047,-1.2000275,0.49903107,-0.44179687,0.35789797,-0.18903808,112.0
19110,-0.66116047,-1.2000275,0.49903107,-0.18479005,0.21983643,-0.3440918,112.0
19111,-0.58060074,-0.68907166,0.12664032,-0.18479005,0.21983643,-0.3440918,112.0
19112,-0.58060074,-0.68907166,0.12664032,0.0541626,0.14868164,-0.40993652,112.0
19113,-0.50272536,0.3850479,-0.18673706,0.0541626,0.14868164,-0.40993652,112.0
19114,-0.50272536,0.3850479,-0.18673706,0.2262085,0.19116211,-0.40250245,112.0
19115,-0.38909435,1.1554031,-0.28505707,0.2262085,0.19116211,-0.40250245,112.0
19116,-0.38909435,1.1554031,-0.28505707,0.20496826,0.18372802,-0.42374268,112.0
19117,-0.40929794,1.0034485,-0.3177452,0.20496826,0.18372802,-0.42374268,112.0
19118,-0.40929794,1.0034485,-0.3177452,-0.046728518,0.2166504,-0.31860352,112.0
19119,-0.2629366,0.3521881,-0.2605934,-0.046728518,0.2166504,-0.31860352,112.0
19120,-0.2629366,0.3521881,-0.2605934,0.058410645,0.24638672,-0.26125488,112.0
19121,0.13575673,-0.08396149,-0.19042206,0.058410645,0.24638672,-0.26125488,112.0
19122,0.13575673,-0.08396149,-0.19042206,0.0021240234,0.25063476,-0.29736328,112.0
19123,0.29775333,-0.13153839,-0.16067505,0.0021240234,0.25063476,-0.29736328,112.0
19124,0.29775333,-0.13153839,-0.16067505,-0.23151855,0.25806886,-0.3154175,112.0
19125,0.057611704,-0.010238647,-0.105018616,-0.23151855,0.25806886,-0.3154175,112.0
19126,0.057611704,-0.010238647,-0.105018616,-0.3791382,0.26762697,-0.2899292,112.0
19127,-0.14008021,0.014511108,-0.0537529,-0.3791382,0.26762697,-0.2899292,112.0
19128,-0.14008021,0.014511108,-0.0537529,-0.29417726,0.24532472,-0.29736328,112.0
19129,0.055392027,-0.12286377,0.021827698,-0.29417726,0.24532472,-0.29736328,112.0
19130,0.055392027,-0.12286377,0.021827698,-0.21240234,0.22727051,-0.18585205,112.0
19131,0.39803672,-0.092430115,0.12648392,-0.21240234,0.22727051,-0.18585205,112.0
19132,0.39803672,-0.092430115,0.12648392,-0.20284425,0.20496826,-0.1996582,112.0
19133,0.3524747,0.11833954,0.19612122,-0.20284425,0.20496826,-0.1996582,112.0
19134,0.3524747,0.11833954,0.19612122,-0.24001466,0.18160401,-0.10089111,112.0
19135,-0.130862,0.31549835,0.14805984,-0.24001466,0.18160401,-0.10089111,112.0
19136,-0.130862,0.31549835,0.14805984,0.090270996,0.09239502,-0.14655761,112.0
19137,-0.6735251,0.42866516,-0.009723663,0.090270996,0.09239502,-0.14655761,112.0
19138,-0.6735251,0.42866516,-0.009723663,0.04141846,0.0541626,-0.15717773,112.0
19139,-0.83372974,0.2616806,-0.16406631,0.04141846,0.0541626,-0.15717773,112.0
19140,-0.83372974,0.2616806,-0.16406631,-0.033984374,0.046728518,-0.18585205,112.0
19141,-0.45201802,-0.054145813,-0.2544098,-0.033984374,0.046728518,-0.18585205,112.0
19142,-0.45201802,-0.054145813,-0.2544098,-0.10407715,0.08283692,-0.17523193,112.0
19143,0.014264584,-0.15281677,-0.21251297,-0.10407715,0.08283692,-0.17523193,112.0
19144,0.014264584,-0.15281677,-0.21251297,-0.022302246,0.070092775,-0.21240234,112.0
19145,0.21202207,-0.056419373,-0.106910706,-0.022302246,0.070092775,-0.21240234,112.0
