,accx,accy,accz,gyrox,gyroy,gyroz,heart rate
22825,open,open,open,open,open,open,open
22826,0.6004863,-0.011978149,-1.4206123,0.54693604,0.10195313,-0.13699952,146.0
22827,0.6004863,-0.011978149,-1.4206123,-0.2081543,0.43861085,-0.19647217,146.0
22828,0.4874816,-0.007835388,-1.1448746,-0.2081543,0.43861085,-0.19647217,146.0
22829,0.4874816,-0.007835388,-1.1448746,0.04460449,0.0010620117,0.033984374,146.0
22830,0.39798117,-0.0039978027,-0.9130211,0.04460449,0.0010620117,0.033984374,146.0
22831,0.39798117,-0.0039978027,-0.9130211,-0.052038576,0.010620117,0.040356446,146.0
22832,-1.7653189,-0.89720535,0.023132324,-0.052038576,0.010620117,0.040356446,146.0
22833,-1.7653189,-0.89720535,0.023132324,-0.09770508,0.04248047,0.038232423,146.0
22834,-1.4416256,-0.8426666,0.09676361,-0.09770508,0.04248047,0.038232423,146.0
22835,-1.4416256,-0.8426666,0.09676361,-0.04460449,0.058410645,0.014868164,146.0
22836,-1.1785936,-0.69947433,0.1470375,-0.04460449,0.058410645,0.014868164,146.0
22837,-1.1785936,-0.69947433,0.1470375,-0.035046387,0.05522461,0.021240234,146.0
22838,-0.9401655,-0.45046234,0.12610245,-0.035046387,0.05522461,0.021240234,146.0
22839,-0.9401655,-0.45046234,0.12610245,-0.06265869,0.046728518,0.033984374,146.0
22840,-0.7055502,-0.28897095,0.073036194,-0.06265869,0.046728518,0.033984374,146.0
22841,-0.7055502,-0.28897095,0.073036194,-0.095581055,0.03717041,0.04141846,146.0
22842,-0.5138178,-0.27850342,0.06520462,-0.095581055,0.03717041,0.04141846,146.0
22843,-0.5138178,-0.27850342,0.06520462,-0.08602295,0.027612304,0.04248047,146.0
22844,-0.41522884,-0.32030106,0.11376953,-0.08602295,0.027612304,0.04248047,146.0
22845,-0.41522884,-0.32030106,0.11376953,-0.0637207,0.014868164,0.03079834,146.0
22846,-0.38163376,-0.30484772,0.1568985,-0.0637207,0.014868164,0.03079834,146.0
22847,-0.38163376,-0.30484772,0.1568985,-0.043542482,0.026550293,0.008496094,146.0
22848,-0.34353924,-0.20166779,0.1399231,-0.043542482,0.026550293,0.008496094,146.0
22849,-0.34353924,-0.20166779,0.1399231,-0.032922365,0.026550293,-0.010620117,146.0
22850,-0.2824726,-0.07701874,0.06807709,-0.032922365,0.026550293,-0.010620117,146.0
22851,-0.2824726,-0.07701874,0.06807709,-0.025488282,0.007434082,-0.022302246,146.0
22852,-0.24012566,-0.039375305,0.014633179,-0.025488282,0.007434082,-0.022302246,146.0
22853,-0.24012566,-0.039375305,0.014633179,0.009558106,-0.010620117,-0.03079834,146.0
22854,-0.21347523,-0.06668091,0.038913727,0.009558106,-0.010620117,-0.03079834,146.0
22855,-0.21347523,-0.06668091,0.038913727,0.046728518,-0.016992187,-0.025488282,146.0
22856,-0.19236183,-0.077114105,0.096084595,0.046728518,-0.016992187,-0.025488282,146.0
22857,-0.19236183,-0.077114105,0.096084595,0.0361084,0.0063720704,-0.03079834,146.0
22858,-0.19236183,-0.077114105,0.096084595,-0.007434082,0.04141846,-0.04885254,146.0
22859,-0.16222668,-0.039974213,0.09622955,-0.007434082,0.04141846,-0.04885254,146.0
22860,-0.1282072,-0.014472961,0.03776169,-0.007434082,0.04141846,-0.04885254,146.0
22861,-0.1282072,-0.014472961,0.03776169,-0.020178223,0.043542482,-0.052038576,146.0
22862,-0.13033676,-0.024394989,-0.01763153,-0.020178223,0.043542482,-0.052038576,146.0
22863,-0.13033676,-0.024394989,-0.01763153,-0.0010620117,0.04248047,-0.04248047,146.0
22864,-0.15357399,-0.028137207,-0.04758835,-0.0010620117,0.04248047,-0.04248047,146.0
22865,-0.15357399,-0.028137207,-0.04758835,-0.0031860352,0.045666505,-0.0361084,146.0
22866,-0.16242218,-0.016246796,-0.05479431,-0.0031860352,0.045666505,-0.0361084,146.0
22867,-0.16242218,-0.016246796,-0.05479431,-0.022302246,0.05522461,-0.050976563,146.0
22868,-0.15162945,-0.0032043457,-0.027198792,-0.022302246,0.05522461,-0.050976563,146.0
22869,-0.15162945,-0.0032043457,-0.027198792,-0.032922365,0.04885254,-0.05628662,146.0
22870,-0.13032436,-0.026977539,3.8528442E-4,-0.032922365,0.04885254,-0.05628662,146.0
22871,-0.13032436,-0.026977539,3.8528442E-4,-0.012744141,0.04141846,-0.04460449,146.0
22872,-0.10920334,-0.045944214,-0.009262085,-0.012744141,0.04141846,-0.04460449,146.0
22873,-0.10920334,-0.045944214,-0.009262085,-0.008496094,0.04460449,-0.04885254,146.0
22874,-0.09463787,-0.0234375,-0.031227112,-0.008496094,0.04460449,-0.04885254,146.0
22875,-0.09463787,-0.0234375,-0.031227112,-0.025488282,0.045666505,-0.0637207,146.0
22876,-0.09463787,-0.0234375,-0.031227112,-0.0180542,0.038232423,-0.053100586,146.0
22877,-0.08984661,-0.0013923645,-0.021831512,-0.0180542,0.038232423,-0.053100586,146.0
22878,-0.09607124,-0.0025291443,0.01537323,-0.0180542,0.038232423,-0.053100586,146.0
22879,-0.09607124,-0.0025291443,0.01537323,-0.013806152,0.038232423,-0.04460449,146.0
22880,-0.10454273,0.019657135,0.015483856,-0.013806152,0.038232423,-0.04460449,146.0
22881,-0.10454273,0.019657135,0.015483856,-0.027612304,0.046728518,-0.045666505,146.0
22882,-0.116482735,0.04857254,-0.02003479,-0.027612304,0.046728518,-0.045666505,146.0
22883,-0.116482735,0.04857254,-0.02003479,-0.04248047,0.0541626,-0.05522461,146.0
22884,-0.11460972,0.041030884,-0.0330925,-0.04248047,0.0541626,-0.05522461,146.0
22885,-0.11460972,0.041030884,-0.0330925,-0.039294433,0.058410645,-0.053100586,146.0
22886,-0.0896616,0.015953064,-0.02519226,-0.039294433,0.058410645,-0.053100586,146.0
22887,-0.0896616,0.015953064,-0.02519226,-0.03186035,0.04885254,-0.052038576,146.0
22888,-0.06141472,-0.0078048706,-0.017356873,-0.03186035,0.04885254,-0.052038576,146.0
22889,-0.06141472,-0.0078048706,-0.017356873,-0.020178223,0.04991455,-0.043542482,146.0
22890,-0.045348167,-0.049453735,-0.028961182,-0.020178223,0.04991455,-0.043542482,146.0
22891,-0.045348167,-0.049453735,-0.028961182,-0.027612304,0.045666505,-0.040356446,146.0
22892,-0.041698456,-0.07940674,-0.031799316,-0.027612304,0.045666505,-0.040356446,146.0
22893,-0.041698456,-0.07940674,-0.031799316,-0.010620117,0.040356446,-0.052038576,146.0
22894,-0.058896065,-0.076854706,-0.015758514,-0.010620117,0.040356446,-0.052038576,146.0
22895,-0.058896065,-0.076854706,-0.015758514,-0.0063720704,0.04141846,-0.057348635,146.0
22896,-0.08029556,-0.047973633,-0.0059776306,-0.0063720704,0.04141846,-0.057348635,146.0
22897,-0.08029556,-0.047973633,-0.0059776306,-0.02442627,0.04991455,-0.05522461,146.0
22898,-0.078811646,-0.024963379,-0.014045715,-0.02442627,0.04991455,-0.05522461,146.0
22899,-0.078811646,-0.024963379,-0.014045715,-0.045666505,0.0541626,-0.060534667,146.0
22900,-0.074035645,-0.014247894,-0.025604248,-0.045666505,0.0541626,-0.060534667,146.0
22901,-0.074035645,-0.014247894,-0.025604248,-0.059472658,0.047790527,-0.060534667,146.0
22902,-0.074035645,-0.014247894,-0.025604248,-0.05628662,0.03717041,-0.04885254,146.0
22903,-0.07280254,-0.035972595,-0.022960663,-0.05628662,0.03717041,-0.04885254,146.0
22904,-0.059462547,-0.04164505,0.0010910034,-0.05628662,0.03717041,-0.04885254,146.0
22905,-0.059462547,-0.04164505,0.0010910034,-0.045666505,0.028674318,-0.04885254,146.0
22906,-0.03605938,0.010570526,0.026042938,-0.045666505,0.028674318,-0.04885254,146.0
22907,-0.03605938,0.010570526,0.026042938,-0.0637207,0.02442627,-0.070092775,146.0
22908,-0.041701317,0.036628723,0.028522491,-0.0637207,0.02442627,-0.070092775,146.0
22909,-0.041701317,0.036628723,0.028522491,-0.06690674,0.015930176,-0.07115479,146.0
22910,-0.053087234,-0.022773743,0.040908813,-0.06690674,0.015930176,-0.07115479,146.0
22911,-0.053087234,-0.022773743,0.040908813,-0.05628662,0.011682129,-0.06584473,146.0
22912,-0.05316353,-0.09672165,0.07348633,-0.05628662,0.011682129,-0.06584473,146.0
22913,-0.05316353,-0.09672165,0.07348633,-0.058410645,0.013806152,-0.05522461,146.0
22914,-0.037733078,-0.11752701,0.07840729,-0.058410645,0.013806152,-0.05522461,146.0
22915,-0.037733078,-0.11752701,0.07840729,-0.07752686,0.02442627,-0.058410645,146.0
22916,-0.03742504,-0.08452225,0.053482056,-0.07752686,0.02442627,-0.058410645,146.0
22917,-0.03742504,-0.08452225,0.053482056,-0.08496094,0.025488282,-0.06265869,146.0
22918,-0.052926064,-0.039089203,0.042324066,-0.08496094,0.025488282,-0.06265869,146.0
22919,-0.052926064,-0.039089203,0.042324066,-0.09451904,0.02442627,-0.0637207,146.0
22920,-0.065093994,-0.025669098,0.08364868,-0.09451904,0.02442627,-0.0637207,146.0
22921,-0.065093994,-0.025669098,0.08364868,-0.09239502,0.015930176,-0.06159668,146.0
22922,-0.06595421,-0.05293274,0.12384033,-0.09239502,0.015930176,-0.06159668,146.0
22923,-0.06595421,-0.05293274,0.12384033,-0.08496094,0.015930176,-0.04991455,146.0
22924,-0.046952248,-0.07078934,0.113586426,-0.08496094,0.015930176,-0.04991455,146.0
22925,-0.046952248,-0.07078934,0.113586426,-0.0541626,0.012744141,-0.0541626,146.0
22926,-0.02944374,-0.051078796,0.07266998,-0.0541626,0.012744141,-0.0541626,146.0
22927,-0.02944374,-0.051078796,0.07266998,-0.04248047,0.007434082,-0.060534667,146.0
22928,-0.022138596,-0.03504181,0.04043579,-0.04248047,0.007434082,-0.060534667,146.0
22929,-0.022138596,-0.03504181,0.04043579,-0.047790527,0.004248047,-0.052038576,146.0
22930,-0.019236565,-0.056427002,0.03394699,-0.047790527,0.004248047,-0.052038576,146.0
22931,-0.019236565,-0.056427002,0.03394699,-0.045666505,0.009558106,-0.047790527,146.0
22932,-0.028255463,-0.08116531,0.049030304,-0.045666505,0.009558106,-0.047790527,146.0
22933,-0.028255463,-0.08116531,0.049030304,-0.022302246,0.0021240234,-0.047790527,146.0
22934,-0.04250145,-0.07778931,0.058376312,-0.022302246,0.0021240234,-0.047790527,146.0
22935,-0.04250145,-0.07778931,0.058376312,-0.0010620117,-0.0021240234,-0.04141846,146.0
22936,-0.05323887,-0.044273376,0.028900146,-0.0010620117,-0.0021240234,-0.04141846,146.0
22937,-0.05323887,-0.044273376,0.028900146,0.0053100586,-0.0053100586,-0.038232423,146.0
22938,-0.050990105,-0.009979248,-0.01902008,0.0053100586,-0.0053100586,-0.038232423,146.0
22939,-0.050990105,-0.009979248,-0.01902008,-0.010620117,-0.0053100586,-0.04460449,146.0
22940,-0.037288666,-0.005405426,-0.034370422,-0.010620117,-0.0053100586,-0.04460449,146.0
22941,-0.037288666,-0.005405426,-0.034370422,-0.010620117,-0.0021240234,-0.038232423,146.0
22942,-0.025766373,-0.009254456,-0.01984024,-0.010620117,-0.0021240234,-0.038232423,146.0
22943,-0.025766373,-0.009254456,-0.01984024,-0.014868164,0.0031860352,-0.0361084,146.0
22944,-0.03993702,0.014373779,-0.037979126,-0.014868164,0.0031860352,-0.0361084,146.0
22945,-0.03993702,0.014373779,-0.037979126,-0.022302246,0.0021240234,-0.04141846,146.0
22946,-0.051199913,0.014148712,-0.07458496,-0.022302246,0.0021240234,-0.04141846,146.0
22947,-0.051199913,0.014148712,-0.07458496,-0.022302246,-0.0010620117,-0.0361084,146.0
22948,-0.04375553,-0.016342163,-0.07674408,-0.022302246,-0.0010620117,-0.0361084,146.0
22949,-0.04375553,-0.016342163,-0.07674408,-0.025488282,-0.0021240234,-0.029736329,146.0
22950,-0.033491135,-0.044410706,-0.042865753,-0.025488282,-0.0021240234,-0.029736329,146.0
22951,-0.033491135,-0.044410706,-0.042865753,-0.035046387,0.0,-0.026550293,146.0
22952,-0.033665657,-0.059417725,-0.010345459,-0.035046387,0.0,-0.026550293,146.0
22953,-0.033665657,-0.059417725,-0.010345459,-0.043542482,0.0063720704,-0.03717041,146.0
22954,-0.03810215,-0.06776047,-0.009132385,-0.043542482,0.0063720704,-0.03717041,146.0
22955,-0.03810215,-0.06776047,-0.009132385,-0.028674318,0.010620117,-0.032922365,146.0
22956,-0.032398224,-0.05861664,-0.0015716553,-0.028674318,0.010620117,-0.032922365,146.0
22957,-0.032398224,-0.05861664,-0.0015716553,-0.029736329,0.014868164,-0.023364259,146.0
22958,-0.02591896,-0.016239166,0.022132874,-0.029736329,0.014868164,-0.023364259,146.0
22959,-0.02591896,-0.016239166,0.022132874,-0.047790527,0.0180542,-0.016992187,146.0
22960,-0.016902924,0.02149582,0.033050537,-0.047790527,0.0180542,-0.016992187,146.0
22961,-0.016902924,0.02149582,0.033050537,-0.03717041,0.009558106,-0.014868164,146.0
22962,-0.013510704,0.055511475,0.02564621,-0.03717041,0.009558106,-0.014868164,146.0
22963,-0.013510704,0.055511475,0.02564621,-0.029736329,0.0031860352,-0.021240234,146.0
22964,-0.017522812,0.07033539,0.035690308,-0.029736329,0.0031860352,-0.021240234,146.0
22965,-0.017522812,0.07033539,0.035690308,-0.039294433,0.004248047,-0.0361084,146.0
22966,-0.029191017,0.055145264,0.062278748,-0.039294433,0.004248047,-0.0361084,146.0
22967,-0.029191017,0.055145264,0.062278748,-0.06265869,0.009558106,-0.035046387,146.0
22968,-0.03332615,0.0318985,0.057498932,-0.06265869,0.009558106,-0.035046387,146.0
22969,-0.03332615,0.0318985,0.057498932,-0.059472658,0.0,-0.028674318,146.0
22970,-0.015735626,0.050971985,0.014392853,-0.059472658,0.0,-0.028674318,146.0
22971,-0.015735626,0.050971985,0.014392853,-0.05522461,-0.0053100586,-0.047790527,146.0
22972,0.0020112991,0.07265091,-0.02822113,-0.05522461,-0.0053100586,-0.047790527,146.0
22973,0.0020112991,0.07265091,-0.02822113,-0.050976563,-0.011682129,-0.07752686,146.0
22974,-0.013393402,0.05463028,-0.03242874,-0.050976563,-0.011682129,-0.07752686,146.0
22975,-0.013393402,0.05463028,-0.03242874,-0.0361084,-0.023364259,-0.08496094,146.0
22976,-0.057614326,0.020656586,-0.0054359436,-0.0361084,-0.023364259,-0.08496094,146.0
22977,-0.057614326,0.020656586,-0.0054359436,-0.039294433,-0.032922365,-0.0998291,146.0
22978,-0.10630894,0.023471832,0.008480072,-0.039294433,-0.032922365,-0.0998291,146.0
22979,-0.10630894,0.023471832,0.008480072,-0.09770508,-0.043542482,-0.11363526,146.0
22980,-0.16005898,0.043727875,-0.0042152405,-0.09770508,-0.043542482,-0.11363526,146.0
22981,-0.16005898,0.043727875,-0.0042152405,-0.13806152,-0.057348635,-0.13168946,146.0
22982,-0.19765186,0.13822937,-0.026039124,-0.13806152,-0.057348635,-0.13168946,146.0
22983,-0.19765186,0.13822937,-0.026039124,-0.18797608,-0.046728518,-0.18903808,146.0
22984,-0.089323044,0.3513794,0.02155304,-0.18797608,-0.046728518,-0.18903808,146.0
22985,-0.089323044,0.3513794,0.02155304,-0.35789797,-0.043542482,-0.14549561,146.0
22986,0.005555153,0.42775726,0.059062958,-0.35789797,-0.043542482,-0.14549561,146.0
22987,0.005555153,0.42775726,0.059062958,-0.44710693,-0.083898924,-0.16354981,146.0
22988,-0.08439827,0.34459686,0.008930206,-0.44710693,-0.083898924,-0.16354981,146.0
22989,-0.08439827,0.34459686,0.008930206,-0.19753419,-0.15505372,-0.27399904,146.0
22990,-0.09151745,0.42494583,-0.04782486,-0.19753419,-0.15505372,-0.27399904,146.0
22991,-0.09151745,0.42494583,-0.04782486,-0.11044922,-0.20072022,-0.43011475,146.0
22992,-0.024873734,0.7605133,-0.17552567,-0.11044922,-0.20072022,-0.43011475,146.0
22993,-0.024873734,0.7605133,-0.17552567,-0.28355715,-0.23895264,-0.6605713,146.0
22994,-0.026332855,1.1955338,-0.2896881,-0.28355715,-0.23895264,-0.6605713,146.0
22995,-0.026332855,1.1955338,-0.2896881,-0.8358032,-0.24744873,-0.98129886,146.0
22996,-0.13621521,1.2984467,-0.1928482,-0.8358032,-0.24744873,-0.98129886,146.0
22997,-0.13621521,1.2984467,-0.1928482,-1.622754,-0.21134034,-1.2797241,146.0
22998,-0.30089188,0.7048683,0.028396606,-1.622754,-0.21134034,-1.2797241,146.0
22999,-0.30089188,0.7048683,0.028396606,-2.3098755,-0.18054199,-1.5261109,146.0
23000,-0.41809368,-0.3367653,0.23488998,-2.3098755,-0.18054199,-1.5261109,146.0
23001,-0.41809368,-0.3367653,0.23488998,-2.71344,-0.15611573,-1.718335,146.0
23002,-0.49001694,-1.4899712,0.44556427,-2.71344,-0.15611573,-1.718335,146.0
23003,-0.49001694,-1.4899712,0.44556427,-2.7591064,-0.08814698,-1.8765748,146.0
23004,-0.63561726,-2.5812225,0.672699,-2.7591064,-0.08814698,-1.8765748,146.0
23005,-0.63561726,-2.5812225,0.672699,-2.3905885,-0.060534667,-1.9551636,146.0
23006,-0.6541977,-3.3241196,0.7667389,-2.3905885,-0.060534667,-1.9551636,146.0
23007,-0.6541977,-3.3241196,0.7667389,-1.6652344,0.02442627,-2.080481,146.0
23008,-0.477911,-3.3250885,1.1530495,-1.6652344,0.02442627,-2.080481,146.0
23009,-0.477911,-3.3250885,1.1530495,-1.44115,0.14549561,-2.3098755,146.0
23010,-0.3522997,-2.896202,1.8917656,-1.44115,0.14549561,-2.3098755,146.0
23011,-0.3522997,-2.896202,1.8917656,-1.8213501,0.27506104,-2.3162477,146.0
23012,-0.24608517,-3.0801544,2.0129356,-1.8213501,0.27506104,-2.3162477,146.0
23013,-0.24608517,-3.0801544,2.0129356,-2.2259767,0.7391602,-2.1112792,146.0
23014,-0.1832571,-4.248768,1.415268,-2.2259767,0.7391602,-2.1112792,146.0
23015,-0.1832571,-4.248768,1.415268,-1.9254273,1.2829102,-1.8563966,146.0
23016,-0.27484035,-5.489723,0.61997986,-1.9254273,1.2829102,-1.8563966,146.0
23017,-0.27484035,-5.489723,0.61997986,-1.0482056,1.4857544,-1.4262818,146.0
23018,-0.4900875,-5.4057083,0.014305115,-1.0482056,1.4857544,-1.4262818,146.0
23019,-0.4900875,-5.4057083,0.014305115,-0.44816896,1.3912354,-1.1692749,146.0
23020,-0.99104404,-3.8698425,-0.21469116,-0.44816896,1.3912354,-1.1692749,146.0
23021,-0.99104404,-3.8698425,-0.21469116,-0.2984253,1.1363525,-0.9653687,146.0
23022,-1.6708384,-2.1255112,-0.2453003,-0.2984253,1.1363525,-0.9653687,146.0
23023,-1.6708384,-2.1255112,-0.2453003,-0.53100586,0.9526245,-0.80606693,146.0
23024,-2.074976,-1.2095184,-0.33164215,-0.53100586,0.9526245,-0.80606693,146.0
23025,-2.074976,-1.2095184,-0.33164215,-1.0216553,0.70198977,-0.6403931,146.0
23026,-2.0846748,-1.1770248,-0.5894737,-1.0216553,0.70198977,-0.6403931,146.0
23027,-2.0846748,-1.1770248,-0.5894737,-1.3869873,0.50233155,-0.5501221,146.0
23028,-1.9053745,-1.5246506,-0.7196388,-1.3869873,0.50233155,-0.5501221,146.0
23029,-1.9053745,-1.5246506,-0.7196388,-1.270166,0.3334717,-0.44498292,146.0
23030,-1.7618484,-1.785614,-0.310112,-1.270166,0.3334717,-0.44498292,146.0
23031,-1.7618484,-1.785614,-0.310112,-0.81668705,0.13168946,-0.33984375,146.0
23032,-1.7094307,-1.6217499,0.4158249,-0.81668705,0.13168946,-0.33984375,146.0
23033,-1.7094307,-1.6217499,0.4158249,-0.15611573,-0.15186767,-0.26656494,146.0
23034,-1.5046425,-0.9408722,0.88928986,-0.15611573,-0.15186767,-0.26656494,146.0
23035,-1.5046425,-0.9408722,0.88928986,0.45666504,-0.30373535,-0.24851075,146.0
23036,-0.95221233,0.091812134,0.9213829,0.45666504,-0.30373535,-0.24851075,146.0
23037,-0.95221233,0.091812134,0.9213829,0.80181885,-0.3451538,-0.2803711,146.0
23038,-0.25344467,1.0771942,0.8244705,0.80181885,-0.3451538,-0.2803711,146.0
23039,-0.25344467,1.0771942,0.8244705,0.8973999,-0.33665773,-0.32816163,146.0
23040,0.24166584,1.6244888,0.92616653,0.8973999,-0.33665773,-0.32816163,146.0
23041,0.24166584,1.6244888,0.92616653,0.8772217,-0.29417726,-0.39082032,146.0
23042,0.38913345,1.6894836,1.0638809,0.8772217,-0.29417726,-0.39082032,146.0
23043,0.38913345,1.6894836,1.0638809,0.73809814,-0.28674316,-0.46622315,146.0
23044,0.27799416,1.5290298,0.9131775,0.73809814,-0.28674316,-0.46622315,146.0
23045,0.27799416,1.5290298,0.9131775,0.5766724,-0.30267334,-0.4439209,146.0
23046,0.069758415,1.4519958,0.66753006,0.5766724,-0.30267334,-0.4439209,146.0
23047,0.069758415,1.4519958,0.66753006,0.4333008,-0.26762697,-0.52675784,146.0
23048,-0.06728935,1.3565216,0.55249023,0.4333008,-0.26762697,-0.52675784,146.0
23049,-0.06728935,1.3565216,0.55249023,0.27293703,-0.15823975,-0.6287109,146.0
23050,-0.0019025803,0.9079361,0.41989517,0.27293703,-0.15823975,-0.6287109,146.0
23051,-0.0019025803,0.9079361,0.41989517,0.23895264,-0.04141846,-0.71579593,146.0
23052,0.2652626,0.22478485,0.10980606,0.23895264,-0.04141846,-0.71579593,146.0
23053,0.2652626,0.22478485,0.10980606,0.23895264,-0.04141846,-0.71579593,0.0
23054,0.2652626,0.22478485,0.10980606,0.39082032,0.027612304,-0.8496094,0.0
23055,0.55181026,-0.23212433,-0.27791595,0.39082032,0.027612304,-0.8496094,0.0
23056,0.55181026,-0.23212433,-0.27791595,0.6265869,0.095581055,-0.96430665,0.0
23057,0.6488209,-0.36817932,-0.54002,0.6265869,0.095581055,-0.96430665,0.0
23058,0.6488209,-0.36817932,-0.54002,0.7869507,0.15186767,-0.996167,0.0
23059,0.5315809,-0.39813232,-0.6569443,0.7869507,0.15186767,-0.996167,0.0
23060,0.5315809,-0.39813232,-0.6569443,0.82730716,0.087084964,-0.905896,0.0
23061,0.36886787,-0.4066925,-0.88933563,0.82730716,0.087084964,-0.905896,0.0
23062,0.36886787,-0.4066925,-0.88933563,0.88253176,0.1263794,-0.81668705,0.0
23063,0.24557114,-0.3694458,-1.2322578,0.88253176,0.1263794,-0.81668705,0.0
23064,0.24557114,-0.3694458,-1.2322578,1.1852051,0.095581055,-0.724292,0.0
23065,0.08988953,-0.17451477,-1.3541756,1.1852051,0.095581055,-0.724292,0.0
23066,0.08988953,-0.17451477,-1.3541756,1.4857544,-0.0053100586,-0.60322267,0.0
23067,-0.14196777,0.26771545,-1.3227577,1.4857544,-0.0053100586,-0.60322267,0.0
23068,-0.14196777,0.26771545,-1.3227577,1.5027466,-0.11257324,-0.5256958,0.0
23069,-0.29536152,0.5820923,-1.3526306,1.5027466,-0.11257324,-0.5256958,0.0
23070,-0.29536152,0.5820923,-1.3526306,1.2478638,-0.15611573,-0.48215333,0.0
23071,-0.15484428,0.39749908,-1.2838631,1.2478638,-0.15611573,-0.48215333,0.0
23072,-0.15484428,0.39749908,-1.2838631,1.0460815,-0.12531738,-0.4364868,0.0
23073,0.1268816,0.093925476,-0.96333313,1.0460815,-0.12531738,-0.4364868,0.0
23074,0.1268816,0.093925476,-0.96333313,0.7391602,-0.12956543,-0.50020754,0.0
23075,0.17258644,0.017486572,-0.66978836,0.7391602,-0.12956543,-0.50020754,0.0
23076,0.17258644,0.017486572,-0.66978836,0.47365722,-0.118945315,-0.4800293,0.0
23077,0.14332962,0.0542984,-0.2878952,0.47365722,-0.118945315,-0.4800293,0.0
23078,0.14332962,0.0542984,-0.2878952,-0.057348635,-0.05628662,-0.3971924,0.0
23079,0.11218548,0.06513977,-0.14220428,-0.057348635,-0.05628662,-0.3971924,0.0
23080,0.11218548,0.06513977,-0.14220428,-0.3982544,-0.0541626,-0.4056885,0.0
23081,0.34652328,-0.10134125,-0.11766815,-0.3982544,-0.0541626,-0.4056885,0.0
23082,0.34652328,-0.10134125,-0.11766815,-0.5065796,-0.06690674,-0.44604492,0.0
23083,0.9880104,-0.691597,0.19363403,-0.5065796,-0.06690674,-0.44604492,0.0
23084,0.9880104,-0.691597,0.19363403,-0.4322388,-0.15505372,-0.46834716,0.0
23085,1.0050325,-0.7966156,0.38035583,-0.4322388,-0.15505372,-0.46834716,0.0
23086,1.0050325,-0.7966156,0.38035583,-0.3993164,-0.22514649,-0.45454103,0.0
23087,1.2417698,-0.97566986,0.6763077,-0.3993164,-0.22514649,-0.45454103,0.0
23088,1.2417698,-0.97566986,0.6763077,-0.21877442,-0.30479738,-0.44604492,0.0
23089,1.5014114,-1.0577011,0.7769203,-0.21877442,-0.30479738,-0.44604492,0.0
23090,1.5014114,-1.0577011,0.7769203,0.13275146,-0.31435546,-0.44498292,0.0
23091,1.7159481,-0.94441223,0.76880264,0.13275146,-0.31435546,-0.44498292,0.0
23092,1.7159481,-0.94441223,0.76880264,0.49383545,-0.41418457,-0.48533937,0.0
23093,1.7333298,-0.4998932,0.80599594,0.49383545,-0.41418457,-0.48533937,0.0
23094,1.7333298,-0.4998932,0.80599594,0.6085327,-0.4630371,-0.48640138,0.0
23095,1.5240669,0.10746002,0.8633385,0.6085327,-0.4630371,-0.48640138,0.0
23096,1.5240669,0.10746002,0.8633385,0.45135498,-0.38232422,-0.44604492,0.0
23097,1.1166172,0.63235474,0.77376556,0.45135498,-0.38232422,-0.44604492,0.0
23098,1.1166172,0.63235474,0.77376556,0.13168946,-0.28568116,-0.41949463,0.0
23099,0.67797375,0.6603012,0.29463577,0.13168946,-0.28568116,-0.41949463,0.0
23100,0.67797375,0.6603012,0.29463577,-0.15080567,-0.36745605,-0.38869628,0.0
23101,0.57326317,-0.4165802,0.42268372,-0.15080567,-0.36745605,-0.38869628,0.0
23102,0.57326317,-0.4165802,0.42268372,-0.49383545,0.16354981,-0.0021240234,0.0
23103,0.48347664,-2.0925064,1.2485962,-0.49383545,0.16354981,-0.0021240234,0.0
23104,0.48347664,-2.0925064,1.2485962,-0.38869628,0.16036378,0.51188964,0.0
23105,-0.106785774,-2.4982376,1.0600929,-0.38869628,0.16036378,0.51188964,0.0
23106,-0.106785774,-2.4982376,1.0600929,0.06903076,-0.0031860352,0.4694092,0.0
23107,-0.78650284,-1.1562805,0.24724197,0.06903076,-0.0031860352,0.4694092,0.0
23108,-0.78650284,-1.1562805,0.24724197,0.020178223,-0.098767094,0.65207523,0.0
23109,-0.9886141,0.48880768,-0.14494324,0.020178223,-0.098767094,0.65207523,0.0
23110,-0.9886141,0.48880768,-0.14494324,-0.17416993,0.04460449,0.69986576,0.0
23111,-0.6649399,1.2867737,-0.10952377,-0.17416993,0.04460449,0.69986576,0.0
23112,-0.6649399,1.2867737,-0.10952377,-0.40356445,0.022302246,0.7763306,0.0
23113,-0.355999,1.2362442,-0.056358337,-0.40356445,0.022302246,0.7763306,0.0
23114,-0.355999,1.2362442,-0.056358337,-0.3536499,-0.032922365,0.90802,0.0
23115,-0.31093407,1.108963,-0.15710068,-0.3536499,-0.032922365,0.90802,0.0
23116,-0.31093407,1.108963,-0.15710068,0.107263185,-0.18479005,0.7614624,0.0
23117,-0.38074112,1.3013687,-0.3111801,0.107263185,-0.18479005,0.7614624,0.0
23118,-0.38074112,1.3013687,-0.3111801,0.2262085,-0.19753419,0.47790527,0.0
23119,-0.34844017,1.6106262,-0.5547905,0.2262085,-0.19753419,0.47790527,0.0
23120,-0.34844017,1.6106262,-0.5547905,0.25913087,-0.06265869,0.10089111,0.0
23121,-0.21945095,1.6174316,-0.8728714,0.25913087,-0.06265869,0.10089111,0.0
23122,-0.21945095,1.6174316,-0.8728714,0.038232423,-0.07646485,-0.12850343,0.0
23123,-0.23714542,0.8356552,-0.80051804,0.038232423,-0.07646485,-0.12850343,0.0
23124,-0.23714542,0.8356552,-0.80051804,-0.34940186,-0.12850343,-0.011682129,0.0
23125,-0.62703323,-0.23117828,-0.58431244,-0.34940186,-0.12850343,-0.011682129,0.0
23126,-0.62703323,-0.23117828,-0.58431244,-0.37489015,-0.4056885,0.023364259,0.0
23127,-1.1936922,-0.7607727,-0.4131279,-0.37489015,-0.4056885,0.023364259,0.0
23128,-1.1936922,-0.7607727,-0.4131279,-0.098767094,-0.49383545,-0.023364259,0.0
23129,-1.3200302,-0.9190445,0.4651184,-0.098767094,-0.49383545,-0.023364259,0.0
23130,-1.3200302,-0.9190445,0.4651184,0.28355715,-0.44498292,0.08496094,0.0
23131,-0.83460045,-0.54009247,1.3809204,0.28355715,-0.44498292,0.08496094,0.0
23132,-0.83460045,-0.54009247,1.3809204,0.59047854,-0.5883545,0.021240234,0.0
23133,-0.2502365,0.27082062,1.0368156,0.59047854,-0.5883545,0.021240234,0.0
23134,-0.2502365,0.27082062,1.0368156,0.67650145,-0.7869507,-0.019116212,0.0
23135,-0.036260605,0.4912033,-0.6347656,0.67650145,-0.7869507,-0.019116212,0.0
23136,-0.036260605,0.4912033,-0.6347656,1.1416626,-1.2361816,-0.13912354,0.0
23137,0.100385666,0.1949768,-1.6506233,1.1416626,-1.2361816,-0.13912354,0.0
23138,0.100385666,0.1949768,-1.6506233,2.0199463,-1.2372437,-0.24638672,0.0
23139,0.4247055,0.28292084,-1.1768951,2.0199463,-1.2372437,-0.24638672,0.0
23140,0.4247055,0.28292084,-1.1768951,2.259961,-1.3986695,-0.07540283,0.0
23141,0.7783022,0.8759079,-0.6880722,2.259961,-1.3986695,-0.07540283,0.0
23142,0.7783022,0.8759079,-0.6880722,2.6794555,-1.5208008,0.020178223,0.0
23143,1.3145599,1.6249313,-0.43621063,2.6794555,-1.5208008,0.020178223,0.0
23144,1.3145599,1.6249313,-0.43621063,3.0235474,-1.5292969,-0.090270996,0.0
23145,2.0701046,2.4600296,-0.23812866,3.0235474,-1.5292969,-0.090270996,0.0
23146,2.0701046,2.4600296,-0.23812866,2.7569826,-1.3285767,-0.21240234,0.0
23147,2.692937,3.0070877,0.44571686,2.7569826,-1.3285767,-0.21240234,0.0
23148,2.692937,3.0070877,0.44571686,2.0581787,-0.8644776,-0.13275146,0.0
23149,3.0960732,2.5717468,2.726616,2.0581787,-0.8644776,-0.13275146,0.0
23150,3.0960732,2.5717468,2.726616,1.447522,0.15611573,0.09770508,0.0
23151,2.808999,2.406395,3.9132233,1.447522,0.15611573,0.09770508,0.0
23152,2.808999,2.406395,3.9132233,-0.23045655,0.124255374,0.07646485,0.0
23153,1.6996164,2.8259583,1.7500496,-0.23045655,0.124255374,0.07646485,0.0
23154,1.6996164,2.8259583,1.7500496,-1.1299804,0.46516114,0.058410645,0.0
23155,0.7934942,2.0196037,-0.63812256,-1.1299804,0.46516114,0.058410645,0.0
23156,0.7934942,2.0196037,-0.63812256,-1.175647,0.48640138,0.020178223,0.0
23157,0.4084282,0.5042076,-1.5068016,-1.175647,0.48640138,0.020178223,0.0
23158,0.4084282,0.5042076,-1.5068016,-1.1172364,0.42799073,0.07646485,0.0
23159,0.4084282,0.5042076,-1.5068016,-1.1172364,0.42799073,0.07646485,0.0
23160,0.16235065,-0.54113007,-1.258419,-1.1172364,0.42799073,0.07646485,0.0
23161,0.16235065,-0.54113007,-1.258419,-1.0503296,0.3727661,0.20390625,0.0
23162,-0.17799282,-0.7974396,-0.6656723,-1.0503296,0.3727661,0.20390625,0.0
23163,-0.17799282,-0.7974396,-0.6656723,-0.9154541,0.28461915,0.1731079,0.0
23164,-0.49221134,-0.7615967,-0.47207642,-0.9154541,0.28461915,0.1731079,0.0
23165,-0.49221134,-0.7615967,-0.47207642,-0.9653687,0.35152587,0.25063476,0.0
23166,-0.5727978,-0.91854095,-0.4311638,-0.9653687,0.35152587,0.25063476,0.0
23167,-0.5727978,-0.91854095,-0.4311638,-0.72004396,0.31329346,0.29630128,0.0
23168,-0.44393158,-0.91498566,-0.21374512,-0.72004396,0.31329346,0.29630128,0.0
23169,-0.44393158,-0.91498566,-0.21374512,-0.7763306,0.33771974,0.26550293,0.0
23170,-0.2474184,-0.8678665,-0.11040115,-0.7763306,0.33771974,0.26550293,0.0
23171,-0.2474184,-0.8678665,-0.11040115,-0.9568726,0.44179687,0.32285157,0.0
23172,-0.03539753,-0.93169403,0.03792572,-0.9568726,0.44179687,0.32285157,0.0
23173,-0.03539753,-0.93169403,0.03792572,-1.0142212,0.48533937,0.34090576,0.0
23174,0.0031642914,-0.9441986,0.4574051,-1.0142212,0.48533937,0.34090576,0.0
23175,0.0031642914,-0.9441986,0.4574051,-1.173523,0.53737795,0.42799073,0.0
23176,-0.17377472,-1.0241928,0.9129715,-1.173523,0.53737795,0.42799073,0.0
23177,-0.17377472,-1.0241928,0.9129715,-1.3742431,0.68074954,0.5894165,0.0
23178,-0.3362484,-1.088089,1.0774078,-1.3742431,0.68074954,0.5894165,0.0
23179,-0.3362484,-1.088089,1.0774078,-1.538855,0.7848267,0.69349366,0.0
23180,-0.4809246,-1.2353516,1.0508041,-1.538855,0.7848267,0.69349366,0.0
23181,-0.4809246,-1.2353516,1.0508041,-1.7268311,0.9526245,0.904834,0.0
23182,-0.56393814,-1.3111343,0.975338,-1.7268311,0.9526245,0.904834,0.0
23183,-0.56393814,-1.3111343,0.975338,-1.8861328,1.0535157,0.9876709,0.0
23184,-0.5464268,-1.0111618,0.5353241,-1.8861328,1.0535157,0.9876709,0.0
23185,-0.5464268,-1.0111618,0.5353241,-2.1059692,1.0620117,1.0556396,0.0
23186,-0.6153269,-0.88196564,-0.14321136,-2.1059692,1.0620117,1.0556396,0.0
23187,-0.6153269,-0.88196564,-0.14321136,-2.1187134,0.9717407,1.0821899,0.0
23188,-0.7588997,-1.0502167,-0.8075485,-2.1187134,0.9717407,1.0821899,0.0
23189,-0.7588997,-1.0502167,-0.8075485,-1.9381714,0.8995239,1.0386475,0.0
23190,-0.8693514,-1.1460419,-1.405365,-1.9381714,0.8995239,1.0386475,0.0
23191,-0.8693514,-1.1460419,-1.405365,-1.7682495,0.7519043,1.0227174,0.0
23192,-1.076829,-1.1617203,-1.464756,-1.7682495,0.7519043,1.0227174,0.0
23193,-1.076829,-1.1617203,-1.464756,-1.5176147,0.6403931,1.0662597,0.0
23194,-1.4400272,-1.2227478,-0.9030762,-1.5176147,0.6403931,1.0662597,0.0
23195,-1.4400272,-1.2227478,-0.9030762,-1.2797241,0.5171997,0.95793456,0.0
23196,-1.6768875,-1.2686005,-0.44857025,-1.2797241,0.5171997,0.95793456,0.0
23197,-1.6768875,-1.2686005,-0.44857025,-1.3158325,0.4715332,0.9218262,0.0
23198,-1.4447699,-1.259201,-0.33887482,-1.3158325,0.4715332,0.9218262,0.0
23199,-1.4447699,-1.259201,-0.33887482,-1.2053833,0.45454103,0.904834,0.0
23200,-0.60059166,-1.3109512,-0.24401474,-1.2053833,0.45454103,0.904834,0.0
23201,-0.60059166,-1.3109512,-0.24401474,-0.994043,0.48109132,0.9866089,0.0
23202,0.39129257,-1.2602615,0.040359497,-0.994043,0.48109132,0.9866089,0.0
23203,0.39129257,-1.2602615,0.040359497,-0.76464844,0.36108398,1.084314,0.0
23204,0.6922579,-0.57860565,-0.01052475,-0.76464844,0.36108398,1.084314,0.0
23205,0.6922579,-0.57860565,-0.01052475,-0.69136965,0.035046387,0.98448485,0.0
23206,0.39958286,0.30817413,-0.3906479,-0.69136965,0.035046387,0.98448485,0.0
23207,0.39958286,0.30817413,-0.3906479,-0.50020754,0.16567384,0.8230591,0.0
23208,0.27481747,0.5072937,0.24893188,-0.50020754,0.16567384,0.8230591,0.0
23209,0.27481747,0.5072937,0.24893188,-0.4715332,0.16036378,0.99298096,0.0
23210,0.14662457,0.07497406,1.3120956,-0.4715332,0.16036378,0.99298096,0.0
23211,0.14662457,0.07497406,1.3120956,-0.38444826,0.14655761,0.9696167,0.0
23212,0.1848774,-0.65496063,1.317524,-0.38444826,0.14655761,0.9696167,0.0
23213,0.1848774,-0.65496063,1.317524,-0.31435546,0.26125488,1.2043213,0.0
23214,0.7474623,-0.6787338,0.7225723,-0.31435546,0.26125488,1.2043213,0.0
23215,0.7474623,-0.6787338,0.7225723,-0.2782471,0.2442627,1.2011353,0.0
23216,1.0558681,0.30594635,0.26735306,-0.2782471,0.2442627,1.2011353,0.0
23217,1.0558681,0.30594635,0.26735306,-0.29948732,0.3058594,1.1267945,0.0
23218,0.70337296,0.85220337,0.05909729,-0.29948732,0.3058594,1.1267945,0.0
23219,0.70337296,0.85220337,0.05909729,-0.2527588,0.4078125,1.1862671,0.0
23220,0.15782833,0.93304443,0.029613495,-0.2527588,0.4078125,1.1862671,0.0
23221,0.15782833,0.93304443,0.029613495,-0.1709839,0.36639404,1.0375855,0.0
23222,-0.23501682,1.1501923,0.15329361,-0.1709839,0.36639404,1.0375855,0.0
23223,-0.23501682,1.1501923,0.15329361,-0.22196046,0.45560303,0.8581055,0.0
23224,-0.53829384,1.4231949,0.43144608,-0.22196046,0.45560303,0.8581055,0.0
23225,-0.53829384,1.4231949,0.43144608,-0.2357666,0.53525394,0.49277344,0.0
23226,-1.0202227,1.6844254,0.33530426,-0.2357666,0.53525394,0.49277344,0.0
23227,-1.0202227,1.6844254,0.33530426,-0.4715332,0.542688,0.0,0.0
23228,-1.7010784,1.3411331,-0.33096313,-0.4715332,0.542688,0.0,0.0
23229,-1.7010784,1.3411331,-0.33096313,-0.88996583,0.6711914,-0.1178833,0.0
23230,-2.4004745,0.57743835,-0.90573883,-0.88996583,0.6711914,-0.1178833,0.0
23231,-2.4004745,0.57743835,-0.90573883,-0.7943848,0.6117188,-0.26444092,0.0
23232,-3.0210142,0.5343399,-0.8932915,-0.7943848,0.6117188,-0.26444092,0.0
23233,-3.0210142,0.5343399,-0.8932915,-0.5936646,0.5586182,-0.635083,0.0
23234,-3.4783955,0.944046,-0.26091003,-0.5936646,0.5586182,-0.635083,0.0
23235,-3.4783955,0.944046,-0.26091003,-0.27612305,0.5894165,-1.1448487,0.0
23236,-3.6342173,0.6606674,0.36283875,-0.27612305,0.5894165,-1.1448487,0.0
23237,-3.6342173,0.6606674,0.36283875,0.3345337,0.6839356,-1.5760254,0.0
23238,-3.3700695,-0.3559723,0.3640747,0.3345337,0.6839356,-1.5760254,0.0
23239,-3.3700695,-0.3559723,0.3640747,0.76677245,0.58198243,-1.6620483,0.0
23240,-2.8353138,-0.9230194,-0.21990967,0.76677245,0.58198243,-1.6620483,0.0
23241,-2.8353138,-0.9230194,-0.21990967,0.6552612,0.39294434,-1.628064,0.0
23242,-2.3423119,-0.8491745,-0.98431396,0.6552612,0.39294434,-1.628064,0.0
23243,-2.3423119,-0.8491745,-0.98431396,0.35895997,0.32391357,-1.4995606,0.0
23244,-1.9099579,-1.2539597,-1.3643341,0.35895997,0.32391357,-1.4995606,0.0
23245,-1.9099579,-1.2539597,-1.3643341,0.31966552,0.3079834,-1.2170655,0.0
23246,-1.3807487,-2.4175262,-1.2693481,0.31966552,0.3079834,-1.2170655,0.0
23247,-1.3807487,-2.4175262,-1.2693481,0.542688,0.2442627,-0.90908206,0.0
23248,-0.8014488,-3.31736,-1.1211205,0.542688,0.2442627,-0.90908206,0.0
23249,-0.8014488,-3.31736,-1.1211205,0.8400513,0.11151123,-0.6287109,0.0
23250,-0.37578964,-3.1122742,-1.222641,0.8400513,0.11151123,-0.6287109,0.0
23251,-0.37578964,-3.1122742,-1.222641,0.8379273,-0.038232423,-0.33665773,0.0
23252,-0.1712246,-2.0867767,-1.4542389,0.8379273,-0.038232423,-0.33665773,0.0
23253,-0.1712246,-2.0867767,-1.4542389,0.54587406,-0.12000733,-0.0180542,0.0
23254,-0.05259323,-1.1702499,-1.517601,0.54587406,-0.12000733,-0.0180542,0.0
23255,-0.05259323,-1.1702499,-1.517601,0.13062744,-0.18479005,0.30373535,0.0
23256,0.05347061,-0.8258362,-1.3322945,0.13062744,-0.18479005,0.30373535,0.0
23257,0.05347061,-0.8258362,-1.3322945,-0.2984253,-0.33028564,0.6701294,0.0
23258,0.11378479,-0.7302017,-0.9698181,-0.2984253,-0.33028564,0.6701294,0.0
23259,0.11378479,-0.7302017,-0.9698181,-0.5278198,-0.47365722,0.92501223,0.0
23260,0.22056961,-0.41077423,-0.43548584,-0.5278198,-0.47365722,0.92501223,0.0
23261,0.22056961,-0.41077423,-0.43548584,-0.5809204,-0.63933104,1.1246704,0.0
23262,0.5147743,0.1056366,0.15528488,-0.5809204,-0.63933104,1.1246704,0.0
23263,0.5147743,0.1056366,0.15528488,-0.5809204,-0.63933104,1.1246704,0.0
23264,0.5147743,0.1056366,0.15528488,-0.55968016,-0.74659425,1.2722901,0.0
23265,0.9682636,0.5096817,0.69784546,-0.55968016,-0.74659425,1.2722901,0.0
23266,0.9682636,0.5096817,0.69784546,-0.5278198,-0.901648,1.4262818,0.0
23267,1.41885,0.82206726,1.1838989,-0.5278198,-0.901648,1.4262818,0.0
23268,1.41885,0.82206726,1.1838989,-0.58410645,-1.0333375,1.5239868,0.0
23269,1.7556114,0.9778595,1.6513901,-0.58410645,-1.0333375,1.5239868,0.0
23270,1.7556114,0.9778595,1.6513901,-0.62977296,-1.0269654,1.5781494,0.0
23271,2.0184898,0.83851624,1.9918365,-0.62977296,-1.0269654,1.5781494,0.0
23272,2.0184898,0.83851624,1.9918365,-0.48215333,-0.96218264,1.5760254,0.0
23273,2.2135582,0.528038,2.002575,-0.48215333,-0.96218264,1.5760254,0.0
23274,2.2135582,0.528038,2.002575,-0.31223145,-0.86766356,1.4666382,0.0
23275,2.3366175,0.27378845,1.761631,-0.31223145,-0.86766356,1.4666382,0.0
23276,2.3366175,0.27378845,1.761631,-0.21452637,-0.79013675,1.3455689,0.0
23277,2.3628006,0.45202637,1.4411049,-0.21452637,-0.79013675,1.3455689,0.0
23278,2.3628006,0.45202637,1.4411049,-0.41949463,-0.71154785,1.3062744,0.0
23279,2.1696835,1.0113525,1.1013718,-0.41949463,-0.71154785,1.3062744,0.0
23280,2.1696835,1.0113525,1.1013718,-0.8219971,-0.60322267,1.273352,0.0
23281,1.7605028,1.294899,0.7252884,-0.8219971,-0.60322267,1.273352,0.0
23282,1.7605028,1.294899,0.7252884,-0.9239502,-0.52675784,1.1820191,0.0
23283,1.2833414,1.0491791,0.2860794,-0.9239502,-0.52675784,1.1820191,0.0
23284,1.2833414,1.0491791,0.2860794,-0.7189819,-0.54906005,1.0216553,0.0
23285,0.8674936,0.52397156,-0.08805466,-0.7189819,-0.54906005,1.0216553,0.0
23286,0.8674936,0.52397156,-0.08805466,-0.39188233,-0.57454836,0.7890747,0.0
23287,0.5585823,0.07740021,-0.24147797,-0.39188233,-0.57454836,0.7890747,0.0
23288,0.5585823,0.07740021,-0.24147797,-0.029736329,-0.58623046,0.54693604,0.0
23289,0.31494522,-0.016921997,-0.2552948,-0.029736329,-0.58623046,0.54693604,0.0
23290,0.31494522,-0.016921997,-0.2552948,0.1274414,-0.56605226,0.33771974,0.0
23291,0.047293663,0.18754578,-0.33811188,0.1274414,-0.56605226,0.33771974,0.0
23292,0.047293663,0.18754578,-0.33811188,0.04991455,-0.50020754,0.17629395,0.0
23293,-0.20674515,0.4048233,-0.53673553,0.04991455,-0.50020754,0.17629395,0.0
23294,-0.20674515,0.4048233,-0.53673553,-0.24107666,-0.44816896,0.07646485,0.0
23295,-0.37501526,0.3598938,-0.63435364,-0.24107666,-0.44816896,0.07646485,0.0
23296,-0.37501526,0.3598938,-0.63435364,-0.67437744,-0.39506838,0.027612304,0.0
23297,-0.508728,-0.075279236,-0.46533203,-0.67437744,-0.39506838,0.027612304,0.0
23298,-0.508728,-0.075279236,-0.46533203,-1.1246704,-0.36745605,0.09664307,0.0
23299,-0.7109251,-0.630867,-0.1862526,-1.1246704,-0.36745605,0.09664307,0.0
23300,-0.7109251,-0.630867,-0.1862526,-1.350879,-0.4163086,0.22727051,0.0
23301,-0.97098637,-0.9997101,-0.076042175,-1.350879,-0.4163086,0.22727051,0.0
23302,-0.97098637,-0.9997101,-0.076042175,-1.2754761,-0.5713623,0.4258667,0.0
23303,-1.1527538,-1.2769165,-0.16246796,-1.2754761,-0.5713623,0.4258667,0.0
23304,-1.1527538,-1.2769165,-0.16246796,-0.90802,-0.7678345,0.634021,0.0
23305,-1.2062731,-1.5964127,-0.38018036,-0.90802,-0.7678345,0.634021,0.0
23306,-1.2062731,-1.5964127,-0.38018036,-0.4630371,-1.0513916,0.83898926,0.0
23307,0.6092253,-7.126457,1.5030212,-0.4630371,-1.0513916,0.83898926,0.0
23308,0.6092253,-7.126457,1.5030212,-0.15611573,-1.3614991,1.0588257,0.0
23309,-0.126194,-6.200081,0.49876404,-0.15611573,-1.3614991,1.0588257,0.0
23310,-0.126194,-6.200081,0.49876404,-0.10513916,-1.7778076,1.3944215,0.0
23311,-0.057754517,-6.3523636,-0.26389313,-0.10513916,-1.7778076,1.3944215,0.0
23312,-0.057754517,-6.3523636,-0.26389313,-0.23151855,-2.0486207,1.8022339,0.0
23313,-0.0678463,-5.703804,-0.49463654,-0.23151855,-2.0486207,1.8022339,0.0
23314,-0.0678463,-5.703804,-0.49463654,-0.3812622,-2.3364258,2.1983643,0.0
23315,0.41292286,-5.644539,-0.74773407,-0.3812622,-2.3364258,2.1983643,0.0
23316,0.41292286,-5.644539,-0.74773407,-0.5150757,-2.806897,2.720874,0.0
23317,1.1830845,-5.707527,-0.9781189,-0.5150757,-2.806897,2.720874,0.0
23318,1.1830845,-5.707527,-0.9781189,-0.3536499,-3.263562,3.173291,0.0
23319,2.2190266,-5.2571487,-0.8977661,-0.3536499,-3.263562,3.173291,0.0
23320,2.2190266,-5.2571487,-0.8977661,-0.10620117,-3.6522584,3.5534914,0.0
23321,3.1949358,-4.3847656,-0.8960953,-0.10620117,-3.6522584,3.5534914,0.0
23322,3.1949358,-4.3847656,-0.8960953,0.29311523,-4.0239625,3.7786376,0.0
23323,4.059244,-3.4946518,-1.186264,0.29311523,-4.0239625,3.7786376,0.0
23324,4.059244,-3.4946518,-1.186264,0.71791995,-4.179016,4.066443,0.0
23325,5.1623983,-2.6459808,-1.3110123,0.71791995,-4.179016,4.066443,0.0
23326,5.1623983,-2.6459808,-1.3110123,0.99935305,-4.2767215,4.426465,0.0
23327,6.2171383,-1.6290894,-1.0697098,0.99935305,-4.2767215,4.426465,0.0
23328,6.2171383,-1.6290894,-1.0697098,1.1968873,-4.352124,4.6632934,0.0
23329,6.5594406,-0.5634537,-0.8811722,1.1968873,-4.352124,4.6632934,0.0
23330,6.5594406,-0.5634537,-0.8811722,1.3105224,-4.341504,4.499744,0.0
23331,2.0728092,2.8386383,-6.929741,1.3105224,-4.341504,4.499744,0.0
23332,2.0728092,2.8386383,-6.929741,1.2818482,-4.340442,4.158838,0.0
23333,6.3721147,0.5838165,0.08114624,1.2818482,-4.340442,4.158838,0.0
23334,6.3721147,0.5838165,0.08114624,0.8241211,-4.1036134,3.983606,0.0
23335,5.668615,1.3710327,0.44870758,0.8241211,-4.1036134,3.983606,0.0
23336,5.668615,1.3710327,0.44870758,0.37595215,-3.8306763,3.7042968,0.0
23337,4.737089,1.880127,0.6793747,0.37595215,-3.8306763,3.7042968,0.0
23338,4.737089,1.880127,0.6793747,0.16354981,-3.793506,3.1255004,0.0
23339,3.5768294,1.5192184,0.5470505,0.16354981,-3.793506,3.1255004,0.0
23340,3.5768294,1.5192184,0.5470505,0.19753419,-3.5853517,2.6348512,0.0
23341,2.8189955,0.5481262,0.7080002,0.19753419,-3.5853517,2.6348512,0.0
23342,2.8189955,0.5481262,0.7080002,0.41843262,-3.170105,2.2387207,0.0
23343,2.4762168,0.30662537,1.0525436,0.41843262,-3.170105,2.2387207,0.0
23344,2.4762168,0.30662537,1.0525436,0.33240968,-2.721936,1.7735596,0.0
23345,2.1230633,0.94353485,1.0751762,0.33240968,-2.721936,1.7735596,0.0
23346,2.1230633,0.94353485,1.0751762,-0.029736329,-2.261023,1.2329956,0.0
23347,1.8649302,1.2792053,0.8389244,-0.029736329,-2.261023,1.2329956,0.0
23348,1.8649302,1.2792053,0.8389244,-0.52675784,-1.9466676,0.90270996,0.0
23349,1.7845712,0.7279663,0.5114212,-0.52675784,-1.9466676,0.90270996,0.0
23350,1.7845712,0.7279663,0.5114212,-0.82836914,-1.9806519,0.8336792,0.0
23351,1.7532063,-0.04319763,0.2591095,-0.82836914,-1.9806519,0.8336792,0.0
23352,1.7532063,-0.04319763,0.2591095,-0.7412842,-1.8829468,0.62552494,0.0
23353,1.8010757,-0.27431488,0.35307693,-0.7412842,-1.8829468,0.62552494,0.0
23354,1.8010757,-0.27431488,0.35307693,-0.7497803,-1.6758546,0.38763428,0.0
23355,1.8533607,-0.26496124,0.72842026,-0.7497803,-1.6758546,0.38763428,0.0
23356,1.8533607,-0.26496124,0.72842026,-0.81031495,-1.3423828,0.3090454,0.0
23357,1.8635724,-0.79725647,1.4606667,-0.81031495,-1.3423828,0.3090454,0.0
23358,1.8635724,-0.79725647,1.4606667,-1.0981201,-0.70092773,0.39613038,0.0
23359,1.4941294,-1.7989578,1.5089722,-1.0981201,-0.70092773,0.39613038,0.0
23360,1.4941294,-1.7989578,1.5089722,-1.3901733,-0.6818115,0.6435791,0.0
23361,0.6499176,-2.4894333,-0.23659515,-1.3901733,-0.6818115,0.6435791,0.0
23362,0.6499176,-2.4894333,-0.23659515,-1.899939,-0.91014403,0.8995239,0.0
23363,0.15595698,-2.0657043,-2.3090515,-1.899939,-0.91014403,0.8995239,0.0
23364,0.15595698,-2.0657043,-2.3090515,-1.5038086,-1.1002442,0.99510497,0.0
23365,0.35719967,-0.22307587,-2.9216576,-1.5038086,-1.1002442,0.99510497,0.0
23366,0.35719967,-0.22307587,-2.9216576,-0.68499756,-1.0938721,0.8464233,0.0
23367,0.10956335,1.4111023,-2.0239334,-0.68499756,-1.0938721,0.8464233,0.0
23368,0.10956335,1.4111023,-2.0239334,0.31435546,-1.4029175,0.6669434,0.0
23369,-1.2676959,0.80607605,0.08459091,0.31435546,-1.4029175,0.6669434,0.0
23370,-1.2676959,0.80607605,0.08459091,0.5915405,-1.3307008,0.32709962,0.0
23371,-3.0396695,-1.7138519,2.0716515,0.5915405,-1.3307008,0.32709962,0.0
23372,-3.0396695,-1.7138519,2.0716515,0.16673584,-0.8729736,0.47790527,0.0
23373,-3.7469702,-3.3810654,1.245491,0.16673584,-0.8729736,0.47790527,0.0
23374,-3.7469702,-3.3810654,1.245491,-0.35895997,-0.61915284,0.814563,0.0
23375,-2.2992485,-2.0313568,-1.5084763,-0.35895997,-0.61915284,0.814563,0.0
23376,-2.2992485,-2.0313568,-1.5084763,-0.4056885,-0.5012695,0.68712157,0.0
23377,0.13899475,0.28498077,-2.9155579,-0.4056885,-0.5012695,0.68712157,0.0
23378,0.13899475,0.28498077,-2.9155579,-0.12000733,-0.61702883,0.63720703,0.0
23379,1.3970845,0.9076843,-2.4745102,-0.12000733,-0.61702883,0.63720703,0.0
23380,1.3970845,0.9076843,-2.4745102,0.32816163,-0.89102787,0.6488892,0.0
23381,1.0399332,0.22586823,-1.521637,0.32816163,-0.89102787,0.6488892,0.0
23382,1.0399332,0.22586823,-1.521637,0.58304447,-0.8326172,0.65632325,0.0
23383,0.1878792,-0.5048065,-0.755455,0.58304447,-0.8326172,0.65632325,0.0
23384,0.1878792,-0.5048065,-0.755455,0.4248047,-0.65207523,0.7476563,0.0
23385,-0.33098328,-0.5833435,-0.49095917,0.4248047,-0.65207523,0.7476563,0.0
23386,-0.33098328,-0.5833435,-0.49095917,0.06584473,-0.6414551,0.7720825,0.0
23387,-0.6873331,-0.109931946,-0.7768402,0.06584473,-0.6414551,0.7720825,0.0
23388,-0.6873331,-0.109931946,-0.7768402,-0.2166504,-0.67331547,0.81987303,0.0
23389,-0.8993294,0.39521027,-0.75001526,-0.2166504,-0.67331547,0.81987303,0.0
23390,-0.8993294,0.39521027,-0.75001526,-0.040356446,-0.5883545,0.5586182,0.0
23391,-0.7663751,0.23019409,-0.3748665,-0.040356446,-0.5883545,0.5586182,0.0
23392,-0.7663751,0.23019409,-0.3748665,-0.04141846,-0.5214478,0.544812,0.0
23393,-0.47025347,-0.52220154,-0.4325943,-0.04141846,-0.5214478,0.544812,0.0
23394,-0.47025347,-0.52220154,-0.4325943,-0.078588866,-0.5161377,0.39506838,0.0
23395,-0.34275556,-1.214035,-0.8373718,-0.078588866,-0.5161377,0.39506838,0.0
23396,-0.34275556,-1.214035,-0.8373718,-0.13699952,-0.5033936,0.19434814,0.0
23397,-0.428953,-1.4390106,-0.9602051,-0.13699952,-0.5033936,0.19434814,0.0
23398,-0.428953,-1.4390106,-0.9602051,-0.11363526,-0.4704712,0.17841797,0.0
23399,-0.47292316,-0.8352432,-0.5641861,-0.11363526,-0.4704712,0.17841797,0.0
23400,-0.47292316,-0.8352432,-0.5641861,0.09239502,-0.5628662,0.13699952,0.0
23401,-0.35044548,0.14485168,-0.15517044,0.09239502,-0.5628662,0.13699952,0.0
23402,-0.35044548,0.14485168,-0.15517044,0.29948732,-0.6903076,0.19328614,0.0
23403,-0.059909612,0.85824585,0.11454773,0.29948732,-0.6903076,0.19328614,0.0
23404,-0.059909612,0.85824585,0.11454773,0.49171144,-0.6616333,0.25594482,0.0
23405,0.22887897,1.2347794,0.27336502,0.49171144,-0.6616333,0.25594482,0.0
23406,0.22887897,1.2347794,0.27336502,0.49171144,-0.6616333,0.25594482,91.0
23407,0.22887897,1.2347794,0.27336502,0.4885254,-0.7455322,0.3164795,91.0
23408,0.2239235,1.2009735,-0.08951187,0.4885254,-0.7455322,0.3164795,91.0
23409,0.2239235,1.2009735,-0.08951187,0.34727785,-0.78164065,0.3451538,91.0
23410,0.03991759,0.23486328,-0.1737709,0.34727785,-0.78164065,0.3451538,91.0
23411,0.03991759,0.23486328,-0.1737709,0.540564,-0.6595093,0.3706421,91.0
23412,-0.0886592,-1.4544525,0.56612015,0.540564,-0.6595093,0.3706421,91.0
23413,-0.0886592,-1.4544525,0.56612015,0.65844727,-0.61278075,0.635083,91.0
23414,-0.09352258,-1.7254639,0.93966675,0.65844727,-0.61278075,0.635083,91.0
23415,-0.09352258,-1.7254639,0.93966675,0.5586182,-0.6117188,0.50870365,91.0
23416,-0.054993838,-0.31264496,0.54271317,0.5586182,-0.6117188,0.50870365,91.0
23417,-0.054993838,-0.31264496,0.54271317,0.2516968,-0.49064943,0.44923097,91.0
23418,-0.12536716,0.50470734,0.1640625,0.2516968,-0.49064943,0.44923097,91.0
23419,-0.12536716,0.50470734,0.1640625,0.21027832,-0.46728516,0.42268068,91.0
23420,-0.2592415,0.1555481,0.05211258,0.21027832,-0.46728516,0.42268068,91.0
23421,-0.2592415,0.1555481,0.05211258,0.40250245,-0.50020754,0.32178956,91.0
23422,-0.30766177,-0.3293457,-0.062057495,0.40250245,-0.50020754,0.32178956,91.0
23423,-0.30766177,-0.3293457,-0.062057495,0.45772704,-0.48640138,0.23789063,91.0
23424,-0.28159085,-0.26241302,-0.16278076,0.45772704,-0.48640138,0.23789063,91.0
23425,-0.28159085,-0.26241302,-0.16278076,0.4694092,-0.42799073,0.22727051,91.0
23426,-0.21736254,0.15776062,-0.027599335,0.4694092,-0.42799073,0.22727051,91.0
23427,-0.21736254,0.15776062,-0.027599335,0.6552612,-0.42055663,0.2166504,91.0
23428,-0.05938807,0.46556854,0.30294418,0.6552612,-0.42055663,0.2166504,91.0
23429,-0.05938807,0.46556854,0.30294418,0.79332274,-0.43011475,0.22833252,91.0
23430,0.10441825,0.5588684,0.5780716,0.79332274,-0.43011475,0.22833252,91.0
23431,0.10441825,0.5588684,0.5780716,0.71154785,-0.38869628,0.2442627,91.0
23432,0.12984806,0.6249771,0.618721,0.71154785,-0.38869628,0.2442627,91.0
23433,0.12984806,0.6249771,0.618721,0.541626,-0.34727785,0.28568116,91.0
23434,0.04222074,0.6284256,0.44714737,0.541626,-0.34727785,0.28568116,91.0
23435,0.04222074,0.6284256,0.44714737,0.44816896,-0.3090454,0.3175415,91.0
23436,-0.047400177,0.42679596,0.35578918,0.44816896,-0.3090454,0.3175415,91.0
23437,-0.047400177,0.42679596,0.35578918,0.48109132,-0.27506104,0.33665773,91.0
23438,-0.12234397,0.06448364,0.48630524,0.48109132,-0.27506104,0.33665773,91.0
23439,-0.12234397,0.06448364,0.48630524,0.52250975,-0.26019287,0.32603762,91.0
23440,-0.20792156,-0.15903473,0.6740532,0.52250975,-0.26019287,0.32603762,91.0
23441,-0.20792156,-0.15903473,0.6740532,0.45666504,-0.2081543,0.31860352,91.0
23442,-0.31855893,-0.049873352,0.65517426,0.45666504,-0.2081543,0.31860352,91.0
23443,-0.31855893,-0.049873352,0.65517426,0.3451538,-0.17416993,0.34940186,91.0
23444,-0.38639012,0.21629333,0.41030884,0.3451538,-0.17416993,0.34940186,91.0
23445,-0.38639012,0.21629333,0.41030884,0.35471192,-0.18054199,0.3536499,91.0
23446,-0.35873368,0.31467438,0.26716232,0.35471192,-0.18054199,0.3536499,91.0
23447,-0.35873368,0.31467438,0.26716232,0.5511841,-0.2548828,0.34833986,91.0
23448,-0.25034145,0.24996948,0.50299835,0.5511841,-0.2548828,0.34833986,91.0
23449,-0.25034145,0.24996948,0.50299835,0.7720825,-0.3706421,0.29417726,91.0
23450,-0.16257784,0.24356842,0.91973114,0.7720825,-0.3706421,0.29417726,91.0
23451,-0.16257784,0.24356842,0.91973114,0.72854006,-0.42055663,0.28461915,91.0
23452,-0.13743532,0.38640594,1.0057411,0.72854006,-0.42055663,0.28461915,91.0
23453,-0.13743532,0.38640594,1.0057411,0.49064943,-0.37489015,0.31435546,91.0
23454,-0.1331416,0.54146576,0.6742096,0.49064943,-0.37489015,0.31435546,91.0
23455,-0.1331416,0.54146576,0.6742096,0.26550293,-0.3175415,0.3717041,91.0
23456,-0.16926965,0.5661316,0.29117584,0.26550293,-0.3175415,0.3717041,91.0
23457,-0.16926965,0.5661316,0.29117584,0.16779785,-0.3430298,0.43117675,91.0
23458,-0.21797186,0.5416107,0.14704895,0.16779785,-0.3430298,0.43117675,91.0
23459,-0.21797186,0.5416107,0.14704895,0.19434814,-0.37701416,0.4630371,91.0
23460,-0.18217778,0.46339417,0.27431488,0.19434814,-0.37701416,0.4630371,91.0
23461,-0.18217778,0.46339417,0.27431488,0.23045655,-0.41418457,0.5129517,91.0
23462,-0.11897221,0.36042786,0.45109177,0.23045655,-0.41418457,0.5129517,91.0
23463,-0.11897221,0.36042786,0.45109177,0.16779785,-0.40037844,0.5341919,91.0
23464,-0.19859576,0.15710449,0.3687706,0.16779785,-0.40037844,0.5341919,91.0
23465,-0.19859576,0.15710449,0.3687706,0.081774905,-0.35577393,0.6202149,91.0
23466,-0.45343226,-0.032554626,0.09067154,0.081774905,-0.35577393,0.6202149,91.0
23467,-0.45343226,-0.032554626,0.09067154,0.10089111,-0.42268068,0.6924316,91.0
23468,-0.6429949,-0.03527069,-0.08439636,0.10089111,-0.42268068,0.6924316,91.0
23469,-0.6429949,-0.03527069,-0.08439636,0.083898924,-0.41206056,0.78376466,91.0
23470,-0.66545796,-0.0037841797,-0.062366486,0.083898924,-0.41206056,0.78376466,91.0
23471,-0.66545796,-0.0037841797,-0.062366486,0.14230958,-0.49277344,0.84323734,91.0
23472,-0.5553156,-0.033454895,6.866455E-5,0.14230958,-0.49277344,0.84323734,91.0
23473,-0.5553156,-0.033454895,6.866455E-5,0.13062744,-0.4439209,0.90802,91.0
23474,-0.3941915,-0.053634644,-0.0015830994,0.13062744,-0.4439209,0.90802,91.0
23475,-0.3941915,-0.053634644,-0.0015830994,0.045666505,-0.37382814,0.9876709,91.0
23476,-0.40696692,0.030128479,-0.017707825,0.045666505,-0.37382814,0.9876709,91.0
23477,-0.40696692,0.030128479,-0.017707825,-0.09770508,-0.35789797,1.0577637,91.0
23478,-0.66733384,-0.021614075,-0.015838623,-0.09770508,-0.35789797,1.0577637,91.0
23479,-0.66733384,-0.021614075,-0.015838623,-0.1996582,-0.42161867,1.1363525,91.0
23480,-0.9906421,-0.31365204,0.07198334,-0.1996582,-0.42161867,1.1363525,91.0
23481,-0.9906421,-0.31365204,0.07198334,-0.07965088,-0.49064943,1.0736939,91.0
23482,-1.1119838,-0.6825409,0.30081177,-0.07965088,-0.49064943,1.0736939,91.0
23483,-1.1119838,-0.6825409,0.30081177,0.07434082,-0.5501221,1.0120972,91.0
23484,-1.0229123,-1.0892105,0.4658661,0.07434082,-0.5501221,1.0120972,91.0
23485,-1.0229123,-1.0892105,0.4658661,0.046728518,-0.5798584,1.0567017,91.0
23486,-0.99055886,-1.1511612,0.33046722,0.046728518,-0.5798584,1.0567017,91.0
23487,-0.99055886,-1.1511612,0.33046722,0.011682129,-0.6488892,0.9483765,91.0
23488,-1.048343,-0.7027664,0.008708954,0.011682129,-0.6488892,0.9483765,91.0
23489,-1.048343,-0.7027664,0.008708954,0.025488282,-0.69986576,0.8050049,91.0
23490,-1.0036523,-0.3404541,-0.24587631,0.025488282,-0.69986576,0.8050049,91.0
23491,-1.0036523,-0.3404541,-0.24587631,0.1359375,-0.72854006,0.70198977,91.0
23492,-0.7637005,-0.27381897,-0.32891464,0.1359375,-0.72854006,0.70198977,91.0
23493,-0.7637005,-0.27381897,-0.32891464,0.26125488,-0.6956177,0.60959476,91.0
23494,-0.4412949,-0.27293396,-0.28248978,0.26125488,-0.6956177,0.60959476,91.0
23495,-0.4412949,-0.27293396,-0.28248978,0.27293703,-0.62764895,0.4991455,91.0
23496,-0.25674677,-0.21235657,-0.21538544,0.27293703,-0.62764895,0.4991455,91.0
23497,-0.25674677,-0.21235657,-0.21538544,0.21027832,-0.5564942,0.3982544,91.0
23498,-0.2582295,-0.12472534,-0.17470169,0.21027832,-0.5564942,0.3982544,91.0
23499,-0.2582295,-0.12472534,-0.17470169,0.13699952,-0.46834716,0.31116945,91.0
23500,-0.32599282,-0.04484558,-0.11710358,0.13699952,-0.46834716,0.31116945,91.0
23501,-0.32599282,-0.04484558,-0.11710358,0.15823975,-0.37595215,0.23682861,91.0
23502,-0.34192228,0.028442383,-0.1641655,0.15823975,-0.37595215,0.23682861,91.0
23503,-0.34192228,0.028442383,-0.1641655,0.1539917,-0.34940186,0.18479005,91.0
23504,-0.26583505,0.110809326,-0.28224945,0.1539917,-0.34940186,0.18479005,91.0
23505,-0.26583505,0.110809326,-0.28224945,0.115759276,-0.29948732,0.115759276,91.0
23506,-0.1774385,0.13977051,-0.17273712,0.115759276,-0.29948732,0.115759276,91.0
23507,-0.1774385,0.13977051,-0.17273712,0.090270996,-0.2357666,0.03079834,91.0
23508,-0.15015411,0.08696747,0.1082077,0.090270996,-0.2357666,0.03079834,91.0
23509,-0.15015411,0.08696747,0.1082077,0.07434082,-0.16779785,-0.022302246,91.0
23510,-0.12721539,5.950928E-4,0.35856247,0.07434082,-0.16779785,-0.022302246,91.0
23511,-0.12721539,5.950928E-4,0.35856247,0.12850343,-0.12000733,-0.052038576,91.0
23512,-0.07379365,-0.057159424,0.43070984,0.12850343,-0.12000733,-0.052038576,91.0
23513,-0.07379365,-0.057159424,0.43070984,0.24744873,-0.095581055,-0.08602295,91.0
23514,-0.006618023,-0.038589478,0.33003998,0.24744873,-0.095581055,-0.08602295,91.0
23515,-0.006618023,-0.038589478,0.33003998,0.3164795,-0.06478272,-0.12956543,91.0
23516,0.097806215,0.12424469,0.2532997,0.3164795,-0.06478272,-0.12956543,91.0
23517,0.097806215,0.12424469,0.2532997,0.3164795,-0.06478272,-0.12956543,92.0
23518,0.097806215,0.12424469,0.2532997,0.31223145,0.015930176,-0.20284425,92.0
23519,0.21089864,0.31902313,0.16162491,0.31223145,0.015930176,-0.20284425,92.0
23520,0.21089864,0.31902313,0.16162491,0.21346436,0.050976563,-0.24957275,92.0
23521,0.24182677,0.36296844,-0.0027923584,0.21346436,0.050976563,-0.24957275,92.0
23522,0.24182677,0.36296844,-0.0027923584,0.15080567,0.095581055,-0.29205322,92.0
23523,0.1465621,0.27887726,-0.09857178,0.15080567,0.095581055,-0.29205322,92.0
23524,0.1465621,0.27887726,-0.09857178,0.115759276,0.11044922,-0.30479738,92.0
23525,-0.015611649,0.15901947,0.10144043,0.115759276,0.11044922,-0.30479738,92.0
23526,-0.015611649,0.15901947,0.10144043,0.19647217,0.11363526,-0.25806886,92.0
23527,-0.056630135,0.20495605,0.5420532,0.19647217,0.11363526,-0.25806886,92.0
23528,-0.056630135,0.20495605,0.5420532,0.34833986,0.10620117,-0.2538208,92.0
23529,0.13007426,0.41521454,0.7534294,0.34833986,0.10620117,-0.2538208,92.0
23530,0.13007426,0.41521454,0.7534294,0.4078125,0.12213135,-0.29311523,92.0
23531,0.33781195,0.4047928,0.5129242,0.4078125,0.12213135,-0.29311523,92.0
23532,0.33781195,0.4047928,0.5129242,0.27612305,0.09770508,-0.2824951,92.0
23533,0.39731264,0.114212036,0.32930756,0.27612305,0.09770508,-0.2824951,92.0
23534,0.39731264,0.114212036,0.32930756,0.19647217,0.14549561,-0.32072756,92.0
23535,0.35807228,0.07181549,0.55781937,0.19647217,0.14549561,-0.32072756,92.0
23536,0.35807228,0.07181549,0.55781937,0.022302246,0.21877442,-0.4439209,92.0
23537,0.24422169,0.14529419,0.58099747,0.022302246,0.21877442,-0.4439209,92.0
23538,0.24422169,0.14529419,0.58099747,-0.21134034,0.24957275,-0.53100586,92.0
23539,0.110379696,0.025428772,0.1116333,-0.21134034,0.24957275,-0.53100586,92.0
23540,0.110379696,0.025428772,0.1116333,-0.21240234,0.2177124,-0.49489745,92.0
23541,0.09050107,0.074272156,-0.33436203,-0.21240234,0.2177124,-0.49489745,92.0
23542,0.09050107,0.074272156,-0.33436203,-0.24638672,0.28355715,-0.46409914,92.0
23543,0.25147796,0.44799042,-0.28476334,-0.24638672,0.28355715,-0.46409914,92.0
23544,0.25147796,0.44799042,-0.28476334,-0.11151123,0.33134767,-0.5331299,92.0
23545,0.47487617,0.749321,0.05954361,-0.11151123,0.33134767,-0.5331299,92.0
23546,0.47487617,0.749321,0.05954361,-0.052038576,0.3717041,-0.5777344,92.0
23547,0.5215149,0.5483246,-0.003414154,-0.052038576,0.3717041,-0.5777344,92.0
23548,0.5215149,0.5483246,-0.003414154,-0.30373535,0.32072756,-0.4364868,92.0
23549,0.34940195,0.12171173,-0.43912125,-0.30373535,0.32072756,-0.4364868,92.0
23550,0.34940195,0.12171173,-0.43912125,-0.28355715,0.24957275,-0.38763428,92.0
23551,0.14746594,0.13493347,-0.53329086,-0.28355715,0.24957275,-0.38763428,92.0
23552,0.14746594,0.13493347,-0.53329086,-0.22196046,0.15823975,-0.45135498,92.0
23553,-0.38151455,0.2612152,-0.04358673,-0.22196046,0.15823975,-0.45135498,92.0
23554,-0.38151455,0.2612152,-0.04358673,-0.27718505,0.16779785,-0.54375,92.0
23555,-0.7566278,-0.06607056,0.40101624,-0.27718505,0.16779785,-0.54375,92.0
23556,-0.7566278,-0.06607056,0.40101624,-0.20284425,0.38232422,-0.5915405,92.0
23557,-0.14675736,-0.31817627,0.3116455,-0.20284425,0.38232422,-0.5915405,92.0
23558,-0.14675736,-0.31817627,0.3116455,-0.23789063,0.35895997,-0.5957886,92.0
23559,0.79619265,-0.104911804,-0.093006134,-0.23789063,0.35895997,-0.5957886,92.0
23560,0.79619265,-0.104911804,-0.093006134,-0.30161133,0.32603762,-0.72960204,92.0
23561,1.1980505,0.26689148,-0.5503464,-0.30161133,0.32603762,-0.72960204,92.0
23562,1.1980505,0.26689148,-0.5503464,-0.630835,0.39613038,-0.80819094,92.0
23563,0.9003837,0.7049942,-0.9123726,-0.630835,0.39613038,-0.80819094,92.0
23564,0.9003837,0.7049942,-0.9123726,-1.0917481,0.47684327,-1.0036011,92.0
23565,0.36214042,0.4945984,-1.2779579,-1.0917481,0.47684327,-1.0036011,92.0
23566,0.36214042,0.4945984,-1.2779579,-1.2776002,0.49489745,-0.8421753,92.0
23567,0.40056443,-0.5194702,-1.187149,-1.2776002,0.49489745,-0.8421753,92.0
23568,0.40056443,-0.5194702,-1.187149,-0.65207523,0.48746338,-0.67331547,92.0
23569,1.0286059,-1.2218628,-0.5391121,-0.65207523,0.48746338,-0.67331547,92.0
23570,1.0286059,-1.2218628,-0.5391121,-0.26762697,0.29205322,-0.3419678,92.0
23571,1.3356289,-0.54374695,-0.2922516,-0.26762697,0.29205322,-0.3419678,92.0
23572,1.3356289,-0.54374695,-0.2922516,-0.3164795,0.08602295,-0.4609131,92.0
23573,0.7297946,0.6323471,-0.60951996,-0.3164795,0.08602295,-0.4609131,92.0
23574,0.7297946,0.6323471,-0.60951996,-0.6839356,0.050976563,-0.49383545,92.0
23575,-0.1077292,0.7106781,-1.1769104,-0.6839356,0.050976563,-0.49383545,92.0
23576,-0.1077292,0.7106781,-1.1769104,-0.88040775,-0.058410645,-0.20390625,92.0
23577,-0.22359788,0.5218506,-1.358326,-0.88040775,-0.058410645,-0.20390625,92.0
23578,-0.22359788,0.5218506,-1.358326,-0.86341554,-0.16992188,-0.15717773,92.0
23579,0.25589955,0.14421844,-1.4366837,-0.86341554,-0.16992188,-0.15717773,92.0
23580,0.25589955,0.14421844,-1.4366837,-0.8071289,-0.31435546,-0.10938721,92.0
23581,0.3985796,-0.27463531,-1.2607956,-0.8071289,-0.31435546,-0.10938721,92.0
23582,0.3985796,-0.27463531,-1.2607956,-0.8007569,-0.33134767,-0.03186035,92.0
23583,0.54849017,-1.2763443,-1.1136551,-0.8007569,-0.33134767,-0.03186035,92.0
23584,0.54849017,-1.2763443,-1.1136551,-0.8952759,-0.26444092,-0.14868164,92.0
23585,0.18676579,-1.2013931,-0.5119171,-0.8952759,-0.26444092,-0.14868164,92.0
23586,0.18676579,-1.2013931,-0.5119171,-1.2191895,0.15823975,0.029736329,92.0
23587,-1.7735977,-0.7319412,1.5073853,-1.2191895,0.15823975,0.029736329,92.0
23588,-1.7735977,-0.7319412,1.5073853,-1.1607789,0.118945315,-0.30267334,92.0
23589,-1.5290589,-0.44037628,1.3998756,-1.1607789,0.118945315,-0.30267334,92.0
23590,-1.5290589,-0.44037628,1.3998756,-1.0577637,0.18372802,-0.2824951,92.0
23591,0.41970932,-0.5098572,0.13124084,-1.0577637,0.18372802,-0.2824951,92.0
23592,0.41970932,-0.5098572,0.13124084,-0.7890747,0.2984253,-0.058410645,92.0
23593,1.269349,-0.93214417,-0.35503006,-0.7890747,0.2984253,-0.058410645,92.0
23594,1.269349,-0.93214417,-0.35503006,-0.5936646,0.2262085,0.03079834,92.0
23595,3.2585702,-2.5702515,-0.8195076,-0.5936646,0.2262085,0.03079834,92.0
23596,3.2585702,-2.5702515,-0.8195076,-0.11363526,0.30054933,0.3462158,92.0
23597,2.8562946,-2.2627792,-0.6437912,-0.11363526,0.30054933,0.3462158,92.0
23598,2.8562946,-2.2627792,-0.6437912,-0.1178833,0.37595215,0.4258667,92.0
23599,1.534584,-1.3568192,-0.4667549,-0.1178833,0.37595215,0.4258667,92.0
23600,1.534584,-1.3568192,-0.4667549,-0.23682861,0.34090576,0.56392825,92.0
23601,0.4367004,-0.8862152,-0.3869171,-0.23682861,0.34090576,0.56392825,92.0
23602,0.4367004,-0.8862152,-0.3869171,-0.22939454,0.37382814,0.5957886,92.0
23603,-1.6316333,-0.6336746,-0.13961029,-0.22939454,0.37382814,0.5957886,92.0
23604,-1.6316333,-0.6336746,-0.13961029,0.11469727,0.46409914,0.7688965,92.0
23605,-1.5430142,-0.5601959,0.04229355,0.11469727,0.46409914,0.7688965,92.0
23606,-1.5430142,-0.5601959,0.04229355,0.2814331,0.5533081,0.7890747,92.0
23607,-0.95568824,-0.043701172,0.19298935,0.2814331,0.5533081,0.7890747,92.0
23608,-0.95568824,-0.043701172,0.19298935,0.4322388,0.544812,0.9515625,92.0
23609,-1.0221678,0.1986618,0.2597618,0.4322388,0.544812,0.9515625,92.0
23610,-1.0221678,0.1986618,0.2597618,0.4439209,0.44498292,0.8973999,92.0
23611,-1.849021,0.7864609,0.36541367,0.4439209,0.44498292,0.8973999,92.0
23612,-1.849021,0.7864609,0.36541367,0.5278198,0.32603762,0.7327881,92.0
23613,-2.602642,0.84693146,0.37890244,0.5278198,0.32603762,0.7327881,92.0
23614,-2.602642,0.84693146,0.37890244,0.6595093,0.271875,0.62552494,92.0
23615,-2.4729586,0.30636597,0.14199829,0.6595093,0.271875,0.62552494,92.0
23616,-2.4729586,0.30636597,0.14199829,0.77314454,0.17416993,0.59047854,92.0
23617,-1.6289527,-0.1708374,0.04024887,0.77314454,0.17416993,0.59047854,92.0
23618,-1.6289527,-0.1708374,0.04024887,0.9239502,0.16885987,0.47896728,92.0
23619,-0.5672736,-0.44400787,0.45441437,0.9239502,0.16885987,0.47896728,92.0
23620,-0.5672736,-0.44400787,0.45441437,0.996167,0.118945315,0.5787964,92.0
23621,-0.45707822,-0.408638,0.6044731,0.996167,0.118945315,0.5787964,92.0
23622,-0.45707822,-0.408638,0.6044731,0.96430665,0.115759276,0.62764895,92.0
23623,-0.97707605,-0.15885925,0.32686234,0.96430665,0.115759276,0.62764895,92.0
23624,-0.97707605,-0.15885925,0.32686234,0.65207523,-0.118945315,0.7848267,92.0
23625,-1.2168293,0.07577515,0.04613495,0.65207523,-0.118945315,0.7848267,92.0
23626,-1.2168293,0.07577515,0.04613495,0.540564,-0.13912354,0.7455322,92.0
23627,-1.8862686,1.1175766,-0.28276062,0.540564,-0.13912354,0.7455322,92.0
23628,-1.8862686,1.1175766,-0.28276062,0.540564,-0.13912354,0.7455322,92.0
23629,-1.8862686,1.1175766,-0.28276062,0.3982544,0.07327881,0.5787964,92.0
23630,-1.7195616,1.2064133,-0.011245728,0.3982544,0.07327881,0.5787964,92.0
23631,-1.7195616,1.2064133,-0.011245728,0.44073486,0.1359375,0.49277344,92.0
23632,-1.4773583,0.7566757,0.22608566,0.44073486,0.1359375,0.49277344,92.0
23633,-1.4773583,0.7566757,0.22608566,0.2782471,0.2623169,0.6775635,92.0
23634,-1.1009417,-0.094818115,0.18590927,0.2782471,0.2623169,0.6775635,92.0
23635,-1.1009417,-0.094818115,0.18590927,0.5713623,-0.010620117,0.632959,92.0
23636,-0.8721838,0.42259216,-0.020267487,0.5713623,-0.010620117,0.632959,92.0
23637,-0.8721838,0.42259216,-0.020267487,0.3175415,-0.12956543,0.37595215,92.0
23638,-0.8138237,1.6679611,-0.34710693,0.3175415,-0.12956543,0.37595215,92.0
23639,-0.8138237,1.6679611,-0.34710693,-0.29630128,-0.1539917,0.1444336,92.0
23640,-0.6698942,2.070282,-0.55467606,-0.29630128,-0.1539917,0.1444336,92.0
23641,-0.6698942,2.070282,-0.55467606,-0.7614624,-0.12213135,-0.09664307,92.0
23642,-0.14813471,1.4610977,-0.44993973,-0.7614624,-0.12213135,-0.09664307,92.0
23643,-0.14813471,1.4610977,-0.44993973,-0.74447024,-0.0180542,-0.36427003,92.0
23644,0.63285923,1.040802,-0.1415329,-0.74447024,-0.0180542,-0.36427003,92.0
23645,0.63285923,1.040802,-0.1415329,-0.5384399,-0.10407715,-0.78376466,92.0
23646,1.2807136,1.4672623,-0.2959404,-0.5384399,-0.10407715,-0.78376466,92.0
23647,1.2807136,1.4672623,-0.2959404,-0.7338501,-0.36108398,-1.2213135,92.0
23648,1.7286844,1.9431,-0.84955597,-0.7338501,-0.36108398,-1.2213135,92.0
23649,1.7286844,1.9431,-0.84955597,-1.4114136,-0.45029297,-1.6694825,92.0
23650,2.498231,0.5678253,-0.67980194,-1.4114136,-0.45029297,-1.6694825,92.0
23651,2.498231,0.5678253,-0.67980194,-1.8755127,0.32391357,-1.6439942,92.0
23652,3.2891731,-3.5431137,-0.10309601,-1.8755127,0.32391357,-1.6439942,92.0
23653,3.2891731,-3.5431137,-0.10309601,-1.0237793,0.14337158,-0.27612305,92.0
23654,3.3237092,-5.6506042,-0.15296173,-1.0237793,0.14337158,-0.27612305,92.0
23655,3.3237092,-5.6506042,-0.15296173,-0.008496094,-0.25594482,-0.17629395,92.0
23656,1.9972122,-2.6631012,-0.19820023,-0.008496094,-0.25594482,-0.17629395,92.0
23657,1.9972122,-2.6631012,-0.19820023,0.039294433,-0.4163086,-0.30373535,92.0
23658,-0.19121957,1.4784775,0.09957886,0.039294433,-0.4163086,-0.30373535,92.0
23659,-0.19121957,1.4784775,0.09957886,-0.17416993,-0.6074707,-0.51082766,92.0
23660,-1.6666231,3.6165466,0.121349335,-0.17416993,-0.6074707,-0.51082766,92.0
23661,-1.6666231,3.6165466,0.121349335,-0.8326172,-0.4800293,-0.903772,92.0
23662,-1.7785134,2.699257,-0.44517136,-0.8326172,-0.4800293,-0.903772,92.0
23663,-1.7785134,2.699257,-0.44517136,-1.4931885,-0.18797608,-1.0513916,92.0
23664,-0.97235894,-0.6857376,-1.2624359,-1.4931885,-0.18797608,-1.0513916,92.0
23665,-0.97235894,-0.6857376,-1.2624359,-1.8383423,-0.22408448,-0.5363159,92.0
23666,0.063079596,-2.6175385,-1.6181259,-1.8383423,-0.22408448,-0.5363159,92.0
23667,0.063079596,-2.6175385,-1.6181259,-1.2977784,-0.35789797,-0.7657105,92.0
23668,0.58250713,-1.5542908,-1.616085,-1.2977784,-0.35789797,-0.7657105,92.0
23669,0.58250713,-1.5542908,-1.616085,-0.9802368,-0.45135498,-0.95581055,92.0
23670,0.49189663,-0.27249146,-1.6451416,-0.9802368,-0.45135498,-0.95581055,92.0
23671,0.49189663,-0.27249146,-1.6451416,-1.1682129,-0.4439209,-0.8889038,92.0
23672,0.4132073,-0.32974243,-1.6361465,-1.1682129,-0.4439209,-0.8889038,92.0
23673,0.4132073,-0.32974243,-1.6361465,-1.537793,-0.3812622,-0.7890747,92.0
23674,0.67774606,-0.96772003,-1.6613083,-1.537793,-0.3812622,-0.7890747,92.0
23675,0.67774606,-0.96772003,-1.6613083,-1.3498169,-0.3695801,-0.7763306,92.0
23676,1.1587496,-1.3442383,-1.700798,-1.3498169,-0.3695801,-0.7763306,92.0
23677,1.1587496,-1.3442383,-1.700798,-1.2234375,-0.34833986,-0.7423462,92.0
23678,1.5515482,-1.4878693,-1.7805862,-1.2234375,-0.34833986,-0.7423462,92.0
23679,1.5515482,-1.4878693,-1.7805862,-1.2414917,-0.3812622,-0.48746338,92.0
23680,1.9169711,-1.2175522,-1.842926,-1.2414917,-0.3812622,-0.48746338,92.0
23681,1.9169711,-1.2175522,-1.842926,-0.97280276,-0.39082032,-0.3791382,92.0
23682,2.243245,-0.51101685,-1.2372551,-0.97280276,-0.39082032,-0.3791382,92.0
23683,2.243245,-0.51101685,-1.2372551,-0.6510132,-0.20284425,-0.30373535,92.0
23684,2.9542272,-0.34332275,0.42691803,-0.6510132,-0.20284425,-0.30373535,92.0
23685,2.9542272,-0.34332275,0.42691803,-0.04991455,0.40144044,-0.0637207,92.0
23686,3.6511505,-0.28434753,1.5686569,-0.04991455,0.40144044,-0.0637207,92.0
23687,3.6511505,-0.28434753,1.5686569,-0.1985962,0.3695801,0.121069334,92.0
23688,2.3217626,0.6532974,1.0164986,-0.1985962,0.3695801,0.121069334,92.0
23689,2.3217626,0.6532974,1.0164986,-0.49383545,0.28568116,0.020178223,92.0
23690,-0.7791987,0.99710083,-0.17900085,-0.49383545,0.28568116,0.020178223,92.0
23691,-0.7791987,0.99710083,-0.17900085,-0.46834716,0.20072022,0.06478272,92.0
23692,-2.7383492,0.11756897,-0.9561043,-0.46834716,0.20072022,0.06478272,92.0
23693,-2.7383492,0.11756897,-0.9561043,-0.19328614,0.057348635,0.0722168,92.0
23694,-2.1725032,-0.29193115,-1.0423508,-0.19328614,0.057348635,0.0722168,92.0
23695,-2.1725032,-0.29193115,-1.0423508,-0.13275146,0.1083252,-0.028674318,92.0
23696,-0.5306051,0.11678314,-0.6826973,-0.13275146,0.1083252,-0.028674318,92.0
23697,-0.5306051,0.11678314,-0.6826973,-0.29417726,0.10195313,-0.03079834,92.0
23698,0.3511385,0.39230347,-0.30327225,-0.29417726,0.10195313,-0.03079834,92.0
23699,0.3511385,0.39230347,-0.30327225,-0.23258057,0.05522461,-0.07327881,92.0
23700,0.17567399,0.32955933,-0.2801056,-0.23258057,0.05522461,-0.07327881,92.0
23701,0.17567399,0.32955933,-0.2801056,0.02442627,-0.0063720704,-0.11363526,92.0
23702,-0.27313268,0.20856476,-0.50639725,0.02442627,-0.0063720704,-0.11363526,92.0
23703,-0.27313268,0.20856476,-0.50639725,0.19753419,-0.035046387,-0.11363526,92.0
23704,-0.3642825,0.23789215,-0.563221,0.19753419,-0.035046387,-0.11363526,92.0
23705,-0.3642825,0.23789215,-0.563221,0.28568116,-0.008496094,-0.13168946,92.0
23706,-0.12769306,0.31559753,-0.41168594,0.28568116,-0.008496094,-0.13168946,92.0
23707,-0.12769306,0.31559753,-0.41168594,0.22727051,0.011682129,-0.11363526,92.0
23708,0.12865609,0.39102173,-0.13635635,0.22727051,0.011682129,-0.11363526,92.0
23709,0.12865609,0.39102173,-0.13635635,0.06159668,0.025488282,-0.09664307,92.0
23710,0.21281257,0.41099548,0.058921814,0.06159668,0.025488282,-0.09664307,92.0
23711,0.21281257,0.41099548,0.058921814,-0.016992187,0.015930176,-0.11363526,92.0
23712,0.18459332,0.31869507,0.027557373,-0.016992187,0.015930176,-0.11363526,92.0
23713,0.18459332,0.31869507,0.027557373,-0.0722168,0.040356446,-0.10620117,92.0
23714,0.21012583,0.21156311,-0.12395096,-0.0722168,0.040356446,-0.10620117,92.0
23715,0.21012583,0.21156311,-0.12395096,-0.09451904,0.087084964,-0.1083252,92.0
23716,0.25958017,0.14376831,-0.25281143,-0.09451904,0.087084964,-0.1083252,92.0
23717,0.25958017,0.14376831,-0.25281143,-0.1178833,0.08920898,-0.13168946,92.0
23718,0.29373592,0.07047272,-0.23368454,-0.1178833,0.08920898,-0.13168946,92.0
23719,0.29373592,0.07047272,-0.23368454,-0.08814698,0.09451904,-0.13699952,92.0
23720,0.35306734,0.048332214,-0.122909546,-0.08814698,0.09451904,-0.13699952,92.0
23721,0.35306734,0.048332214,-0.122909546,-0.045666505,0.11151123,-0.14018555,92.0
23722,0.40600124,0.12998962,-0.044361115,-0.045666505,0.11151123,-0.14018555,92.0
23723,0.40600124,0.12998962,-0.044361115,-0.07540283,0.11044922,-0.12531738,92.0
23724,0.38774046,0.20804596,-0.029727936,-0.07540283,0.11044922,-0.12531738,92.0
23725,0.38774046,0.20804596,-0.029727936,-0.08283692,0.08496094,-0.1359375,92.0
23726,0.35103709,0.20161438,-0.030227661,-0.08283692,0.08496094,-0.1359375,92.0
23727,0.35103709,0.20161438,-0.030227661,-0.10513916,0.07752686,-0.11682129,92.0
23728,0.39723593,0.16897583,-0.06290436,-0.10513916,0.07752686,-0.11682129,92.0
23729,0.39723593,0.16897583,-0.06290436,-0.13912354,0.045666505,-0.08283692,92.0
23730,0.4772858,0.10355377,-0.1518631,-0.13912354,0.045666505,-0.08283692,92.0
23731,0.4772858,0.10355377,-0.1518631,-0.12956543,0.027612304,-0.07965088,92.0
23732,0.4571094,0.0014953613,-0.20175171,-0.12956543,0.027612304,-0.07965088,92.0
23733,0.4571094,0.0014953613,-0.20175171,-0.04460449,-0.0010620117,-0.13168946,92.0
23734,0.39182281,-0.08694458,-0.14808273,-0.04460449,-0.0010620117,-0.13168946,92.0
23735,0.39182281,-0.08694458,-0.14808273,0.023364259,-0.009558106,-0.11682129,92.0
23736,0.48884887,-0.083221436,-0.07569122,0.023364259,-0.009558106,-0.11682129,92.0
23737,0.48884887,-0.083221436,-0.07569122,0.10620117,0.0,-0.093457036,92.0
23738,0.48884887,-0.083221436,-0.07569122,0.10620117,0.0,-0.093457036,92.0
23739,0.6715967,-0.1834259,-0.105327606,0.10620117,0.0,-0.093457036,92.0
23740,0.6715967,-0.1834259,-0.105327606,0.11469727,-0.08602295,-0.0541626,92.0
23741,0.7853365,-0.31559753,-0.087314606,0.11469727,-0.08602295,-0.0541626,92.0
23742,0.7853365,-0.31559753,-0.087314606,0.18372802,-0.070092775,-0.087084964,92.0
23743,0.860337,-0.32027435,0.05695343,0.18372802,-0.070092775,-0.087084964,92.0
23744,0.860337,-0.32027435,0.05695343,0.16461182,-0.0063720704,-0.08283692,92.0
23745,0.90988827,-0.36974335,0.15149307,0.16461182,-0.0063720704,-0.08283692,92.0
23746,0.90988827,-0.36974335,0.15149307,0.20390625,0.07327881,-0.035046387,92.0
23747,0.8211479,-0.34332275,0.11128235,0.20390625,0.07327881,-0.035046387,92.0
23748,0.8211479,-0.34332275,0.11128235,0.24851075,0.08071289,0.015930176,92.0
23749,0.3297577,0.033699036,-0.09350586,0.24851075,0.08071289,0.015930176,92.0
23750,0.3297577,0.033699036,-0.09350586,0.15186767,0.08602295,-0.015930176,92.0
23751,-0.5777954,0.5096817,-0.5371475,0.15186767,0.08602295,-0.015930176,92.0
23752,-0.5777954,0.5096817,-0.5371475,-0.019116212,0.15717773,-0.107263185,92.0
23753,-1.2767993,0.48220062,-0.92798615,-0.019116212,0.15717773,-0.107263185,92.0
23754,-1.2767993,0.48220062,-0.92798615,-0.1444336,0.36851808,-0.047790527,92.0
23755,-1.1066934,0.12781525,-0.8228073,-0.1444336,0.36851808,-0.047790527,92.0
23756,-1.1066934,0.12781525,-0.8228073,-0.035046387,0.54375,0.0021240234,92.0
23757,-0.18399978,0.034866333,-0.29745483,-0.035046387,0.54375,0.0021240234,92.0
23758,-0.18399978,0.034866333,-0.29745483,-0.015930176,0.60322267,0.087084964,92.0
23759,0.63359857,0.2195816,0.18642426,-0.015930176,0.60322267,0.087084964,92.0
23760,0.63359857,0.2195816,0.18642426,-0.10301514,0.6488892,0.19434814,92.0
23761,0.54331684,0.35515594,0.32595825,-0.10301514,0.6488892,0.19434814,92.0
23762,0.54331684,0.35515594,0.32595825,-0.07752686,0.6117188,0.18903808,92.0
23763,-0.22072983,0.15414429,0.31860352,-0.07752686,0.6117188,0.18903808,92.0
23764,-0.22072983,0.15414429,0.31860352,0.087084964,0.6159668,0.2177124,92.0
23765,-0.69506526,-0.110321045,0.42024994,0.087084964,0.6159668,0.2177124,92.0
23766,-0.69506526,-0.110321045,0.42024994,0.16779785,0.68287355,0.26550293,92.0
23767,-0.48774165,-0.065338135,0.42007446,0.16779785,0.68287355,0.26550293,92.0
23768,-0.48774165,-0.065338135,0.42007446,-0.046728518,0.7742066,0.42055663,92.0
23769,-0.18499315,0.09328461,0.19587326,-0.046728518,0.7742066,0.42055663,92.0
23770,-0.18499315,0.09328461,0.19587326,-0.1359375,0.8050049,0.5246338,92.0
23771,-0.3823573,0.17243195,0.018943787,-0.1359375,0.8050049,0.5246338,92.0
23772,-0.3823573,0.17243195,0.018943787,0.004248047,0.75296634,0.5384399,92.0
23773,-0.85506797,0.032432556,-0.015460968,0.004248047,0.75296634,0.5384399,92.0
23774,-0.85506797,0.032432556,-0.015460968,0.13062744,0.8007569,0.542688,92.0
23775,-1.0349089,-0.2504425,0.10122681,0.13062744,0.8007569,0.542688,92.0
23776,-1.0349089,-0.2504425,0.10122681,0.16461182,0.90270996,0.5511841,92.0
23777,-0.79850817,-0.39443207,0.26545334,0.16461182,0.90270996,0.5511841,92.0
23778,-0.79850817,-0.39443207,0.26545334,0.11469727,0.99935305,0.5533081,92.0
23779,-0.5384648,-0.40001678,0.33372498,0.11469727,0.99935305,0.5533081,92.0
23780,-0.5384648,-0.40001678,0.33372498,0.14868164,0.9866089,0.5140137,92.0
23781,-0.6710062,-0.27466583,0.37903976,0.14868164,0.9866089,0.5140137,92.0
23782,-0.6710062,-0.27466583,0.37903976,0.1709839,0.9632446,0.3812622,92.0
23783,-1.0094734,-0.08848572,0.5222244,0.1709839,0.9632446,0.3812622,92.0
23784,-1.0094734,-0.08848572,0.5222244,0.05628662,1.0588257,0.31329346,92.0
23785,-0.96757627,-0.29367828,0.76075745,0.05628662,1.0588257,0.31329346,92.0
23786,-0.96757627,-0.29367828,0.76075745,0.053100586,1.1629028,0.32072756,92.0
23787,-0.56727386,-0.90345764,0.9542465,0.053100586,1.1629028,0.32072756,92.0
23788,-0.56727386,-0.90345764,0.9542465,0.1709839,1.1692749,0.3717041,92.0
23789,-0.35359937,-1.280098,0.98137665,0.1709839,1.1692749,0.3717041,92.0
23790,-0.35359937,-1.280098,0.98137665,0.44710693,1.1013062,0.3462158,92.0
23791,-0.5540465,-0.91735077,0.9373131,0.44710693,1.1013062,0.3462158,92.0
23792,-0.5540465,-0.91735077,0.9373131,0.6945557,0.9611206,0.26444092,92.0
23793,-0.8686156,-0.032966614,0.89476013,0.6945557,0.9611206,0.26444092,92.0
23794,-0.8686156,-0.032966614,0.89476013,0.7593384,0.88253176,0.15080567,92.0
23795,-0.9229443,0.5125656,0.84493256,0.7593384,0.88253176,0.15080567,92.0
23796,-0.9229443,0.5125656,0.84493256,0.82836914,0.7975708,0.1083252,92.0
23797,-0.73038435,0.33102417,0.80059433,0.82836914,0.7975708,0.1083252,92.0
23798,-0.73038435,0.33102417,0.80059433,0.95368654,0.7051758,-0.05628662,92.0
23799,-0.5086117,0.1468811,0.75784683,0.95368654,0.7051758,-0.05628662,92.0
23800,-0.5086117,0.1468811,0.75784683,0.90058595,0.60959476,-0.32391357,92.0
23801,-0.41871798,0.5659561,0.7174835,0.90058595,0.60959476,-0.32391357,92.0
23802,-0.41871798,0.5659561,0.7174835,0.61065674,0.46728516,-0.7189819,92.0
23803,-0.47210813,0.35508728,0.8709831,0.61065674,0.46728516,-0.7189819,92.0
23804,-0.47210813,0.35508728,0.8709831,0.45772704,0.40037844,-0.811377,92.0
23805,-0.506495,-0.5008545,1.2890854,0.45772704,0.40037844,-0.811377,92.0
23806,-0.506495,-0.5008545,1.2890854,0.39400634,0.34090576,-1.0492676,92.0
23807,-0.36842847,-0.6147766,1.4222832,0.39400634,0.34090576,-1.0492676,92.0
23808,-0.36842847,-0.6147766,1.4222832,0.11363526,0.37489015,-1.0598878,92.0
23809,0.18412685,-0.023284912,1.0475693,0.11363526,0.37489015,-1.0598878,92.0
23810,0.18412685,-0.023284912,1.0475693,0.13062744,0.4439209,-1.0535157,92.0
23811,0.93002856,0.814209,0.66659546,0.13062744,0.4439209,-1.0535157,92.0
23812,0.93002856,0.814209,0.66659546,0.14549561,0.51082766,-1.1246704,92.0
23813,1.3763471,1.3730774,0.47802734,0.14549561,0.51082766,-1.1246704,92.0
23814,1.3763471,1.3730774,0.47802734,0.047790527,0.51826173,-1.0991821,92.0
23815,1.4573033,1.3833237,0.30036545,0.047790527,0.51826173,-1.0991821,92.0
23816,1.4573033,1.3833237,0.30036545,-0.014868164,0.5033936,-1.0407715,92.0
23817,1.3932474,1.0014191,0.3426094,-0.014868164,0.5033936,-1.0407715,92.0
23818,1.3932474,1.0014191,0.3426094,-0.098767094,0.5777344,-0.9653687,92.0
23819,1.2602767,0.44649506,0.72828674,-0.098767094,0.5777344,-0.9653687,92.0
23820,1.2602767,0.44649506,0.72828674,-0.14549561,0.65207523,-0.85385746,92.0
23821,0.96317744,0.16911316,0.8552475,-0.14549561,0.65207523,-0.85385746,92.0
23822,0.96317744,0.16911316,0.8552475,-0.32922363,0.64782715,-0.7657105,92.0
23823,0.5162451,0.31777954,0.3657303,-0.32922363,0.64782715,-0.7657105,92.0
23824,0.5162451,0.31777954,0.3657303,-0.44923097,0.62340087,-0.74022216,92.0
23825,0.20576951,0.322464,-0.09298706,-0.44923097,0.62340087,-0.74022216,92.0
23826,0.20576951,0.322464,-0.09298706,-0.3695801,0.6881836,-0.725354,92.0
23827,0.18769911,-0.103759766,-0.086509705,-0.3695801,0.6881836,-0.725354,92.0
23828,0.18769911,-0.103759766,-0.086509705,-0.2357666,0.70092773,-0.630835,92.0
23829,0.28288633,-0.39011383,0.15897751,-0.2357666,0.70092773,-0.630835,92.0
23830,0.28288633,-0.39011383,0.15897751,-0.1720459,0.74447024,-0.50020754,92.0
23831,0.33386523,-0.14817047,0.41800308,-0.1720459,0.74447024,-0.50020754,92.0
23832,0.33386523,-0.14817047,0.41800308,-0.121069334,0.815625,-0.3727661,92.0
23833,0.33386523,-0.14817047,0.41800308,-0.121069334,0.815625,-0.3727661,97.0
23834,0.42329335,0.28642273,0.40969467,-0.121069334,0.815625,-0.3727661,97.0
23835,0.42329335,0.28642273,0.40969467,-0.14337158,0.80181885,-0.21027832,97.0
23836,0.52437687,0.70791626,0.10398865,-0.14337158,0.80181885,-0.21027832,97.0
23837,0.52437687,0.70791626,0.10398865,-0.22089843,0.8400513,-0.10301514,97.0
23838,0.4962105,0.81817627,0.039684296,-0.22089843,0.8400513,-0.10301514,97.0
23839,0.4962105,0.81817627,0.039684296,-0.18691407,0.9696167,-0.007434082,97.0
23840,0.3644855,0.29438782,0.24224854,-0.18691407,0.9696167,-0.007434082,97.0
23841,0.3644855,0.29438782,0.24224854,-0.16142578,1.0301514,0.13487549,97.0
23842,0.12559718,-0.16748047,0.18911362,-0.16142578,1.0301514,0.13487549,97.0
23843,0.12559718,-0.16748047,0.18911362,-0.20603028,1.0503296,0.15186767,97.0
23844,-0.18539873,-0.008766174,-0.13076782,-0.20603028,1.0503296,0.15186767,97.0
23845,-0.18539873,-0.008766174,-0.13076782,-0.24213867,1.1459106,0.07115479,97.0
23846,-0.4126256,0.07777405,-0.08778381,-0.24213867,1.1459106,0.07115479,97.0
23847,-0.4126256,0.07777405,-0.08778381,-0.13381349,1.2489258,-0.11044922,97.0
23848,-0.5684672,-0.5187607,0.2617569,-0.13381349,1.2489258,-0.11044922,97.0
23849,-0.5684672,-0.5187607,0.2617569,-0.026550293,1.2383057,-0.32603762,97.0
23850,-0.7506112,-1.3040085,0.53196335,-0.026550293,1.2383057,-0.32603762,97.0
23851,-0.7506112,-1.3040085,0.53196335,0.0031860352,1.3222046,-0.4630371,97.0
23852,-0.8397101,-1.5055008,0.73898315,0.0031860352,1.3222046,-0.4630371,97.0
23853,-0.8397101,-1.5055008,0.73898315,0.027612304,1.363623,-0.49064943,97.0
23854,-0.6526885,-0.92593384,0.6965828,0.027612304,1.363623,-0.49064943,97.0
23855,-0.6526885,-0.92593384,0.6965828,-0.0361084,1.4230957,-0.52038574,97.0
23856,-0.37719232,0.048797607,0.44314194,-0.0361084,1.4230957,-0.52038574,97.0
23857,-0.37719232,0.048797607,0.44314194,0.0361084,1.4273437,-0.5787964,97.0
23858,-0.27430022,0.84410095,0.3500061,0.0361084,1.4273437,-0.5787964,97.0
23859,-0.27430022,0.84410095,0.3500061,0.14655761,1.3869873,-0.70305175,97.0
23860,-0.33364916,1.1456528,0.53183746,0.14655761,1.3869873,-0.70305175,97.0
23861,-0.33364916,1.1456528,0.53183746,0.24107666,1.3423828,-0.8666016,97.0
23862,-0.3882084,0.9835892,0.8018875,0.24107666,1.3423828,-0.8666016,97.0
23863,-0.3882084,0.9835892,0.8018875,0.25700685,1.3222046,-1.0237793,97.0
23864,-0.33354032,0.6778641,1.0182419,0.25700685,1.3222046,-1.0237793,97.0
23865,-0.33354032,0.6778641,1.0182419,0.1444336,1.3806152,-1.1406006,97.0
23866,-0.19905883,0.48595428,1.1494102,0.1444336,1.3806152,-1.1406006,97.0
23867,-0.19905883,0.48595428,1.1494102,0.0031860352,1.4623902,-1.2266235,97.0
23868,-0.042730927,0.3749466,1.1081009,0.0031860352,1.4623902,-1.2266235,97.0
23869,-0.042730927,0.3749466,1.1081009,-0.11044922,1.5016845,-1.2712281,97.0
23870,0.029255211,0.31214142,0.88684464,-0.11044922,1.5016845,-1.2712281,97.0
23871,0.029255211,0.31214142,0.88684464,-0.17416993,1.4942505,-1.2552979,97.0
23872,0.033902228,0.34857178,0.72768784,-0.17416993,1.4942505,-1.2552979,97.0
23873,0.033902228,0.34857178,0.72768784,-0.057348635,1.5186768,-1.2383057,97.0
23874,0.16371846,0.41125488,0.65896606,-0.057348635,1.5186768,-1.2383057,97.0
23875,0.16371846,0.41125488,0.65896606,-0.0010620117,1.6036377,-1.2414917,97.0
23876,0.37249088,0.5862045,0.4055786,-0.0010620117,1.6036377,-1.2414917,97.0
23877,0.37249088,0.5862045,0.4055786,-0.08920898,1.6386842,-1.2457398,97.0
23878,0.36422807,1.1158447,0.08023834,-0.08920898,1.6386842,-1.2457398,97.0
23879,0.36422807,1.1158447,0.08023834,-0.08071289,1.6673584,-1.3816773,97.0
23880,0.052161276,1.6577454,0.058135986,-0.08071289,1.6673584,-1.3816773,97.0
23881,0.052161276,1.6577454,0.058135986,0.022302246,1.7077149,-1.5494751,97.0
23882,-0.18422312,1.559021,0.3558197,0.022302246,1.7077149,-1.5494751,97.0
23883,-0.18422312,1.559021,0.3558197,0.14761963,1.7767457,-1.7066529,97.0
23884,-0.085000575,0.9506836,0.8111572,0.14761963,1.7767457,-1.7066529,97.0
23885,-0.085000575,0.9506836,0.8111572,0.38975832,1.7618774,-1.8532104,97.0
23886,0.048210442,0.48677826,1.303051,0.38975832,1.7618774,-1.8532104,97.0
23887,0.048210442,0.48677826,1.303051,0.6117188,1.6641724,-1.8914429,97.0
23888,-0.13536966,0.5739212,1.7368011,0.6117188,1.6641724,-1.8914429,97.0
23889,-0.13536966,0.5739212,1.7368011,0.7434082,1.540979,-1.8702027,97.0
23890,-0.3711375,1.0635452,2.0041008,0.7434082,1.540979,-1.8702027,97.0
23891,-0.3711375,1.0635452,2.0041008,0.79969484,1.4815063,-1.9742798,97.0
23892,-0.27164143,1.5392151,2.0045013,0.79969484,1.4815063,-1.9742798,97.0
23893,-0.27164143,1.5392151,2.0045013,0.69349366,1.4230957,-2.1197755,97.0
23894,-0.12571162,1.8469238,1.6666374,0.69349366,1.4230957,-2.1197755,97.0
23895,-0.12571162,1.8469238,1.6666374,0.36002198,1.3413209,-2.1197755,97.0
23896,-0.2300371,1.8890839,1.2388992,0.36002198,1.3413209,-2.1197755,97.0
23897,-0.2300371,1.8890839,1.2388992,0.118945315,1.260608,-1.993396,97.0
23898,-0.28769183,1.8314514,1.2961884,0.118945315,1.260608,-1.993396,97.0
23899,-0.28769183,1.8314514,1.2961884,0.25700685,1.1937011,-2.0603027,97.0
23900,0.06984651,1.8033829,1.911293,0.25700685,1.1937011,-2.0603027,97.0
23901,0.06984651,1.8033829,1.911293,0.42905274,1.2903442,-2.267395,97.0
23902,0.6883479,1.4151306,2.4069023,0.42905274,1.2903442,-2.267395,97.0
23903,0.6883479,1.4151306,2.4069023,0.39294434,1.3625611,-2.2089844,97.0
23904,0.93103725,0.9649277,2.0824432,0.39294434,1.3625611,-2.2089844,97.0
23905,0.93103725,0.9649277,2.0824432,0.18372802,1.3222046,-1.9774659,97.0
23906,0.72907054,0.97273254,1.1650391,0.18372802,1.3222046,-1.9774659,97.0
23907,0.72907054,0.97273254,1.1650391,0.15611573,1.2818482,-1.7576294,97.0
23908,0.5538497,1.1986542,0.59503174,0.15611573,1.2818482,-1.7576294,97.0
23909,0.5538497,1.1986542,0.59503174,0.39082032,1.1533448,-1.5717773,97.0
23910,0.36743277,1.3706665,0.70154953,0.39082032,1.1533448,-1.5717773,97.0
23911,0.36743277,1.3706665,0.70154953,0.58304447,0.994043,-1.454956,97.0
23912,0.018311456,1.4455948,1.026886,0.58304447,0.994043,-1.454956,97.0
23913,0.018311456,1.4455948,1.026886,0.6467652,1.0630738,-1.3997315,97.0
23914,-0.20936206,1.3910828,1.0890274,0.6467652,1.0630738,-1.3997315,97.0
23915,-0.20936206,1.3910828,1.0890274,0.6881836,1.1182984,-1.3678712,97.0
23916,-0.28144228,1.2280273,0.84365845,0.6881836,1.1182984,-1.3678712,97.0
23917,-0.28144228,1.2280273,0.84365845,0.69986576,1.0651978,-1.2871583,97.0
23918,-0.51804936,1.2582626,0.5117073,0.69986576,1.0651978,-1.2871583,97.0
23919,-0.51804936,1.2582626,0.5117073,0.6903076,0.97280276,-1.2552979,97.0
23920,-0.80795753,1.5694504,0.34519196,0.6903076,0.97280276,-1.2552979,97.0
23921,-0.80795753,1.5694504,0.34519196,0.5777344,0.9483765,-1.265918,97.0
23922,-0.89549935,1.6723709,0.44908142,0.5777344,0.9483765,-1.265918,97.0
23923,-0.89549935,1.6723709,0.44908142,0.36639404,0.87615967,-1.2414917,97.0
23924,-0.9874444,1.312912,0.6600113,0.36639404,0.87615967,-1.2414917,97.0
23925,-0.9874444,1.312912,0.6600113,0.13699952,0.8251831,-1.1565307,97.0
23926,-1.1635151,1.0264511,0.72036743,0.13699952,0.8251831,-1.1565307,97.0
23927,-1.1635151,1.0264511,0.72036743,0.032922365,0.84111327,-1.1087402,97.0
23928,-1.1228166,1.1353683,0.5519867,0.032922365,0.84111327,-1.1087402,97.0
23929,-1.1228166,1.1353683,0.5519867,0.04141846,0.903772,-1.0609497,97.0
23930,-0.6812978,1.1954803,0.39553452,0.04141846,0.903772,-1.0609497,97.0
23931,-0.6812978,1.1954803,0.39553452,0.16567384,0.90270996,-0.9674927,97.0
23932,-0.045550942,0.9126053,0.3905983,0.16567384,0.90270996,-0.9674927,97.0
23933,-0.045550942,0.9126053,0.3905983,0.24320069,0.8708496,-0.8666016,97.0
23934,0.43893766,0.39133453,0.56352615,0.24320069,0.8708496,-0.8666016,97.0
23935,0.43893766,0.39133453,0.56352615,0.059472658,0.84536135,-0.631897,97.0
23936,0.52691925,-0.27522278,0.94638824,0.059472658,0.84536135,-0.631897,97.0
23937,0.52691925,-0.27522278,0.94638824,-0.1178833,0.99085695,-0.362146,97.0
23938,0.14018774,-0.729393,1.1969414,-0.1178833,0.99085695,-0.362146,97.0
23939,0.14018774,-0.729393,1.1969414,-0.1901001,1.0089111,-0.093457036,97.0
23940,-0.55181456,-0.55197144,0.89878845,-0.1901001,1.0089111,-0.093457036,97.0
23941,-0.55181456,-0.55197144,0.89878845,-0.6595093,1.0567017,0.10195313,97.0
23942,-1.2414882,0.03541565,0.2699356,-0.6595093,1.0567017,0.10195313,97.0
23943,-1.2414882,0.03541565,0.2699356,-1.1554688,1.1395386,0.18266602,97.0
23944,-2.0743551,0.39572906,-0.4543152,-1.1554688,1.1395386,0.18266602,97.0
23945,-2.0743551,0.39572906,-0.4543152,-1.5144287,0.90270996,0.26762697,97.0
23946,-3.1917229,-0.0158844,-1.4515266,-1.5144287,0.90270996,0.26762697,97.0
23947,-3.1917229,-0.0158844,-1.4515266,-1.4039795,0.5787964,0.4354248,97.0
23948,-4.082077,-0.9639969,-2.1918373,-1.4039795,0.5787964,0.4354248,97.0
23949,-4.082077,-0.9639969,-2.1918373,-1.1363525,0.27718505,0.6053467,97.0
23950,-4.2804933,-1.7896423,-1.9063377,-1.1363525,0.27718505,0.6053467,97.0
23951,-4.2804933,-1.7896423,-1.9063377,-1.1565307,0.17841797,1.0163453,97.0
23952,-3.9659963,-1.9086456,-0.8890114,-1.1565307,0.17841797,1.0163453,97.0
23953,-3.9659963,-1.9086456,-0.8890114,-1.4315919,0.05628662,1.5123047,97.0
23954,-3.6270452,-1.019577,0.036605835,-1.4315919,0.05628662,1.5123047,97.0
23955,-3.6270452,-1.019577,0.036605835,-1.5877075,-0.03717041,1.7841797,97.0
23956,-3.6270452,-1.019577,0.036605835,-1.5877075,-0.03717041,1.7841797,100.0
23957,-3.1954231,0.21474457,0.3126564,-1.5877075,-0.03717041,1.7841797,100.0
23958,-3.1954231,0.21474457,0.3126564,-1.2977784,-0.121069334,1.8362182,100.0
23959,-2.271329,1.0002594,0.12479401,-1.2977784,-0.121069334,1.8362182,100.0
23960,-2.271329,1.0002594,0.12479401,-0.7147339,-0.270813,1.7841797,100.0
23961,-0.9968357,1.4398727,-0.13420105,-0.7147339,-0.270813,1.7841797,100.0
23962,-0.9968357,1.4398727,-0.13420105,-0.2262085,-0.5872925,1.6142578,100.0
23963,0.07416248,2.037796,-0.4109764,-0.2262085,-0.5872925,1.6142578,100.0
23964,0.07416248,2.037796,-0.4109764,0.0637207,-0.8581055,1.2276856,100.0
23965,0.62262344,2.3469086,-0.2075882,0.0637207,-0.8581055,1.2276856,100.0
23966,0.62262344,2.3469086,-0.2075882,0.2527588,-0.8517334,0.6903076,100.0
23967,1.031827,1.5438843,0.7325249,0.2527588,-0.8517334,0.6903076,100.0
23968,1.031827,1.5438843,0.7325249,0.3971924,-0.70305175,0.16354981,100.0
23969,1.5093365,0.07293701,1.4291687,0.3971924,-0.70305175,0.16354981,100.0
23970,1.5093365,0.07293701,1.4291687,0.9781128,-0.6796875,-0.42692873,100.0
23971,2.0503893,-0.89980316,1.1633301,0.9781128,-0.6796875,-0.42692873,100.0
23972,2.0503893,-0.89980316,1.1633301,1.1682129,-0.79332274,-0.8230591,100.0
23973,2.4781046,-0.87763214,0.41374588,1.1682129,-0.79332274,-0.8230591,100.0
23974,2.4781046,-0.87763214,0.41374588,1.0397094,-0.8071289,-1.1321045,100.0
23975,2.6098642,-0.5434799,0.20995331,1.0397094,-0.8071289,-1.1321045,100.0
23976,2.6098642,-0.5434799,0.20995331,0.90058595,-0.6053467,-1.4772583,100.0
23977,2.7866707,-0.6219406,0.8944893,0.90058595,-0.6053467,-1.4772583,100.0
23978,2.7866707,-0.6219406,0.8944893,0.63933104,-0.29630128,-1.6662964,100.0
23979,2.864273,-0.40001678,1.3833389,0.63933104,-0.29630128,-1.6662964,100.0
23980,2.864273,-0.40001678,1.3833389,0.72004396,0.0010620117,-2.179248,100.0
23981,2.9492798,0.5975876,1.202877,0.72004396,0.0010620117,-2.179248,100.0
23982,2.9492798,0.5975876,1.202877,0.2824951,0.26550293,-2.3852785,100.0
23983,3.0900025,1.5601883,1.0638771,0.2824951,0.26550293,-2.3852785,100.0
23984,3.0900025,1.5601883,1.0638771,0.010620117,0.6117188,-2.6900756,100.0
23985,2.9332936,2.064766,1.0674973,0.010620117,0.6117188,-2.6900756,100.0
23986,2.9332936,2.064766,1.0674973,-0.078588866,0.89421386,-3.0670898,100.0
23987,2.5490887,2.2879105,0.92414093,-0.078588866,0.89421386,-3.0670898,100.0
23988,2.5490887,2.2879105,0.92414093,-0.045666505,1.0482056,-3.4579103,100.0
23989,1.9068003,1.902031,0.47488403,-0.045666505,1.0482056,-3.4579103,100.0
23990,1.9068003,1.902031,0.47488403,0.41099855,1.0694458,-3.6777465,100.0
23991,0.81079185,-1.040329,-1.5919952,0.41099855,1.0694458,-3.6777465,100.0
23992,0.81079185,-1.040329,-1.5919952,0.94412845,0.28461915,-3.0108032,100.0
23993,0.55225897,-5.531189,-2.7544174,0.94412845,0.28461915,-3.0108032,100.0
23994,0.55225897,-5.531189,-2.7544174,1.6482422,-0.55968016,-1.4135376,100.0
23995,1.340025,-5.1227875,0.9026909,1.6482422,-0.55968016,-1.4135376,100.0
23996,1.340025,-5.1227875,0.9026909,1.26698,0.20390625,-1.545227,100.0
23997,1.1394638,-0.42163086,4.0045776,1.26698,0.20390625,-1.545227,100.0
23998,1.1394638,-0.42163086,4.0045776,-0.078588866,0.7880127,-1.3275146,100.0
23999,-0.35584843,2.9437103,2.1437836,-0.078588866,0.7880127,-1.3275146,100.0
24000,-0.35584843,2.9437103,2.1437836,-0.61702883,0.7880127,-1.2404298,100.0
24001,-1.8987534,3.9362183,-0.86242676,-0.61702883,0.7880127,-1.2404298,100.0
24002,-1.8987534,3.9362183,-0.86242676,-0.38869628,0.73597413,-1.4804443,100.0
24003,-2.5136805,2.8771133,-1.806076,-0.38869628,0.73597413,-1.4804443,100.0
24004,-2.5136805,2.8771133,-1.806076,0.40250245,0.6159668,-1.5664673,100.0
24005,-2.128193,0.8061981,-0.903759,0.40250245,0.6159668,-1.5664673,100.0
24006,-2.128193,0.8061981,-0.903759,0.8400513,0.52038574,-1.5770874,100.0
24007,-1.4616852,-0.20246887,0.24253082,0.8400513,0.52038574,-1.5770874,100.0
24008,-1.4616852,-0.20246887,0.24253082,0.6403931,0.59897465,-1.5823975,100.0
24009,-1.1471069,0.09776306,0.51216507,0.6403931,0.59897465,-1.5823975,100.0
24010,-1.1471069,0.09776306,0.51216507,0.12000733,0.6552612,-1.5643433,100.0
24011,-1.3008642,0.06994629,0.038173676,0.12000733,0.6552612,-1.5643433,100.0
24012,-1.3008642,0.06994629,0.038173676,-0.093457036,0.6467652,-1.3328247,100.0
24013,-1.6267385,-0.784256,-0.4818039,-0.093457036,0.6467652,-1.3328247,100.0
24014,-1.6267385,-0.784256,-0.4818039,-0.093457036,0.57242435,-1.0726318,100.0
24015,-1.8710566,-1.2360458,-0.62919617,-0.093457036,0.57242435,-1.0726318,100.0
24016,-1.8710566,-1.2360458,-0.62919617,-0.20390625,0.52888185,-0.7688965,100.0
24017,-2.0389228,-0.6332092,-0.4688835,-0.20390625,0.52888185,-0.7688965,100.0
24018,-2.0389228,-0.6332092,-0.4688835,-0.54693604,0.5320679,-0.49171144,100.0
24019,-2.2889628,0.45851898,-0.17077255,-0.54693604,0.5320679,-0.49171144,100.0
24020,-2.2889628,0.45851898,-0.17077255,-0.77314454,0.6425171,-0.32816163,100.0
24021,-2.547491,1.4477844,0.20373535,-0.77314454,0.6425171,-0.32816163,100.0
24022,-2.547491,1.4477844,0.20373535,-0.7072998,0.74659425,-0.34833986,100.0
24023,-2.486772,2.1860275,0.44151688,-0.7072998,0.74659425,-0.34833986,100.0
24024,-2.486772,2.1860275,0.44151688,-0.36745605,0.7763306,-0.49171144,100.0
24025,-1.8654308,2.7994843,0.15758514,-0.36745605,0.7763306,-0.49171144,100.0
24026,-1.8654308,2.7994843,0.15758514,0.0010620117,0.66588134,-0.76464844,100.0
24027,-0.8516221,3.239235,-0.46298218,0.0010620117,0.66588134,-0.76464844,100.0
24028,-0.8516221,3.239235,-0.46298218,0.0541626,0.5543701,-1.1278565,100.0
24029,0.16558933,3.1398392,-0.8112793,0.0541626,0.5543701,-1.1278565,100.0
24030,0.16558933,3.1398392,-0.8112793,-0.07646485,0.48746338,-1.4804443,100.0
24031,0.92551374,2.354538,-0.8481331,-0.07646485,0.48746338,-1.4804443,100.0
24032,0.92551374,2.354538,-0.8481331,-0.07115479,0.28780517,-1.7799317,100.0
24033,1.4980164,1.517067,-0.61492157,-0.07115479,0.28780517,-1.7799317,100.0
24034,1.4980164,1.517067,-0.61492157,-0.15186767,0.18797608,-2.085791,100.0
24035,2.0826173,0.8050308,0.14244843,-0.15186767,0.18797608,-2.085791,100.0
24036,2.0826173,0.8050308,0.14244843,-0.032922365,0.43861085,-2.2886353,100.0
24037,2.6920338,-0.27598572,1.0187912,-0.032922365,0.43861085,-2.2886353,100.0
24038,2.6920338,-0.27598572,1.0187912,0.2527588,0.37382814,-2.160132,100.0
24039,3.0966935,-1.3412628,1.4627533,0.2527588,0.37382814,-2.160132,100.0
24040,3.0966935,-1.3412628,1.4627533,0.31010744,0.33878174,-1.9477295,100.0
24041,3.0644765,-1.3654785,1.4752312,0.31010744,0.33878174,-1.9477295,100.0
24042,3.0644765,-1.3654785,1.4752312,0.31010744,0.33878174,-1.9477295,99.0
24043,3.0644765,-1.3654785,1.4752312,0.17735596,0.3525879,-1.7438233,99.0
24044,2.088422,-0.36376953,1.2291832,0.17735596,0.3525879,-1.7438233,99.0
24045,2.088422,-0.36376953,1.2291832,-0.1731079,0.33240968,-1.5091187,99.0
24046,0.08296919,0.16898346,0.80911636,-0.1731079,0.33240968,-1.5091187,99.0
24047,0.08296919,0.16898346,0.80911636,-0.36108398,0.13275146,-1.1544068,99.0
24048,-2.0338688,-0.2841034,0.33127594,-0.36108398,0.13275146,-1.1544068,99.0
24049,-2.0338688,-0.2841034,0.33127594,0.040356446,-0.026550293,-0.9197022,99.0
24050,-2.9271193,-0.6706772,0.0051078796,0.040356446,-0.026550293,-0.9197022,99.0
24051,-2.9271193,-0.6706772,0.0051078796,0.51188964,-0.039294433,-0.82836914,99.0
24052,-2.2455163,-0.4844513,-0.16686249,0.51188964,-0.039294433,-0.82836914,99.0
24053,-2.2455163,-0.4844513,-0.16686249,0.6244629,-0.020178223,-0.7508423,99.0
24054,-0.96429634,-0.13323975,-0.3715515,0.6244629,-0.020178223,-0.7508423,99.0
24055,-0.96429634,-0.13323975,-0.3715515,0.5501221,-0.1274414,-0.6754395,99.0
24056,-0.11858082,0.119895935,-0.5720711,0.5501221,-0.1274414,-0.6754395,99.0
24057,-0.11858082,0.119895935,-0.5720711,0.3993164,-0.17416993,-0.6637573,99.0
24058,0.12165165,0.22805786,-0.5368805,0.3993164,-0.17416993,-0.6637573,99.0
24059,0.12165165,0.22805786,-0.5368805,0.24532472,-0.115759276,-0.68074954,99.0
24060,0.12672806,0.0881958,-0.38171387,0.24532472,-0.115759276,-0.68074954,99.0
24061,0.12672806,0.0881958,-0.38171387,0.22196046,-0.078588866,-0.64570314,99.0
24062,0.18706322,-0.011779785,-0.37438965,0.22196046,-0.078588866,-0.64570314,99.0
24063,0.18706322,-0.011779785,-0.37438965,0.14018555,-0.10301514,-0.58410645,99.0
24064,0.25371552,0.371109,-0.38243484,0.14018555,-0.10301514,-0.58410645,99.0
24065,0.25371552,0.371109,-0.38243484,0.15080567,-0.124255374,-0.62552494,99.0
24066,0.1394105,0.72678375,-0.28051758,0.15080567,-0.124255374,-0.62552494,99.0
24067,0.1394105,0.72678375,-0.28051758,0.098767094,-0.11469727,-0.6180908,99.0
24068,0.041887283,0.4994812,-0.22026062,0.098767094,-0.11469727,-0.6180908,99.0
24069,0.041887283,0.4994812,-0.22026062,0.14230958,-0.046728518,-0.50445557,99.0
24070,0.13471842,0.22995758,-0.123752594,0.14230958,-0.046728518,-0.50445557,99.0
24071,0.13471842,0.22995758,-0.123752594,0.1901001,-0.06478272,-0.40144044,99.0
24072,0.17187405,0.3792038,-0.070804596,0.1901001,-0.06478272,-0.40144044,99.0
24073,0.17187405,0.3792038,-0.070804596,0.2262085,-0.078588866,-0.39294434,99.0
24074,0.13316536,0.57953644,-0.13612366,0.2262085,-0.078588866,-0.39294434,99.0
24075,0.13316536,0.57953644,-0.13612366,0.17947999,-0.012744141,-0.31010744,99.0
24076,0.092567444,0.42344666,-0.065979004,0.17947999,-0.012744141,-0.31010744,99.0
24077,0.092567444,0.42344666,-0.065979004,0.19434814,-0.023364259,-0.1996582,99.0
24078,0.08225727,0.23941803,0.09124756,0.19434814,-0.023364259,-0.1996582,99.0
24079,0.08225727,0.23941803,0.09124756,0.29205322,-0.033984374,-0.1178833,99.0
24080,0.1989479,0.38716125,0.1262207,0.29205322,-0.033984374,-0.1178833,99.0
24081,0.1989479,0.38716125,0.1262207,0.32603762,-0.060534667,-0.16036378,99.0
24082,0.2368927,0.47794342,0.08522797,0.32603762,-0.060534667,-0.16036378,99.0
24083,0.2368927,0.47794342,0.08522797,0.17416993,-0.007434082,-0.17523193,99.0
24084,0.02962637,0.24662018,0.07687378,0.17416993,-0.007434082,-0.17523193,99.0
24085,0.02962637,0.24662018,0.07687378,-0.02442627,0.07752686,-0.124255374,99.0
24086,-0.22520018,-0.059684753,0.13674545,-0.02442627,0.07752686,-0.124255374,99.0
24087,-0.22520018,-0.059684753,0.13674545,-0.008496094,0.07646485,-0.07115479,99.0
24088,-0.30010653,-0.07241821,0.063682556,-0.008496094,0.07646485,-0.07115479,99.0
24089,-0.30010653,-0.07241821,0.063682556,0.053100586,0.0541626,-0.14124756,99.0
24090,-0.10315895,0.26784515,-0.17903519,0.053100586,0.0541626,-0.14124756,99.0
24091,-0.10315895,0.26784515,-0.17903519,0.007434082,0.12319336,-0.21452637,99.0
24092,0.1910448,0.5211334,-0.14910126,0.007434082,0.12319336,-0.21452637,99.0
24093,0.1910448,0.5211334,-0.14910126,-0.08602295,0.12956543,-0.21558838,99.0
24094,0.104337215,0.38970947,0.2561226,-0.08602295,0.12956543,-0.21558838,99.0
24095,0.104337215,0.38970947,0.2561226,-0.15611573,0.06690674,-0.12850343,99.0
24096,-0.26851988,0.16861725,0.51488495,-0.15611573,0.06690674,-0.12850343,99.0
24097,-0.26851988,0.16861725,0.51488495,-0.0361084,0.08283692,-0.118945315,99.0
24098,-0.33127117,0.09617615,0.25841522,-0.0361084,0.08283692,-0.118945315,99.0
24099,-0.33127117,0.09617615,0.25841522,-0.06265869,0.046728518,-0.07752686,99.0
24100,0.008872032,0.080444336,-0.18506622,-0.06265869,0.046728518,-0.07752686,99.0
24101,0.008872032,0.080444336,-0.18506622,-0.07434082,0.09770508,0.015930176,99.0
24102,0.2558403,-0.030197144,-0.26826477,-0.07434082,0.09770508,0.015930176,99.0
24103,0.2558403,-0.030197144,-0.26826477,-0.04141846,0.1083252,0.06796875,99.0
24104,0.14006042,-0.19185638,-0.08724594,-0.04141846,0.1083252,0.06796875,99.0
24105,0.14006042,-0.19185638,-0.08724594,-0.021240234,0.13806152,0.1529297,99.0
24106,0.010168552,-0.19265747,-0.011753082,-0.021240234,0.13806152,0.1529297,99.0
24107,0.010168552,-0.19265747,-0.011753082,-0.02442627,0.13487549,0.1709839,99.0
24108,-0.51616955,0.13625336,0.25234222,-0.02442627,0.13487549,0.1709839,99.0
24109,-0.51616955,0.13625336,0.25234222,0.045666505,0.009558106,0.10407715,99.0
24110,-0.643209,0.28004456,0.25549698,0.045666505,0.009558106,0.10407715,99.0
24111,-0.643209,0.28004456,0.25549698,0.09133301,-0.0031860352,0.07752686,99.0
24112,-0.7850261,0.4112091,0.09176254,0.09133301,-0.0031860352,0.07752686,99.0
24113,-0.7850261,0.4112091,0.09176254,0.15080567,0.13168946,0.09664307,99.0
24114,-0.52764225,0.17914581,0.002620697,0.15080567,0.13168946,0.09664307,99.0
24115,-0.52764225,0.17914581,0.002620697,0.13168946,0.14124756,0.16779785,99.0
24116,0.48141384,-0.51571655,-1.1544456,0.13168946,0.14124756,0.16779785,99.0
24117,0.48141384,-0.51571655,-1.1544456,0.4322388,0.270813,0.23151855,99.0
24118,1.0448966,-0.21955872,-1.5459328,0.4322388,0.270813,0.23151855,99.0
24119,1.0448966,-0.21955872,-1.5459328,0.5214478,0.10407715,0.20921631,99.0
24120,1.8884931,0.055747986,-0.43790436,0.5214478,0.10407715,0.20921631,99.0
24121,1.8884931,0.055747986,-0.43790436,0.13806152,0.0053100586,0.4322388,99.0
24122,1.0923743,-0.0065231323,-0.11634064,0.13806152,0.0053100586,0.4322388,99.0
24123,1.0923743,-0.0065231323,-0.11634064,0.18479005,0.09770508,0.40356445,99.0
24124,-0.32556343,-0.07118225,1.1473961,0.18479005,0.09770508,0.40356445,99.0
24125,-0.32556343,-0.07118225,1.1473961,-0.43011475,0.29417726,0.8952759,99.0
24126,-0.5036149,-0.009529114,1.3538551,-0.43011475,0.29417726,0.8952759,99.0
24127,-0.5036149,-0.009529114,1.3538551,-0.4354248,0.39082032,1.0482056,99.0
24128,-0.483788,0.19390106,1.1663857,-0.4354248,0.39082032,1.0482056,99.0
24129,-0.483788,0.19390106,1.1663857,-0.31329346,0.4619751,1.6046997,99.0
24130,-0.31500912,0.13911438,0.82138824,-0.31329346,0.4619751,1.6046997,99.0
24131,-0.31500912,0.13911438,0.82138824,-0.22727051,0.33984375,1.6333741,99.0
24132,-0.88942194,-0.053901672,0.1890564,-0.22727051,0.33984375,1.6333741,99.0
24133,-0.88942194,-0.053901672,0.1890564,0.11363526,0.16248779,1.4400879,99.0
24134,-1.0488667,-0.19178009,-0.07358551,0.11363526,0.16248779,1.4400879,99.0
24135,-1.0488667,-0.19178009,-0.07358551,0.22514649,0.1359375,1.4039795,99.0
24136,-1.29842,-0.4006424,-0.40803528,0.22514649,0.1359375,1.4039795,99.0
24137,-1.29842,-0.4006424,-0.40803528,0.46622315,0.06159668,1.4528321,99.0
24138,-1.0491486,-0.026519775,-0.5089264,0.46622315,0.06159668,1.4528321,99.0
24139,-1.0491486,-0.026519775,-0.5089264,0.7784546,-0.05522461,1.270166,99.0
24140,-0.7180176,0.64991,-0.32344818,0.7784546,-0.05522461,1.270166,99.0
24141,-0.7180176,0.64991,-0.32344818,1.1108643,-0.1731079,1.176709,99.0
24142,-0.61149883,1.122467,-0.02614212,1.1108643,-0.1731079,1.176709,99.0
24143,-0.61149883,1.122467,-0.02614212,1.4018555,-0.2538208,0.99510497,99.0
24144,-0.4858179,1.4209366,0.054405212,1.4018555,-0.2538208,0.99510497,99.0
24145,-0.4858179,1.4209366,0.054405212,1.2924683,-0.24001466,0.8708496,99.0
24146,-0.4858179,1.4209366,0.054405212,1.2924683,-0.24001466,0.8708496,98.0
24147,-0.17014837,1.6389847,-0.13142395,1.2924683,-0.24001466,0.8708496,98.0
24148,-0.17014837,1.6389847,-0.13142395,0.9239502,-0.1996582,0.68712157,98.0
24149,0.07542896,1.770256,-0.4321289,0.9239502,-0.1996582,0.68712157,98.0
24150,0.07542896,1.770256,-0.4321289,0.57242435,-0.1709839,0.5055176,98.0
24151,0.11587334,1.6171951,-0.64653015,0.57242435,-0.1709839,0.5055176,98.0
24152,0.11587334,1.6171951,-0.64653015,0.39506838,-0.16248779,0.35895997,98.0
24153,0.19850922,1.3652115,-0.58304596,0.39506838,-0.16248779,0.35895997,98.0
24154,0.19850922,1.3652115,-0.58304596,0.3462158,-0.14974366,0.16354981,98.0
24155,0.36785316,1.1945953,-0.24959183,0.3462158,-0.14974366,0.16354981,98.0
24156,0.36785316,1.1945953,-0.24959183,0.1444336,-0.118945315,0.0031860352,98.0
24157,0.43513966,0.91023254,0.1791954,0.1444336,-0.118945315,0.0031860352,98.0
24158,0.43513966,0.91023254,0.1791954,-0.20496826,-0.0031860352,-0.12850343,98.0
24159,0.34989357,0.6111069,0.568882,-0.20496826,-0.0031860352,-0.12850343,98.0
24160,0.34989357,0.6111069,0.568882,-0.6690674,0.19222413,-0.36851808,98.0
24161,0.17248106,0.3580017,0.64388657,-0.6690674,0.19222413,-0.36851808,98.0
24162,0.17248106,0.3580017,0.64388657,-1.1448487,0.40250245,-0.55968016,98.0
24163,-0.10983038,-0.58974457,0.47940445,-1.1448487,0.40250245,-0.55968016,98.0
24164,-0.10983038,-0.58974457,0.47940445,-1.3466309,0.6701294,-0.5968506,98.0
24165,-0.36023998,-2.4445953,0.4938736,-1.3466309,0.6701294,-0.5968506,98.0
24166,-0.36023998,-2.4445953,0.4938736,-0.9600586,0.70092773,-0.28780517,98.0
24167,-0.44540644,-3.858986,0.5642166,-0.9600586,0.70092773,-0.28780517,98.0
24168,-0.44540644,-3.858986,0.5642166,-0.48533937,0.48215333,0.007434082,98.0
24169,-0.4293108,-3.5271912,0.2768364,-0.48533937,0.48215333,0.007434082,98.0
24170,-0.4293108,-3.5271912,0.2768364,-0.5161377,0.3430298,0.14549561,98.0
24171,-0.58531904,-1.8145599,-0.55857086,-0.5161377,0.3430298,0.14549561,98.0
24172,-0.58531904,-1.8145599,-0.55857086,-0.6924316,0.18372802,0.12531738,98.0
24173,-0.8461361,-0.27240753,-1.1686478,-0.6924316,0.18372802,0.12531738,98.0
24174,-0.8461361,-0.27240753,-1.1686478,-0.5649902,0.057348635,0.16248779,98.0
24175,-0.7879071,0.38737488,-0.42242813,-0.5649902,0.057348635,0.16248779,98.0
24176,-0.7879071,0.38737488,-0.42242813,-0.16567384,-0.07327881,0.13806152,98.0
24177,-0.48978615,0.64979553,0.5328369,-0.16567384,-0.07327881,0.13806152,98.0
24178,-0.48978615,0.64979553,0.5328369,0.14655761,-0.32922363,0.025488282,98.0
24179,-0.325984,0.52549744,0.19324875,0.14655761,-0.32922363,0.025488282,98.0
24180,-0.325984,0.52549744,0.19324875,0.48746338,-0.7126099,0.098767094,98.0
24181,-0.22974443,0.009262085,-0.1396637,0.48746338,-0.7126099,0.098767094,98.0
24182,-0.22974443,0.009262085,-0.1396637,0.88253176,-0.79013675,0.27612305,98.0
24183,0.10066509,0.12787628,-0.119506836,0.88253176,-0.79013675,0.27612305,98.0
24184,0.10066509,0.12787628,-0.119506836,1.0184692,-0.92501223,0.16036378,98.0
24185,0.5235615,0.92858124,-0.71780014,1.0184692,-0.92501223,0.16036378,98.0
24186,0.5235615,0.92858124,-0.71780014,0.99722904,-1.0545777,0.2357666,98.0
24187,0.677907,1.1141052,-1.5577393,0.99722904,-1.0545777,0.2357666,98.0
24188,0.677907,1.1141052,-1.5577393,1.2903442,-1.3434448,0.16885987,98.0
24189,0.73149824,0.54945374,-1.8663101,1.2903442,-1.3434448,0.16885987,98.0
24190,0.73149824,0.54945374,-1.8663101,1.9317993,-1.4528321,0.053100586,98.0
24191,1.1430969,0.5233154,-1.2618484,1.9317993,-1.4528321,0.053100586,98.0
24192,1.1430969,0.5233154,-1.2618484,2.3183715,-1.4687623,-0.046728518,98.0
24193,1.714673,1.4095383,-0.5591965,2.3183715,-1.4687623,-0.046728518,98.0
24194,1.714673,1.4095383,-0.5591965,2.241907,-1.5749635,-0.022302246,98.0
24195,2.2202005,2.141983,-0.14436722,2.241907,-1.5749635,-0.022302246,98.0
24196,2.2202005,2.141983,-0.14436722,2.2185426,-1.4114136,-0.07540283,98.0
24197,3.079969,2.1262817,1.8579712,2.2185426,-1.4114136,-0.07540283,98.0
24198,3.079969,2.1262817,1.8579712,2.2302246,-0.41206056,-0.012744141,98.0
24199,3.5076032,3.2653198,3.2592888,2.2302246,-0.41206056,-0.012744141,98.0
24200,3.5076032,3.2653198,3.2592888,0.41949463,-0.5628662,-0.40993652,98.0
24201,3.0547643,4.6270905,1.1718979,0.41949463,-0.5628662,-0.40993652,98.0
24202,3.0547643,4.6270905,1.1718979,-0.93563235,0.22196046,-0.4970215,98.0
24203,2.5926762,3.1786995,-1.4491882,-0.93563235,0.22196046,-0.4970215,98.0
24204,2.5926762,3.1786995,-1.4491882,-1.4570801,0.33240968,-0.22939454,98.0
24205,2.0065506,0.7194748,-2.256153,-1.4570801,0.33240968,-0.22939454,98.0
24206,2.0065506,0.7194748,-2.256153,-1.3243287,0.37489015,-0.07434082,98.0
24207,1.3452917,-0.38186646,-1.548893,-1.3243287,0.37489015,-0.07434082,98.0
24208,1.3452917,-0.38186646,-1.548893,-1.5303589,0.4364868,0.14655761,98.0
24209,0.4598515,-0.67375183,-0.56481934,-1.5303589,0.4364868,0.14655761,98.0
24210,0.4598515,-0.67375183,-0.56481934,-1.724707,0.4619751,0.5479981,98.0
24211,-0.40957236,-1.2596092,0.22088623,-1.724707,0.4619751,0.5479981,98.0
24212,-0.40957236,-1.2596092,0.22088623,-1.264856,0.40462646,0.5766724,98.0
24213,-0.7756071,-2.1220016,0.6012192,-1.264856,0.40462646,0.5766724,98.0
24214,-0.7756071,-2.1220016,0.6012192,-1.3838013,0.50020754,0.6977417,98.0
24215,-1.1690941,-2.6257782,0.3398285,-1.3838013,0.50020754,0.6977417,98.0
24216,-1.1690941,-2.6257782,0.3398285,-1.1533448,0.25700685,0.81668705,98.0
24217,-1.6370087,-2.7506943,0.10888672,-1.1533448,0.25700685,0.81668705,98.0
24218,-1.6370087,-2.7506943,0.10888672,-0.87403566,0.26868898,0.81668705,98.0
24219,-1.5021973,-2.6609192,0.11779785,-0.87403566,0.26868898,0.81668705,98.0
24220,-1.5021973,-2.6609192,0.11779785,-0.6956177,0.32285157,0.7434082,98.0
24221,-0.85148907,-2.321083,0.2843628,-0.6956177,0.32285157,0.7434082,98.0
24222,-0.85148907,-2.321083,0.2843628,-0.7051758,0.35789797,0.81243896,98.0
24223,-0.2890892,-1.9009094,0.526207,-0.7051758,0.35789797,0.81243896,98.0
24224,-0.2890892,-1.9009094,0.526207,-0.8772217,0.4322388,0.7476563,98.0
24225,-0.15110779,-1.5632324,0.57447815,-0.8772217,0.4322388,0.7476563,98.0
24226,-0.15110779,-1.5632324,0.57447815,-1.0938721,0.52250975,0.8071289,98.0
24227,-0.2707398,-1.5122528,0.55130386,-1.0938721,0.52250975,0.8071289,98.0
24228,-0.2707398,-1.5122528,0.55130386,-1.2276856,0.61065674,0.8867798,98.0
24229,-0.4570217,-1.5390854,0.48239136,-1.2276856,0.61065674,0.8867798,98.0
24230,-0.4570217,-1.5390854,0.48239136,-1.2776002,0.5809204,0.9674927,98.0
24231,-0.58674765,-1.4616547,0.20838547,-1.2776002,0.5809204,0.9674927,98.0
24232,-0.58674765,-1.4616547,0.20838547,-1.3105224,0.542688,0.9791748,98.0
24233,-0.50437117,-1.4986191,-0.005214691,-1.3105224,0.542688,0.9791748,98.0
24234,-0.50437117,-1.4986191,-0.005214691,-1.2786621,0.4980835,0.9324463,98.0
24235,-0.57192945,-1.6408768,0.04473114,-1.2786621,0.4980835,0.9324463,98.0
24236,-0.57192945,-1.6408768,0.04473114,-1.3126465,0.33771974,0.90270996,98.0
24237,-1.0064328,-1.6879196,0.04524231,-1.3126465,0.33771974,0.90270996,98.0
24238,-1.0064328,-1.6879196,0.04524231,-1.2956543,0.3717041,0.8485474,98.0
24239,-1.1745553,-1.7141953,-0.015575409,-1.2956543,0.3717041,0.8485474,98.0
24240,-1.1745553,-1.7141953,-0.015575409,-1.1862671,0.4258667,0.96643066,98.0
24241,-0.71571827,-1.6892624,-0.08485031,-1.1862671,0.4258667,0.96643066,98.0
24242,-0.71571827,-1.6892624,-0.08485031,-1.0184692,0.40037844,1.075818,98.0
24243,-0.24247217,-1.2760773,0.061782837,-1.0184692,0.40037844,1.075818,98.0
24244,-0.24247217,-1.2760773,0.061782837,-1.0057251,0.2782471,1.0864381,98.0
24245,-0.37180948,-0.91722107,0.47776031,-1.0057251,0.2782471,1.0864381,98.0
24246,-0.37180948,-0.91722107,0.47776031,-1.2043213,0.36427003,1.1575928,98.0
24247,-0.37180948,-0.91722107,0.47776031,-1.2043213,0.36427003,1.1575928,99.0
24248,-0.65015745,-1.1751099,0.54722214,-1.2043213,0.36427003,1.1575928,99.0
24249,-0.65015745,-1.1751099,0.54722214,-1.2584839,0.39188233,1.3413209,99.0
24250,-0.5290127,-1.5640869,-0.054618835,-1.2584839,0.39188233,1.3413209,99.0
24251,-0.5290127,-1.5640869,-0.054618835,-1.1108643,0.21558838,1.544165,99.0
24252,-0.0354414,-1.6018677,-1.5179977,-1.1108643,0.21558838,1.544165,99.0
24253,-0.0354414,-1.6018677,-1.5179977,-0.63826907,-0.07115479,1.63125,99.0
24254,0.9222207,-1.5962753,-1.9842377,-0.63826907,-0.07115479,1.63125,99.0
24255,0.9222207,-1.5962753,-1.9842377,0.15505372,-0.10513916,2.1049073,99.0
24256,2.0144,-1.5638275,-0.42074966,0.15505372,-0.10513916,2.1049073,99.0
24257,2.0144,-1.5638275,-0.42074966,0.2442627,-0.4619751,2.619983,99.0
24258,2.3038418,-0.8222885,1.1832123,0.2442627,-0.4619751,2.619983,99.0
24259,2.3038418,-0.8222885,1.1832123,0.045666505,-0.7657105,2.633789,99.0
24260,1.8222728,0.36494446,2.0337906,0.045666505,-0.7657105,2.633789,99.0
24261,1.8222728,0.36494446,2.0337906,-0.28780517,-0.98236084,2.5828125,99.0
24262,0.96577716,1.4132538,2.579605,-0.28780517,-0.98236084,2.5828125,99.0
24263,0.96577716,1.4132538,2.579605,-0.7349121,-0.97280276,2.3098755,99.0
24264,-0.17028618,1.5130005,2.8342056,-0.7349121,-0.97280276,2.3098755,99.0
24265,-0.17028618,1.5130005,2.8342056,-1.2276856,-0.94625247,2.1941164,99.0
24266,-1.2321517,1.0619888,2.4825363,-1.2276856,-0.94625247,2.1941164,99.0
24267,-1.2321517,1.0619888,2.4825363,-1.4666382,-0.9568726,1.814978,99.0
24268,-1.8645668,1.2976608,1.6025848,-1.4666382,-0.9568726,1.814978,99.0
24269,-1.8645668,1.2976608,1.6025848,-1.7066529,-1.0736939,1.2945923,99.0
24270,-2.3695831,0.7498703,0.33620453,-1.7066529,-1.0736939,1.2945923,99.0
24271,-2.3695831,0.7498703,0.33620453,-1.8627685,-1.0237793,1.2298096,99.0
24272,-2.905786,-0.87631226,-1.046524,-1.8627685,-1.0237793,1.2298096,99.0
24273,-2.905786,-0.87631226,-1.046524,-1.2000732,-1.1459106,1.1374146,99.0
24274,-3.1834912,-0.8479233,-1.4123802,-1.2000732,-1.1459106,1.1374146,99.0
24275,-3.1834912,-0.8479233,-1.4123802,-0.14549561,-1.0768799,0.44710693,99.0
24276,-3.1827674,1.1195602,-0.5828934,-0.14549561,-1.0768799,0.44710693,99.0
24277,-3.1827674,1.1195602,-0.5828934,0.4258667,-0.9228882,-0.32178956,99.0
24278,-3.1161966,2.261467,-0.04434204,0.4258667,-0.9228882,-0.32178956,99.0
24279,-3.1161966,2.261467,-0.04434204,0.51188964,-0.68074954,-0.6860596,99.0
24280,-3.1098518,1.3355789,-0.3445282,0.51188964,-0.68074954,-0.6860596,99.0
24281,-3.1098518,1.3355789,-0.3445282,0.67437744,-0.77314454,-0.79226077,99.0
24282,-3.2244663,0.044258118,-0.90125656,0.67437744,-0.77314454,-0.79226077,99.0
24283,-3.2244663,0.044258118,-0.90125656,0.6775635,-0.8050049,-0.95368654,99.0
24284,-3.3363237,-0.7939911,-1.2048035,0.6775635,-0.8050049,-0.95368654,99.0
24285,-3.3363237,-0.7939911,-1.2048035,0.37489015,-0.5915405,-0.8262451,99.0
24286,-3.1445599,-1.956604,-1.3994026,0.37489015,-0.5915405,-0.8262451,99.0
24287,-3.1445599,-1.956604,-1.3994026,0.16354981,-0.3419678,-0.33878174,99.0
24288,-2.4080791,-3.1574326,-1.6294708,0.16354981,-0.3419678,-0.33878174,99.0
24289,-2.4080791,-3.1574326,-1.6294708,0.20709229,-0.2177124,0.23895264,99.0
24290,-1.4024153,-3.91716,-1.6113396,0.20709229,-0.2177124,0.23895264,99.0
24291,-1.4024153,-3.91716,-1.6113396,0.5214478,-0.18372802,0.72960204,99.0
24292,-0.39334297,-4.201378,-1.3934288,0.5214478,-0.18372802,0.72960204,99.0
24293,-0.39334297,-4.201378,-1.3934288,0.8878418,-0.2814331,1.3423828,99.0
24294,0.6803322,-3.5247498,-1.4991417,0.8878418,-0.2814331,1.3423828,99.0
24295,0.6803322,-3.5247498,-1.4991417,1.0726318,-0.5872925,1.7724975,99.0
24296,1.6053505,-2.143814,-1.9714584,1.0726318,-0.5872925,1.7724975,99.0
24297,1.6053505,-2.143814,-1.9714584,0.9897949,-0.99085695,2.1866822,99.0
24298,2.2409086,-1.0678864,-2.3034363,0.9897949,-0.99085695,2.1866822,99.0
24299,2.2409086,-1.0678864,-2.3034363,1.0184692,-1.3848633,2.348108,99.0
24300,2.8027,-0.7876587,-2.005127,1.0184692,-1.3848633,2.348108,99.0
24301,2.8027,-0.7876587,-2.005127,1.1352905,-1.63125,2.275891,99.0
24302,3.410471,-1.0771103,-1.1951408,1.1352905,-1.63125,2.275891,99.0
24303,3.410471,-1.0771103,-1.1951408,1.2053833,-1.8213501,2.2227905,99.0
24304,4.169075,-0.97882843,-0.40221786,1.2053833,-1.8213501,2.2227905,99.0
24305,4.169075,-0.97882843,-0.40221786,1.0683838,-1.9148072,2.0549927,99.0
24306,5.018414,-0.15502167,0.10570526,1.0683838,-1.9148072,2.0549927,99.0
24307,5.018414,-0.15502167,0.10570526,0.6223389,-1.893567,1.7820557,99.0
24308,5.5036716,0.5810013,0.0749321,0.6223389,-1.893567,1.7820557,99.0
24309,5.5036716,0.5810013,0.0749321,0.3451538,-1.9424194,1.6864747,99.0
24310,5.475435,0.69218445,0.18561554,0.3451538,-1.9424194,1.6864747,99.0
24311,5.475435,0.69218445,0.18561554,0.1720459,-1.8319702,1.4804443,99.0
24312,4.7767954,-0.3475952,1.4801445,0.1720459,-1.8319702,1.4804443,99.0
24313,4.7767954,-0.3475952,1.4801445,0.21346436,-1.26698,1.6524903,99.0
24314,3.4416392,-1.2932281,2.1864967,0.21346436,-1.26698,1.6524903,99.0
24315,3.4416392,-1.2932281,2.1864967,0.5713623,-1.1522827,1.4315919,99.0
24316,2.092911,-0.32569885,1.0749283,0.5713623,-1.1522827,1.4315919,99.0
24317,2.092911,-0.32569885,1.0749283,0.09770508,-0.86341554,1.3986695,99.0
24318,1.205115,1.1684418,-0.4754219,0.09770508,-0.86341554,1.3986695,99.0
24319,1.205115,1.1684418,-0.4754219,-0.75615233,-0.68712157,1.721521,99.0
24320,0.6529714,1.3549271,-1.4963036,-0.75615233,-0.68712157,1.721521,99.0
24321,0.6529714,1.3549271,-1.4963036,-1.0981201,-0.75296634,1.7905518,99.0
24322,0.20099038,0.6852951,-1.8015862,-1.0981201,-0.75296634,1.7905518,99.0
24323,0.20099038,0.6852951,-1.8015862,-0.9834229,-0.9388184,1.5781494,99.0
24324,-0.17564571,-0.16777039,-1.6040993,-0.9834229,-0.9388184,1.5781494,99.0
24325,-0.17564571,-0.16777039,-1.6040993,-0.88996583,-1.084314,1.7820557,99.0
24326,-0.27264547,-0.6021347,-1.2154312,-0.88996583,-1.084314,1.7820557,99.0
24327,-0.27264547,-0.6021347,-1.2154312,-0.5979126,-1.265918,1.8946289,99.0
24328,-0.035377145,-0.11139679,-0.617157,-0.5979126,-1.265918,1.8946289,99.0
24329,-0.035377145,-0.11139679,-0.617157,-0.107263185,-1.442212,1.814978,99.0
24330,0.24584383,0.6268158,0.2651596,-0.107263185,-1.442212,1.814978,99.0
24331,0.24584383,0.6268158,0.2651596,0.10089111,-1.4262818,1.6471802,99.0
24332,0.21471703,0.72019196,0.91576385,0.10089111,-1.4262818,1.6471802,99.0
24333,0.21471703,0.72019196,0.91576385,0.016992187,-1.3827393,1.5664673,99.0
24334,-0.03408575,0.02092743,0.8713913,0.016992187,-1.3827393,1.5664673,99.0
24335,-0.03408575,0.02092743,0.8713913,-0.25700685,-1.2234375,1.5016845,99.0
24336,-0.11838186,-1.0530319,0.18891144,-0.25700685,-1.2234375,1.5016845,99.0
24337,-0.11838186,-1.0530319,0.18891144,-0.5533081,-1.0343994,1.5813354,99.0
24338,0.12503326,-1.8243637,-0.7681694,-0.5533081,-1.0343994,1.5813354,99.0
24339,0.12503326,-1.8243637,-0.7681694,-0.6117188,-1.0864381,1.6450561,99.0
24340,0.47883523,-2.0495834,-1.3596802,-0.6117188,-1.0864381,1.6450561,99.0
24341,0.47883523,-2.0495834,-1.3596802,-0.42161867,-1.2510499,1.634436,99.0
24342,0.62907654,-1.9524765,-1.243885,-0.42161867,-1.2510499,1.634436,99.0
24343,0.62907654,-1.9524765,-1.243885,-0.17735596,-1.3073364,1.628064,99.0
24344,0.5059712,-1.6842728,-0.79382706,-0.17735596,-1.3073364,1.628064,99.0
24345,0.5059712,-1.6842728,-0.79382706,-0.15611573,-1.2489258,1.6832886,99.0
24346,0.36171058,-1.1925735,-0.6464653,-0.15611573,-1.2489258,1.6832886,99.0
24347,0.36171058,-1.1925735,-0.6464653,-0.28461915,-1.1894531,1.7024049,99.0
24348,0.39318925,-0.6721115,-0.9192467,-0.28461915,-1.1894531,1.7024049,99.0
24349,0.39318925,-0.6721115,-0.9192467,-0.44604492,-1.1554688,1.5112427,99.0
24350,0.4295905,-0.7177429,-1.1643524,-0.44604492,-1.1554688,1.5112427,99.0
24351,0.4295905,-0.7177429,-1.1643524,-0.58198243,-1.0715698,1.4390259,99.0
24352,0.21221487,-1.3636627,-1.2554817,-0.58198243,-1.0715698,1.4390259,99.0
24353,0.21221487,-1.3636627,-1.2554817,-0.5692383,-1.1512207,1.4379638,99.0
24354,-0.1387364,-1.905899,-1.169838,-0.5692383,-1.1512207,1.4379638,99.0
24355,-0.1387364,-1.905899,-1.169838,-0.3727661,-1.2744141,1.3360108,99.0
24356,-0.29742712,-1.8531647,-0.76592255,-0.3727661,-1.2744141,1.3360108,99.0
24357,-0.29742712,-1.8531647,-0.76592255,-0.3079834,-1.359375,1.2552979,99.0
24358,-0.2928123,-1.0926361,-0.34806824,-0.3079834,-1.359375,1.2552979,99.0
24359,-0.2928123,-1.0926361,-0.34806824,-0.43967286,-1.3370727,1.1947632,99.0
24360,-0.27347106,-0.10154724,-0.42778397,-0.43967286,-1.3370727,1.1947632,99.0
24361,-0.27347106,-0.10154724,-0.42778397,-0.5851685,-1.2945923,1.1650269,99.0
24362,-0.08628172,0.24635315,-0.9558258,-0.5851685,-1.2945923,1.1650269,99.0
24363,-0.08628172,0.24635315,-0.9558258,-0.6074707,-1.2457398,1.173523,99.0
24364,0.29836965,-0.2714386,-1.4012451,-0.6074707,-1.2457398,1.173523,99.0
24365,0.29836965,-0.2714386,-1.4012451,-0.4980835,-1.2032593,1.1533448,99.0
24366,0.49837592,-1.0997086,-1.6825676,-0.4980835,-1.2032593,1.1533448,99.0
24367,0.49837592,-1.0997086,-1.6825676,-0.3717041,-1.2850342,1.1098022,99.0
