,accx,accy,accz,gyrox,gyroy,gyroz,heart rate
22955,open,open,open,open,open,open,open
22956,0.81416464,-3.042282,-6.7291603,-0.16354981,-0.098767094,-0.038232423,160.0
22957,0.63537693,-2.4587631,-5.395672,-0.16354981,-0.098767094,-0.038232423,160.0
22958,0.63537693,-2.4587631,-5.395672,-0.16885987,0.039294433,0.1083252,160.0
22959,0.48940516,-1.9927216,-4.3282585,-0.16885987,0.039294433,0.1083252,160.0
22960,0.48940516,-1.9927216,-4.3282585,-0.1731079,0.059472658,0.11469727,160.0
22961,-0.38013124,0.17503357,3.57156,-0.1731079,0.059472658,0.11469727,160.0
22962,-0.38013124,0.17503357,3.57156,-0.17947999,0.098767094,0.13806152,160.0
22963,-0.36185646,0.105033875,2.8706512,-0.17947999,0.098767094,0.13806152,160.0
22964,-0.36185646,0.105033875,2.8706512,-0.17735596,0.11044922,0.13912354,160.0
22965,-0.37836456,0.0012283325,2.5010529,-0.17735596,0.11044922,0.13912354,160.0
22966,-0.37836456,0.0012283325,2.5010529,-0.16036378,0.15611573,0.13912354,160.0
22967,-0.34819937,-0.031303406,2.072815,-0.16036378,0.15611573,0.13912354,160.0
22968,-0.34819937,-0.031303406,2.072815,-0.15611573,0.1709839,0.13806152,160.0
22969,-0.34987307,-0.041030884,1.8207283,-0.15611573,0.1709839,0.13806152,160.0
22970,-0.34987307,-0.041030884,1.8207283,-0.17416993,0.18160401,0.15611573,160.0
22971,-0.3176794,-0.05995941,1.4738464,-0.17416993,0.18160401,0.15611573,160.0
22972,-0.3176794,-0.05995941,1.4738464,-0.16885987,0.18160401,0.16354981,160.0
22973,-0.3176794,-0.05995941,1.4738464,-0.13275146,0.18691407,0.19222413,160.0
22974,-0.2638359,-0.114997864,1.252636,-0.13275146,0.18691407,0.19222413,160.0
22975,-0.24411345,-0.13788605,1.034996,-0.13275146,0.18691407,0.19222413,160.0
22976,-0.24411345,-0.13788605,1.034996,-0.124255374,0.18691407,0.18585205,160.0
22977,-0.2780547,-0.18832397,0.9008255,-0.124255374,0.18691407,0.18585205,160.0
22978,-0.2780547,-0.18832397,0.9008255,-0.08814698,0.1731079,0.20284425,160.0
22979,-0.28076887,-0.1927948,0.717083,-0.08814698,0.1731079,0.20284425,160.0
22980,-0.28076887,-0.1927948,0.717083,-0.090270996,0.16461182,0.19434814,160.0
22981,-0.28076887,-0.1927948,0.717083,-0.070092775,0.16248779,0.18372802,160.0
22982,-0.25109196,-0.19725037,0.5794754,-0.070092775,0.16248779,0.18372802,160.0
22983,-0.23526096,-0.124069214,0.48127747,-0.070092775,0.16248779,0.18372802,160.0
22984,-0.23526096,-0.124069214,0.48127747,-0.098767094,0.1529297,0.19647217,160.0
22985,-0.27744198,-0.044456482,0.34851074,-0.098767094,0.1529297,0.19647217,160.0
22986,-0.27744198,-0.044456482,0.34851074,-0.17629395,0.1444336,0.2177124,160.0
22987,-0.3657403,-0.07347107,0.12706375,-0.17629395,0.1444336,0.2177124,160.0
22988,-0.3657403,-0.07347107,0.12706375,-0.21027832,0.13275146,0.23895264,160.0
22989,-0.39889097,-0.1891861,-0.07038498,-0.21027832,0.13275146,0.23895264,160.0
22990,-0.39889097,-0.1891861,-0.07038498,-0.17523193,0.12000733,0.26019287,160.0
22991,-0.2776699,-0.26720428,-0.09408951,-0.17523193,0.12000733,0.26019287,160.0
22992,-0.2776699,-0.26720428,-0.09408951,-0.107263185,0.14655761,0.28355715,160.0
22993,-0.14303446,-0.20570374,0.046409607,-0.107263185,0.14655761,0.28355715,160.0
22994,-0.14303446,-0.20570374,0.046409607,-0.09451904,0.16992188,0.3090454,160.0
22995,-0.18307972,-0.113204956,0.10509491,-0.09451904,0.16992188,0.3090454,160.0
22996,-0.18307972,-0.113204956,0.10509491,-0.16992188,0.18160401,0.3451538,160.0
22997,-0.3831339,-0.114601135,-0.025886536,-0.16992188,0.18160401,0.3451538,160.0
22998,-0.3831339,-0.114601135,-0.025886536,-0.23364258,0.18372802,0.3802002,160.0
22999,-0.3831339,-0.114601135,-0.025886536,-0.22514649,0.18160401,0.39506838,160.0
23000,-0.5608163,-0.2352066,-0.19665146,-0.22514649,0.18160401,0.39506838,160.0
23001,-0.51138496,-0.3321762,-0.23028183,-0.22514649,0.18160401,0.39506838,160.0
23002,-0.51138496,-0.3321762,-0.23028183,-0.1985962,0.2177124,0.40037844,160.0
23003,-0.3791027,-0.2328186,-0.18093109,-0.1985962,0.2177124,0.40037844,160.0
23004,-0.3791027,-0.2328186,-0.18093109,-0.24957275,0.2527588,0.452417,160.0
23005,-0.4045272,-0.022415161,-0.2617607,-0.24957275,0.2527588,0.452417,160.0
23006,-0.4045272,-0.022415161,-0.2617607,-0.3727661,0.2782471,0.5341919,160.0
23007,-0.58558464,0.18623352,-0.6257057,-0.3727661,0.2782471,0.5341919,160.0
23008,-0.58558464,0.18623352,-0.6257057,-0.56180423,0.32391357,0.66481936,160.0
23009,-0.8097887,0.40425873,-1.1514053,-0.56180423,0.32391357,0.66481936,160.0
23010,-0.8097887,0.40425873,-1.1514053,-0.85385746,0.39294434,0.8612915,160.0
23011,-1.0550332,0.52015686,-1.6705856,-0.85385746,0.39294434,0.8612915,160.0
23012,-1.0550332,0.52015686,-1.6705856,-1.171399,0.4619751,1.1267945,160.0
23013,-1.3095174,0.50775146,-2.0819168,-1.171399,0.4619751,1.1267945,160.0
23014,-1.3095174,0.50775146,-2.0819168,-1.62594,0.55543214,1.4772583,160.0
23015,-1.5888615,0.34849548,-2.4609833,-1.62594,0.55543214,1.4772583,160.0
23016,-1.5888615,0.34849548,-2.4609833,-2.3013794,0.6573853,1.9041871,160.0
23017,-1.8183184,0.034828186,-2.714489,-2.3013794,0.6573853,1.9041871,160.0
23018,-1.8183184,0.034828186,-2.714489,-3.2932985,0.76464844,2.3353639,160.0
23019,-1.9444866,-0.50727844,-2.793686,-3.2932985,0.76464844,2.3353639,160.0
23020,-1.9444866,-0.50727844,-2.793686,-4.70896,0.78164065,2.8015869,160.0
23021,-1.9798813,-1.6701431,-2.618187,-4.70896,0.78164065,2.8015869,160.0
23022,-1.9798813,-1.6701431,-2.618187,-5.8219485,0.75296634,3.0331056,160.0
23023,-1.9835024,-3.3817062,-2.1628494,-5.8219485,0.75296634,3.0331056,160.0
23024,-1.9835024,-3.3817062,-2.1628494,-6.2191405,0.6945557,2.88761,160.0
23025,-1.9835024,-3.3817062,-2.1628494,-6.7554564,0.544812,2.9343383,160.0
23026,-2.0832129,-4.937912,-1.6945267,-6.7554564,0.544812,2.9343383,160.0
23027,-2.2988214,-5.7808685,-1.7480164,-6.7554564,0.544812,2.9343383,160.0
23028,-2.2988214,-5.7808685,-1.7480164,-7.2567263,0.2803711,2.812207,160.0
23029,-2.2499208,-5.6365128,-2.6341324,-7.2567263,0.2803711,2.812207,160.0
23030,-2.2499208,-5.6365128,-2.6341324,-8.078723,0.0180542,2.7484863,160.0
23031,-1.7771463,-5.540825,-3.776497,-8.078723,0.0180542,2.7484863,160.0
23032,-1.7771463,-5.540825,-3.776497,-7.4531984,-0.33240968,2.151636,160.0
23033,-1.7594004,-5.7843094,-4.740032,-7.4531984,-0.33240968,2.151636,160.0
23034,-1.7594004,-5.7843094,-4.740032,-7.604004,-0.5161377,2.8153932,160.0
23035,-1.9378061,-6.1792526,-5.0095673,-7.604004,-0.5161377,2.8153932,160.0
23036,-1.9378061,-6.1792526,-5.0095673,-5.0997806,-0.8581055,1.4868164,160.0
23037,-1.8855238,-5.064972,-5.1505623,-5.0997806,-0.8581055,1.4868164,160.0
23038,-1.8855238,-5.064972,-5.1505623,-4.974463,-0.8846558,1.6652344,160.0
23039,-1.639986,-2.7431793,-5.5345383,-4.974463,-0.8846558,1.6652344,160.0
23040,-1.639986,-2.7431793,-5.5345383,-4.4700074,-0.84323734,1.2160034,160.0
23041,-1.3492937,-1.2282715,-5.7598343,-4.4700074,-0.84323734,1.2160034,160.0
23042,-1.3492937,-1.2282715,-5.7598343,-3.3761353,-0.77314454,0.7189819,160.0
23043,-1.3705482,-0.34957886,-5.498726,-3.3761353,-0.77314454,0.7189819,160.0
23044,-1.3705482,-0.34957886,-5.498726,-2.8525636,-0.72641605,0.61915284,160.0
23045,-1.542386,0.15929413,-4.7844696,-2.8525636,-0.72641605,0.61915284,160.0
23046,-1.542386,0.15929413,-4.7844696,-2.2737672,-0.5798584,0.39082032,160.0
23047,-1.4614716,0.6973419,-3.9690933,-2.2737672,-0.5798584,0.39082032,160.0
23048,-1.4614716,0.6973419,-3.9690933,-2.1973023,-0.48746338,0.2782471,160.0
23049,-1.1482916,1.3239899,-3.3123703,-2.1973023,-0.48746338,0.2782471,160.0
23050,-1.1482916,1.3239899,-3.3123703,-2.1505737,-0.46516114,0.07752686,160.0
23051,-0.9220514,1.9897461,-2.8115768,-2.1505737,-0.46516114,0.07752686,160.0
23052,-0.9220514,1.9897461,-2.8115768,-2.5552003,-0.4800293,-0.028674318,160.0
23053,-1.0176945,2.5624008,-2.2554512,-2.5552003,-0.4800293,-0.028674318,160.0
23054,-1.0176945,2.5624008,-2.2554512,-2.893982,-0.57454836,-0.06690674,160.0
23055,-1.2738724,2.6371841,-1.8303871,-2.893982,-0.57454836,-0.06690674,160.0
23056,-1.2738724,2.6371841,-1.8303871,-3.1456788,-0.6223389,-0.095581055,160.0
23057,-1.3579159,2.4013672,-1.9678612,-3.1456788,-0.6223389,-0.095581055,160.0
23058,-1.3579159,2.4013672,-1.9678612,-3.2295778,-0.62127686,-0.12956543,160.0
23059,-1.3050346,2.2482147,-2.5742874,-3.2295778,-0.62127686,-0.12956543,160.0
23060,-1.3050346,2.2482147,-2.5742874,-3.1626709,-0.6287109,-0.093457036,160.0
23061,-1.4651451,2.1724854,-2.9418259,-3.1626709,-0.6287109,-0.093457036,160.0
23062,-1.4651451,2.1724854,-2.9418259,-2.7676027,-0.67437744,0.0,160.0
23063,-1.8156338,1.8499146,-2.8225899,-2.7676027,-0.67437744,0.0,160.0
23064,-1.8156338,1.8499146,-2.8225899,-2.1176515,-0.632959,0.06796875,160.0
23065,-1.9930954,1.6687012,-2.4768944,-2.1176515,-0.632959,0.06796875,160.0
23066,-1.9930954,1.6687012,-2.4768944,-1.539917,-0.5533081,0.2166504,160.0
23067,-1.8551216,2.2029037,-2.218441,-1.539917,-0.5533081,0.2166504,160.0
23068,-1.8551216,2.2029037,-2.218441,-0.9632446,-0.47578126,0.45029297,160.0
23069,-1.5324974,2.4704666,-2.7207603,-0.9632446,-0.47578126,0.45029297,160.0
23070,-1.5324974,2.4704666,-2.7207603,0.11682129,-0.26868898,0.5522461,160.0
23071,-1.0773773,1.8087845,-3.7924042,0.11682129,-0.26868898,0.5522461,160.0
23072,-1.0773773,1.8087845,-3.7924042,1.0662597,0.15611573,0.5533081,160.0
23073,-0.83198166,0.11135864,-2.9378777,1.0662597,0.15611573,0.5533081,160.0
23074,-0.83198166,0.11135864,-2.9378777,1.3986695,0.30267334,0.48321533,160.0
23075,-1.3918304,-2.359352,-0.6949692,1.3986695,0.30267334,0.48321533,160.0
23076,-1.3918304,-2.359352,-0.6949692,1.0397094,0.5766724,-0.25806886,160.0
23077,-1.9081917,-2.6745071,-0.20594025,1.0397094,0.5766724,-0.25806886,160.0
23078,-1.9081917,-2.6745071,-0.20594025,0.18479005,0.5936646,-0.06159668,160.0
23079,-1.0671158,-1.0055008,-0.81890106,0.18479005,0.5936646,-0.06159668,160.0
23080,-1.0671158,-1.0055008,-0.81890106,0.86766356,0.6403931,-0.2548828,160.0
23081,0.81741333,0.89219666,-0.35588837,0.86766356,0.6403931,-0.2548828,160.0
23082,0.81741333,0.89219666,-0.35588837,1.7714356,0.55968016,0.1901001,160.0
23083,2.5329838,2.433609,0.9833317,1.7714356,0.55968016,0.1901001,160.0
23084,2.5329838,2.433609,0.9833317,2.7527344,0.59047854,0.38551027,160.0
23085,3.0248604,2.1128387,1.9257889,2.7527344,0.59047854,0.38551027,160.0
23086,3.0248604,2.1128387,1.9257889,3.511011,0.5299439,0.5065796,160.0
23087,2.4509544,0.7077408,2.265789,3.511011,0.5299439,0.5065796,160.0
23088,2.4509544,0.7077408,2.265789,3.6607544,0.5150757,0.65419924,160.0
23089,1.7092628,-0.78069305,2.312973,3.6607544,0.5150757,0.65419924,160.0
23090,1.7092628,-0.78069305,2.312973,3.443042,0.44073486,0.69136965,160.0
23091,0.7005024,-2.1873093,1.83181,3.443042,0.44073486,0.69136965,160.0
23092,0.7005024,-2.1873093,1.83181,3.2412598,0.4800293,0.452417,160.0
23093,-0.60936165,-2.5971985,1.1846619,3.2412598,0.4800293,0.452417,160.0
23094,-0.60936165,-2.5971985,1.1846619,3.4589722,0.5787964,0.52250975,160.0
23095,-1.3033829,-2.031334,1.3785057,3.4589722,0.5787964,0.52250975,160.0
23096,-1.3033829,-2.031334,1.3785057,2.985315,0.6435791,0.45135498,160.0
23097,-1.0945129,-1.8219528,2.5787315,2.985315,0.6435791,0.45135498,160.0
23098,-1.0945129,-1.8219528,2.5787315,2.714502,0.60109866,0.24744873,160.0
23099,-0.38533974,-2.0508728,3.9575272,2.714502,0.60109866,0.24744873,160.0
23100,-0.38533974,-2.0508728,3.9575272,1.9530395,0.47365722,0.17841797,160.0
23101,0.32079315,-2.121292,4.2984543,1.9530395,0.47365722,0.17841797,160.0
23102,0.32079315,-2.121292,4.2984543,1.5027466,0.29099122,0.12531738,160.0
23103,0.83054733,-1.5740356,3.2654953,1.5027466,0.29099122,0.12531738,160.0
23104,0.83054733,-1.5740356,3.2654953,1.5611572,0.15930176,0.15186767,160.0
23105,0.7869606,-0.57419586,1.3714066,1.5611572,0.15930176,0.15186767,160.0
23106,0.7869606,-0.57419586,1.3714066,1.4793824,0.29311523,0.027612304,160.0
23107,0.14587593,-0.21535492,0.651165,1.4793824,0.29311523,0.027612304,160.0
23108,0.14587593,-0.21535492,0.651165,0.89102787,0.33665773,-0.0998291,160.0
23109,-0.153368,-0.3393631,1.6079445,0.89102787,0.33665773,-0.0998291,160.0
23110,-0.153368,-0.3393631,1.6079445,0.96430665,0.20709229,-0.06903076,160.0
23111,0.14821625,-0.38373566,2.059208,0.96430665,0.20709229,-0.06903076,160.0
23112,0.14821625,-0.38373566,2.059208,0.80181885,0.1359375,-0.0361084,160.0
23113,0.5093937,-0.48378754,1.6119919,0.80181885,0.1359375,-0.0361084,160.0
23114,0.5093937,-0.48378754,1.6119919,0.6265869,0.1178833,-0.043542482,160.0
23115,0.68899727,-0.6875458,1.0748215,0.6265869,0.1178833,-0.043542482,160.0
23116,0.68899727,-0.6875458,1.0748215,0.5161377,0.10938721,-0.095581055,160.0
23117,0.5900154,-0.69931793,0.717144,0.5161377,0.10938721,-0.095581055,160.0
23118,0.5900154,-0.69931793,0.717144,0.34940186,0.053100586,-0.059472658,160.0
23119,0.42657852,-0.48999786,0.44970322,0.34940186,0.053100586,-0.059472658,160.0
23120,0.42657852,-0.48999786,0.44970322,0.36533204,0.025488282,-0.07115479,160.0
23121,0.35552025,-0.2827072,0.23959732,0.36533204,0.025488282,-0.07115479,160.0
23122,0.35552025,-0.2827072,0.23959732,0.28780517,0.020178223,-0.050976563,160.0
23123,0.3203907,-0.06819153,0.16246796,0.28780517,0.020178223,-0.050976563,160.0
23124,0.3203907,-0.06819153,0.16246796,0.34940186,0.014868164,-0.05522461,160.0
23125,0.21654129,0.12219238,0.23880005,0.34940186,0.014868164,-0.05522461,160.0
23126,0.21654129,0.12219238,0.23880005,0.33240968,0.03186035,-0.04141846,160.0
23127,0.03767395,0.17869568,0.38466644,0.33240968,0.03186035,-0.04141846,160.0
23128,0.03767395,0.17869568,0.38466644,0.33665773,0.021240234,-0.047790527,160.0
23129,-0.10006142,0.033737183,0.4226265,0.33665773,0.021240234,-0.047790527,160.0
23130,-0.10006142,0.033737183,0.4226265,0.39294434,-0.0063720704,-0.052038576,160.0
23131,-0.11565781,-0.13223267,0.32927704,0.39294434,-0.0063720704,-0.052038576,160.0
23132,-0.11565781,-0.13223267,0.32927704,0.41949463,-0.020178223,-0.04991455,160.0
23133,-0.07048035,-0.08166504,0.2397995,0.41949463,-0.020178223,-0.04991455,160.0
23134,-0.07048035,-0.08166504,0.2397995,0.3727661,-0.010620117,-0.043542482,160.0
23135,-0.08602333,0.15002441,0.21542358,0.3727661,-0.010620117,-0.043542482,160.0
23136,-0.08602333,0.15002441,0.21542358,0.29417726,-0.029736329,-0.033984374,160.0
23137,-0.16396141,0.30030823,0.15350342,0.29417726,-0.029736329,-0.033984374,160.0
23138,-0.16396141,0.30030823,0.15350342,0.24638672,-0.057348635,-0.014868164,160.0
23139,-0.21030807,0.1593399,0.039318085,0.24638672,-0.057348635,-0.014868164,160.0
23140,-0.21030807,0.1593399,0.039318085,0.271875,-0.081774905,-0.009558106,160.0
23141,-0.19996071,-0.15145874,-0.008571625,0.271875,-0.081774905,-0.009558106,160.0
23142,-0.19996071,-0.15145874,-0.008571625,0.2538208,-0.1178833,-0.007434082,160.0
23143,-0.18653107,-0.2737503,-0.0027427673,0.2538208,-0.1178833,-0.007434082,160.0
23144,-0.18653107,-0.2737503,-0.0027427673,0.19753419,-0.13487549,-0.0010620117,160.0
23145,-0.18684769,-0.036376953,-0.007736206,0.19753419,-0.13487549,-0.0010620117,160.0
23146,-0.18684769,-0.036376953,-0.007736206,0.053100586,-0.13168946,0.032922365,160.0
23147,-0.21033096,0.26994324,0.008533478,0.053100586,-0.13168946,0.032922365,160.0
23148,-0.21033096,0.26994324,0.008533478,0.0053100586,-0.093457036,0.008496094,160.0
23149,-0.29254532,0.3774643,0.08449936,0.0053100586,-0.093457036,0.008496094,160.0
23150,-0.29254532,0.3774643,0.08449936,0.021240234,-0.10301514,-0.0053100586,160.0
23151,-0.43131447,0.25260925,0.2154274,0.021240234,-0.10301514,-0.0053100586,160.0
23152,-0.43131447,0.25260925,0.2154274,0.1985962,-0.078588866,-0.032922365,160.0
23153,-0.43131447,0.25260925,0.2154274,0.1985962,-0.078588866,-0.032922365,0.0
23154,-0.55321884,0.16570282,0.3328514,0.1985962,-0.078588866,-0.032922365,0.0
23155,-0.55321884,0.16570282,0.3328514,0.04141846,-0.06159668,-0.06584473,0.0
23156,-0.53946304,0.2142868,0.3509369,0.04141846,-0.06159668,-0.06584473,0.0
23157,-0.53946304,0.2142868,0.3509369,0.124255374,-0.033984374,-0.083898924,0.0
23158,-0.5036888,0.2989502,0.21953201,0.124255374,-0.033984374,-0.083898924,0.0
23159,-0.5036888,0.2989502,0.21953201,-0.07540283,-0.0053100586,-0.10089111,0.0
23160,-0.6044636,0.126297,0.21313858,-0.07540283,-0.0053100586,-0.10089111,0.0
23161,-0.6044636,0.126297,0.21313858,-0.12956543,0.06690674,-0.10407715,0.0
23162,-0.68479156,-0.29388428,0.48130035,-0.12956543,0.06690674,-0.10407715,0.0
23163,-0.68479156,-0.29388428,0.48130035,-0.5777344,0.13806152,-0.04460449,0.0
23164,-0.61808395,-0.64489746,0.70296097,-0.5777344,0.13806152,-0.04460449,0.0
23165,-0.61808395,-0.64489746,0.70296097,-0.4333008,0.14549561,0.05628662,0.0
23166,-0.30741882,-0.63197327,0.33153534,-0.4333008,0.14549561,0.05628662,0.0
23167,-0.30741882,-0.63197327,0.33153534,-0.7720825,0.2803711,0.1083252,0.0
23168,-0.0089969635,-0.40802002,-0.42561722,-0.7720825,0.2803711,0.1083252,0.0
23169,-0.0089969635,-0.40802002,-0.42561722,-0.74659425,0.33665773,0.14124756,0.0
23170,0.20494843,0.174057,-0.8069,-0.74659425,0.33665773,0.14124756,0.0
23171,0.20494843,0.174057,-0.8069,-0.86978763,0.3791382,0.15717773,0.0
23172,0.5503483,1.0943832,-0.8182602,-0.86978763,0.3791382,0.15717773,0.0
23173,0.5503483,1.0943832,-0.8182602,-1.4931885,0.3717041,0.16673584,0.0
23174,0.72916985,1.576271,-0.8509598,-1.4931885,0.3717041,0.16673584,0.0
23175,0.72916985,1.576271,-0.8509598,-1.5930176,0.30479738,0.06584473,0.0
23176,0.5358753,1.756073,-1.1071968,-1.5930176,0.30479738,0.06584473,0.0
23177,0.5358753,1.756073,-1.1071968,-1.628064,0.24532472,-0.10195313,0.0
23178,0.06367302,1.6106033,-1.5734024,-1.628064,0.24532472,-0.10195313,0.0
23179,0.06367302,1.6106033,-1.5734024,-1.3859253,0.1996582,-0.31435546,0.0
23180,-0.44493484,1.1838379,-2.0672913,-1.3859253,0.1996582,-0.31435546,0.0
23181,-0.44493484,1.1838379,-2.0672913,-1.3784913,0.27612305,-0.3462158,0.0
23182,-0.67344093,0.8566437,-2.2492447,-1.3784913,0.27612305,-0.3462158,0.0
23183,-0.67344093,0.8566437,-2.2492447,-1.9742798,0.45666504,-0.3345337,0.0
23184,-0.5806465,0.4787445,-1.9856758,-1.9742798,0.45666504,-0.3345337,0.0
23185,-0.5806465,0.4787445,-1.9856758,-2.2302246,0.42692873,-0.5097656,0.0
23186,-0.24951553,0.101737976,-1.6797028,-2.2302246,0.42692873,-0.5097656,0.0
23187,-0.24951553,0.101737976,-1.6797028,-2.8759277,0.47471926,-0.51826173,0.0
23188,0.23672867,-0.12496948,-1.661438,-2.8759277,0.47471926,-0.51826173,0.0
23189,0.23672867,-0.12496948,-1.661438,-3.1201904,0.5341919,-0.5915405,0.0
23190,0.76656723,-0.08314514,-1.7227058,-3.1201904,0.5341919,-0.5915405,0.0
23191,0.76656723,-0.08314514,-1.7227058,-3.0012453,0.5766724,-0.540564,0.0
23192,1.2759609,0.4447708,-1.6853409,-3.0012453,0.5766724,-0.540564,0.0
23193,1.2759609,0.4447708,-1.6853409,-2.6975098,0.6531372,-0.49171144,0.0
23194,1.5489674,1.0664444,-1.7977715,-2.6975098,0.6531372,-0.49171144,0.0
23195,1.5489674,1.0664444,-1.7977715,-2.078357,0.7168579,-0.39506838,0.0
23196,1.8477917,1.3083649,-2.8642807,-2.078357,0.7168579,-0.39506838,0.0
23197,1.8477917,1.3083649,-2.8642807,-0.5256958,1.0089111,-0.21558838,0.0
23198,2.1474228,1.0610199,-3.7774734,-0.5256958,1.0089111,-0.21558838,0.0
23199,2.1474228,1.0610199,-3.7774734,0.5915405,1.2319336,-0.08283692,0.0
23200,1.5279598,0.12856293,-3.1083431,0.5915405,1.2319336,-0.08283692,0.0
23201,1.5279598,0.12856293,-3.1083431,0.3727661,1.4719483,-0.27612305,0.0
23202,0.225811,-1.2024078,-1.7377357,0.3727661,1.4719483,-0.27612305,0.0
23203,0.225811,-1.2024078,-1.7377357,0.55968016,1.4602661,-0.4598511,0.0
23204,-0.31572533,-1.999649,-0.6934242,0.55968016,1.4602661,-0.4598511,0.0
23205,-0.31572533,-1.999649,-0.6934242,0.8878418,1.454956,-0.6138428,0.0
23206,0.08299065,-2.546791,-0.24407196,0.8878418,1.454956,-0.6138428,0.0
23207,0.08299065,-2.546791,-0.24407196,1.635498,1.4315919,-0.80181885,0.0
23208,0.45980072,-2.851982,0.124370575,1.635498,1.4315919,-0.80181885,0.0
23209,0.45980072,-2.851982,0.124370575,2.4681153,1.1639649,-1.0513916,0.0
23210,0.79661274,-2.448227,1.1001682,2.4681153,1.1639649,-1.0513916,0.0
23211,0.79661274,-2.448227,1.1001682,3.1446168,0.8358032,-1.2468017,0.0
23212,1.6763401,-2.2454224,2.7615662,3.1446168,0.8358032,-1.2468017,0.0
23213,1.6763401,-2.2454224,2.7615662,3.5460572,0.37382814,-1.5632813,0.0
23214,2.7529984,-2.5329666,4.04187,3.5460572,0.37382814,-1.5632813,0.0
23215,2.7529984,-2.5329666,4.04187,3.5917237,0.09239502,-1.9073731,0.0
23216,3.3848324,-2.567276,3.8791618,3.5917237,0.09239502,-1.9073731,0.0
23217,3.3848324,-2.567276,3.8791618,3.2465699,-0.1178833,-2.182434,0.0
23218,3.7163382,-2.0920105,2.850998,3.2465699,-0.1178833,-2.182434,0.0
23219,3.7163382,-2.0920105,2.850998,2.5775025,-0.23789063,-2.4097047,0.0
23220,3.9993773,-1.8370819,2.0769424,2.5775025,-0.23789063,-2.4097047,0.0
23221,3.9993773,-1.8370819,2.0769424,2.1495118,-0.26019287,-2.7389283,0.0
23222,3.8876486,-2.1955872,1.8904724,2.1495118,-0.26019287,-2.7389283,0.0
23223,3.8876486,-2.1955872,1.8904724,1.6854126,-0.25913087,-2.8748658,0.0
23224,3.2950068,-2.7749176,1.6298714,1.6854126,-0.25913087,-2.8748658,0.0
23225,3.2950068,-2.7749176,1.6298714,1.260608,-0.12956543,-2.8642457,0.0
23226,2.5613842,-3.1077576,0.6003685,1.260608,-0.12956543,-2.8642457,0.0
23227,2.5613842,-3.1077576,0.6003685,0.7168579,0.121069334,-2.715564,0.0
23228,2.1017323,-2.658455,-0.9005661,0.7168579,0.121069334,-2.715564,0.0
23229,2.1017323,-2.658455,-0.9005661,0.019116212,0.6000366,-2.5944946,0.0
23230,2.1354504,-1.4703217,-2.0446854,0.019116212,0.6000366,-2.5944946,0.0
23231,2.1354504,-1.4703217,-2.0446854,-0.36745605,1.1161743,-2.5307739,0.0
23232,2.4801006,-0.07193756,-2.107647,-0.36745605,1.1161743,-2.5307739,0.0
23233,2.4801006,-0.07193756,-2.107647,-0.2793091,1.4942505,-2.4659913,0.0
23234,2.7278671,0.9403763,-1.3515472,-0.2793091,1.4942505,-2.4659913,0.0
23235,2.7278671,0.9403763,-1.3515472,0.090270996,1.7385132,-2.3258057,0.0
23236,2.8297305,1.5361404,-0.67087555,0.090270996,1.7385132,-2.3258057,0.0
23237,2.8297305,1.5361404,-0.67087555,0.24638672,1.8765748,-2.2790773,0.0
23238,2.939456,2.269226,-0.4410591,0.24638672,1.8765748,-2.2790773,0.0
23239,2.939456,2.269226,-0.4410591,0.11257324,1.9710938,-2.2365968,0.0
23240,2.8789449,3.0486908,-0.3111229,0.11257324,1.9710938,-2.2365968,0.0
23241,2.8789449,3.0486908,-0.3111229,0.10089111,1.9615357,-2.163318,0.0
23242,2.4836369,3.4485931,-0.041893005,0.10089111,1.9615357,-2.163318,0.0
23243,2.4836369,3.4485931,-0.041893005,0.3419678,1.903125,-2.080481,0.0
23244,1.9241288,3.6617584,0.3536682,0.3419678,1.903125,-2.080481,0.0
23245,1.9241288,3.6617584,0.3536682,0.3345337,1.8489624,-1.8234742,0.0
23246,1.3064051,3.71447,0.37202072,0.3345337,1.8489624,-1.8234742,0.0
23247,1.3064051,3.71447,0.37202072,-0.17523193,1.8765748,-1.4570801,0.0
23248,0.16389847,4.2549286,0.5700302,-0.17523193,1.8765748,-1.4570801,0.0
23249,0.16389847,4.2549286,0.5700302,-0.2081543,1.6896607,-0.72004396,0.0
23250,-0.89112234,4.4950943,1.7132607,-0.2081543,1.6896607,-0.72004396,0.0
23251,-0.89112234,4.4950943,1.7132607,-0.107263185,1.3625611,-0.21240234,0.0
23252,-0.76433825,2.1695862,2.1693764,-0.107263185,1.3625611,-0.21240234,0.0
23253,-0.76433825,2.1695862,2.1693764,-0.25063476,1.1873292,-0.36639404,0.0
23254,-0.76433825,2.1695862,2.1693764,-0.25063476,1.1873292,-0.36639404,0.0
23255,0.28444004,-1.0490112,1.3272133,-0.25063476,1.1873292,-0.36639404,0.0
23256,0.28444004,-1.0490112,1.3272133,-0.48109132,1.1257324,-0.39188233,0.0
23257,1.6814218,-2.4858398,0.74197006,-0.48109132,1.1257324,-0.39188233,0.0
23258,1.6814218,-2.4858398,0.74197006,-0.97067875,1.1299804,-0.32603762,0.0
23259,3.0107014,-2.851059,0.90065765,-0.97067875,1.1299804,-0.32603762,0.0
23260,3.0107014,-2.851059,0.90065765,-1.3264526,1.1862671,-0.43754885,0.0
23261,4.0536904,-3.0104141,1.5421066,-1.3264526,1.1862671,-0.43754885,0.0
23262,4.0536904,-3.0104141,1.5421066,-0.9897949,1.1937011,-0.73809814,0.0
23263,4.1702595,-2.2546463,2.2365417,-0.9897949,1.1937011,-0.73809814,0.0
23264,4.1702595,-2.2546463,2.2365417,-0.42055663,1.1512207,-0.8878418,0.0
23265,2.898964,-0.46977234,2.1424675,-0.42055663,1.1512207,-0.8878418,0.0
23266,2.898964,-0.46977234,2.1424675,-0.15930176,1.2213135,-0.88253176,0.0
23267,0.9980653,0.89016724,1.4681625,-0.15930176,1.2213135,-0.88253176,0.0
23268,0.9980653,0.89016724,1.4681625,-0.14549561,1.3689331,-0.92713624,0.0
23269,-0.25650382,0.91830444,1.1738586,-0.14549561,1.3689331,-0.92713624,0.0
23270,-0.25650382,0.91830444,1.1738586,-0.039294433,1.4443359,-1.0609497,0.0
23271,-0.3724638,0.39239502,1.5524902,-0.039294433,1.4443359,-1.0609497,0.0
23272,-0.3724638,0.39239502,1.5524902,0.22408448,1.4029175,-1.1321045,0.0
23273,0.3435695,0.44638062,2.0536995,0.22408448,1.4029175,-1.1321045,0.0
23274,0.3435695,0.44638062,2.0536995,0.30479738,1.358313,-1.1034302,0.0
23275,1.2962422,0.97569275,1.9866257,0.30479738,1.358313,-1.1034302,0.0
23276,1.2962422,0.97569275,1.9866257,0.38869628,1.4199097,-1.0673218,0.0
23277,1.9445256,1.2514877,1.4060974,0.38869628,1.4199097,-1.0673218,0.0
23278,1.9445256,1.2514877,1.4060974,0.73597413,1.5144287,-1.0259033,0.0
23279,2.0421195,1.0551682,1.0525856,0.73597413,1.5144287,-1.0259033,0.0
23280,2.0421195,1.0551682,1.0525856,1.0535157,1.6110718,-0.80819094,0.0
23281,1.7825236,0.42551422,1.3537865,1.0535157,1.6110718,-0.80819094,0.0
23282,1.7825236,0.42551422,1.3537865,1.0917481,1.5802735,-0.5097656,0.0
23283,1.3294249,-0.5275116,1.770771,1.0917481,1.5802735,-0.5097656,0.0
23284,1.3294249,-0.5275116,1.770771,0.64570314,1.6185058,-0.4354248,0.0
23285,0.7133324,-0.9536743,1.8114891,0.64570314,1.6185058,-0.4354248,0.0
23286,0.7133324,-0.9536743,1.8114891,0.31116945,1.7342652,-0.55968016,0.0
23287,0.19226003,-0.077819824,1.9019508,0.31116945,1.7342652,-0.55968016,0.0
23288,0.19226003,-0.077819824,1.9019508,0.48640138,1.806482,-0.66481936,0.0
23289,-0.013721466,1.3150787,2.1178627,0.48640138,1.806482,-0.66481936,0.0
23290,-0.013721466,1.3150787,2.1178627,0.73597413,1.8574585,-0.7126099,0.0
23291,0.091549635,1.9276886,2.0020905,0.73597413,1.8574585,-0.7126099,0.0
23292,0.091549635,1.9276886,2.0020905,0.71154785,1.897815,-0.6881836,0.0
23293,0.50426984,1.3822784,1.5517082,0.71154785,1.897815,-0.6881836,0.0
23294,0.50426984,1.3822784,1.5517082,0.6711914,1.9785279,-0.8336792,0.0
23295,1.0221169,0.61579895,1.3425903,0.6711914,1.9785279,-0.8336792,0.0
23296,1.0221169,0.61579895,1.3425903,0.6414551,2.001892,-1.0216553,0.0
23297,1.3722467,0.6375122,1.5859756,0.6414551,2.001892,-1.0216553,0.0
23298,1.3722467,0.6375122,1.5859756,0.57561034,1.991272,-1.1119263,0.0
23299,1.3063912,1.1906128,1.7915726,0.57561034,1.991272,-1.1119263,0.0
23300,1.3063912,1.1906128,1.7915726,0.85704345,2.0146363,-1.3200806,0.0
23301,0.93285704,1.6646118,1.659565,0.85704345,2.0146363,-1.3200806,0.0
23302,0.93285704,1.6646118,1.659565,0.62977296,2.078357,-1.5101807,0.0
23303,0.60791874,1.6645508,1.4989281,0.62977296,2.078357,-1.5101807,0.0
23304,0.60791874,1.6645508,1.4989281,0.5097656,2.182434,-1.7979859,0.0
23305,0.3845892,1.3429184,1.6062698,0.5097656,2.182434,-1.7979859,0.0
23306,0.3845892,1.3429184,1.6062698,0.48746338,2.2334106,-2.083667,0.0
23307,0.20969772,1.1619339,1.9042549,0.48746338,2.2334106,-2.083667,0.0
23308,0.20969772,1.1619339,1.9042549,0.72216797,2.2950075,-2.3969605,0.0
23309,0.06471872,1.5366898,2.2998657,0.72216797,2.2950075,-2.3969605,0.0
23310,0.06471872,1.5366898,2.2998657,0.73597413,2.3141236,-2.5859985,0.0
23311,-0.07077122,2.1842728,2.6402435,0.73597413,2.3141236,-2.5859985,0.0
23312,-0.07077122,2.1842728,2.6402435,0.6552612,2.2387207,-2.732556,0.0
23313,-0.21695614,2.485344,2.6699486,0.6552612,2.2387207,-2.732556,0.0
23314,-0.21695614,2.485344,2.6699486,0.9154541,2.1314576,-2.9290283,0.0
23315,-0.37090397,2.4859238,2.3926735,0.9154541,2.1314576,-2.9290283,0.0
23316,-0.37090397,2.4859238,2.3926735,1.0630738,2.0326905,-3.000183,0.0
23317,-0.4943185,2.4726715,2.114334,1.0630738,2.0326905,-3.000183,0.0
23318,-0.4943185,2.4726715,2.114334,0.97492677,1.910559,-3.0639038,0.0
23319,-0.6279011,2.5357056,1.9530983,0.97492677,1.910559,-3.0639038,0.0
23320,-0.6279011,2.5357056,1.9530983,1.0503296,1.7533814,-2.980005,0.0
23321,-0.82798004,2.8570328,1.6199493,1.0503296,1.7533814,-2.980005,0.0
23322,-0.82798004,2.8570328,1.6199493,1.269104,1.6089478,-2.8472536,0.0
23323,-1.0042298,3.4554367,1.2282219,1.269104,1.6089478,-2.8472536,0.0
23324,-1.0042298,3.4554367,1.2282219,1.7342652,1.5271729,-2.6051147,0.0
23325,-1.1606104,3.9109802,1.5328598,1.7342652,1.5271729,-2.6051147,0.0
23326,-1.1606104,3.9109802,1.5328598,2.2737672,1.351941,-2.3098755,0.0
23327,-1.3133149,3.9601593,2.290596,2.2737672,1.351941,-2.3098755,0.0
23328,-1.3133149,3.9601593,2.290596,2.5488281,0.99935305,-2.0358765,0.0
23329,-1.2430959,3.4923935,2.1462212,2.5488281,0.99935305,-2.0358765,0.0
23330,-1.2430959,3.4923935,2.1462212,2.5966187,0.7880127,-1.8617066,0.0
23331,-0.87309,2.9304047,1.1968956,2.5966187,0.7880127,-1.8617066,0.0
23332,-0.87309,2.9304047,1.1968956,2.4150147,0.6074707,-1.8351563,0.0
23333,-0.4891336,2.7099457,0.44860458,2.4150147,0.6074707,-1.8351563,0.0
23334,-0.4891336,2.7099457,0.44860458,2.005078,0.46834716,-1.6992188,0.0
23335,-0.31862617,2.56456,-0.011528015,2.005078,0.46834716,-1.6992188,0.0
23336,-0.31862617,2.56456,-0.011528015,1.6535523,0.3695801,-1.7841797,0.0
23337,-0.37261343,2.550583,-0.28294373,1.6535523,0.3695801,-1.7841797,0.0
23338,-0.37261343,2.550583,-0.28294373,1.5813354,0.32709962,-1.6163819,0.0
23339,-0.6445385,2.883667,-0.33961105,1.5813354,0.32709962,-1.6163819,0.0
23340,-0.6445385,2.883667,-0.33961105,1.4220337,0.31435546,-1.3434448,0.0
23341,-0.9560361,3.2062225,-0.3156128,1.4220337,0.31435546,-1.3434448,0.0
23342,-0.9560361,3.2062225,-0.3156128,0.996167,0.33665773,-1.1034302,0.0
23343,-1.1829075,3.036827,-0.24534988,0.996167,0.33665773,-1.1034302,0.0
23344,-1.1829075,3.036827,-0.24534988,0.5501221,0.3717041,-0.9547486,0.0
23345,-1.3402102,2.4922562,0.074863434,0.5501221,0.3717041,-0.9547486,0.0
23346,-1.3402102,2.4922562,0.074863434,0.027612304,0.33878174,-0.87615967,0.0
23347,-1.2378542,1.8995667,0.10455322,0.027612304,0.33878174,-0.87615967,0.0
23348,-1.2378542,1.8995667,0.10455322,-0.1720459,0.40356445,-0.81668705,0.0
23349,-0.7570925,1.4797211,-0.6287346,-0.1720459,0.40356445,-0.81668705,0.0
23350,-0.7570925,1.4797211,-0.6287346,-0.18372802,0.6223389,-0.7784546,0.0
23351,-0.04452896,1.0004425,-1.177803,-0.18372802,0.6223389,-0.7784546,0.0
23352,-0.04452896,1.0004425,-1.177803,-0.014868164,0.83474123,-0.99722904,0.0
23353,0.4816498,1.1315536,-0.7915344,-0.014868164,0.83474123,-0.99722904,0.0
23354,0.4816498,1.1315536,-0.7915344,0.14655761,1.0036011,-0.90058595,0.0
23355,0.4816498,1.1315536,-0.7915344,0.14655761,1.0036011,-0.90058595,0.0
23356,-0.3076367,2.3302765,0.17637634,0.14655761,1.0036011,-0.90058595,0.0
23357,-0.3076367,2.3302765,0.17637634,-0.24213867,1.0397094,-0.57242435,0.0
23358,-2.77775,3.5237541,1.2727394,-0.24213867,1.0397094,-0.57242435,0.0
23359,-2.77775,3.5237541,1.2727394,-0.83898926,1.0397094,-0.20072022,0.0
23360,-4.4796095,3.5796967,1.6568756,-0.83898926,1.0397094,-0.20072022,0.0
23361,-4.4796095,3.5796967,1.6568756,-1.1947632,0.9303223,0.0722168,0.0
23362,-3.350082,2.2136955,-0.11563873,-1.1947632,0.9303223,0.0722168,0.0
23363,-3.350082,2.2136955,-0.11563873,-0.815625,1.2021973,0.3345337,0.0
23364,-1.1479001,0.518528,-2.9765549,-0.815625,1.2021973,0.3345337,0.0
23365,-1.1479001,0.518528,-2.9765549,-0.34940186,1.9116211,0.48427734,0.0
23366,-0.9695287,-0.5802231,-3.9813194,-0.34940186,1.9116211,0.48427734,0.0
23367,-0.9695287,-0.5802231,-3.9813194,0.33134767,2.5095336,0.48427734,0.0
23368,-2.9956913,-0.7659149,-2.594162,0.33134767,2.5095336,0.48427734,0.0
23369,-2.9956913,-0.7659149,-2.594162,0.8708496,2.624231,0.56180423,0.0
23370,-4.92961,0.060325623,-0.3172493,0.8708496,2.624231,0.56180423,0.0
23371,-4.92961,0.060325623,-0.3172493,0.99935305,2.7410524,0.51932377,0.0
23372,-5.4964833,0.8433647,2.2606888,0.99935305,2.7410524,0.51932377,0.0
23373,-5.4964833,0.8433647,2.2606888,1.2329956,3.2317016,0.59047854,0.0
23374,-5.062067,-0.34586716,4.977974,1.2329956,3.2317016,0.59047854,0.0
23375,-5.062067,-0.34586716,4.977974,2.3640382,3.2794921,0.14549561,0.0
23376,-3.764351,-2.2787704,6.7107124,2.3640382,3.2794921,0.14549561,0.0
23377,-3.764351,-2.2787704,6.7107124,3.5524292,3.4122436,-0.34090576,0.0
23378,-2.0132504,-1.9275589,5.7793846,3.5524292,3.4122436,-0.34090576,0.0
23379,-2.0132504,-1.9275589,5.7793846,3.5131347,3.1318727,-0.41418457,0.0
23380,-1.4752731,0.29908752,2.2377892,3.5131347,3.1318727,-0.41418457,0.0
23381,-1.4752731,0.29908752,2.2377892,3.5704834,2.6603394,-0.635083,0.0
23382,-2.496686,2.1180916,-0.5071106,3.5704834,2.6603394,-0.635083,0.0
23383,-2.496686,2.1180916,-0.5071106,2.8217652,2.0656128,-0.98236084,0.0
23384,-3.6116924,2.5928726,-0.2400856,2.8217652,2.0656128,-0.98236084,0.0
23385,-3.6116924,2.5928726,-0.2400856,2.4118288,1.2075074,-1.183081,0.0
23386,-3.5994377,2.79599,1.3827362,2.4118288,1.2075074,-1.183081,0.0
23387,-3.5994377,2.79599,1.3827362,1.814978,0.54693604,-1.0694458,0.0
23388,-2.4654636,3.3213654,1.6533928,1.814978,0.54693604,-1.0694458,0.0
23389,-2.4654636,3.3213654,1.6533928,0.86978763,0.098767094,-0.8517334,0.0
23390,-1.18365,3.0678215,-0.14040756,0.86978763,0.098767094,-0.8517334,0.0
23391,-1.18365,3.0678215,-0.14040756,0.3419678,-0.08814698,-0.7306641,0.0
23392,-0.51988125,2.1762543,-2.6073723,0.3419678,-0.08814698,-0.7306641,0.0
23393,-0.51988125,2.1762543,-2.6073723,0.42374268,0.021240234,-0.6287109,0.0
23394,-0.42092133,1.6105614,-4.2040634,0.42374268,0.021240234,-0.6287109,0.0
23395,-0.42092133,1.6105614,-4.2040634,0.50445557,0.24213867,-0.45454103,0.0
23396,-0.6850157,1.3239326,-4.271942,0.50445557,0.24213867,-0.45454103,0.0
23397,-0.6850157,1.3239326,-4.271942,0.22833252,0.28780517,-0.29736328,0.0
23398,-1.0552263,1.025444,-3.391613,0.22833252,0.28780517,-0.29736328,0.0
23399,-1.0552263,1.025444,-3.391613,-0.32709962,0.25063476,-0.21346436,0.0
23400,-1.0717087,0.6900101,-2.7392044,-0.32709962,0.25063476,-0.21346436,0.0
23401,-1.0717087,0.6900101,-2.7392044,-1.0821899,0.24213867,-0.14230958,0.0
23402,-0.8458195,0.41376495,-2.441265,-1.0821899,0.24213867,-0.14230958,0.0
23403,-0.8458195,0.41376495,-2.441265,-2.069861,0.2262085,0.013806152,0.0
23404,-0.7407055,-0.14256287,-2.0850677,-2.069861,0.2262085,0.013806152,0.0
23405,-0.7407055,-0.14256287,-2.0850677,-2.6157348,0.17735596,0.0180542,0.0
23406,-0.7704334,-1.357811,-1.7516861,-2.6157348,0.17735596,0.0180542,0.0
23407,-0.7704334,-1.357811,-1.7516861,-2.5116577,0.3154175,-0.16673584,0.0
23408,-0.99637604,-1.9882126,-1.3534393,-2.5116577,0.3154175,-0.16673584,0.0
23409,-0.99637604,-1.9882126,-1.3534393,-2.4065187,0.32391357,-0.1083252,0.0
23410,-1.7392025,-1.5323563,-0.40018463,-2.4065187,0.32391357,-0.1083252,0.0
23411,-1.7392025,-1.5323563,-0.40018463,-2.5424562,0.009558106,0.08814698,0.0
23412,-2.4581833,-0.9449768,0.32481384,-2.5424562,0.009558106,0.08814698,0.0
23413,-2.4581833,-0.9449768,0.32481384,-1.4220337,0.010620117,-0.29948732,0.0
23414,-2.0714664,-0.13484955,0.80444336,-1.4220337,0.010620117,-0.29948732,0.0
23415,-2.0714664,-0.13484955,0.80444336,-2.2493408,-0.093457036,-0.1529297,0.0
23416,-0.57928085,0.4062538,1.8600464,-2.2493408,-0.093457036,-0.1529297,0.0
23417,-0.57928085,0.4062538,1.8600464,-2.7336183,-0.11469727,-0.31010744,0.0
23418,0.8542881,-0.84039307,2.9605713,-2.7336183,-0.11469727,-0.31010744,0.0
23419,0.8542881,-0.84039307,2.9605713,-2.3778443,-0.16354981,-0.46834716,0.0
23420,1.414669,-2.6736832,3.0147095,-2.3778443,-0.16354981,-0.46834716,0.0
23421,1.414669,-2.6736832,3.0147095,-2.076233,-0.010620117,-0.542688,0.0
23422,1.5145235,-3.041069,1.9961777,-2.076233,-0.010620117,-0.542688,0.0
23423,1.5145235,-3.041069,1.9961777,-2.5891845,0.07540283,-0.6202149,0.0
23424,1.2363873,-2.7181473,0.785553,-2.5891845,0.07540283,-0.6202149,0.0
23425,1.2363873,-2.7181473,0.785553,-2.2312868,0.07752686,-0.6000366,0.0
23426,0.53139496,-2.9622612,0.05864334,-2.2312868,0.07752686,-0.6000366,0.0
23427,0.53139496,-2.9622612,0.05864334,-2.2461548,0.19328614,-0.67650145,0.0
23428,-0.36861038,-3.7262535,-0.004245758,-2.2461548,0.19328614,-0.67650145,0.0
23429,-0.36861038,-3.7262535,-0.004245758,-1.7671875,0.25913087,-0.7975708,0.0
23430,-1.2201691,-4.0713577,0.62854767,-1.7671875,0.25913087,-0.7975708,0.0
23431,-1.2201691,-4.0713577,0.62854767,-1.4666382,0.26868898,-0.7147339,0.0
23432,-1.5786133,-3.5008087,1.3272858,-1.4666382,0.26868898,-0.7147339,0.0
23433,-1.5786133,-3.5008087,1.3272858,-1.6514282,0.22408448,-0.7699585,0.0
23434,-1.3344116,-2.912819,1.3875504,-1.6514282,0.22408448,-0.7699585,0.0
23435,-1.3344116,-2.912819,1.3875504,-1.5484132,0.28568116,-0.7168579,0.0
23436,-0.8611202,-2.735321,0.9074249,-1.5484132,0.28568116,-0.7168579,0.0
23437,-0.8611202,-2.735321,0.9074249,-1.2945923,0.33665773,-0.6180908,0.0
23438,-0.4720993,-2.5060272,0.39357758,-1.2945923,0.33665773,-0.6180908,0.0
23439,-0.4720993,-2.5060272,0.39357758,-1.0768799,0.38763428,-0.35789797,0.0
23440,-0.14419556,-1.9500275,0.02689743,-1.0768799,0.38763428,-0.35789797,0.0
23441,-0.14419556,-1.9500275,0.02689743,-0.31435546,0.42692873,-0.48427734,0.0
23442,0.14465332,-1.2529297,-0.3614273,-0.31435546,0.42692873,-0.48427734,0.0
23443,0.14465332,-1.2529297,-0.3614273,-0.40144044,0.3993164,-0.44816896,0.0
23444,0.17860031,-0.97408295,-0.7685623,-0.40144044,0.3993164,-0.44816896,0.0
23445,0.17860031,-0.97408295,-0.7685623,-0.37595215,0.41737062,-0.46516114,0.0
23446,-0.18370628,-1.263031,-0.82686234,-0.37595215,0.41737062,-0.46516114,0.0
23447,-0.18370628,-1.263031,-0.82686234,-0.23151855,0.3717041,-0.42905274,0.0
23448,-0.7983322,-1.692482,-0.4259796,-0.23151855,0.3717041,-0.42905274,0.0
23449,-0.7983322,-1.692482,-0.4259796,-0.1083252,0.29523927,-0.4619751,0.0
23450,-1.1754341,-1.7905579,0.04660797,-0.1083252,0.29523927,-0.4619751,0.0
23451,-1.1754341,-1.7905579,0.04660797,-0.027612304,0.21558838,-0.35895997,0.0
23452,-1.0021763,-1.2670059,0.27035522,-0.027612304,0.21558838,-0.35895997,0.0
23453,-1.0021763,-1.2670059,0.27035522,-0.078588866,0.15186767,-0.29948732,0.0
23454,-0.4123478,-0.6209793,0.0729599,-0.078588866,0.15186767,-0.29948732,0.0
23455,-0.4123478,-0.6209793,0.0729599,-0.13275146,0.118945315,-0.23151855,0.0
23456,0.10983086,-0.39600372,-0.34923935,-0.13275146,0.118945315,-0.23151855,0.0
23457,0.10983086,-0.39600372,-0.34923935,-0.046728518,0.11257324,-0.19328614,0.0
23458,0.20272064,-0.37133026,-0.43271255,-0.046728518,0.11257324,-0.19328614,0.0
23459,0.20272064,-0.37133026,-0.43271255,0.026550293,0.10513916,-0.20284425,0.0
23460,0.20493698,-0.4893875,-0.25815964,0.026550293,0.10513916,-0.20284425,0.0
23461,0.20493698,-0.4893875,-0.25815964,0.20496826,0.043542482,-0.23682861,0.0
23462,0.10431862,-0.35855103,-0.09334564,0.20496826,0.043542482,-0.23682861,0.0
23463,0.10431862,-0.35855103,-0.09334564,0.24001466,0.013806152,-0.24638672,0.0
23464,-0.025529861,0.16202545,0.07104874,0.24001466,0.013806152,-0.24638672,0.0
23465,-0.025529861,0.16202545,0.07104874,0.22302246,-0.028674318,-0.20921631,0.0
23466,-0.01837349,0.2750702,0.04953766,0.22302246,-0.028674318,-0.20921631,0.0
23467,-0.01837349,0.2750702,0.04953766,0.17735596,-0.025488282,-0.20072022,0.0
23468,0.2584591,-0.08215332,0.09402466,0.17735596,-0.025488282,-0.20072022,0.0
23469,0.2584591,-0.08215332,0.09402466,0.18372802,-0.047790527,-0.13062744,0.0
23470,0.34056854,-0.2861786,0.085754395,0.18372802,-0.047790527,-0.13062744,0.0
23471,0.34056854,-0.2861786,0.085754395,0.1539917,-0.046728518,-0.10301514,0.0
23472,0.42440796,-0.48406982,0.047317505,0.1539917,-0.046728518,-0.10301514,0.0
23473,0.42440796,-0.48406982,0.047317505,0.052038576,-0.06690674,-0.012744141,0.0
23474,0.30911827,-0.31044006,0.007801056,0.052038576,-0.06690674,-0.012744141,0.0
23475,0.30911827,-0.31044006,0.007801056,0.033984374,-0.07115479,0.028674318,0.0
23476,0.19083786,-0.15248871,-0.060386658,0.033984374,-0.07115479,0.028674318,0.0
23477,0.19083786,-0.15248871,-0.060386658,0.08071289,-0.078588866,0.09770508,0.0
23478,0.1849575,-0.13292694,0.0032653809,0.08071289,-0.078588866,0.09770508,0.0
23479,0.1849575,-0.13292694,0.0032653809,0.09133301,-0.09664307,0.11257324,0.0
23480,0.21874237,-0.08999634,0.22190857,0.09133301,-0.09664307,0.11257324,0.0
23481,0.21874237,-0.08999634,0.22190857,0.12850343,-0.118945315,0.124255374,0.0
23482,0.16404343,-0.028587341,0.19487381,0.12850343,-0.118945315,0.124255374,0.0
23483,0.16404343,-0.028587341,0.19487381,0.15186767,-0.11151123,0.12213135,0.0
23484,-0.16562843,-0.0042495728,0.35293198,0.15186767,-0.11151123,0.12213135,0.0
23485,-0.16562843,-0.0042495728,0.35293198,0.18691407,-0.06903076,0.16992188,0.0
23486,-0.2239933,-0.04840851,0.46990585,0.18691407,-0.06903076,0.16992188,0.0
23487,-0.2239933,-0.04840851,0.46990585,0.2442627,-0.04885254,0.18266602,0.0
23488,-0.26942825,-0.24242401,0.7518501,0.2442627,-0.04885254,0.18266602,0.0
23489,-0.26942825,-0.24242401,0.7518501,0.48427734,-0.025488282,0.13275146,0.0
23490,7.305145E-4,-0.26296997,0.628994,0.48427734,-0.025488282,0.13275146,0.0
23491,7.305145E-4,-0.26296997,0.628994,0.7434082,0.038232423,0.087084964,0.0
23492,0.4958248,0.35993958,0.14252853,0.7434082,0.038232423,0.087084964,0.0
23493,0.4958248,0.35993958,0.14252853,0.8485474,0.026550293,0.0541626,0.0
23494,0.6765919,1.2899857,-0.27114487,0.8485474,0.026550293,0.0541626,0.0
23495,0.6765919,1.2899857,-0.27114487,0.74659425,0.023364259,0.08602295,0.0
23496,0.012722015,1.5029755,-1.0024872,0.74659425,0.023364259,0.08602295,0.0
23497,0.012722015,1.5029755,-1.0024872,1.808606,0.16885987,0.032922365,0.0
23498,0.012722015,1.5029755,-1.0024872,1.808606,0.16885987,0.032922365,70.0
23499,-0.28756523,1.1475677,-1.220253,1.808606,0.16885987,0.032922365,70.0
23500,-0.28756523,1.1475677,-1.220253,2.521216,0.14018555,0.027612304,70.0
23501,-0.56365776,0.5634918,-1.0499573,2.521216,0.14018555,0.027612304,70.0
23502,-0.56365776,0.5634918,-1.0499573,3.3230348,-0.011682129,-0.22089843,70.0
23503,-0.4680519,0.9621582,-0.81320953,3.3230348,-0.011682129,-0.22089843,70.0
23504,-0.4680519,0.9621582,-0.81320953,2.71344,-0.047790527,-0.15717773,70.0
23505,-0.28385353,1.9731598,-0.36276245,2.71344,-0.047790527,-0.15717773,70.0
23506,-0.28385353,1.9731598,-0.36276245,1.7884277,-0.026550293,-0.21452637,70.0
23507,-0.04374504,1.9501572,-0.64956284,1.7884277,-0.026550293,-0.21452637,70.0
23508,-0.04374504,1.9501572,-0.64956284,2.4043946,-0.050976563,-0.20284425,70.0
23509,0.1408577,1.1145706,-1.1724243,2.4043946,-0.050976563,-0.20284425,70.0
23510,0.1408577,1.1145706,-1.1724243,3.6756227,-0.04991455,-0.23364258,70.0
23511,0.19914818,1.7061844,-0.93203354,3.6756227,-0.04991455,-0.23364258,70.0
23512,0.19914818,1.7061844,-0.93203354,3.5949097,-0.21877442,-0.087084964,70.0
23513,0.22187996,3.7465134,0.016418457,3.5949097,-0.21877442,-0.087084964,70.0
23514,0.22187996,3.7465134,0.016418457,2.430945,-0.22196046,-0.14337158,70.0
23515,0.3363304,4.792572,0.42617416,2.430945,-0.22196046,-0.14337158,70.0
23516,0.3363304,4.792572,0.42617416,1.5993897,-0.23151855,-0.07115479,70.0
23517,0.36951637,4.251892,0.06767273,1.5993897,-0.23151855,-0.07115479,70.0
23518,0.36951637,4.251892,0.06767273,1.0705079,-0.26337892,-0.047790527,70.0
23519,0.22319984,3.170311,-0.3872223,1.0705079,-0.26337892,-0.047790527,70.0
23520,0.22319984,3.170311,-0.3872223,0.9568726,-0.24957275,0.007434082,70.0
23521,0.26725578,2.7236633,-0.8841553,0.9568726,-0.24957275,0.007434082,70.0
23522,0.26725578,2.7236633,-0.8841553,0.3090454,-0.13168946,0.059472658,70.0
23523,0.45322037,2.7766953,-1.3638306,0.3090454,-0.13168946,0.059472658,70.0
23524,0.45322037,2.7766953,-1.3638306,0.095581055,-0.026550293,0.16248779,70.0
23525,0.29700089,2.2217102,-1.3732796,0.095581055,-0.026550293,0.16248779,70.0
23526,0.29700089,2.2217102,-1.3732796,-0.050976563,0.07752686,0.15611573,70.0
23527,0.04722023,1.0721207,-0.8214493,-0.050976563,0.07752686,0.15611573,70.0
23528,0.04722023,1.0721207,-0.8214493,-0.26656494,0.12850343,0.17629395,70.0
23529,0.036104202,0.11833191,-0.06003952,-0.26656494,0.12850343,0.17629395,70.0
23530,0.036104202,0.11833191,-0.06003952,-0.60322267,0.15505372,0.24001466,70.0
23531,0.08464432,-0.40659332,0.5946808,-0.60322267,0.15505372,0.24001466,70.0
23532,0.08464432,-0.40659332,0.5946808,-0.81243896,0.12319336,0.21558838,70.0
23533,0.051870346,-0.70637894,0.8498993,-0.81243896,0.12319336,0.21558838,70.0
23534,0.051870346,-0.70637894,0.8498993,-0.70198977,0.06796875,0.14974366,70.0
23535,0.06523895,-0.7568512,0.6013298,-0.70198977,0.06796875,0.14974366,70.0
23536,0.06523895,-0.7568512,0.6013298,-0.53525394,0.053100586,0.10620117,70.0
23537,0.16389751,-0.50743484,0.17653656,-0.53525394,0.053100586,0.10620117,70.0
23538,0.16389751,-0.50743484,0.17653656,-0.45029297,0.083898924,0.09239502,70.0
23539,0.18355942,-0.19501114,-0.07111359,-0.45029297,0.083898924,0.09239502,70.0
23540,0.18355942,-0.19501114,-0.07111359,-0.5734863,0.09239502,0.10407715,70.0
23541,0.044626236,-0.09430313,-0.06594849,-0.5734863,0.09239502,0.10407715,70.0
23542,0.044626236,-0.09430313,-0.06594849,-0.39188233,0.095581055,0.03717041,70.0
23543,-0.105802536,-0.18301392,0.053100586,-0.39188233,0.095581055,0.03717041,70.0
23544,-0.105802536,-0.18301392,0.053100586,-0.31435546,0.0998291,0.013806152,70.0
23545,-0.15689468,-0.29516602,0.13537598,-0.31435546,0.0998291,0.013806152,70.0
23546,-0.15689468,-0.29516602,0.13537598,-0.16673584,0.095581055,-0.0031860352,70.0
23547,-0.080947876,-0.31407547,0.18648529,-0.16673584,0.095581055,-0.0031860352,70.0
23548,-0.080947876,-0.31407547,0.18648529,-0.04885254,0.09133301,0.0031860352,70.0
23549,0.018360138,-0.2359047,0.19210815,-0.04885254,0.09133301,0.0031860352,70.0
23550,0.018360138,-0.2359047,0.19210815,-0.025488282,0.07646485,0.0021240234,70.0
23551,0.0160923,-0.106033325,0.13928223,-0.025488282,0.07646485,0.0021240234,70.0
23552,0.0160923,-0.106033325,0.13928223,-0.27293703,0.058410645,0.019116212,70.0
23553,-0.03643036,0.087207794,3.8909912E-4,-0.27293703,0.058410645,0.019116212,70.0
23554,-0.03643036,0.087207794,3.8909912E-4,-0.630835,0.047790527,0.070092775,70.0
23555,-0.098101616,0.035892487,-0.17681122,-0.630835,0.047790527,0.070092775,70.0
23556,-0.098101616,0.035892487,-0.17681122,-1.0089111,0.04991455,0.121069334,70.0
23557,-0.17479515,-0.5220413,-0.18771362,-1.0089111,0.04991455,0.121069334,70.0
23558,-0.17479515,-0.5220413,-0.18771362,-0.8007569,0.07965088,0.08283692,70.0
23559,-0.1468792,-1.1553535,0.028114319,-0.8007569,0.07965088,0.08283692,70.0
23560,-0.1468792,-1.1553535,0.028114319,-0.56180423,0.07327881,0.0361084,70.0
23561,0.03126335,-1.1871605,0.31332397,-0.56180423,0.07327881,0.0361084,70.0
23562,0.03126335,-1.1871605,0.31332397,-0.60216063,0.07115479,-0.040356446,70.0
23563,0.30351353,-0.58393097,0.65883636,-0.60216063,0.07115479,-0.040356446,70.0
23564,0.30351353,-0.58393097,0.65883636,-1.1501588,0.014868164,-0.023364259,70.0
23565,0.48583984,-0.07481003,1.1564522,-1.1501588,0.014868164,-0.023364259,70.0
23566,0.48583984,-0.07481003,1.1564522,-1.0598878,0.015930176,-0.087084964,70.0
23567,0.47806454,-0.050743103,1.6842957,-1.0598878,0.015930176,-0.087084964,70.0
23568,0.47806454,-0.050743103,1.6842957,-1.0726318,-0.07434082,-0.05628662,70.0
23569,0.30878258,-0.5205536,1.8105965,-1.0726318,-0.07434082,-0.05628662,70.0
23570,0.30878258,-0.5205536,1.8105965,-1.1299804,-0.095581055,-0.16567384,70.0
23571,0.1962328,-0.5182762,1.1858215,-1.1299804,-0.095581055,-0.16567384,70.0
23572,0.1962328,-0.5182762,1.1858215,-1.7501954,0.12956543,-0.08071289,70.0
23573,0.37467384,0.4492073,0.045410156,-1.7501954,0.12956543,-0.08071289,70.0
23574,0.37467384,0.4492073,0.045410156,-2.8493774,0.24851075,0.081774905,70.0
23575,0.47016144,0.3912239,-0.70871735,-2.8493774,0.24851075,0.081774905,70.0
23576,0.47016144,0.3912239,-0.70871735,-2.5679443,0.37489015,0.18479005,70.0
23577,0.24944496,-0.791172,-0.3128624,-2.5679443,0.37489015,0.18479005,70.0
23578,0.24944496,-0.791172,-0.3128624,-3.175415,0.4694092,0.19647217,70.0
23579,0.05639267,-1.9719391,0.53857803,-3.175415,0.4694092,0.19647217,70.0
23580,0.05639267,-1.9719391,0.53857803,-3.8986452,0.3334717,0.6818115,70.0
23581,-0.2532997,-3.9072876,0.73010635,-3.8986452,0.3334717,0.6818115,70.0
23582,-0.2532997,-3.9072876,0.73010635,-2.8472536,0.2357666,0.26337892,70.0
23583,-0.80906105,-5.4366302,0.16836166,-2.8472536,0.2357666,0.26337892,70.0
23584,-0.80906105,-5.4366302,0.16836166,-2.357666,0.18054199,0.14018555,70.0
23585,-1.2640953,-4.697548,-0.26060104,-2.357666,0.18054199,0.14018555,70.0
23586,-1.2640953,-4.697548,-0.26060104,-2.2100465,0.1178833,0.21346436,70.0
23587,-1.2213116,-2.7158432,0.031375885,-2.2100465,0.1178833,0.21346436,70.0
23588,-1.2213116,-2.7158432,0.031375885,-2.4521852,-0.016992187,0.19434814,70.0
23589,-0.8912945,-1.7348709,0.056983948,-2.4521852,-0.016992187,0.19434814,70.0
23590,-0.8912945,-1.7348709,0.056983948,-2.8132691,-0.081774905,0.1901001,70.0
23591,-1.2846909,-3.1190033,-0.7739334,-2.8132691,-0.081774905,0.1901001,70.0
23592,-1.2846909,-3.1190033,-0.7739334,-1.2807862,-0.026550293,-0.124255374,70.0
23593,-2.5064754,-4.569092,-1.3260574,-1.2807862,-0.026550293,-0.124255374,70.0
23594,-2.5064754,-4.569092,-1.3260574,-0.94412845,0.05522461,-0.632959,70.0
23595,-2.34589,-3.5253067,-0.36649704,-0.94412845,0.05522461,-0.632959,70.0
23596,-2.34589,-3.5253067,-0.36649704,-0.5968506,-0.3355957,-0.29523927,70.0
23597,-0.11445618,-1.8731995,1.1168098,-0.5968506,-0.3355957,-0.29523927,70.0
23598,-0.11445618,-1.8731995,1.1168098,-0.61702883,-0.33665773,-0.3440918,70.0
23599,1.539465,-1.2401123,1.064579,-0.61702883,-0.33665773,-0.3440918,70.0
23600,1.539465,-1.2401123,1.064579,-0.3079834,-0.20390625,-0.40250245,70.0
23601,1.3695717,-1.1910782,-0.1808815,-0.3079834,-0.20390625,-0.40250245,70.0
23602,1.3695717,-1.1910782,-0.1808815,-0.20496826,-0.06796875,-0.3706421,70.0
23603,0.5130272,-1.1360016,-0.9363098,-0.20496826,-0.06796875,-0.3706421,70.0
23604,0.5130272,-1.1360016,-0.9363098,-0.10089111,-0.0180542,-0.25594482,70.0
23605,0.5130272,-1.1360016,-0.9363098,-0.10089111,-0.0180542,-0.25594482,77.0
23606,-0.103372574,-0.8113251,-0.7250252,-0.10089111,-0.0180542,-0.25594482,77.0
23607,-0.103372574,-0.8113251,-0.7250252,-0.016992187,-0.11151123,-0.12319336,77.0
23608,-0.1325512,-0.3920288,-0.5240631,-0.016992187,-0.11151123,-0.12319336,77.0
23609,-0.1325512,-0.3920288,-0.5240631,-0.13062744,-0.15186767,-0.0063720704,77.0
23610,0.26665306,-0.19252777,-0.7894058,-0.13062744,-0.15186767,-0.0063720704,77.0
23611,0.26665306,-0.19252777,-0.7894058,-0.16673584,-0.14974366,0.06903076,77.0
23612,0.5143604,-0.24055481,-0.9048042,-0.16673584,-0.14974366,0.06903076,77.0
23613,0.5143604,-0.24055481,-0.9048042,-0.12956543,-0.118945315,0.081774905,77.0
23614,0.34705925,-0.16353607,-0.5475006,-0.12956543,-0.118945315,0.081774905,77.0
23615,0.34705925,-0.16353607,-0.5475006,-0.17629395,-0.1444336,0.11044922,77.0
23616,0.125597,0.02897644,-0.0047721863,-0.17629395,-0.1444336,0.11044922,77.0
23617,0.125597,0.02897644,-0.0047721863,-0.20072022,-0.1996582,0.1178833,77.0
23618,0.19625473,0.16430664,0.29301834,-0.20072022,-0.1996582,0.1178833,77.0
23619,0.19625473,0.16430664,0.29301834,-0.14018555,-0.1985962,0.1539917,77.0
23620,0.28342056,0.11934662,0.31468964,-0.14018555,-0.1985962,0.1539917,77.0
23621,0.28342056,0.11934662,0.31468964,-0.04885254,-0.20284425,0.13381349,77.0
23622,0.16242981,-0.06417847,0.28489685,-0.04885254,-0.20284425,0.13381349,77.0
23623,0.16242981,-0.06417847,0.28489685,0.08920898,-0.2177124,0.11682129,77.0
23624,-0.022241592,-0.14955139,0.24766922,0.08920898,-0.2177124,0.11682129,77.0
23625,-0.022241592,-0.14955139,0.24766922,0.1731079,-0.2442627,0.107263185,77.0
23626,-0.12111282,-0.081466675,0.19194794,0.1731079,-0.2442627,0.107263185,77.0
23627,-0.12111282,-0.081466675,0.19194794,0.25913087,-0.26868898,0.10301514,77.0
23628,-0.104068756,0.16087341,0.26109314,0.25913087,-0.26868898,0.10301514,77.0
23629,-0.104068756,0.16087341,0.26109314,0.17629395,-0.33240968,0.12956543,77.0
23630,0.09811783,0.4237442,0.34225082,0.17629395,-0.33240968,0.12956543,77.0
23631,0.09811783,0.4237442,0.34225082,0.09451904,-0.38869628,0.18903808,77.0
23632,0.37928772,0.40473175,0.16319275,0.09451904,-0.38869628,0.18903808,77.0
23633,0.37928772,0.40473175,0.16319275,0.19222413,-0.3993164,0.19753419,77.0
23634,0.5063,0.22978973,-0.1063118,0.19222413,-0.3993164,0.19753419,77.0
23635,0.5063,0.22978973,-0.1063118,0.26019287,-0.3802002,0.21452637,77.0
23636,0.49705696,0.28710175,-0.038028717,0.26019287,-0.3802002,0.21452637,77.0
23637,0.49705696,0.28710175,-0.038028717,0.26868898,-0.36320803,0.28355715,77.0
23638,0.29456902,0.38695526,0.38638687,0.26868898,-0.36320803,0.28355715,77.0
23639,0.29456902,0.38695526,0.38638687,0.22089843,-0.38551027,0.3430298,77.0
23640,-0.04257965,0.31700897,0.7186928,0.22089843,-0.38551027,0.3430298,77.0
23641,-0.04257965,0.31700897,0.7186928,0.36002198,-0.42161867,0.41206056,77.0
23642,-0.3078785,0.16014862,0.7489052,0.36002198,-0.42161867,0.41206056,77.0
23643,-0.3078785,0.16014862,0.7489052,0.5872925,-0.4609131,0.4694092,77.0
23644,-0.43064117,0.027885437,0.78619766,0.5872925,-0.4609131,0.4694092,77.0
23645,-0.43064117,0.027885437,0.78619766,0.7540283,-0.50445557,0.59047854,77.0
23646,-0.28700447,0.08250427,0.9233322,0.7540283,-0.50445557,0.59047854,77.0
23647,-0.28700447,0.08250427,0.9233322,0.6711914,-0.4970215,0.8071289,77.0
23648,0.34936333,0.50185394,0.938118,0.6711914,-0.4970215,0.8071289,77.0
23649,0.34936333,0.50185394,0.938118,0.8230591,-0.38338622,1.0503296,77.0
23650,1.2138538,1.2050705,0.7602234,0.8230591,-0.38338622,1.0503296,77.0
23651,1.2138538,1.2050705,0.7602234,1.2191895,-0.20921631,1.2223755,77.0
23652,1.5192642,1.8230362,0.46014404,1.2191895,-0.20921631,1.2223755,77.0
23653,1.5192642,1.8230362,0.46014404,1.4719483,-0.07327881,1.2308716,77.0
23654,1.0864315,2.0686493,0.15446854,1.4719483,-0.07327881,1.2308716,77.0
23655,1.0864315,2.0686493,0.15446854,1.174585,-0.035046387,1.1809571,77.0
23656,0.38705254,1.9040451,-0.09708023,1.174585,-0.035046387,1.1809571,77.0
23657,0.38705254,1.9040451,-0.09708023,1.2754761,-0.029736329,1.1597168,77.0
23658,-0.13210583,1.6453094,-0.1581688,1.2754761,-0.029736329,1.1597168,77.0
23659,-0.13210583,1.6453094,-0.1581688,1.3307008,-0.10089111,1.0694458,77.0
23660,-0.1948452,1.7366486,0.04436493,1.3307008,-0.10089111,1.0694458,77.0
23661,-0.1948452,1.7366486,0.04436493,1.2414917,-0.25063476,1.0567017,77.0
23662,0.19661331,1.9813843,0.30937958,1.2414917,-0.25063476,1.0567017,77.0
23663,0.19661331,1.9813843,0.30937958,1.2776002,-0.36745605,1.0407715,77.0
23664,0.6962433,1.9240875,0.3713417,1.2776002,-0.36745605,1.0407715,77.0
23665,0.6962433,1.9240875,0.3713417,1.3434448,-0.452417,1.0259033,77.0
23666,0.9984493,1.6521835,0.20117569,1.3434448,-0.452417,1.0259033,77.0
23667,0.9984493,1.6521835,0.20117569,1.4124756,-0.43117675,0.96218264,77.0
23668,1.0470629,1.4584885,0.03801346,1.4124756,-0.43117675,0.96218264,77.0
23669,1.0470629,1.4584885,0.03801346,1.4592041,-0.452417,0.905896,77.0
23670,0.98293877,1.5342712,-0.20036316,1.4592041,-0.452417,0.905896,77.0
23671,0.98293877,1.5342712,-0.20036316,1.2839721,-0.26868898,0.95368654,77.0
23672,1.191966,1.9306564,-0.6951294,1.2839721,-0.26868898,0.95368654,77.0
23673,1.191966,1.9306564,-0.6951294,0.27612305,-0.16885987,0.85491943,77.0
23674,1.6604452,1.3883972,-0.8748665,0.27612305,-0.16885987,0.85491943,77.0
23675,1.6604452,1.3883972,-0.8748665,0.13275146,-0.16461182,0.6488892,77.0
23676,1.6981564,0.30251312,-0.38555145,0.13275146,-0.16461182,0.6488892,77.0
23677,1.6981564,0.30251312,-0.38555145,0.2984253,-0.09133301,0.75615233,77.0
23678,1.0957565,0.4209137,0.4176712,0.2984253,-0.09133301,0.75615233,77.0
23679,1.0957565,0.4209137,0.4176712,-0.1901001,-0.014868164,0.7349121,77.0
23680,0.12084389,0.17037201,0.7900429,-0.1901001,-0.014868164,0.7349121,77.0
23681,0.12084389,0.17037201,0.7900429,-0.4715332,-0.093457036,0.5012695,77.0
23682,-0.72978973,-1.267868,-2.4032593E-4,-0.4715332,-0.093457036,0.5012695,77.0
23683,-0.72978973,-1.267868,-2.4032593E-4,-0.6945557,-0.11363526,0.16779785,77.0
23684,-1.0039368,-2.0743332,-1.3337975,-0.6945557,-0.11363526,0.16779785,77.0
23685,-1.0039368,-2.0743332,-1.3337975,-1.0588257,0.23045655,-0.008496094,77.0
23686,-0.8066292,-1.4226837,-2.1698112,-1.0588257,0.23045655,-0.008496094,77.0
23687,-0.8066292,-1.4226837,-2.1698112,-1.7353271,0.4056885,-0.06796875,77.0
23688,-0.63817406,-0.5911865,-2.3731537,-1.7353271,0.4056885,-0.06796875,77.0
23689,-0.63817406,-0.5911865,-2.3731537,-2.9269044,0.55755615,-0.0021240234,77.0
23690,-0.8163872,-0.9647217,-1.6149902,-2.9269044,0.55755615,-0.0021240234,77.0
23691,-0.8163872,-0.9647217,-1.6149902,-4.1099854,0.5777344,-0.04248047,77.0
23692,-0.6188812,-1.8483734,0.47722244,-4.1099854,0.5777344,-0.04248047,77.0
23693,-0.6188812,-1.8483734,0.47722244,-4.353186,0.77314454,-0.0010620117,77.0
23694,0.152112,-2.2580948,2.7568398,-4.353186,0.77314454,-0.0010620117,77.0
23695,0.152112,-2.2580948,2.7568398,-4.340442,0.49383545,0.28780517,77.0
23696,0.7344341,-2.7148056,3.8967552,-4.340442,0.49383545,0.28780517,77.0
23697,0.7344341,-2.7148056,3.8967552,-3.0490358,0.16673584,0.118945315,77.0
23698,0.84991264,-3.3940277,3.645115,-3.0490358,0.16673584,0.118945315,77.0
23699,0.84991264,-3.3940277,3.645115,-1.6747925,-0.24638672,0.0,77.0
23700,0.61816216,-3.621132,2.1981125,-1.6747925,-0.24638672,0.0,77.0
23701,0.61816216,-3.621132,2.1981125,-1.6737305,-0.03079834,-0.30054933,77.0
23702,0.84770393,-3.0432816,0.79950714,-1.6737305,-0.03079834,-0.30054933,77.0
23703,0.84770393,-3.0432816,0.79950714,-1.3954834,0.21027832,-0.64570314,77.0
23704,1.7120495,-1.2387619,1.9294853,-1.3954834,0.21027832,-0.64570314,77.0
23705,1.7120495,-1.2387619,1.9294853,-1.4124756,0.052038576,-0.43967286,77.0
23706,2.5349112,2.777275,5.87059,-1.4124756,0.052038576,-0.43967286,77.0
23707,2.5349112,2.777275,5.87059,-3.2168336,-1.0365235,0.6605713,77.0
23708,2.5296497,5.471451,8.100143,-3.2168336,-1.0365235,0.6605713,77.0
23709,2.5296497,5.471451,8.100143,-2.4946656,-1.9976441,1.084314,77.0
23710,1.7801533,2.2025604,5.142967,-2.4946656,-1.9976441,1.084314,77.0
23711,1.7801533,2.2025604,5.142967,-0.7349121,-2.345984,1.0407715,77.0
23712,1.7801533,2.2025604,5.142967,-0.7349121,-2.345984,1.0407715,85.0
23713,0.8489647,-3.717125,-0.3296814,-0.7349121,-2.345984,1.0407715,85.0
23714,0.8489647,-3.717125,-0.3296814,-0.3982544,-2.1473877,0.7699585,85.0
23715,-0.48988342,-6.8607025,-3.7094574,-0.3982544,-2.1473877,0.7699585,85.0
23716,-0.48988342,-6.8607025,-3.7094574,-2.2302246,-1.8372803,0.7975708,85.0
23717,-2.2330437,-7.8867188,-3.2055664,-2.2302246,-1.8372803,0.7975708,85.0
23718,-2.2330437,-7.8867188,-3.2055664,-3.8455446,-1.4708862,0.59047854,85.0
23719,-4.040695,-8.876541,-0.44091797,-3.8455446,-1.4708862,0.59047854,85.0
23720,-4.040695,-8.876541,-0.44091797,-4.8491454,-1.1236085,-0.18691407,85.0
23721,-4.789526,-7.5362167,0.3515625,-4.8491454,-1.1236085,-0.18691407,85.0
23722,-4.789526,-7.5362167,0.3515625,-3.3081665,-0.814563,-0.59897465,85.0
23723,-3.0063152,-2.8170242,-1.1827736,-3.3081665,-0.814563,-0.59897465,85.0
23724,-3.0063152,-2.8170242,-1.1827736,0.23364258,-1.7597535,-0.45666504,85.0
23725,0.5515766,-0.8757858,-4.5938263,0.23364258,-1.7597535,-0.45666504,85.0
23726,0.5515766,-0.8757858,-4.5938263,1.9466676,-1.5176147,-1.3285767,85.0
23727,5.066787,-1.2203369,-9.2454605,1.9466676,-1.5176147,-1.3285767,85.0
23728,5.066787,-1.2203369,-9.2454605,1.8479004,-1.1459106,-2.0093262,85.0
23729,8.623547,1.0596085,-10.303059,1.8479004,-1.1459106,-2.0093262,85.0
23730,8.623547,1.0596085,-10.303059,1.5664673,-1.1682129,-1.9498535,85.0
23731,9.398471,6.0329056,-6.5591354,1.5664673,-1.1682129,-1.9498535,85.0
23732,9.398471,6.0329056,-6.5591354,1.9424194,-1.7385132,-1.7714356,85.0
23733,9.206216,12.4205475,-1.5717735,1.9424194,-1.7385132,-1.7714356,85.0
23734,9.206216,12.4205475,-1.5717735,1.8786987,-2.2365968,-0.8772217,85.0
23735,9.014093,15.942978,1.1572189,1.8786987,-2.2365968,-0.8772217,85.0
23736,9.014093,15.942978,1.1572189,1.5845215,-2.259961,0.083898924,85.0
23737,7.6160846,13.477867,1.4391174,1.5845215,-2.259961,0.083898924,85.0
23738,7.6160846,13.477867,1.4391174,2.9311523,-1.9551636,0.6531372,85.0
23739,4.7818203,5.980606,1.0583649,2.9311523,-1.9551636,0.6531372,85.0
23740,4.7818203,5.980606,1.0583649,3.8264282,-1.6599244,1.1140503,85.0
23741,1.6131029,-1.9375381,1.515686,3.8264282,-1.6599244,1.1140503,85.0
23742,1.6131029,-1.9375381,1.515686,4.7333865,-1.2457398,1.2425537,85.0
23743,-1.1334436,-5.737068,2.7544556,4.7333865,-1.2457398,1.2425537,85.0
23744,-1.1334436,-5.737068,2.7544556,4.70896,-0.54693604,1.532483,85.0
23745,-3.296135,-4.5793533,3.8811417,4.70896,-0.54693604,1.532483,85.0
23746,-3.296135,-4.5793533,3.8811417,2.8313234,-0.15505372,1.8425903,85.0
23747,-5.0321717,-2.1752853,4.881977,2.8313234,-0.15505372,1.8425903,85.0
23748,-5.0321717,-2.1752853,4.881977,1.3763672,-0.087084964,1.5144287,85.0
23749,-5.726226,-1.2522125,4.926113,1.3763672,-0.087084964,1.5144287,85.0
23750,-5.726226,-1.2522125,4.926113,0.40144044,-0.13168946,1.2414917,85.0
23751,-4.5622673,-0.826416,2.8084564,0.40144044,-0.13168946,1.2414917,85.0
23752,-4.5622673,-0.826416,2.8084564,-0.29736328,0.04991455,1.3126465,85.0
23753,-2.4947844,0.08882141,-0.50920105,-0.29736328,0.04991455,1.3126465,85.0
23754,-2.4947844,0.08882141,-0.50920105,-1.1225464,0.4364868,1.6004517,85.0
23755,-1.0616355,0.7223129,-2.4954376,-1.1225464,0.4364868,1.6004517,85.0
23756,-1.0616355,0.7223129,-2.4954376,-1.7459472,0.7614624,2.0029542,85.0
23757,-0.76222324,0.03240204,-1.6933365,-1.7459472,0.7614624,2.0029542,85.0
23758,-0.76222324,0.03240204,-1.6933365,-1.6609863,0.9197022,2.2291627,85.0
23759,-1.1530404,-1.63311,0.58782196,-1.6609863,0.9197022,2.2291627,85.0
23760,-1.1530404,-1.63311,0.58782196,-1.3880494,0.9398804,2.3247437,85.0
23761,-1.4042931,-2.7552338,1.4638481,-1.3880494,0.9398804,2.3247437,85.0
23762,-1.4042931,-2.7552338,1.4638481,-1.6408081,0.9802368,2.266333,85.0
23763,-1.2300262,-2.9108658,0.14831161,-1.6408081,0.9802368,2.266333,85.0
23764,-1.2300262,-2.9108658,0.14831161,-1.6854126,0.6977417,2.0911012,85.0
23765,-0.9251585,-2.8378372,-0.8539734,-1.6854126,0.6977417,2.0911012,85.0
23766,-0.9251585,-2.8378372,-0.8539734,-1.2234375,0.5299439,1.8712647,85.0
23767,-0.65483665,-2.5234222,-0.30671692,-1.2234375,0.5299439,1.8712647,85.0
23768,-0.65483665,-2.5234222,-0.30671692,-1.1140503,0.43011475,1.6737305,85.0
23769,-0.7360153,-1.8207016,0.03547287,-1.1140503,0.43011475,1.6737305,85.0
23770,-0.7360153,-1.8207016,0.03547287,-0.3982544,0.31329346,1.7236451,85.0
23771,-1.0211239,-1.0157166,-0.343853,-0.3982544,0.31329346,1.7236451,85.0
23772,-1.0211239,-1.0157166,-0.343853,-0.05522461,0.3695801,1.7724975,85.0
23773,-0.9891157,-0.25146484,-0.2008667,-0.05522461,0.3695801,1.7724975,85.0
23774,-0.9891157,-0.25146484,-0.2008667,-0.58623046,0.29205322,1.6556762,85.0
23775,-0.6574793,0.35251617,0.7559433,-0.58623046,0.29205322,1.6556762,85.0
23776,-0.6574793,0.35251617,0.7559433,-0.4991455,0.04141846,1.7087768,85.0
23777,-0.3017769,0.3235016,1.4288139,-0.4991455,0.04141846,1.7087768,85.0
23778,-0.3017769,0.3235016,1.4288139,-0.4428589,-0.08920898,1.725769,85.0
23779,0.08677673,-0.7448273,0.61758804,-0.4428589,-0.08920898,1.725769,85.0
23780,0.08677673,-0.7448273,0.61758804,-0.37489015,-0.12956543,1.6578003,85.0
23781,0.3566656,-1.9902344,-1.0553436,-0.37489015,-0.12956543,1.6578003,85.0
23782,0.3566656,-1.9902344,-1.0553436,-0.2782471,-0.11044922,1.5834595,85.0
23783,0.26931667,-2.1498032,-1.8378792,-0.2782471,-0.11044922,1.5834595,85.0
23784,0.26931667,-2.1498032,-1.8378792,-0.11363526,-0.1178833,1.6174439,85.0
23785,-0.110889435,-1.2663879,-1.3778114,-0.11363526,-0.1178833,1.6174439,85.0
23786,-0.110889435,-1.2663879,-1.3778114,-0.10513916,-0.1529297,1.7289551,85.0
23787,-0.59708595,-0.55895996,-0.544899,-0.10513916,-0.1529297,1.7289551,85.0
23788,-0.59708595,-0.55895996,-0.544899,-0.093457036,-0.18903808,1.7480713,85.0
23789,-0.8290119,-0.5425339,-0.15202332,-0.093457036,-0.18903808,1.7480713,85.0
23790,-0.8290119,-0.5425339,-0.15202332,-0.23045655,-0.24001466,1.7778076,85.0
23791,-0.6953993,-0.6105652,-0.34532547,-0.23045655,-0.24001466,1.7778076,85.0
23792,-0.6953993,-0.6105652,-0.34532547,-0.23895264,-0.2548828,1.7852417,85.0
23793,-0.50924873,-0.23439026,-0.6297035,-0.23895264,-0.2548828,1.7852417,85.0
23794,-0.50924873,-0.23439026,-0.6297035,-0.20390625,-0.19753419,1.8277222,85.0
23795,-0.45692253,0.3467636,-0.5847931,-0.20390625,-0.19753419,1.8277222,85.0
23796,-0.45692253,0.3467636,-0.5847931,-0.13275146,-0.16248779,1.8340943,85.0
23797,-0.5342388,0.57678986,-0.3983307,-0.13275146,-0.16248779,1.8340943,85.0
23798,-0.5342388,0.57678986,-0.3983307,-0.13699952,-0.12531738,1.7788696,85.0
23799,-0.7589092,0.4382019,-0.39340973,-0.13699952,-0.12531738,1.7788696,85.0
23800,-0.7589092,0.4382019,-0.39340973,-0.0541626,-0.007434082,1.7565674,85.0
23801,-0.9844227,0.021240234,-0.4495659,-0.0541626,-0.007434082,1.7565674,85.0
23802,-0.9844227,0.021240234,-0.4495659,-0.04141846,0.057348635,1.7013428,85.0
23803,-0.8399668,-0.17199707,-0.33514404,-0.04141846,0.057348635,1.7013428,85.0
23804,-0.8399668,-0.17199707,-0.33514404,-0.04141846,0.095581055,1.6386842,85.0
23805,-0.40019608,0.124168396,-0.26531982,-0.04141846,0.095581055,1.6386842,85.0
23806,-0.40019608,0.124168396,-0.26531982,-0.05628662,0.19328614,1.6662964,85.0
23807,-0.38446426,0.20584106,-0.2360611,-0.05628662,0.19328614,1.6662964,85.0
23808,-0.38446426,0.20584106,-0.2360611,-0.023364259,0.270813,1.718335,85.0
23809,-1.0564842,0.09906006,0.009635925,-0.023364259,0.270813,1.718335,85.0
23810,-1.0564842,0.09906006,0.009635925,0.0722168,0.2824951,1.7650635,85.0
23811,-1.7247162,0.45550537,0.24655151,0.0722168,0.2824951,1.7650635,85.0
23812,-1.7247162,0.45550537,0.24655151,0.10407715,0.24213867,1.7321411,85.0
23813,-1.5927248,1.0255737,0.19468689,0.10407715,0.24213867,1.7321411,85.0
23814,-1.5927248,1.0255737,0.19468689,0.1901001,0.3164795,1.7693115,85.0
23815,-1.5927248,1.0255737,0.19468689,0.1901001,0.3164795,1.7693115,92.0
23816,-1.0198822,1.0936508,-0.006164551,0.1901001,0.3164795,1.7693115,92.0
23817,-1.0198822,1.0936508,-0.006164551,0.16779785,0.41737062,1.8192261,92.0
23818,-0.82922363,0.6795578,0.015964508,0.16779785,0.41737062,1.8192261,92.0
23819,-0.82922363,0.6795578,0.015964508,0.16673584,0.5171997,1.8298463,92.0
23820,-0.8446903,0.34874725,0.44176483,0.16673584,0.5171997,1.8298463,92.0
23821,-0.8446903,0.34874725,0.44176483,0.271875,0.5692383,1.7385132,92.0
23822,-0.62732697,0.5966034,0.8196106,0.271875,0.5692383,1.7385132,92.0
23823,-0.62732697,0.5966034,0.8196106,0.5363159,0.6616333,1.721521,92.0
23824,-0.4690857,1.0884552,0.63097,0.5363159,0.6616333,1.721521,92.0
23825,-0.4690857,1.0884552,0.63097,0.6159668,0.85704345,1.7278931,92.0
23826,-0.6972046,1.249443,0.11217499,0.6159668,0.85704345,1.7278931,92.0
23827,-0.6972046,1.249443,0.11217499,0.53525394,0.9897949,1.6716064,92.0
23828,-1.1661129,1.2860565,-0.28383255,0.53525394,0.9897949,1.6716064,92.0
23829,-1.1661129,1.2860565,-0.28383255,0.4959595,1.1915772,1.6163819,92.0
23830,-1.6386032,1.07518,-0.015663147,0.4959595,1.1915772,1.6163819,92.0
23831,-1.6386032,1.07518,-0.015663147,0.32922363,1.2967163,1.5685914,92.0
23832,-1.6516418,0.6409073,0.6704788,0.32922363,1.2967163,1.5685914,92.0
23833,-1.6516418,0.6409073,0.6704788,0.28355715,1.351941,1.3413209,92.0
23834,-1.1543579,0.8604584,0.71873474,0.28355715,1.351941,1.3413209,92.0
23835,-1.1543579,0.8604584,0.71873474,0.5851685,1.4517701,1.1522827,92.0
23836,-0.83304405,1.7395172,-0.2625351,0.5851685,1.4517701,1.1522827,92.0
23837,-0.83304405,1.7395172,-0.2625351,0.6881836,1.6238159,1.1225464,92.0
23838,-1.2267132,2.4348907,-1.3789482,0.6881836,1.6238159,1.1225464,92.0
23839,-1.2267132,2.4348907,-1.3789482,0.67437744,1.809668,1.1225464,92.0
23840,-1.9992781,2.4503021,-1.561676,0.67437744,1.809668,1.1225464,92.0
23841,-1.9992781,2.4503021,-1.561676,0.48321533,1.7289551,0.99935305,92.0
23842,-2.317379,1.9855804,-1.1459961,0.48321533,1.7289551,0.99935305,92.0
23843,-2.317379,1.9855804,-1.1459961,0.36745605,1.5462891,0.79226077,92.0
23844,-2.0857754,1.6424408,-1.1192894,0.36745605,1.5462891,0.79226077,92.0
23845,-2.0857754,1.6424408,-1.1192894,0.30161133,1.3827393,0.6977417,92.0
23846,-1.7709389,1.6241302,-1.6924057,0.30161133,1.3827393,0.6977417,92.0
23847,-1.7709389,1.6241302,-1.6924057,0.09664307,1.2754761,0.62127686,92.0
23848,-1.5632114,1.5530853,-2.228012,0.09664307,1.2754761,0.62127686,92.0
23849,-1.5632114,1.5530853,-2.228012,-0.18479005,1.1236085,0.57454836,92.0
23850,-1.4296093,1.0093536,-1.9274559,-0.18479005,1.1236085,0.57454836,92.0
23851,-1.4296093,1.0093536,-1.9274559,-0.39506838,0.9653687,0.4630371,92.0
23852,-1.3071995,0.29288483,-1.0600929,-0.39506838,0.9653687,0.4630371,92.0
23853,-1.3071995,0.29288483,-1.0600929,-0.4343628,0.82836914,0.5065796,92.0
23854,-1.0768871,-0.17323303,-0.43946838,-0.4343628,0.82836914,0.5065796,92.0
23855,-1.0768871,-0.17323303,-0.43946838,-0.62127686,0.6531372,0.3727661,92.0
23856,-0.7009258,-0.32442474,-0.3299179,-0.62127686,0.6531372,0.3727661,92.0
23857,-0.7009258,-0.32442474,-0.3299179,-0.6180908,0.5363159,0.36002198,92.0
23858,-0.34566498,-0.30569458,-0.6038971,-0.6180908,0.5363159,0.36002198,92.0
23859,-0.34566498,-0.30569458,-0.6038971,-0.58623046,0.4694092,0.29205322,92.0
23860,-0.18467331,-0.21370697,-0.80358887,-0.58623046,0.4694092,0.29205322,92.0
23861,-0.18467331,-0.21370697,-0.80358887,-0.3727661,0.4895874,0.27293703,92.0
23862,-0.23547173,0.0340271,-0.6771622,-0.3727661,0.4895874,0.27293703,92.0
23863,-0.23547173,0.0340271,-0.6771622,-0.26444092,0.5161377,0.2814331,92.0
23864,-0.4449196,0.13946533,-0.21570206,-0.26444092,0.5161377,0.2814331,92.0
23865,-0.4449196,0.13946533,-0.21570206,-0.22302246,0.43967286,0.23258057,92.0
23866,-0.63443947,-0.15405273,0.21532822,-0.22302246,0.43967286,0.23258057,92.0
23867,-0.63443947,-0.15405273,0.21532822,-0.3058594,0.30267334,0.15930176,92.0
23868,-0.65823555,-0.15676117,0.047153473,-0.3058594,0.30267334,0.15930176,92.0
23869,-0.65823555,-0.15676117,0.047153473,-0.35152587,0.1901001,0.16673584,92.0
23870,-0.5964737,0.6336441,-0.6064148,-0.35152587,0.1901001,0.16673584,92.0
23871,-0.5964737,0.6336441,-0.6064148,-0.49277344,0.14868164,0.22833252,92.0
23872,-0.5560856,1.3013382,-0.96178055,-0.49277344,0.14868164,0.22833252,92.0
23873,-0.5560856,1.3013382,-0.96178055,-0.66269535,0.10195313,0.24213867,92.0
23874,-0.5496044,1.0876007,-0.6848068,-0.66269535,0.10195313,0.24213867,92.0
23875,-0.5496044,1.0876007,-0.6848068,-0.7720825,0.03079834,0.22939454,92.0
23876,-0.52534103,0.45175934,-0.0975647,-0.7720825,0.03079834,0.22939454,92.0
23877,-0.52534103,0.45175934,-0.0975647,-0.6945557,-0.059472658,0.20390625,92.0
23878,-0.45603943,0.0146102905,0.4195404,-0.6945557,-0.059472658,0.20390625,92.0
23879,-0.45603943,0.0146102905,0.4195404,-0.61915284,-0.13381349,0.13275146,92.0
23880,-0.30799675,-0.10765076,0.75639343,-0.61915284,-0.13381349,0.13275146,92.0
23881,-0.30799675,-0.10765076,0.75639343,-0.63826907,-0.23789063,0.06903076,92.0
23882,-0.03030777,-0.16062927,0.69981766,-0.63826907,-0.23789063,0.06903076,92.0
23883,-0.03030777,-0.16062927,0.69981766,-0.6988037,-0.33028564,0.02442627,92.0
23884,0.25364685,-0.33813477,0.32202148,-0.6988037,-0.33028564,0.02442627,92.0
23885,0.25364685,-0.33813477,0.32202148,-0.63933104,-0.36745605,0.0021240234,92.0
23886,0.33926964,-0.5691147,0.25317383,-0.63933104,-0.36745605,0.0021240234,92.0
23887,0.33926964,-0.5691147,0.25317383,-0.53525394,-0.3440918,-0.028674318,92.0
23888,0.22190475,-0.7006378,0.67787933,-0.53525394,-0.3440918,-0.028674318,92.0
23889,0.22190475,-0.7006378,0.67787933,-0.61278075,-0.36639404,-0.025488282,92.0
23890,0.15089989,-0.72888184,1.1022148,-0.61278075,-0.36639404,-0.025488282,92.0
23891,0.15089989,-0.72888184,1.1022148,-0.7147339,-0.40144044,-0.039294433,92.0
23892,0.3158493,-0.6345444,1.062645,-0.7147339,-0.40144044,-0.039294433,92.0
23893,0.3158493,-0.6345444,1.062645,-0.7327881,-0.41949463,-0.047790527,92.0
23894,0.5028744,-0.38235474,0.5484314,-0.7327881,-0.41949463,-0.047790527,92.0
23895,0.5028744,-0.38235474,0.5484314,-0.7104859,-0.3982544,-0.023364259,92.0
23896,0.49396133,-0.33003235,0.13558578,-0.7104859,-0.3982544,-0.023364259,92.0
23897,0.49396133,-0.33003235,0.13558578,-0.70092773,-0.33240968,0.010620117,92.0
23898,0.37987328,-0.582077,0.14819336,-0.70092773,-0.33240968,0.010620117,92.0
23899,0.37987328,-0.582077,0.14819336,-0.68499756,-0.2442627,0.050976563,92.0
23900,0.256279,-0.82102203,0.33973312,-0.68499756,-0.2442627,0.050976563,92.0
23901,0.256279,-0.82102203,0.33973312,-0.6924316,-0.118945315,0.08602295,92.0
23902,0.24175453,-0.92684174,0.4916458,-0.6924316,-0.118945315,0.08602295,92.0
23903,0.24175453,-0.92684174,0.4916458,-0.8251831,-0.06159668,0.13381349,92.0
23904,0.43736076,-0.8662567,0.2680359,-0.8251831,-0.06159668,0.13381349,92.0
23905,0.43736076,-0.8662567,0.2680359,-0.8496094,-0.009558106,0.13487549,92.0
23906,0.66838264,-0.6347275,-0.41297913,-0.8496094,-0.009558106,0.13487549,92.0
23907,0.66838264,-0.6347275,-0.41297913,-0.71154785,0.0722168,0.124255374,92.0
23908,0.58205605,-0.3059845,-1.052002,-0.71154785,0.0722168,0.124255374,92.0
23909,0.58205605,-0.3059845,-1.052002,-0.55543214,0.13062744,0.08071289,92.0
23910,0.22157669,-0.04307556,-1.2962036,-0.55543214,0.13062744,0.08071289,92.0
23911,0.22157669,-0.04307556,-1.2962036,-0.40462646,0.18054199,0.0361084,92.0
23912,-0.085544586,0.078689575,-1.1739616,-0.40462646,0.18054199,0.0361084,92.0
23913,-0.085544586,0.078689575,-1.1739616,-0.28568116,0.18372802,0.025488282,92.0
23914,-0.2107563,0.04486084,-0.8573189,-0.28568116,0.18372802,0.025488282,92.0
23915,-0.2107563,0.04486084,-0.8573189,-0.24213867,0.15505372,0.040356446,92.0
23916,-0.2107563,0.04486084,-0.8573189,-0.24213867,0.15505372,0.040356446,94.0
23917,-0.19028473,-0.21142578,-0.5561447,-0.24213867,0.15505372,0.040356446,94.0
23918,-0.19028473,-0.21142578,-0.5561447,-0.25594482,0.11151123,0.0541626,94.0
23919,-0.11879349,-0.6384125,-0.22201538,-0.25594482,0.11151123,0.0541626,94.0
23920,-0.11879349,-0.6384125,-0.22201538,-0.17735596,0.07646485,0.022302246,94.0
23921,-0.11152649,-0.8159332,0.2508316,-0.17735596,0.07646485,0.022302246,94.0
23922,-0.11152649,-0.8159332,0.2508316,-0.13168946,0.019116212,0.010620117,94.0
23923,-0.15037918,-0.581131,0.5623741,-0.13168946,0.019116212,0.010620117,94.0
23924,-0.15037918,-0.581131,0.5623741,-0.22196046,-0.025488282,0.040356446,94.0
23925,-0.14375305,-0.26104736,0.44393158,-0.22196046,-0.025488282,0.040356446,94.0
23926,-0.14375305,-0.26104736,0.44393158,-0.36108398,-0.035046387,0.06903076,94.0
23927,-0.058776855,-0.1554184,0.12064743,-0.36108398,-0.035046387,0.06903076,94.0
23928,-0.058776855,-0.1554184,0.12064743,-0.41206056,-0.012744141,0.08920898,94.0
23929,0.029870987,-0.3430252,0.009189606,-0.41206056,-0.012744141,0.08920898,94.0
23930,0.029870987,-0.3430252,0.009189606,-0.34833986,0.014868164,0.08602295,94.0
23931,0.0072841644,-0.48025513,0.16551971,-0.34833986,0.014868164,0.08602295,94.0
23932,0.0072841644,-0.48025513,0.16551971,-0.31860352,0.012744141,0.10195313,94.0
23933,-0.1152668,-0.31677246,0.2754326,-0.31860352,0.012744141,0.10195313,94.0
23934,-0.1152668,-0.31677246,0.2754326,-0.3451538,-0.0010620117,0.13168946,94.0
23935,-0.18722153,-0.13057709,0.08791351,-0.3451538,-0.0010620117,0.13168946,94.0
23936,-0.18722153,-0.13057709,0.08791351,-0.4088745,0.016992187,0.16992188,94.0
23937,-0.14072037,-0.17162323,-0.23244095,-0.4088745,0.016992187,0.16992188,94.0
23938,-0.14072037,-0.17162323,-0.23244095,-0.40462646,0.06584473,0.18691407,94.0
23939,-0.09034729,-0.31945038,-0.32995987,-0.40462646,0.06584473,0.18691407,94.0
23940,-0.09034729,-0.31945038,-0.32995987,-0.39613038,0.10089111,0.22196046,94.0
23941,-0.10988808,-0.41293335,-0.19061661,-0.39613038,0.10089111,0.22196046,94.0
23942,-0.10988808,-0.41293335,-0.19061661,-0.38869628,0.11363526,0.22302246,94.0
23943,-0.13484573,-0.3776474,-0.10505676,-0.38869628,0.11363526,0.22302246,94.0
23944,-0.13484573,-0.3776474,-0.10505676,-0.35471192,0.13699952,0.22089843,94.0
23945,-0.15489769,-0.20215607,-0.1683464,-0.35471192,0.13699952,0.22089843,94.0
23946,-0.15489769,-0.20215607,-0.1683464,-0.2538208,0.15717773,0.20284425,94.0
23947,-0.2426548,0.056747437,-0.342968,-0.2538208,0.15717773,0.20284425,94.0
23948,-0.2426548,0.056747437,-0.342968,-0.14549561,0.18691407,0.17629395,94.0
23949,-0.380085,0.28629303,-0.56937027,-0.14549561,0.18691407,0.17629395,94.0
23950,-0.380085,0.28629303,-0.56937027,-0.13062744,0.21240234,0.17947999,94.0
23951,-0.44980812,0.33067322,-0.7090874,-0.13062744,0.21240234,0.17947999,94.0
23952,-0.44980812,0.33067322,-0.7090874,-0.15505372,0.23682861,0.18054199,94.0
23953,-0.34197617,0.1712265,-0.70350266,-0.15505372,0.23682861,0.18054199,94.0
23954,-0.34197617,0.1712265,-0.70350266,-0.12850343,0.25594482,0.17523193,94.0
23955,-0.1432209,-0.0013656616,-0.58836365,-0.12850343,0.25594482,0.17523193,94.0
23956,-0.1432209,-0.0013656616,-0.58836365,-0.04885254,0.25913087,0.15930176,94.0
23957,-0.059926987,-0.067619324,-0.44215012,-0.04885254,0.25913087,0.15930176,94.0
23958,-0.059926987,-0.067619324,-0.44215012,-0.032922365,0.23895264,0.16567384,94.0
23959,-0.15985489,-0.10596466,-0.34342957,-0.032922365,0.23895264,0.16567384,94.0
23960,-0.15985489,-0.10596466,-0.34342957,-0.04885254,0.21558838,0.16354981,94.0
23961,-0.32676125,-0.118019104,-0.2528305,-0.04885254,0.21558838,0.16354981,94.0
23962,-0.32676125,-0.118019104,-0.2528305,-0.05628662,0.20603028,0.16673584,94.0
23963,-0.37478828,-0.0776062,-0.18666458,-0.05628662,0.20603028,0.16673584,94.0
23964,-0.37478828,-0.0776062,-0.18666458,-0.050976563,0.19647217,0.16248779,94.0
23965,-0.5181179,0.12542725,-0.05696106,-0.050976563,0.19647217,0.16248779,94.0
23966,-0.5181179,0.12542725,-0.05696106,-0.09133301,0.16567384,0.16567384,94.0
23967,-0.4803028,0.21575928,-0.058460236,-0.09133301,0.16567384,0.16567384,94.0
23968,-0.4803028,0.21575928,-0.058460236,-0.13381349,0.16248779,0.17416993,94.0
23969,-0.39881706,0.39383698,-0.057582855,-0.13381349,0.16248779,0.17416993,94.0
23970,-0.39881706,0.39383698,-0.057582855,-0.19328614,0.15611573,0.20284425,94.0
23971,-0.32052994,0.2891388,-0.0122413635,-0.19328614,0.15611573,0.20284425,94.0
23972,-0.32052994,0.2891388,-0.0122413635,-0.2166504,0.1444336,0.19753419,94.0
23973,-0.22236633,-0.059059143,0.09710312,-0.2166504,0.1444336,0.19753419,94.0
23974,-0.22236633,-0.059059143,0.09710312,-0.26656494,0.09133301,0.18372802,94.0
23975,-0.16971588,-0.116630554,-0.02325821,-0.26656494,0.09133301,0.18372802,94.0
23976,-0.16971588,-0.116630554,-0.02325821,-0.27718505,0.08602295,0.18372802,94.0
23977,0.0724926,-0.048187256,-0.37997437,-0.27718505,0.08602295,0.18372802,94.0
23978,0.0724926,-0.048187256,-0.37997437,-0.26550293,0.08814698,0.1731079,94.0
23979,0.14349365,0.009727478,-0.43172836,-0.26550293,0.08814698,0.1731079,94.0
23980,0.14349365,0.009727478,-0.43172836,-0.22727051,0.09770508,0.16992188,94.0
23981,0.32038498,-0.045890808,-0.5022888,-0.22727051,0.09770508,0.16992188,94.0
23982,0.32038498,-0.045890808,-0.5022888,-0.13062744,0.087084964,0.16036378,94.0
23983,0.22166443,-0.108161926,-0.39458084,-0.13062744,0.087084964,0.16036378,94.0
23984,0.22166443,-0.108161926,-0.39458084,-0.12319336,0.078588866,0.16036378,94.0
23985,-0.006591797,-0.21870422,-0.23508453,-0.12319336,0.078588866,0.16036378,94.0
23986,-0.006591797,-0.21870422,-0.23508453,-0.14337158,0.046728518,0.13912354,94.0
23987,-0.087682724,-0.13594055,-0.17944717,-0.14337158,0.046728518,0.13912354,94.0
23988,-0.087682724,-0.13594055,-0.17944717,-0.1529297,0.033984374,0.13381349,94.0
23989,-0.29710007,0.099105835,-0.05472946,-0.1529297,0.033984374,0.13381349,94.0
23990,-0.29710007,0.099105835,-0.05472946,-0.25594482,-0.013806152,0.1083252,94.0
23991,-0.2735691,0.14125061,-0.04452896,-0.25594482,-0.013806152,0.1083252,94.0
23992,-0.2735691,0.14125061,-0.04452896,-0.27293703,-0.032922365,0.09770508,94.0
23993,-0.3113098,0.34339905,-0.068092346,-0.27293703,-0.032922365,0.09770508,94.0
23994,-0.3113098,0.34339905,-0.068092346,-0.23682861,-0.06903076,0.06690674,94.0
23995,-0.35268402,0.3463974,-0.037395477,-0.23682861,-0.06903076,0.06690674,94.0
23996,-0.35268402,0.3463974,-0.037395477,-0.2347046,-0.09664307,0.052038576,94.0
23997,-0.48356247,0.3336258,0.08165741,-0.2347046,-0.09664307,0.052038576,94.0
23998,-0.48356247,0.3336258,0.08165741,-0.28780517,-0.17735596,0.011682129,94.0
23999,-0.39749336,0.13368225,0.08034134,-0.28780517,-0.17735596,0.011682129,94.0
24000,-0.39749336,0.13368225,0.08034134,-0.30161133,-0.2623169,-0.038232423,94.0
24001,-0.063964844,-0.08542633,0.014823914,-0.30161133,-0.2623169,-0.038232423,94.0
24002,-0.063964844,-0.08542633,0.014823914,-0.41206056,-0.34833986,-0.09770508,94.0
24003,0.36948395,-0.2158966,-0.023639679,-0.41206056,-0.34833986,-0.09770508,94.0
24004,0.36948395,-0.2158966,-0.023639679,-0.4078125,-0.41312256,-0.07434082,94.0
24005,0.82766724,-0.6232147,-0.2810707,-0.4078125,-0.41312256,-0.07434082,94.0
24006,0.82766724,-0.6232147,-0.2810707,-0.36108398,-0.40037844,-0.09451904,94.0
24007,0.7375603,-0.72650146,-0.19318008,-0.36108398,-0.40037844,-0.09451904,94.0
24008,0.7375603,-0.72650146,-0.19318008,-0.3069214,-0.41524658,-0.10407715,94.0
24009,0.39068222,-0.8826752,0.25375366,-0.3069214,-0.41524658,-0.10407715,94.0
24010,0.39068222,-0.8826752,0.25375366,-0.30267334,-0.48109132,-0.13062744,94.0
24011,-0.1127224,-0.59251404,0.44133377,-0.30267334,-0.48109132,-0.13062744,94.0
24012,-0.1127224,-0.59251404,0.44133377,-0.45666504,-0.4704712,-0.11363526,94.0
24013,-0.20446014,0.030410767,0.038978577,-0.45666504,-0.4704712,-0.11363526,94.0
24014,-0.20446014,0.030410767,0.038978577,-0.5161377,-0.3525879,-0.0637207,94.0
24015,0.14182663,0.3337021,-0.031757355,-0.5161377,-0.3525879,-0.0637207,94.0
24016,0.14182663,0.3337021,-0.031757355,-0.33665773,-0.23789063,-0.035046387,94.0
24017,0.37742615,-0.049446106,0.5828934,-0.33665773,-0.23789063,-0.035046387,94.0
24018,0.37742615,-0.049446106,0.5828934,-0.28674316,-0.24532472,-0.0541626,94.0
24019,0.27167892,-0.49179077,0.971344,-0.28674316,-0.24532472,-0.0541626,94.0
24020,0.27167892,-0.49179077,0.971344,-0.39294434,-0.2782471,0.010620117,94.0
24021,0.27167892,-0.49179077,0.971344,-0.39294434,-0.2782471,0.010620117,102.0
24022,0.20441628,-0.35721588,0.6902237,-0.39294434,-0.2782471,0.010620117,102.0
24023,0.20441628,-0.35721588,0.6902237,-0.6159668,-0.33665773,0.04248047,102.0
24024,0.51947784,0.17876434,0.20379257,-0.6159668,-0.33665773,0.04248047,102.0
24025,0.51947784,0.17876434,0.20379257,-0.81243896,-0.3355957,0.18691407,102.0
24026,0.70515823,0.22940826,-0.073791504,-0.81243896,-0.3355957,0.18691407,102.0
24027,0.70515823,0.22940826,-0.073791504,-0.92926025,-0.35046387,0.24213867,102.0
24028,0.35671616,-0.56770325,-0.05657959,-0.92926025,-0.35046387,0.24213867,102.0
24029,0.35671616,-0.56770325,-0.05657959,-0.87403566,-0.4056885,0.14868164,102.0
24030,-0.031557083,-1.4149551,0.13570786,-0.87403566,-0.4056885,0.14868164,102.0
24031,-0.031557083,-1.4149551,0.13570786,-0.90058595,-0.51188964,0.023364259,102.0
24032,-0.09831619,-1.5365906,0.3371544,-0.90058595,-0.51188964,0.023364259,102.0
24033,-0.09831619,-1.5365906,0.3371544,-1.0110352,-0.63933104,-0.012744141,102.0
24034,0.11620712,-1.3453522,0.17646027,-1.0110352,-0.63933104,-0.012744141,102.0
24035,0.11620712,-1.3453522,0.17646027,-1.0906861,-0.73597413,-0.0722168,102.0
24036,0.615427,-1.3873672,-0.75019073,-1.0906861,-0.73597413,-0.0722168,102.0
24037,0.615427,-1.3873672,-0.75019073,-0.6988037,-0.6042847,-0.070092775,102.0
24038,1.2041588,-1.2188034,-1.3038483,-0.6988037,-0.6042847,-0.070092775,102.0
24039,1.2041588,-1.2188034,-1.3038483,-0.9324463,-0.5256958,-0.10620117,102.0
24040,1.3598728,-0.85202026,-0.6933594,-0.9324463,-0.5256958,-0.10620117,102.0
24041,1.3598728,-0.85202026,-0.6933594,-0.8050049,-0.4970215,-0.025488282,102.0
24042,0.9600544,-0.7196274,-0.0231781,-0.8050049,-0.4970215,-0.025488282,102.0
24043,0.9600544,-0.7196274,-0.0231781,-0.8814697,-0.45878908,-0.009558106,102.0
24044,0.3289814,-0.8109207,0.17822266,-0.8814697,-0.45878908,-0.009558106,102.0
24045,0.3289814,-0.8109207,0.17822266,-0.96218264,-0.41737062,-0.043542482,102.0
24046,-0.16399956,-0.9684906,0.20184326,-0.96218264,-0.41737062,-0.043542482,102.0
24047,-0.16399956,-0.9684906,0.20184326,-0.8995239,-0.42799073,-0.12000733,102.0
24048,-0.31774712,-0.934494,0.36743164,-0.8995239,-0.42799073,-0.12000733,102.0
24049,-0.31774712,-0.934494,0.36743164,-0.815625,-0.41949463,-0.21558838,102.0
24050,-0.20545578,-0.5544815,0.628952,-0.815625,-0.41949463,-0.21558838,102.0
24051,-0.20545578,-0.5544815,0.628952,-0.9611206,-0.42692873,-0.23895264,102.0
24052,4.310608E-4,-0.10257721,0.87809753,-0.9611206,-0.42692873,-0.23895264,102.0
24053,4.310608E-4,-0.10257721,0.87809753,-1.0715698,-0.48321533,-0.22833252,102.0
24054,0.2706566,-0.0027618408,1.1075325,-1.0715698,-0.48321533,-0.22833252,102.0
24055,0.2706566,-0.0027618408,1.1075325,-0.8315552,-0.53100586,-0.16248779,102.0
24056,0.5905857,-0.31018066,1.1356087,-0.8315552,-0.53100586,-0.16248779,102.0
24057,0.5905857,-0.31018066,1.1356087,-0.5915405,-0.52250975,-0.14761963,102.0
24058,0.9069786,-0.82554626,0.7165909,-0.5915405,-0.52250975,-0.14761963,102.0
24059,0.9069786,-0.82554626,0.7165909,-0.3802002,-0.43011475,-0.22833252,102.0
24060,1.0709801,-1.1137466,0.14746857,-0.3802002,-0.43011475,-0.22833252,102.0
24061,1.0709801,-1.1137466,0.14746857,-0.20709229,-0.3419678,-0.3058594,102.0
24062,0.97395897,-0.9928055,-0.23041153,-0.20709229,-0.3419678,-0.3058594,102.0
24063,0.97395897,-0.9928055,-0.23041153,-0.08283692,-0.30054933,-0.39188233,102.0
24064,0.80703545,-0.80298615,-0.42071915,-0.08283692,-0.30054933,-0.39188233,102.0
24065,0.80703545,-0.80298615,-0.42071915,0.083898924,-0.20284425,-0.4609131,102.0
24066,0.7595806,-0.6085739,-0.3036766,0.083898924,-0.20284425,-0.4609131,102.0
24067,0.7595806,-0.6085739,-0.3036766,0.2984253,-0.11044922,-0.5246338,102.0
24068,0.8517685,-0.2539978,0.13677216,0.2984253,-0.11044922,-0.5246338,102.0
24069,0.8517685,-0.2539978,0.13677216,0.5171997,-0.0541626,-0.5055176,102.0
24070,1.0707455,0.15582275,0.44609833,0.5171997,-0.0541626,-0.5055176,102.0
24071,1.0707455,0.15582275,0.44609833,0.62552494,0.038232423,-0.4630371,102.0
24072,1.2260914,0.3556671,0.3384819,0.62552494,0.038232423,-0.4630371,102.0
24073,1.2260914,0.3556671,0.3384819,0.5766724,0.16461182,-0.45772704,102.0
24074,4.706459,7.4140396,-10.227577,0.5766724,0.16461182,-0.45772704,102.0
24075,4.706459,7.4140396,-10.227577,0.43967286,0.29205322,-0.47471926,102.0
24076,3.5342102,6.0648727,-8.116802,0.43967286,0.29205322,-0.47471926,102.0
24077,3.5342102,6.0648727,-8.116802,0.41949463,0.3440918,-0.39400634,102.0
24078,2.5063362,4.974907,-6.247509,0.41949463,0.3440918,-0.39400634,102.0
24079,2.5063362,4.974907,-6.247509,0.4694092,0.3695801,-0.34940186,102.0
24080,1.8566437,3.8513947,-4.965744,0.4694092,0.3695801,-0.34940186,102.0
24081,1.8566437,3.8513947,-4.965744,0.5522461,0.4248047,-0.33878174,102.0
24082,4.988,2.080162,-11.451881,0.5522461,0.4248047,-0.33878174,102.0
24083,4.988,2.080162,-11.451881,0.6966797,0.49489745,-0.29948732,102.0
24084,0.23010921,2.2899628,-2.3599815,0.6966797,0.49489745,-0.29948732,102.0
24085,0.23010921,2.2899628,-2.3599815,0.7497803,0.53737795,-0.35895997,102.0
24086,-0.18054867,1.5612717,-2.155487,0.7497803,0.53737795,-0.35895997,102.0
24087,-0.18054867,1.5612717,-2.155487,0.9451904,0.5915405,-0.38551027,102.0
24088,-0.44099617,1.0054245,-2.0369644,0.9451904,0.5915405,-0.38551027,102.0
24089,-0.44099617,1.0054245,-2.0369644,1.0163453,0.65632325,-0.43117675,102.0
24090,-0.57133865,0.6559906,-1.7918396,1.0163453,0.65632325,-0.43117675,102.0
24091,-0.57133865,0.6559906,-1.7918396,0.99298096,0.6605713,-0.4248047,102.0
24092,-0.54201984,0.3226471,-1.2098389,0.99298096,0.6605713,-0.4248047,102.0
24093,-0.54201984,0.3226471,-1.2098389,0.84111327,0.6159668,-0.45772704,102.0
24094,-0.23682594,-0.3331833,-0.6462784,0.84111327,0.6159668,-0.45772704,102.0
24095,-0.23682594,-0.3331833,-0.6462784,0.8527954,0.5692383,-0.5341919,102.0
24096,0.18013191,-1.1691818,-0.3633957,0.8527954,0.5692383,-0.5341919,102.0
24097,0.18013191,-1.1691818,-0.3633957,1.0343994,0.5055176,-0.65632325,102.0
24098,0.4729023,-1.3038483,-0.40498734,1.0343994,0.5055176,-0.65632325,102.0
24099,0.4729023,-1.3038483,-0.40498734,1.0588257,0.44816896,-0.6711914,102.0
24100,0.5381241,-0.38863373,-0.80677795,1.0588257,0.44816896,-0.6711914,102.0
24101,0.5381241,-0.38863373,-0.80677795,0.8358032,0.40144044,-0.5703003,102.0
24102,0.3920107,0.5954056,-1.2488785,0.8358032,0.40144044,-0.5703003,102.0
24103,0.3920107,0.5954056,-1.2488785,0.62552494,0.42799073,-0.50233155,102.0
24104,0.112277985,0.66991425,-1.218792,0.62552494,0.42799073,-0.50233155,102.0
24105,0.112277985,0.66991425,-1.218792,0.44179687,0.4078125,-0.4800293,102.0
24106,-0.025301933,0.021492004,-0.69005966,0.44179687,0.4078125,-0.4800293,102.0
24107,-0.025301933,0.021492004,-0.69005966,0.41737062,0.38657227,-0.5161377,102.0
24108,0.16520691,-0.45355988,-0.1784401,0.41737062,0.38657227,-0.5161377,102.0
24109,0.16520691,-0.45355988,-0.1784401,0.5883545,0.37701416,-0.46409914,102.0
24110,0.42003155,-0.51426697,-0.16687393,0.5883545,0.37701416,-0.46409914,102.0
24111,0.42003155,-0.51426697,-0.16687393,0.67331547,0.38338622,-0.42692873,102.0
24112,0.3592062,-0.404068,-0.32318497,0.67331547,0.38338622,-0.42692873,102.0
24113,0.3592062,-0.404068,-0.32318497,0.5543701,0.36851808,-0.39613038,102.0
24114,-0.017773628,-0.2906952,-0.14591217,0.5543701,0.36851808,-0.39613038,102.0
24115,-0.017773628,-0.2906952,-0.14591217,0.53100586,0.35789797,-0.4258667,102.0
24116,-0.17706013,-0.12850189,-0.0887146,0.53100586,0.35789797,-0.4258667,102.0
24117,-0.17706013,-0.12850189,-0.0887146,0.63933104,0.38444826,-0.4598511,102.0
24118,0.102407455,0.13896942,-0.34721756,0.63933104,0.38444826,-0.4598511,102.0
24119,0.102407455,0.13896942,-0.34721756,0.7805786,0.47365722,-0.45347902,102.0
24120,0.30660915,0.36585236,-0.62566376,0.7805786,0.47365722,-0.45347902,102.0
24121,0.30660915,0.36585236,-0.62566376,0.8867798,0.5511841,-0.4343628,102.0
24122,0.20739746,0.24604797,-0.7016678,0.8867798,0.5511841,-0.4343628,102.0
24123,0.20739746,0.24604797,-0.7016678,1.0482056,0.631897,-0.45347902,102.0
24124,0.19951153,-0.061523438,-0.5092087,1.0482056,0.631897,-0.45347902,102.0
24125,0.19951153,-0.061523438,-0.5092087,1.3147706,0.6775635,-0.38975832,102.0
24126,0.4064474,0.04409027,-0.24702835,1.3147706,0.6775635,-0.38975832,102.0
24127,0.4064474,0.04409027,-0.24702835,1.4400879,0.7083618,-0.31116945,102.0
24128,0.34750938,0.39617157,0.03062439,1.4400879,0.7083618,-0.31116945,102.0
24129,0.34750938,0.39617157,0.03062439,1.4018555,0.6988037,-0.28674316,102.0
24130,0.34750938,0.39617157,0.03062439,1.4018555,0.6988037,-0.28674316,110.0
24131,-0.01184845,0.46836853,0.19581223,1.4018555,0.6988037,-0.28674316,110.0
24132,-0.01184845,0.46836853,0.19581223,1.1395386,0.631897,-0.25913087,110.0
24133,-0.7252989,0.14829254,0.6487045,1.1395386,0.631897,-0.25913087,110.0
24134,-0.7252989,0.14829254,0.6487045,0.7540283,0.36533204,-0.47684327,110.0
24135,-1.4975853,0.26124573,0.8108711,0.7540283,0.36533204,-0.47684327,110.0
24136,-1.4975853,0.26124573,0.8108711,0.29205322,0.24107666,-0.22514649,110.0
24137,-1.0877771,0.6993866,0.160038,0.29205322,0.24107666,-0.22514649,110.0
24138,-1.0877771,0.6993866,0.160038,0.44073486,0.2793091,-0.18585205,110.0
24139,-0.015827179,0.27666473,0.1178627,0.44073486,0.2793091,-0.18585205,110.0
24140,-0.015827179,0.27666473,0.1178627,0.61065674,0.20709229,-0.1901001,110.0
24141,0.5268402,-0.6821594,0.8060341,0.61065674,0.20709229,-0.1901001,110.0
24142,0.5268402,-0.6821594,0.8060341,0.3706421,0.09451904,-0.14761963,110.0
24143,0.6734009,-1.1010056,1.079483,0.3706421,0.09451904,-0.14761963,110.0
24144,0.6734009,-1.1010056,1.079483,0.0637207,-0.033984374,-0.11044922,110.0
24145,0.65158653,-0.7740555,0.77759933,0.0637207,-0.033984374,-0.11044922,110.0
24146,0.65158653,-0.7740555,0.77759933,-0.04248047,-0.07752686,-0.057348635,110.0
24147,0.49438953,-0.13549042,0.35095978,-0.04248047,-0.07752686,-0.057348635,110.0
24148,0.49438953,-0.13549042,0.35095978,-0.039294433,-0.10407715,-0.010620117,110.0
24149,0.3470497,0.32852173,-0.14242554,-0.039294433,-0.10407715,-0.010620117,110.0
24150,0.3470497,0.32852173,-0.14242554,-0.016992187,-0.087084964,0.021240234,110.0
24151,0.289176,0.41259766,-0.615345,-0.016992187,-0.087084964,0.021240234,110.0
24152,0.289176,0.41259766,-0.615345,0.08814698,-0.06159668,0.035046387,110.0
24153,0.22185612,0.22049713,-0.63617325,0.08814698,-0.06159668,0.035046387,110.0
24154,0.22185612,0.22049713,-0.63617325,0.20284425,-0.035046387,0.06478272,110.0
24155,0.13339233,-0.013374329,-0.11689758,0.20284425,-0.035046387,0.06478272,110.0
24156,0.13339233,-0.013374329,-0.11689758,0.20709229,-0.019116212,0.115759276,110.0
24157,0.10727501,-0.20899963,0.45423508,0.20709229,-0.019116212,0.115759276,110.0
24158,0.10727501,-0.20899963,0.45423508,0.08496094,-0.010620117,0.15505372,110.0
24159,0.17876434,-0.31132507,0.57995224,0.08496094,-0.010620117,0.15505372,110.0
24160,0.17876434,-0.31132507,0.57995224,-0.021240234,0.039294433,0.16885987,110.0
24161,0.24308491,-0.18820953,0.30169296,-0.021240234,0.039294433,0.16885987,110.0
24162,0.24308491,-0.18820953,0.30169296,-0.020178223,0.06478272,0.17841797,110.0
24163,0.20093822,0.07430267,-0.16311264,-0.020178223,0.06478272,0.17841797,110.0
24164,0.20093822,0.07430267,-0.16311264,0.008496094,0.10301514,0.21452637,110.0
24165,0.13246632,0.18183899,-0.5194435,0.008496094,0.10301514,0.21452637,110.0
24166,0.13246632,0.18183899,-0.5194435,0.093457036,0.16779785,0.22089843,110.0
24167,0.12119579,0.054214478,-0.46782684,0.093457036,0.16779785,0.22089843,110.0
24168,0.12119579,0.054214478,-0.46782684,0.16461182,0.20390625,0.22939454,110.0
24169,0.13313866,-0.08103943,-0.18301392,0.16461182,0.20390625,0.22939454,110.0
24170,0.13313866,-0.08103943,-0.18301392,0.15823975,0.22196046,0.2442627,110.0
24171,0.11700916,-0.12767029,-5.1116943E-4,0.15823975,0.22196046,0.2442627,110.0
24172,0.11700916,-0.12767029,-5.1116943E-4,0.15080567,0.23258057,0.2548828,110.0
24173,0.10763264,-0.1053009,0.0028381348,0.15080567,0.23258057,0.2548828,110.0
24174,0.10763264,-0.1053009,0.0028381348,0.13168946,0.24957275,0.27718505,110.0
24175,0.11558628,-0.0599823,-0.08829498,0.13168946,0.24957275,0.27718505,110.0
24176,0.11558628,-0.0599823,-0.08829498,0.14761963,0.2623169,0.3090454,110.0
24177,0.06502819,-0.07659912,-0.10700226,0.14761963,0.2623169,0.3090454,110.0
24178,0.06502819,-0.07659912,-0.10700226,0.1529297,0.24851075,0.33028564,110.0
24179,-0.0064849854,-0.14278412,-0.07398224,0.1529297,0.24851075,0.33028564,110.0
24180,-0.0064849854,-0.14278412,-0.07398224,0.13806152,0.23045655,0.35577393,110.0
24181,-0.06733322,-0.17705536,-0.05231476,0.13806152,0.23045655,0.35577393,110.0
24182,-0.06733322,-0.17705536,-0.05231476,0.13168946,0.2166504,0.3727661,110.0
24183,-0.14291668,-0.13784027,0.029777527,0.13168946,0.2166504,0.3727661,110.0
24184,-0.14291668,-0.13784027,0.029777527,0.078588866,0.19434814,0.38444826,110.0
24185,-0.21646976,-0.04777527,0.096271515,0.078588866,0.19434814,0.38444826,110.0
24186,-0.21646976,-0.04777527,0.096271515,-0.010620117,0.16461182,0.4088745,110.0
24187,-0.25463295,-0.043167114,0.09606171,-0.010620117,0.16461182,0.4088745,110.0
24188,-0.25463295,-0.043167114,0.09606171,-0.08496094,0.1274414,0.4248047,110.0
24189,-0.35301018,-0.16481018,0.14558792,-0.08496094,0.1274414,0.4248047,110.0
24190,-0.35301018,-0.16481018,0.14558792,-0.23045655,0.07115479,0.42055663,110.0
24191,-0.5164528,-0.29518127,0.16650772,-0.23045655,0.07115479,0.42055663,110.0
24192,-0.5164528,-0.29518127,0.16650772,-0.41524658,0.040356446,0.39613038,110.0
24193,-0.5848541,-0.28058624,0.031471252,-0.41524658,0.040356446,0.39613038,110.0
24194,-0.5848541,-0.28058624,0.031471252,-0.55755615,0.07115479,0.36320803,110.0
24195,-0.5134773,-0.13278198,-0.04210663,-0.55755615,0.07115479,0.36320803,110.0
24196,-0.5134773,-0.13278198,-0.04210663,-0.5915405,0.15080567,0.3430298,110.0
24197,-0.3111725,0.09236145,0.1532669,-0.5915405,0.15080567,0.3430298,110.0
24198,-0.3111725,0.09236145,0.1532669,-0.62552494,0.18903808,0.2888672,110.0
24199,-0.06285381,0.35188293,0.3366394,-0.62552494,0.18903808,0.2888672,110.0
24200,-0.06285381,0.35188293,0.3366394,-0.6244629,0.1709839,0.24744873,110.0
24201,-0.076003075,0.46931458,0.05002594,-0.6244629,0.1709839,0.24744873,110.0
24202,-0.076003075,0.46931458,0.05002594,-0.6085327,0.13168946,0.19753419,110.0
24203,-0.4245472,0.46235657,-0.61281204,-0.6085327,0.13168946,0.19753419,110.0
24204,-0.4245472,0.46235657,-0.61281204,-0.6159668,0.09664307,0.13806152,110.0
24205,-0.63145924,0.47457123,-1.1282997,-0.6159668,0.09664307,0.13806152,110.0
24206,-0.63145924,0.47457123,-1.1282997,-0.59472656,0.06903076,0.11151123,110.0
24207,-0.43248653,0.40885925,-1.0586205,-0.59472656,0.06903076,0.11151123,110.0
24208,-0.43248653,0.40885925,-1.0586205,-0.58304447,-0.019116212,0.07115479,110.0
24209,-0.07678795,0.30696106,-0.62620544,-0.58304447,-0.019116212,0.07115479,110.0
24210,-0.07678795,0.30696106,-0.62620544,-0.5809204,-0.14549561,0.03186035,110.0
24211,0.19577217,0.24069977,-0.45594406,-0.5809204,-0.14549561,0.03186035,110.0
24212,0.19577217,0.24069977,-0.45594406,-0.52038574,-0.26550293,0.012744141,110.0
24213,0.3928852,0.31317902,-0.759861,-0.52038574,-0.26550293,0.012744141,110.0
24214,0.3928852,0.31317902,-0.759861,-0.3971924,-0.3058594,0.0361084,110.0
24215,0.6019306,0.52104187,-1.1133461,-0.3971924,-0.3058594,0.0361084,110.0
24216,0.6019306,0.52104187,-1.1133461,-0.31860352,-0.3355957,0.08071289,110.0
24217,0.6277847,0.5733795,-0.91080475,-0.31860352,-0.3355957,0.08071289,110.0
24218,0.6277847,0.5733795,-0.91080475,-0.38444826,-0.4322388,0.093457036,110.0
24219,0.24468422,0.25687408,-0.16592407,-0.38444826,-0.4322388,0.093457036,110.0
24220,0.24468422,0.25687408,-0.16592407,-0.48427734,-0.6042847,0.046728518,110.0
24221,-0.4176445,-0.20210266,0.3891716,-0.48427734,-0.6042847,0.046728518,110.0
24222,-0.4176445,-0.20210266,0.3891716,-0.6053467,-0.7965088,0.012744141,110.0
24223,-0.8882656,-0.25993347,0.036643982,-0.6053467,-0.7965088,0.012744141,110.0
24224,-0.8882656,-0.25993347,0.036643982,-0.68499756,-0.7880127,-0.032922365,110.0
24225,-0.8561573,0.25060272,-0.75539017,-0.68499756,-0.7880127,-0.032922365,110.0
24226,-0.8561573,0.25060272,-0.75539017,-0.90908206,-0.63720703,-0.038232423,110.0
24227,-0.8561573,0.25060272,-0.75539017,-0.90908206,-0.63720703,-0.038232423,107.0
24228,-0.5947771,0.6647186,-0.75738907,-0.90908206,-0.63720703,-0.038232423,107.0
24229,-0.5947771,0.6647186,-0.75738907,-1.3105224,-0.5607422,-0.118945315,107.0
24230,-0.43585587,0.38964844,0.22288513,-1.3105224,-0.5607422,-0.118945315,107.0
24231,-0.43585587,0.38964844,0.22288513,-1.7894897,-0.6403931,-0.22833252,107.0
24232,-0.3945465,-0.09880066,1.2702751,-1.7894897,-0.6403931,-0.22833252,107.0
24233,-0.3945465,-0.09880066,1.2702751,-2.086853,-0.811377,-0.3058594,107.0
24234,-0.34106445,0.022827148,1.660923,-2.086853,-0.811377,-0.3058594,107.0
24235,-0.34106445,0.022827148,1.660923,-2.2142944,-1.0237793,-0.34940186,107.0
24236,-0.09116173,0.65083313,1.2895164,-2.2142944,-1.0237793,-0.34940186,107.0
24237,-0.09116173,0.65083313,1.2895164,-2.2992554,-1.1724609,-0.3440918,107.0
24238,0.27555656,0.7721939,0.6929779,-2.2992554,-1.1724609,-0.3440918,107.0
24239,0.27555656,0.7721939,0.6929779,-2.2142944,-1.2945923,-0.4694092,107.0
24240,0.83161545,1.0414352,-0.22359467,-2.2142944,-1.2945923,-0.4694092,107.0
24241,0.83161545,1.0414352,-0.22359467,-1.6567383,-1.1108643,-0.16567384,107.0
24242,1.3291597,2.2706757,-1.0865555,-1.6567383,-1.1108643,-0.16567384,107.0
24243,1.3291597,2.2706757,-1.0865555,-2.1144655,-1.1140503,-0.13062744,107.0
24244,0.8289652,2.5398712,-0.73817825,-2.1144655,-1.1140503,-0.13062744,107.0
24245,0.8289652,2.5398712,-0.73817825,-3.446228,-1.269104,-0.37701416,107.0
24246,-0.3966179,0.923645,0.17690277,-3.446228,-1.269104,-0.37701416,107.0
24247,-0.3966179,0.923645,0.17690277,-3.9697998,-1.4868164,-0.20921631,107.0
24248,-1.2145844,-0.4172287,0.7279129,-3.9697998,-1.4868164,-0.20921631,107.0
24249,-1.2145844,-0.4172287,0.7279129,-4.499744,-1.7077149,0.21240234,107.0
24250,-1.196888,-0.5038376,1.4709549,-4.499744,-1.7077149,0.21240234,107.0
24251,-1.196888,-0.5038376,1.4709549,-5.9143434,-2.2196045,0.0031860352,107.0
24252,-0.47223186,-0.60352325,2.9907532,-5.9143434,-2.2196045,0.0031860352,107.0
24253,-0.47223186,-0.60352325,2.9907532,-6.577039,-2.5074098,0.053100586,107.0
24254,0.71813774,-0.88874817,4.3884163,-6.577039,-2.5074098,0.053100586,107.0
24255,0.71813774,-0.88874817,4.3884163,-6.959363,-2.4574952,-0.15186767,107.0
24256,1.9024887,-1.0709229,4.7648582,-6.959363,-2.4574952,-0.15186767,107.0
24257,1.9024887,-1.0709229,4.7648582,-6.227637,-2.340674,-0.21452637,107.0
24258,2.4365425,-1.145874,4.081455,-6.227637,-2.340674,-0.21452637,107.0
24259,2.4365425,-1.145874,4.081455,-4.945789,-2.241907,-0.58304447,107.0
24260,2.3997717,-1.0065308,2.5200691,-4.945789,-2.241907,-0.58304447,107.0
24261,2.3997717,-1.0065308,2.5200691,-4.1599,-1.893567,-0.83049315,107.0
24262,2.07232,-1.0005264,1.0007744,-4.1599,-1.893567,-0.83049315,107.0
24263,2.07232,-1.0005264,1.0007744,-3.524817,-1.535669,-1.1480347,107.0
24264,1.3454542,-1.1735611,0.23748398,-3.524817,-1.535669,-1.1480347,107.0
24265,1.3454542,-1.1735611,0.23748398,-2.981067,-1.1958252,-1.4369019,107.0
24266,0.2772913,-1.5590134,-0.018470764,-2.981067,-1.1958252,-1.4369019,107.0
24267,0.2772913,-1.5590134,-0.018470764,-2.437317,-0.8878418,-1.4390259,107.0
24268,-1.0085135,-2.3052826,-0.39212036,-2.437317,-0.8878418,-1.4390259,107.0
24269,-1.0085135,-2.3052826,-0.39212036,-1.0397094,-0.63720703,-1.9328613,107.0
24270,-1.9544668,-2.5586166,-1.0313492,-1.0397094,-0.63720703,-1.9328613,107.0
24271,-1.9544668,-2.5586166,-1.0313492,-0.9228882,-0.37489015,-2.0210083,107.0
24272,-2.1998892,-2.247696,-2.0236511,-0.9228882,-0.37489015,-2.0210083,107.0
24273,-2.1998892,-2.247696,-2.0236511,-1.2850342,-0.025488282,-2.2291627,107.0
24274,-1.9537468,-1.5003052,-2.7922134,-1.2850342,-0.025488282,-2.2291627,107.0
24275,-1.9537468,-1.5003052,-2.7922134,-1.5760254,0.3802002,-2.350232,107.0
24276,-1.624814,-0.60951996,-2.641098,-1.5760254,0.3802002,-2.350232,107.0
24277,-1.624814,-0.60951996,-2.641098,-1.1151123,0.6690674,-2.4213867,107.0
24278,-1.3732405,-0.28351593,-1.8100319,-1.1151123,0.6690674,-2.4213867,107.0
24279,-1.3732405,-0.28351593,-1.8100319,-0.44710693,0.8867798,-2.427759,107.0
24280,-1.3094444,-0.32439423,-1.0844536,-0.44710693,0.8867798,-2.427759,107.0
24281,-1.3094444,-0.32439423,-1.0844536,-0.20284425,1.0205933,-2.4150147,107.0
24282,-1.189743,0.05431366,-0.83887863,-0.20284425,1.0205933,-2.4150147,107.0
24283,-1.189743,0.05431366,-0.83887863,-0.42374268,1.1873292,-2.3725343,107.0
24284,-0.8031492,1.0048523,-0.911705,-0.42374268,1.1873292,-2.3725343,107.0
24285,-0.8031492,1.0048523,-0.911705,-0.64995116,1.3413209,-2.2514648,107.0
24286,-0.46457672,1.7587509,-1.0302544,-0.64995116,1.3413209,-2.2514648,107.0
24287,-0.46457672,1.7587509,-1.0302544,-0.7338501,1.5038086,-2.0687988,107.0
24288,-0.35796547,1.7410202,-1.1450768,-0.7338501,1.5038086,-2.0687988,107.0
24289,-0.35796547,1.7410202,-1.1450768,-0.57561034,1.7236451,-1.9445435,107.0
24290,-0.4518261,1.5811462,-1.3908539,-0.57561034,1.7236451,-1.9445435,107.0
24291,-0.4518261,1.5811462,-1.3908539,-0.14337158,1.991272,-1.7321411,107.0
24292,-1.3216534,3.1278534,-1.356617,-0.14337158,1.991272,-1.7321411,107.0
24293,-1.3216534,3.1278534,-1.356617,0.36639404,2.2971313,-1.1151123,107.0
24294,-2.548729,5.0305634,0.8803177,0.36639404,2.2971313,-1.1151123,107.0
24295,-2.548729,5.0305634,0.8803177,-0.634021,1.4984986,-0.23258057,107.0
24296,-2.2859802,2.7660751,3.5003471,-0.634021,1.4984986,-0.23258057,107.0
24297,-2.2859802,2.7660751,3.5003471,-1.1512207,1.2754761,-0.5214478,107.0
24298,-0.32543945,-2.0512238,3.3990326,-1.1512207,1.2754761,-0.5214478,107.0
24299,-0.32543945,-2.0512238,3.3990326,-0.011682129,1.0715698,-0.33665773,107.0
24300,1.6986942,-4.6984634,1.4174423,-0.011682129,1.0715698,-0.33665773,107.0
24301,1.6986942,-4.6984634,1.4174423,0.10301514,1.002539,-0.21346436,107.0
24302,2.5514479,-4.8875046,-0.86428833,0.10301514,1.002539,-0.21346436,107.0
24303,2.5514479,-4.8875046,-0.86428833,-0.3440918,1.0875,-0.4056885,107.0
24304,2.5040483,-3.8760529,-2.0838013,-0.3440918,1.0875,-0.4056885,107.0
24305,2.5040483,-3.8760529,-2.0838013,-0.70092773,1.2446778,-0.6085327,107.0
24306,2.3333416,-2.2238235,-1.9206772,-0.70092773,1.2446778,-0.6085327,107.0
24307,2.3333416,-2.2238235,-1.9206772,-0.6074707,1.3710572,-0.6403931,107.0
24308,1.9680529,-0.54535675,-0.97317505,-0.6074707,1.3710572,-0.6403931,107.0
24309,1.9680529,-0.54535675,-0.97317505,-0.38232422,1.44646,-0.63826907,107.0
24310,1.1478071,0.4516449,0.05601883,-0.38232422,1.44646,-0.63826907,107.0
24311,1.1478071,0.4516449,0.05601883,-0.33028564,1.4156617,-0.67650145,107.0
24312,0.2634611,0.5768204,0.8420181,-0.33028564,1.4156617,-0.67650145,107.0
24313,0.2634611,0.5768204,0.8420181,-0.3419678,1.3360108,-0.7147339,107.0
24314,-0.19046402,0.27519226,1.263752,-0.3419678,1.3360108,-0.7147339,107.0
24315,-0.19046402,0.27519226,1.263752,-0.2888672,1.2202514,-0.72323,107.0
24316,-0.2786522,-0.10241699,1.2806168,-0.2888672,1.2202514,-0.72323,107.0
24317,-0.2786522,-0.10241699,1.2806168,-0.16567384,1.1161743,-0.7625244,107.0
24318,-0.28730202,-0.35972595,0.800045,-0.16567384,1.1161743,-0.7625244,107.0
24319,-0.28730202,-0.35972595,0.800045,-0.028674318,1.0747559,-0.811377,107.0
24320,-0.15221691,-0.31487274,0.00944519,-0.028674318,1.0747559,-0.811377,107.0
24321,-0.15221691,-0.31487274,0.00944519,0.13168946,1.1140503,-0.811377,107.0
24322,0.25883007,-0.084236145,-0.52835464,0.13168946,1.1140503,-0.811377,107.0
24323,0.25883007,-0.084236145,-0.52835464,0.29948732,1.177771,-0.71154785,107.0
24324,0.25883007,-0.084236145,-0.52835464,0.29948732,1.177771,-0.71154785,103.0
24325,0.69665146,-0.15435028,-0.56191635,0.29948732,1.177771,-0.71154785,103.0
24326,0.69665146,-0.15435028,-0.56191635,0.38657227,1.2202514,-0.5341919,103.0
24327,0.89954567,-0.74594116,-0.3881569,0.38657227,1.2202514,-0.5341919,103.0
24328,0.89954567,-0.74594116,-0.3881569,0.33134767,1.2383057,-0.42055663,103.0
24329,0.8594923,-1.2689209,-0.5251007,0.33134767,1.2383057,-0.42055663,103.0
24330,0.8594923,-1.2689209,-0.5251007,0.032922365,1.3009644,-0.41312256,103.0
24331,0.6930504,-1.044838,-1.0113297,0.032922365,1.3009644,-0.41312256,103.0
24332,0.6930504,-1.044838,-1.0113297,-0.1901001,1.44646,-0.48321533,103.0
24333,0.5526705,-0.1953659,-1.2282028,-0.1901001,1.44646,-0.48321533,103.0
24334,0.5526705,-0.1953659,-1.2282028,-0.1178833,1.622754,-0.54375,103.0
24335,0.43669224,0.46894073,-0.7016907,-0.1178833,1.622754,-0.54375,103.0
24336,0.43669224,0.46894073,-0.7016907,-0.03079834,1.6822265,-0.62552494,103.0
24337,0.39816952,0.6673279,0.049510956,-0.03079834,1.6822265,-0.62552494,103.0
24338,0.39816952,0.6673279,0.049510956,0.12531738,1.7427613,-0.70092773,103.0
24339,0.5368223,0.6318588,0.23763275,0.12531738,1.7427613,-0.70092773,103.0
24340,0.5368223,0.6318588,0.23763275,0.1263794,1.7916138,-0.724292,103.0
24341,0.7512474,0.41374207,-0.1537056,0.1263794,1.7916138,-0.724292,103.0
24342,0.7512474,0.41374207,-0.1537056,0.060534667,1.8882569,-0.72854006,103.0
24343,0.9456272,0.023231506,-0.5756264,0.060534667,1.8882569,-0.72854006,103.0
24344,0.9456272,0.023231506,-0.5756264,-0.16992188,2.0029542,-0.79119873,103.0
24345,1.001998,-0.3182907,-0.6436081,-0.16992188,2.0029542,-0.79119873,103.0
24346,1.001998,-0.3182907,-0.6436081,-0.16885987,2.1378295,-0.86341554,103.0
24347,0.85380745,-0.35624695,-0.430233,-0.16885987,2.1378295,-0.86341554,103.0
24348,0.85380745,-0.35624695,-0.430233,-0.016992187,2.2387207,-0.9430664,103.0
24349,0.5671644,0.09716797,-0.105831146,-0.016992187,2.2387207,-0.9430664,103.0
24350,0.5671644,0.09716797,-0.105831146,-0.17947999,2.272705,-0.9451904,103.0
24351,0.34414864,0.49780273,0.10914612,-0.17947999,2.272705,-0.9451904,103.0
24352,0.34414864,0.49780273,0.10914612,-0.4163086,2.3066895,-1.075818,103.0
24353,0.43886852,0.22818756,0.0018310547,-0.4163086,2.3066895,-1.075818,103.0
24354,0.43886852,0.22818756,0.0018310547,-0.46728516,2.4075806,-1.2138795,103.0
24355,0.90215683,-0.41590118,-0.25441742,-0.46728516,2.4075806,-1.2138795,103.0
24356,0.90215683,-0.41590118,-0.25441742,-0.38975832,2.4808595,-1.4284058,103.0
24357,1.611557,-0.72883606,-0.3432808,-0.38975832,2.4808595,-1.4284058,103.0
24358,1.611557,-0.72883606,-0.3432808,-0.28780517,2.5042236,-1.634436,103.0
24359,2.196887,-0.50081635,-0.36694717,-0.28780517,2.5042236,-1.634436,103.0
24360,2.196887,-0.50081635,-0.36694717,-0.3175415,2.51803,-1.9073731,103.0
24361,2.3869777,-0.080451965,-0.50951004,-0.3175415,2.51803,-1.9073731,103.0
24362,2.3869777,-0.080451965,-0.50951004,-0.23151855,2.5392702,-2.0741088,103.0
24363,2.2659173,0.024589539,-0.57956696,-0.23151855,2.5392702,-2.0741088,103.0
24364,2.2659173,0.024589539,-0.57956696,0.14868164,2.532898,-2.2281005,103.0
24365,2.1021261,-0.2757492,-0.5333061,0.14868164,2.532898,-2.2281005,103.0
24366,2.1021261,-0.2757492,-0.5333061,0.48640138,2.4914796,-2.2886353,103.0
24367,1.9333487,-0.7649002,-0.71421814,0.48640138,2.4914796,-2.2886353,103.0
24368,1.9333487,-0.7649002,-0.71421814,0.542688,2.4797974,-2.3385499,103.0
24369,1.7074943,-1.2214432,-1.1705933,0.542688,2.4797974,-2.3385499,103.0
24370,1.7074943,-1.2214432,-1.1705933,0.70198977,2.4872315,-2.3863404,103.0
24371,1.4125776,-1.3916321,-1.564209,0.70198977,2.4872315,-2.3863404,103.0
24372,1.4125776,-1.3916321,-1.564209,0.85598147,2.4755495,-2.4182007,103.0
24373,1.0734463,-1.0024796,-1.4630127,0.85598147,2.4755495,-2.4182007,103.0
24374,1.0734463,-1.0024796,-1.4630127,0.67437744,2.4182007,-2.348108,103.0
24375,0.8616867,-0.3443985,-0.7595215,0.67437744,2.4182007,-2.348108,103.0
24376,0.8616867,-0.3443985,-0.7595215,0.2347046,2.3151855,-2.1728761,103.0
24377,0.9044008,-0.446846,-0.14558029,0.2347046,2.3151855,-2.1728761,103.0
24378,0.9044008,-0.446846,-0.14558029,0.08283692,2.2185426,-2.0210083,103.0
24379,1.0584083,-1.1603088,-0.34778976,0.08283692,2.2185426,-2.0210083,103.0
24380,1.0584083,-1.1603088,-0.34778976,0.24851075,2.275891,-2.0454347,103.0
24381,1.0191507,-0.9365387,-0.84046173,0.24851075,2.275891,-2.0454347,103.0
24382,1.0191507,-0.9365387,-0.84046173,0.2814331,2.2865112,-2.0486207,103.0
24383,0.6635628,0.61309814,-0.708992,0.2814331,2.2865112,-2.0486207,103.0
24384,0.6635628,0.61309814,-0.708992,0.28461915,2.0879152,-1.8755127,103.0
24385,0.33054495,1.8971329,-0.34602737,0.28461915,2.0879152,-1.8755127,103.0
24386,0.33054495,1.8971329,-0.34602737,0.55543214,1.7799317,-1.3795532,103.0
24387,0.09453845,1.9964523,-0.33542633,0.55543214,1.7799317,-1.3795532,103.0
24388,0.09453845,1.9964523,-0.33542633,0.22727051,1.81073,-1.6769165,103.0
24389,0.12515473,1.4825592,-0.36058807,0.22727051,1.81073,-1.6769165,103.0
24390,0.12515473,1.4825592,-0.36058807,0.21452637,1.807544,-1.6046997,103.0
24391,0.38039708,1.0854263,-0.039375305,0.21452637,1.807544,-1.6046997,103.0
24392,0.38039708,1.0854263,-0.039375305,0.059472658,1.7300171,-1.4825684,103.0
24393,0.40503788,0.7617264,0.5764351,0.059472658,1.7300171,-1.4825684,103.0
24394,0.40503788,0.7617264,0.5764351,0.0180542,1.5792115,-1.3381348,103.0
24395,0.41417933,0.32139587,1.0502129,0.0180542,1.5792115,-1.3381348,103.0
24396,0.41417933,0.32139587,1.0502129,0.008496094,1.4443359,-1.1820191,103.0
24397,0.5693073,-0.11917877,1.0607758,0.008496094,1.4443359,-1.1820191,103.0
24398,0.5693073,-0.11917877,1.0607758,-0.04248047,1.3328247,-1.0875,103.0
24399,0.652797,-0.42495728,0.9596443,-0.04248047,1.3328247,-1.0875,103.0
24400,0.652797,-0.42495728,0.9596443,0.04460449,1.2489258,-1.0057251,103.0
24401,0.4759121,-0.52575684,1.2283249,0.04460449,1.2489258,-1.0057251,103.0
24402,0.4759121,-0.52575684,1.2283249,0.3090454,1.1098022,-0.91757816,103.0
24403,0.23218226,-0.28788757,1.6763878,0.3090454,1.1098022,-0.91757816,103.0
24404,0.23218226,-0.28788757,1.6763878,0.5331299,0.90270996,-0.81031495,103.0
24405,0.1789465,0.20818329,1.6017532,0.5331299,0.90270996,-0.81031495,103.0
24406,0.1789465,0.20818329,1.6017532,0.50233155,0.74447024,-0.7147339,103.0
24407,0.32444382,0.67565155,0.8421097,0.50233155,0.74447024,-0.7147339,103.0
24408,0.32444382,0.67565155,0.8421097,0.37595215,0.71367186,-0.634021,103.0
24409,0.50738215,0.78822327,0.143013,0.37595215,0.71367186,-0.634021,103.0
24410,0.50738215,0.78822327,0.143013,0.26656494,0.725354,-0.65632325,103.0
24411,0.5721166,0.48518372,0.095573425,0.26656494,0.725354,-0.65632325,103.0
24412,0.5721166,0.48518372,0.095573425,0.27506104,0.71367186,-0.6616333,103.0
24413,0.5527129,0.14803314,0.34006882,0.27506104,0.71367186,-0.6616333,103.0
24414,0.5527129,0.14803314,0.34006882,0.26019287,0.6924316,-0.7147339,103.0
24415,0.6479809,0.1121521,0.29545593,0.26019287,0.6924316,-0.7147339,103.0
24416,0.6479809,0.1121521,0.29545593,0.20284425,0.7189819,-0.75296634,103.0
24417,0.9160166,0.277771,-0.050266266,0.20284425,0.7189819,-0.75296634,103.0
24418,0.9160166,0.277771,-0.050266266,0.32072756,0.7827026,-0.81987303,103.0
24419,1.0382698,0.6288452,-0.32005692,0.32072756,0.7827026,-0.81987303,103.0
24420,1.0382698,0.6288452,-0.32005692,0.3451538,0.83898926,-0.6818115,103.0
24421,1.0382698,0.6288452,-0.32005692,0.3451538,0.83898926,-0.6818115,101.0
24422,0.77700245,1.0349503,-0.44153214,0.3451538,0.83898926,-0.6818115,101.0
24423,0.77700245,1.0349503,-0.44153214,0.3440918,0.9632446,-0.41843262,101.0
24424,0.19532025,1.2042084,-0.68042374,0.3440918,0.9632446,-0.41843262,101.0
24425,0.19532025,1.2042084,-0.68042374,0.4322388,1.1533448,-0.17416993,101.0
24426,-0.3521911,1.2123032,-1.2287025,0.4322388,1.1533448,-0.17416993,101.0
24427,-0.3521911,1.2123032,-1.2287025,0.542688,1.454956,0.0053100586,101.0
24428,-0.48283923,0.9296417,-1.7111359,0.542688,1.454956,0.0053100586,101.0
24429,-0.48283923,0.9296417,-1.7111359,0.9165161,1.8447144,0.1444336,101.0
24430,-0.2780683,0.008056641,-1.3336678,0.9165161,1.8447144,0.1444336,101.0
24431,-0.2780683,0.008056641,-1.3336678,1.7650635,1.9498535,0.029736329,101.0
24432,-0.5185361,-0.23109436,0.055992126,1.7650635,1.9498535,0.029736329,101.0
24433,-0.5185361,-0.23109436,0.055992126,1.993396,1.7055908,0.2538208,101.0
24434,-1.5387301,1.2396011,1.8907661,1.993396,1.7055908,0.2538208,101.0
24435,-1.5387301,1.2396011,1.8907661,1.0216553,1.2892822,0.50020754,101.0
24436,-2.4861598,2.6419373,3.1508217,1.0216553,1.2892822,0.50020754,101.0
24437,-2.4861598,2.6419373,3.1508217,0.32072756,1.6939087,1.0110352,101.0
24438,-2.6969235,1.993454,3.6246262,0.32072756,1.6939087,1.0110352,101.0
24439,-2.6969235,1.993454,3.6246262,0.3706421,1.9254273,1.1820191,101.0
24440,-2.1851392,-0.5543976,3.9610443,0.3706421,1.9254273,1.1820191,101.0
24441,-2.1851392,-0.5543976,3.9610443,1.2722901,2.0231323,1.3052124,101.0
24442,-1.38129,-2.87368,4.115799,1.2722901,2.0231323,1.3052124,101.0
24443,-1.38129,-2.87368,4.115799,1.897815,2.0316284,1.2797241,101.0
24444,-0.604568,-3.565422,3.4700089,1.897815,2.0316284,1.2797241,101.0
24445,-0.604568,-3.565422,3.4700089,2.2769532,2.1505737,1.0779419,101.0
24446,-0.05384493,-2.5796432,2.127777,2.2769532,2.1505737,1.0779419,101.0
24447,-0.05384493,-2.5796432,2.127777,2.2822633,2.0964112,0.8814697,101.0
24448,0.09018803,-1.0222855,1.3541031,2.2822633,2.0964112,0.8814697,101.0
24449,0.09018803,-1.0222855,1.3541031,2.269519,1.9466676,0.7434082,101.0
24450,-0.059441566,-0.0019836426,1.6664124,2.269519,1.9466676,0.7434082,101.0
24451,-0.059441566,-0.0019836426,1.6664124,2.092163,1.7448853,0.53525394,101.0
24452,-0.18396711,0.14943695,2.035717,2.092163,1.7448853,0.53525394,101.0
24453,-0.18396711,0.14943695,2.035717,1.906311,1.4645141,0.36851808,101.0
24454,-0.12542057,-0.05973816,2.031868,1.906311,1.4645141,0.36851808,101.0
24455,-0.12542057,-0.05973816,2.031868,1.5930176,1.170337,0.11363526,101.0
24456,0.21234655,6.0272217E-4,1.9724197,1.5930176,1.170337,0.11363526,101.0
24457,0.21234655,6.0272217E-4,1.9724197,1.7098389,0.8379273,0.004248047,101.0
24458,0.6781292,-0.14987183,1.6361771,1.7098389,0.8379273,0.004248047,101.0
24459,0.6781292,-0.14987183,1.6361771,2.342798,0.75721437,-0.3440918,101.0
24460,0.8330674,-0.20009613,1.1922035,2.342798,0.75721437,-0.3440918,101.0
24461,0.8330674,-0.20009613,1.1922035,2.1282716,0.63826907,-0.362146,101.0
24462,0.63780403,0.37556458,1.1288719,2.1282716,0.63826907,-0.362146,101.0
24463,0.63780403,0.37556458,1.1288719,1.359375,0.42268068,-0.41099855,101.0
24464,0.4615984,0.979126,0.8024368,1.359375,0.42268068,-0.41099855,101.0
24465,0.4615984,0.979126,0.8024368,0.9526245,0.2824951,-0.31329346,101.0
24466,0.4887247,0.87420654,-0.47681427,0.9526245,0.2824951,-0.31329346,101.0
24467,0.4887247,0.87420654,-0.47681427,1.1267945,0.2803711,-0.31223145,101.0
24468,0.30644608,0.09677887,-1.8654099,1.1267945,0.2803711,-0.31223145,101.0
24469,0.30644608,0.09677887,-1.8654099,1.6429322,0.41524658,-0.42905274,101.0
24470,-0.37923288,-0.2192688,-2.255268,1.6429322,0.41524658,-0.42905274,101.0
24471,-0.37923288,-0.2192688,-2.255268,1.6641724,0.38763428,-0.6180908,101.0
24472,-0.65328884,0.004638672,-1.8315964,1.6641724,0.38763428,-0.6180908,101.0
24473,-0.65328884,0.004638672,-1.8315964,1.4666382,0.3525879,-0.65207523,101.0
24474,-1.1739984,1.2053604,-1.3263245,1.4666382,0.3525879,-0.65207523,101.0
24475,-1.1739984,1.2053604,-1.3263245,0.7338501,0.3164795,-0.53737795,101.0
24476,-0.8884053,1.3644104,-0.96458435,0.7338501,0.3164795,-0.53737795,101.0
24477,-0.8884053,1.3644104,-0.96458435,0.40250245,0.29205322,-0.5479981,101.0
24478,-0.30503607,1.0970688,-0.12674713,0.40250245,0.29205322,-0.5479981,101.0
24479,-0.30503607,1.0970688,-0.12674713,-0.16036378,0.13487549,-0.57454836,101.0
24480,-0.08377504,0.7338333,0.2624817,-0.16036378,0.13487549,-0.57454836,101.0
24481,-0.08377504,0.7338333,0.2624817,-0.22939454,0.07434082,-0.5533081,101.0
24482,0.21818495,0.37374878,1.0972443,-0.22939454,0.07434082,-0.5533081,101.0
24483,0.21818495,0.37374878,1.0972443,-0.5883545,-0.06690674,-0.40037844,101.0
24484,0.3037958,0.4968872,0.8674164,-0.5883545,-0.06690674,-0.40037844,101.0
24485,0.3037958,0.4968872,0.8674164,-0.8527954,-0.04991455,-0.37595215,101.0
24486,0.5860176,0.75644684,-0.09072113,-0.8527954,-0.04991455,-0.37595215,101.0
24487,0.5860176,0.75644684,-0.09072113,-1.4432739,-0.020178223,-0.29736328,101.0
24488,0.42523527,0.5594559,-0.36527634,-1.4432739,-0.020178223,-0.29736328,101.0
24489,0.42523527,0.5594559,-0.36527634,-1.179895,-0.047790527,-0.26337892,101.0
24490,-0.28183317,-0.13331604,-0.13672638,-1.179895,-0.047790527,-0.26337892,101.0
24491,-0.28183317,-0.13331604,-0.13672638,-1.6960328,-0.052038576,-0.27718505,101.0
24492,-0.34377718,0.046165466,0.07847595,-1.6960328,-0.052038576,-0.27718505,101.0
24493,-0.34377718,0.046165466,0.07847595,-2.0464966,-0.039294433,-0.20178223,101.0
24494,-0.16355944,0.29637146,0.23418045,-2.0464966,-0.039294433,-0.20178223,101.0
24495,-0.16355944,0.29637146,0.23418045,-2.7537963,-0.014868164,-0.11151123,101.0
24496,0.44692326,0.1690216,-0.36293793,-2.7537963,-0.014868164,-0.11151123,101.0
24497,0.44692326,0.1690216,-0.36293793,-3.4037476,0.1359375,-0.07115479,101.0
24498,0.93417454,-0.814476,-1.3809776,-3.4037476,0.1359375,-0.07115479,101.0
24499,0.93417454,-0.814476,-1.3809776,-2.5753784,0.2803711,-0.047790527,101.0
24500,0.5681524,-1.4540482,-1.5644989,-2.5753784,0.2803711,-0.047790527,101.0
24501,0.5681524,-1.4540482,-1.5644989,-1.717273,0.32178956,-0.11469727,101.0
24502,-0.3262763,-0.57637024,-0.64188004,-1.717273,0.32178956,-0.11469727,101.0
24503,-0.3262763,-0.57637024,-0.64188004,-2.1473877,0.27612305,-0.14018555,101.0
24504,-0.70129204,0.26045227,0.14633179,-2.1473877,0.27612305,-0.14018555,101.0
24505,-0.70129204,0.26045227,0.14633179,-2.241907,0.27506104,-0.083898924,101.0
24506,-0.5151596,-0.21419525,0.02330017,-2.241907,0.27506104,-0.083898924,101.0
24507,-0.5151596,-0.21419525,0.02330017,-2.0156982,0.2442627,-0.22408448,101.0
24508,-0.43861675,-1.2762527,-0.39321136,-2.0156982,0.2442627,-0.22408448,101.0
24509,-0.43861675,-1.2762527,-0.39321136,-0.95581055,0.22089843,-0.29523927,101.0
