,accx,accy,accz,gyrox,gyroy,gyroz,heart rate
20308,open,open,open,open,open,open,open
20309,0.17483473,0.17868423,0.012989044,-0.03079834,0.046728518,0.107263185,159.0
20310,-0.0035037994,-0.030796051,-0.0896225,-0.03079834,0.046728518,0.107263185,159.0
20311,-0.0035037994,-0.030796051,-0.0896225,0.029736329,-0.035046387,-0.022302246,159.0
20312,-0.002632141,-0.024528503,-0.0783844,0.029736329,-0.035046387,-0.022302246,159.0
20313,-0.002632141,-0.024528503,-0.0783844,0.0053100586,-0.04141846,-0.010620117,159.0
20314,-2.3647888,0.43954468,-0.22081375,0.0053100586,-0.04141846,-0.010620117,159.0
20315,-2.3647888,0.43954468,-0.22081375,-0.047790527,-0.045666505,0.0,159.0
20316,-1.8550024,0.3539276,-0.24453354,-0.047790527,-0.045666505,0.0,159.0
20317,-1.8550024,0.3539276,-0.24453354,-0.046728518,-0.060534667,0.007434082,159.0
20318,-1.4432917,0.17828369,-0.16464233,-0.046728518,-0.060534667,0.007434082,159.0
20319,-1.4432917,0.17828369,-0.16464233,-0.008496094,-0.053100586,0.0031860352,159.0
20320,-1.116108,0.10437012,-0.095581055,-0.008496094,-0.053100586,0.0031860352,159.0
20321,-1.116108,0.10437012,-0.095581055,0.0021240234,-0.05522461,-0.0053100586,159.0
20322,-0.8725617,0.15561676,-0.06762695,0.0021240234,-0.05522461,-0.0053100586,159.0
20323,-0.8725617,0.15561676,-0.06762695,-0.027612304,-0.04460449,0.004248047,159.0
20324,-0.700747,0.19784546,-0.07846832,-0.027612304,-0.04460449,0.004248047,159.0
20325,-0.700747,0.19784546,-0.07846832,-0.06478272,-0.050976563,0.03079834,159.0
20326,-0.5531757,0.14192963,-0.09080124,-0.06478272,-0.050976563,0.03079834,159.0
20327,-0.5531757,0.14192963,-0.09080124,-0.052038576,-0.04248047,0.04885254,159.0
20328,-0.5531757,0.14192963,-0.09080124,-0.02442627,-0.04248047,0.052038576,159.0
20329,-0.43019915,0.06593323,-0.05413437,-0.02442627,-0.04248047,0.052038576,159.0
20330,-0.3441348,0.032554626,-0.015464783,-0.02442627,-0.04248047,0.052038576,159.0
20331,-0.3441348,0.032554626,-0.015464783,-0.022302246,-0.043542482,0.045666505,159.0
20332,-0.24427748,0.036151886,-0.03533554,-0.022302246,-0.043542482,0.045666505,159.0
20333,-0.24427748,0.036151886,-0.03533554,-0.045666505,-0.04991455,0.04991455,159.0
20334,-0.14304161,0.018409729,-0.10019302,-0.045666505,-0.04991455,0.04991455,159.0
20335,-0.14304161,0.018409729,-0.10019302,-0.04141846,-0.03717041,0.06796875,159.0
20336,-0.08131552,3.8528442E-4,-0.11235809,-0.04141846,-0.03717041,0.06796875,159.0
20337,-0.08131552,3.8528442E-4,-0.11235809,-0.052038576,-0.033984374,0.06478272,159.0
20338,-0.058814526,-0.014045715,-0.036514282,-0.052038576,-0.033984374,0.06478272,159.0
20339,-0.058814526,-0.014045715,-0.036514282,-0.06159668,-0.035046387,0.0637207,159.0
20340,-0.055547714,-0.041374207,0.056114197,-0.06159668,-0.035046387,0.0637207,159.0
20341,-0.055547714,-0.041374207,0.056114197,-0.06584473,-0.03186035,0.07434082,159.0
20342,-0.04926014,-0.07073212,0.089214325,-0.06584473,-0.03186035,0.07434082,159.0
20343,-0.04926014,-0.07073212,0.089214325,-0.04991455,-0.04141846,0.0637207,159.0
20344,-0.019315243,-0.10051727,0.047115326,-0.04991455,-0.04141846,0.0637207,159.0
20345,-0.019315243,-0.10051727,0.047115326,-0.020178223,-0.039294433,0.0541626,159.0
20346,-0.019315243,-0.10051727,0.047115326,0.014868164,-0.028674318,0.04991455,159.0
20347,-0.0033550262,-0.104888916,0.024982452,0.014868164,-0.028674318,0.04991455,159.0
20348,-0.012925625,-0.06281662,0.0557518,0.014868164,-0.028674318,0.04991455,159.0
20349,-0.012925625,-0.06281662,0.0557518,0.014868164,-0.04141846,0.058410645,159.0
20350,-0.005177021,-0.017673492,0.035751343,0.014868164,-0.04141846,0.058410645,159.0
20351,-0.005177021,-0.017673492,0.035751343,0.033984374,-0.043542482,0.05522461,159.0
20352,0.02397108,0.0031471252,-0.04257965,0.033984374,-0.043542482,0.05522461,159.0
20353,0.02397108,0.0031471252,-0.04257965,0.04141846,-0.03717041,0.057348635,159.0
20354,0.034118176,0.03227997,-0.058784485,0.04141846,-0.03717041,0.057348635,159.0
20355,0.034118176,0.03227997,-0.058784485,-0.0021240234,-0.03717041,0.040356446,159.0
20356,0.041320324,0.029266357,-0.030353546,-0.0021240234,-0.03717041,0.040356446,159.0
20357,0.041320324,0.029266357,-0.030353546,-0.013806152,-0.035046387,0.03717041,159.0
20358,0.036254406,-0.023391724,-0.026615143,-0.013806152,-0.035046387,0.03717041,159.0
20359,0.036254406,-0.023391724,-0.026615143,-0.012744141,-0.029736329,0.04248047,159.0
20360,0.020348549,-0.069236755,-0.03048706,-0.012744141,-0.029736329,0.04248047,159.0
20361,0.020348549,-0.069236755,-0.03048706,-0.05522461,-0.026550293,0.0361084,159.0
20362,0.008161068,-0.10737991,-0.0048332214,-0.05522461,-0.026550293,0.0361084,159.0
20363,0.008161068,-0.10737991,-0.0048332214,0.019116212,-0.012744141,0.011682129,159.0
20364,-0.03193569,-0.011856079,0.05649948,0.019116212,-0.012744141,0.011682129,159.0
20365,-0.03193569,-0.011856079,0.05649948,-0.081774905,-0.010620117,0.027612304,159.0
20366,-0.06153488,0.07902908,0.12763214,-0.081774905,-0.010620117,0.027612304,159.0
20367,-0.06153488,0.07902908,0.12763214,-0.18054199,-0.05522461,0.060534667,159.0
20368,-0.029672146,-0.042419434,0.19280243,-0.18054199,-0.05522461,0.060534667,159.0
20369,-0.029672146,-0.042419434,0.19280243,-0.1709839,-0.027612304,0.04991455,159.0
20370,0.0037770271,-0.31681824,0.25842667,-0.1709839,-0.027612304,0.04991455,159.0
20371,0.0037770271,-0.31681824,0.25842667,-0.029736329,-0.11682129,0.011682129,159.0
20372,0.0037770271,-0.31681824,0.25842667,-0.02442627,-0.12319336,-0.058410645,159.0
20373,0.01836586,-0.34610748,0.259552,-0.02442627,-0.12319336,-0.058410645,159.0
20374,0.031342983,-0.15261841,0.21969986,-0.02442627,-0.12319336,-0.058410645,159.0
20375,0.031342983,-0.15261841,0.21969986,-0.14230958,-0.20178223,-0.060534667,159.0
20376,0.04652214,-0.092567444,0.20062256,-0.14230958,-0.20178223,-0.060534667,159.0
20377,0.04652214,-0.092567444,0.20062256,-0.098767094,-0.24213867,-0.098767094,159.0
20378,0.10858011,-0.13388062,0.13903809,-0.098767094,-0.24213867,-0.098767094,159.0
20379,0.10858011,-0.13388062,0.13903809,-0.057348635,-0.27293703,-0.118945315,159.0
20380,0.10858011,-0.13388062,0.13903809,0.026550293,-0.21346436,-0.12850343,159.0
20381,0.19877815,-0.11589432,0.015209198,0.026550293,-0.21346436,-0.12850343,159.0
20382,0.21876383,0.069675446,-0.12506485,0.026550293,-0.21346436,-0.12850343,159.0
20383,0.21876383,0.069675446,-0.12506485,-0.033984374,-0.22089843,-0.11257324,159.0
20384,0.1858387,0.23259735,-0.26617432,-0.033984374,-0.22089843,-0.11257324,159.0
20385,0.1858387,0.23259735,-0.26617432,-0.07752686,-0.18372802,-0.10513916,159.0
20386,0.13065338,0.24667358,-0.32432556,-0.07752686,-0.18372802,-0.10513916,159.0
20387,0.13065338,0.24667358,-0.32432556,-0.09770508,-0.1709839,-0.087084964,159.0
20388,0.06694937,0.16753006,-0.262928,-0.09770508,-0.1709839,-0.087084964,159.0
20389,0.06694937,0.16753006,-0.262928,-0.08283692,-0.15611573,-0.059472658,159.0
20390,0.043317795,0.101371765,-0.18255997,-0.08283692,-0.15611573,-0.059472658,159.0
20391,0.043317795,0.101371765,-0.18255997,-0.05628662,-0.15505372,-0.02442627,159.0
20392,0.07712245,0.119205475,-0.14682007,-0.05628662,-0.15505372,-0.02442627,159.0
20393,0.07712245,0.119205475,-0.14682007,-0.12531738,-0.1444336,-0.0053100586,159.0
20394,0.122391224,0.11604309,-0.1126976,-0.12531738,-0.1444336,-0.0053100586,159.0
20395,0.122391224,0.11604309,-0.1126976,-0.1720459,-0.13806152,0.015930176,159.0
20396,0.14899921,0.008800507,-0.052768707,-0.1720459,-0.13806152,0.015930176,159.0
20397,0.14899921,0.008800507,-0.052768707,-0.1720459,-0.118945315,0.027612304,159.0
20398,0.14395523,-0.11947632,0.0018043518,-0.1720459,-0.118945315,0.027612304,159.0
20399,0.14395523,-0.11947632,0.0018043518,-0.13275146,-0.08814698,0.03079834,159.0
20400,0.08292532,-0.18013763,0.01688385,-0.13275146,-0.08814698,0.03079834,159.0
20401,0.08292532,-0.18013763,0.01688385,-0.07752686,-0.07540283,0.033984374,159.0
20402,0.01830554,-0.14402771,0.028522491,-0.07752686,-0.07540283,0.033984374,159.0
20403,0.01830554,-0.14402771,0.028522491,-0.045666505,-0.06159668,0.028674318,159.0
20404,0.01830554,-0.14402771,0.028522491,-0.05628662,-0.06159668,0.016992187,159.0
20405,-0.035001755,-0.0719223,0.076869965,-0.05628662,-0.06159668,0.016992187,159.0
20406,-0.050376892,-0.041374207,0.097263336,-0.05628662,-0.06159668,0.016992187,159.0
20407,-0.050376892,-0.041374207,0.097263336,-0.06903076,-0.0722168,0.023364259,159.0
20408,0.0029478073,-0.059417725,0.051639557,-0.06903076,-0.0722168,0.023364259,159.0
20409,0.0029478073,-0.059417725,0.051639557,-0.06584473,-0.07965088,0.026550293,159.0
20410,0.10008788,-0.108947754,-0.0476532,-0.06584473,-0.07965088,0.026550293,159.0
20411,0.10008788,-0.108947754,-0.0476532,-0.09770508,-0.087084964,0.033984374,159.0
20412,0.17604184,-0.15002441,-0.12938309,-0.09770508,-0.087084964,0.033984374,159.0
20413,0.17604184,-0.15002441,-0.12938309,-0.09664307,-0.07752686,0.04991455,159.0
20414,0.18715906,-0.16011047,-0.12561417,-0.09664307,-0.07752686,0.04991455,159.0
20415,0.18715906,-0.16011047,-0.12561417,-0.12531738,-0.059472658,0.04885254,159.0
20416,0.1528399,-0.16365814,-0.05324936,-0.12531738,-0.059472658,0.04885254,159.0
20417,0.1528399,-0.16365814,-0.05324936,-0.10301514,-0.047790527,0.040356446,159.0
20418,0.107647896,-0.14956665,0.020118713,-0.10301514,-0.047790527,0.040356446,159.0
20419,0.107647896,-0.14956665,0.020118713,-0.10407715,-0.026550293,0.0180542,159.0
20420,0.05738306,-0.10601807,0.07173538,-0.10407715,-0.026550293,0.0180542,159.0
20421,0.05738306,-0.10601807,0.07173538,-0.14868164,-0.039294433,0.0021240234,159.0
20422,0.042244434,-0.08543396,0.10046768,-0.14868164,-0.039294433,0.0021240234,159.0
20423,0.042244434,-0.08543396,0.10046768,-0.16354981,-0.04248047,-0.007434082,159.0
20424,0.091388226,-0.07662201,0.13812637,-0.16354981,-0.04248047,-0.007434082,159.0
20425,0.091388226,-0.07662201,0.13812637,-0.14655761,-0.028674318,-0.0031860352,159.0
20426,0.1306057,-0.03887558,0.2251854,-0.14655761,-0.028674318,-0.0031860352,159.0
20427,0.1306057,-0.03887558,0.2251854,-0.1274414,0.004248047,-0.0021240234,159.0
20428,0.11569071,0.03488922,0.2903061,-0.1274414,0.004248047,-0.0021240234,159.0
20429,0.11569071,0.03488922,0.2903061,-0.1263794,-0.012744141,0.022302246,159.0
20430,0.09117317,0.10343552,0.22525024,-0.1263794,-0.012744141,0.022302246,159.0
20431,0.09117317,0.10343552,0.22525024,-0.16567384,-0.0361084,0.043542482,159.0
20432,0.12159586,0.07859802,0.10929108,-0.16567384,-0.0361084,0.043542482,159.0
20433,0.12159586,0.07859802,0.10929108,-0.21346436,-0.0541626,0.07646485,159.0
20434,0.19677615,-0.0405159,0.05540085,-0.21346436,-0.0541626,0.07646485,159.0
20435,0.19677615,-0.0405159,0.05540085,-0.20603028,-0.043542482,0.11257324,159.0
20436,0.25384426,-0.089286804,0.08866882,-0.20603028,-0.043542482,0.11257324,159.0
20437,0.25384426,-0.089286804,0.08866882,-0.1985962,-0.0361084,0.14974366,159.0
20438,0.27330232,-0.016952515,0.15501785,-0.1985962,-0.0361084,0.14974366,159.0
20439,0.27330232,-0.016952515,0.15501785,-0.2516968,-0.026550293,0.18372802,159.0
20440,0.27762628,0.045082092,0.1797409,-0.2516968,-0.026550293,0.18372802,159.0
20441,0.27762628,0.045082092,0.1797409,-0.27718505,-0.013806152,0.2177124,159.0
20442,0.26922035,0.015266418,0.18414688,-0.27718505,-0.013806152,0.2177124,159.0
20443,0.26922035,0.015266418,0.18414688,-0.27612305,-0.020178223,0.24213867,159.0
20444,0.24599147,-0.060577393,0.18950272,-0.27612305,-0.020178223,0.24213867,159.0
20445,0.24599147,-0.060577393,0.18950272,-0.2623169,-0.025488282,0.2623169,159.0
20446,0.22640753,-0.12742996,0.22622299,-0.2623169,-0.025488282,0.2623169,159.0
20447,0.22640753,-0.12742996,0.22622299,-0.2623169,-0.04248047,0.28568116,159.0
20448,0.21146059,-0.19320297,0.28731155,-0.2623169,-0.04248047,0.28568116,159.0
20449,0.21146059,-0.19320297,0.28731155,-0.2538208,-0.0637207,0.28461915,159.0
20450,0.19433951,-0.24098969,0.31889725,-0.2538208,-0.0637207,0.28461915,159.0
20451,0.19433951,-0.24098969,0.31889725,-0.23364258,-0.10195313,0.26868898,159.0
20452,0.18702674,-0.24386597,0.31765366,-0.23364258,-0.10195313,0.26868898,159.0
20453,0.18702674,-0.24386597,0.31765366,-0.25063476,-0.1539917,0.25594482,159.0
20454,0.20654297,-0.22606277,0.31806183,-0.25063476,-0.1539917,0.25594482,159.0
20455,0.20654297,-0.22606277,0.31806183,-0.2623169,-0.18479005,0.24213867,159.0
20456,0.20194101,-0.19192505,0.3615532,-0.2623169,-0.18479005,0.24213867,159.0
20457,0.20194101,-0.19192505,0.3615532,-0.26975098,-0.2347046,0.23151855,159.0
20458,0.22958279,-0.17258453,0.37551117,-0.26975098,-0.2347046,0.23151855,159.0
20459,0.22958279,-0.17258453,0.37551117,-0.28355715,-0.30054933,0.23364258,159.0
20460,0.35794616,-0.20623016,0.3005066,-0.28355715,-0.30054933,0.23364258,159.0
20461,0.35794616,-0.20623016,0.3005066,-0.28355715,-0.3069214,0.22196046,159.0
20462,0.44165468,-0.24504852,0.22887039,-0.28355715,-0.3069214,0.22196046,159.0
20463,0.44165468,-0.24504852,0.22887039,-0.3154175,-0.34727785,0.22302246,159.0
20464,0.4304111,-0.25206757,0.20533752,-0.3154175,-0.34727785,0.22302246,159.0
20465,0.4304111,-0.25206757,0.20533752,-0.33878174,-0.3791382,0.20072022,159.0
20466,0.4232595,-0.31332397,0.20096588,-0.33878174,-0.3791382,0.20072022,159.0
20467,0.4232595,-0.31332397,0.20096588,-0.3164795,-0.41206056,0.18691407,159.0
20468,0.4445889,-0.43088531,0.14689255,-0.3164795,-0.41206056,0.18691407,159.0
20469,0.4445889,-0.43088531,0.14689255,-0.26019287,-0.43117675,0.19328614,159.0
20470,0.44306135,-0.45985794,0.03511429,-0.26019287,-0.43117675,0.19328614,159.0
20471,0.44306135,-0.45985794,0.03511429,-0.2527588,-0.4715332,0.19434814,159.0
20472,0.43475914,-0.37280655,-0.16828156,-0.2527588,-0.4715332,0.19434814,159.0
20473,0.43475914,-0.37280655,-0.16828156,-0.33028564,-0.53950197,0.19328614,159.0
20474,0.5025803,-0.35560608,-0.40366745,-0.33028564,-0.53950197,0.19328614,159.0
20475,0.5025803,-0.35560608,-0.40366745,-0.3791382,-0.544812,0.16885987,159.0
20476,0.580287,-0.38947678,-0.48342133,-0.3791382,-0.544812,0.16885987,159.0
20477,0.580287,-0.38947678,-0.48342133,-0.41843262,-0.5341919,0.14549561,159.0
20478,0.5321739,-0.3609581,-0.39654922,-0.41843262,-0.5341919,0.14549561,159.0
20479,0.5321739,-0.3609581,-0.39654922,-0.44604492,-0.52888185,0.1274414,159.0
20480,0.57155204,-0.4357643,-0.27579498,-0.44604492,-0.52888185,0.1274414,159.0
20481,0.57155204,-0.4357643,-0.27579498,-0.43117675,-0.49277344,0.10407715,159.0
20482,0.52522266,-0.44089508,-0.24591827,-0.43117675,-0.49277344,0.10407715,159.0
20483,0.52522266,-0.44089508,-0.24591827,-0.3971924,-0.46728516,0.10195313,159.0
20484,0.5078857,-0.5721588,-0.32504272,-0.3971924,-0.46728516,0.10195313,159.0
20485,0.5078857,-0.5721588,-0.32504272,-0.31223145,-0.40250245,0.07327881,159.0
20486,0.41867423,-0.49497223,-0.28850174,-0.31223145,-0.40250245,0.07327881,159.0
20487,0.41867423,-0.49497223,-0.28850174,-0.3058594,-0.38975832,0.060534667,159.0
20488,0.3407011,-0.35197067,-0.34925842,-0.3058594,-0.38975832,0.060534667,159.0
20489,0.3407011,-0.35197067,-0.34925842,-0.3971924,-0.33240968,0.0,159.0
20490,0.28349835,-0.28195572,-0.34135818,-0.3971924,-0.33240968,0.0,159.0
20491,0.28349835,-0.28195572,-0.34135818,-0.41099855,-0.31329346,-0.0180542,159.0
20492,0.21175963,-0.35435867,-0.44256973,-0.41099855,-0.31329346,-0.0180542,159.0
20493,0.21175963,-0.35435867,-0.44256973,-0.3727661,-0.23045655,-0.07434082,159.0
20494,0.13492286,-0.32800293,-0.34960175,-0.3727661,-0.23045655,-0.07434082,159.0
20495,0.13492286,-0.32800293,-0.34960175,-0.33878174,-0.21983643,-0.09664307,159.0
20496,0.053714633,-0.35664368,-0.17745972,-0.33878174,-0.21983643,-0.09664307,159.0
20497,0.053714633,-0.35664368,-0.17745972,-0.20921631,-0.13062744,-0.1731079,159.0
20498,0.04295951,-0.29244232,-0.08665848,-0.20921631,-0.13062744,-0.1731079,159.0
20499,0.04295951,-0.29244232,-0.08665848,-0.17629395,-0.10089111,-0.18266602,159.0
20500,0.022246063,-0.2752838,0.00687027,-0.17629395,-0.10089111,-0.18266602,159.0
20501,0.022246063,-0.2752838,0.00687027,-0.11151123,-0.009558106,-0.17416993,159.0
20502,-0.03408301,-0.22933197,-0.0021820068,-0.11151123,-0.009558106,-0.17416993,159.0
20503,-0.03408301,-0.22933197,-0.0021820068,-0.107263185,-0.0010620117,-0.15717773,159.0
20504,-0.13355303,-0.21889496,-0.08395004,-0.107263185,-0.0010620117,-0.15717773,159.0
20505,-0.13355303,-0.21889496,-0.08395004,-0.14230958,0.014868164,-0.12956543,159.0
20506,-0.23812908,-0.23587036,-0.17375183,-0.14230958,0.014868164,-0.12956543,159.0
20507,-0.23812908,-0.23587036,-0.17375183,-0.18372802,0.027612304,-0.11257324,159.0
20508,-0.349622,-0.21803284,-0.16434479,-0.18372802,0.027612304,-0.11257324,159.0
20509,-0.349622,-0.21803284,-0.16434479,-0.22514649,0.02442627,-0.08920898,159.0
20510,-0.3964945,-0.13109589,-0.06557083,-0.22514649,0.02442627,-0.08920898,159.0
20511,-0.3964945,-0.13109589,-0.06557083,-0.27399904,-0.008496094,-0.058410645,159.0
20512,-0.33200276,-0.07180786,-0.063812256,-0.27399904,-0.008496094,-0.058410645,159.0
20513,-0.33200276,-0.07180786,-0.063812256,-0.31435546,-0.0180542,-0.040356446,159.0
20514,-0.19105387,-0.10939026,-0.18520737,-0.31435546,-0.0180542,-0.040356446,159.0
20515,-0.19105387,-0.10939026,-0.18520737,-0.29311523,-0.032922365,-0.03186035,159.0
20516,-0.065172195,-0.15678406,-0.2754135,-0.29311523,-0.032922365,-0.03186035,159.0
20517,-0.065172195,-0.15678406,-0.2754135,-0.26656494,-0.009558106,-0.05522461,159.0
20518,-0.019105434,-0.10332489,-0.20095825,-0.26656494,-0.009558106,-0.05522461,159.0
20519,-0.019105434,-0.10332489,-0.20095825,-0.2824951,0.020178223,-0.083898924,159.0
20520,-0.13914907,-0.11869812,0.040611267,-0.2824951,0.020178223,-0.083898924,159.0
20521,-0.13914907,-0.11869812,0.040611267,-0.24001466,0.028674318,-0.118945315,159.0
20522,-0.17727375,-0.18067932,0.08729553,-0.24001466,0.028674318,-0.118945315,159.0
20523,-0.17727375,-0.18067932,0.08729553,-0.18054199,0.0361084,-0.14018555,159.0
20524,-0.2343117,-0.2955551,0.038684845,-0.18054199,0.0361084,-0.14018555,159.0
20525,-0.2343117,-0.2955551,0.038684845,-0.0998291,0.06690674,-0.1720459,159.0
20526,-0.2856183,-0.22822571,-0.05511093,-0.0998291,0.06690674,-0.1720459,159.0
20527,-0.2856183,-0.22822571,-0.05511093,-0.0998291,0.06690674,-0.1720459,0.0
20528,-0.2856183,-0.22822571,-0.05511093,-0.07115479,0.060534667,-0.18054199,0.0
20529,-0.31290627,-0.11629486,-0.06153488,-0.07115479,0.060534667,-0.18054199,0.0
20530,-0.31290627,-0.11629486,-0.06153488,-0.07327881,0.11151123,-0.18797608,0.0
20531,-0.3616897,-0.07713318,0.116542816,-0.07327881,0.11151123,-0.18797608,0.0
20532,-0.3616897,-0.07713318,0.116542816,-0.04885254,0.15505372,-0.17841797,0.0
20533,-0.46808708,-0.11540222,0.38399506,-0.04885254,0.15505372,-0.17841797,0.0
20534,-0.46808708,-0.11540222,0.38399506,0.019116212,0.16142578,-0.16142578,0.0
20535,-0.5265571,-0.13005066,0.49832153,0.019116212,0.16142578,-0.16142578,0.0
20536,-0.5265571,-0.13005066,0.49832153,0.043542482,0.17735596,-0.16142578,0.0
20537,-0.5105157,-0.07850647,0.36281586,0.043542482,0.17735596,-0.16142578,0.0
20538,-0.5105157,-0.07850647,0.36281586,-0.010620117,0.14868164,-0.1444336,0.0
20539,-0.43283892,-0.067100525,0.10917282,-0.010620117,0.14868164,-0.1444336,0.0
20540,-0.43283892,-0.067100525,0.10917282,-0.023364259,0.12850343,-0.1263794,0.0
20541,-0.2384708,-0.18073273,-0.14009094,-0.023364259,0.12850343,-0.1263794,0.0
20542,-0.2384708,-0.18073273,-0.14009094,0.03186035,0.14337158,-0.06265869,0.0
20543,-0.14415812,-0.18248749,-0.13106537,0.03186035,0.14337158,-0.06265869,0.0
20544,-0.14415812,-0.18248749,-0.13106537,0.059472658,0.16673584,-0.039294433,0.0
20545,-0.035907507,-0.18512726,-0.099868774,0.059472658,0.16673584,-0.039294433,0.0
20546,-0.035907507,-0.18512726,-0.099868774,0.11682129,0.1996582,-0.011682129,0.0
20547,-0.015224934,-0.091056824,-0.050697327,0.11682129,0.1996582,-0.011682129,0.0
20548,-0.015224934,-0.091056824,-0.050697327,0.12000733,0.24001466,-0.023364259,0.0
20549,-0.08160138,0.031539917,-0.019634247,0.12000733,0.24001466,-0.023364259,0.0
20550,-0.08160138,0.031539917,-0.019634247,0.10513916,0.24851075,-0.039294433,0.0
20551,-0.16879678,0.08988953,-0.016170502,0.10513916,0.24851075,-0.039294433,0.0
20552,-0.16879678,0.08988953,-0.016170502,0.08920898,0.23895264,-0.070092775,0.0
20553,-0.21479821,0.07096863,-0.042160034,0.08920898,0.23895264,-0.070092775,0.0
20554,-0.21479821,0.07096863,-0.042160034,0.14974366,0.22727051,-0.09451904,0.0
20555,-0.20075703,0.033462524,-0.09534836,0.14974366,0.22727051,-0.09451904,0.0
20556,-0.20075703,0.033462524,-0.09534836,0.2527588,0.21027832,-0.12000733,0.0
20557,-0.13030767,0.050369263,-0.19929123,0.2527588,0.21027832,-0.12000733,0.0
20558,-0.13030767,0.050369263,-0.19929123,0.40250245,0.19328614,-0.14018555,0.0
20559,-0.038535595,0.18300629,-0.35728455,0.40250245,0.19328614,-0.14018555,0.0
20560,-0.038535595,0.18300629,-0.35728455,0.47471926,0.18691407,-0.16673584,0.0
20561,0.028802872,0.3828659,-0.48360825,0.47471926,0.18691407,-0.16673584,0.0
20562,0.028802872,0.3828659,-0.48360825,0.48109132,0.15930176,-0.18797608,0.0
20563,0.079951525,0.48857117,-0.56213,0.48109132,0.15930176,-0.18797608,0.0
20564,0.079951525,0.48857117,-0.56213,0.54693604,0.13699952,-0.20921631,0.0
20565,0.17908573,0.44387054,-0.66537476,0.54693604,0.13699952,-0.20921631,0.0
20566,0.17908573,0.44387054,-0.66537476,0.7189819,0.11044922,-0.20390625,0.0
20567,0.36338568,0.31025696,-0.801651,0.7189819,0.11044922,-0.20390625,0.0
20568,0.36338568,0.31025696,-0.801651,1.0482056,0.16779785,-0.18585205,0.0
20569,0.49808145,0.3729248,-0.8577156,1.0482056,0.16779785,-0.18585205,0.0
20570,0.49808145,0.3729248,-0.8577156,1.2457398,0.27506104,-0.1985962,0.0
20571,0.42738366,0.72068024,-0.8138962,1.2457398,0.27506104,-0.1985962,0.0
20572,0.42738366,0.72068024,-0.8138962,1.2956543,0.3154175,-0.21134034,0.0
20573,0.2560916,1.0227814,-0.7750168,1.2956543,0.3154175,-0.21134034,0.0
20574,0.2560916,1.0227814,-0.7750168,1.351941,0.34090576,-0.2177124,0.0
20575,0.17960477,1.1236801,-0.71432495,1.351941,0.34090576,-0.2177124,0.0
20576,0.17960477,1.1236801,-0.71432495,1.4273437,0.42905274,-0.2166504,0.0
20577,0.16073704,1.0640717,-0.5173111,1.4273437,0.42905274,-0.2166504,0.0
20578,0.16073704,1.0640717,-0.5173111,1.627002,0.50020754,-0.19328614,0.0
20579,0.106861115,1.1017303,-0.21487427,1.627002,0.50020754,-0.19328614,0.0
20580,0.106861115,1.1017303,-0.21487427,1.6503662,0.5957886,-0.18797608,0.0
20581,-0.032455444,1.3281021,0.07475662,1.6503662,0.5957886,-0.18797608,0.0
20582,-0.032455444,1.3281021,0.07475662,1.5069946,0.6414551,-0.21240234,0.0
20583,-0.22779536,1.4220276,0.25099182,1.5069946,0.6414551,-0.21240234,0.0
20584,-0.22779536,1.4220276,0.25099182,1.453894,0.62764895,-0.21346436,0.0
20585,-0.3247168,1.2480354,0.3040657,1.453894,0.62764895,-0.21346436,0.0
20586,-0.3247168,1.2480354,0.3040657,1.5664673,0.6042847,-0.16673584,0.0
20587,-0.28449273,1.0816689,0.26940155,1.5664673,0.6042847,-0.16673584,0.0
20588,-0.28449273,1.0816689,0.26940155,1.6758546,0.65419924,-0.10089111,0.0
20589,-0.2310121,1.0471802,0.14722443,1.6758546,0.65419924,-0.10089111,0.0
20590,-0.2310121,1.0471802,0.14722443,1.8670167,0.63720703,-0.0010620117,0.0
20591,-0.20922375,1.1542587,0.017608643,1.8670167,0.63720703,-0.0010620117,0.0
20592,-0.20922375,1.1542587,0.017608643,1.8351563,0.71579593,0.052038576,0.0
20593,-0.34619975,1.4413986,0.061985016,1.8351563,0.71579593,0.052038576,0.0
20594,-0.34619975,1.4413986,0.061985016,1.4199097,0.7126099,0.045666505,0.0
20595,-0.57455516,1.5220146,0.18624496,1.4199097,0.7126099,0.045666505,0.0
20596,-0.57455516,1.5220146,0.18624496,1.0428956,0.63826907,0.087084964,0.0
20597,-0.6349616,1.183567,0.22209167,1.0428956,0.63826907,0.087084964,0.0
20598,-0.6349616,1.183567,0.22209167,0.80394286,0.6085327,0.11469727,0.0
20599,-0.56092334,0.7211609,0.1541748,0.80394286,0.6085327,0.11469727,0.0
20600,-0.56092334,0.7211609,0.1541748,0.72960204,0.61065674,0.13699952,0.0
20601,-0.6128135,0.546875,0.1266098,0.72960204,0.61065674,0.13699952,0.0
20602,-0.6128135,0.546875,0.1266098,0.67331547,0.56180423,0.13699952,0.0
20603,-0.8380046,0.7260246,0.20237732,0.67331547,0.56180423,0.13699952,0.0
20604,-0.8380046,0.7260246,0.20237732,0.53100586,0.4800293,0.11682129,0.0
20605,-0.9911313,0.938118,0.16880035,0.53100586,0.4800293,0.11682129,0.0
20606,-0.9911313,0.938118,0.16880035,0.4056885,0.3355957,0.13062744,0.0
20607,-0.8827367,0.9894829,-0.047237396,0.4056885,0.3355957,0.13062744,0.0
20608,-0.8827367,0.9894829,-0.047237396,0.2899292,0.28461915,0.16142578,0.0
20609,-0.6888797,0.8724594,-0.18490982,0.2899292,0.28461915,0.16142578,0.0
20610,-0.6888797,0.8724594,-0.18490982,0.19541016,0.21983643,0.20921631,0.0
20611,-0.57468796,0.6423874,-0.17300034,0.19541016,0.21983643,0.20921631,0.0
20612,-0.57468796,0.6423874,-0.17300034,0.083898924,0.20709229,0.21452637,0.0
20613,-0.5164151,0.33228302,-0.16030121,0.083898924,0.20709229,0.21452637,0.0
20614,-0.5164151,0.33228302,-0.16030121,0.24001466,0.21027832,0.23364258,0.0
20615,-0.44660378,-0.004901886,-0.35357285,0.24001466,0.21027832,0.23364258,0.0
20616,-0.44660378,-0.004901886,-0.35357285,0.53737795,0.21240234,0.27293703,0.0
20617,-0.27818155,-0.04888153,-0.72159195,0.53737795,0.21240234,0.27293703,0.0
20618,-0.27818155,-0.04888153,-0.72159195,0.61065674,0.29948732,0.29417726,0.0
20619,-0.2132678,0.3989334,-0.7963524,0.61065674,0.29948732,0.29417726,0.0
20620,-0.2132678,0.3989334,-0.7963524,0.2888672,0.4364868,0.31223145,0.0
20621,-0.4278407,0.8933029,-0.4516449,0.2888672,0.4364868,0.31223145,0.0
20622,-0.4278407,0.8933029,-0.4516449,-0.10938721,0.46622315,0.36851808,0.0
20623,-0.63618135,0.81507874,-0.14833069,-0.10938721,0.46622315,0.36851808,0.0
20624,-0.63618135,0.81507874,-0.14833069,-0.2081543,0.4959595,0.48746338,0.0
20625,-0.5537691,0.32786942,-0.19314194,-0.2081543,0.4959595,0.48746338,0.0
20626,-0.5537691,0.32786942,-0.19314194,-0.21558838,0.49277344,0.6403931,0.0
20627,-0.2930398,-0.020141602,-0.3465309,-0.21558838,0.49277344,0.6403931,0.0
20628,-0.2930398,-0.020141602,-0.3465309,-0.2347046,0.51932377,0.80819094,0.0
20629,-0.15023994,-0.049720764,-0.15685272,-0.2347046,0.51932377,0.80819094,0.0
20630,-0.15023994,-0.049720764,-0.15685272,-0.47896728,0.56180423,0.8995239,0.0
20631,-0.20405436,-0.0714798,0.3296318,-0.47896728,0.56180423,0.8995239,0.0
20632,-0.20405436,-0.0714798,0.3296318,-0.60109866,0.56817627,0.9430664,0.0
20633,-0.2636218,-0.2632637,0.6915741,-0.60109866,0.56817627,0.9430664,0.0
20634,-0.2636218,-0.2632637,0.6915741,-0.5479981,0.5809204,0.9515625,0.0
20635,-0.25826073,-0.40541077,0.7302246,-0.5479981,0.5809204,0.9515625,0.0
20636,-0.25826073,-0.40541077,0.7302246,-0.45666504,0.5671143,0.9409424,0.0
20637,-0.23713827,-0.42501068,0.62392426,-0.45666504,0.5671143,0.9409424,0.0
20638,-0.23713827,-0.42501068,0.62392426,-0.42055663,0.5065796,0.9143921,0.0
20639,-0.23713827,-0.42501068,0.62392426,-0.42055663,0.5065796,0.9143921,0.0
20640,-0.19417858,-0.5209656,0.48779678,-0.42055663,0.5065796,0.9143921,0.0
20641,-0.19417858,-0.5209656,0.48779678,-0.28568116,0.36108398,0.8729736,0.0
20642,0.005472183,-0.7663574,0.2619896,-0.28568116,0.36108398,0.8729736,0.0
20643,0.005472183,-0.7663574,0.2619896,-0.15930176,0.22833252,0.79332274,0.0
20644,0.34422112,-0.9672241,-0.008087158,-0.15930176,0.22833252,0.79332274,0.0
20645,0.34422112,-0.9672241,-0.008087158,-0.19434814,0.11257324,0.6531372,0.0
20646,0.7007551,-1.0536995,-0.245327,-0.19434814,0.11257324,0.6531372,0.0
20647,0.7007551,-1.0536995,-0.245327,-0.14018555,0.0053100586,0.54375,0.0
20648,0.99888563,-1.0829735,-0.43984222,-0.14018555,0.0053100586,0.54375,0.0
20649,0.99888563,-1.0829735,-0.43984222,-0.0180542,-0.014868164,0.4598511,0.0
20650,1.1250362,-1.0587502,-0.54652786,-0.0180542,-0.014868164,0.4598511,0.0
20651,1.1250362,-1.0587502,-0.54652786,0.090270996,-0.0053100586,0.36533204,0.0
20652,1.0705001,-0.9129181,-0.55656815,0.090270996,-0.0053100586,0.36533204,0.0
20653,1.0705001,-0.9129181,-0.55656815,0.16248779,0.04460449,0.25806886,0.0
20654,0.8773351,-0.5841675,-0.44729614,0.16248779,0.04460449,0.25806886,0.0
20655,0.8773351,-0.5841675,-0.44729614,0.045666505,0.090270996,0.1274414,0.0
20656,0.62807655,-0.25566483,-0.24489594,0.045666505,0.090270996,0.1274414,0.0
20657,0.62807655,-0.25566483,-0.24489594,-0.052038576,0.12531738,0.022302246,0.0
20658,0.45352316,-0.11870575,-0.070049286,-0.052038576,0.12531738,0.022302246,0.0
20659,0.45352316,-0.11870575,-0.070049286,0.004248047,0.18903808,-0.033984374,0.0
20660,0.34432507,-0.092926025,0.004119873,0.004248047,0.18903808,-0.033984374,0.0
20661,0.34432507,-0.092926025,0.004119873,0.14761963,0.20603028,-0.07965088,0.0
20662,0.2547326,-0.053710938,0.04030609,0.14761963,0.20603028,-0.07965088,0.0
20663,0.2547326,-0.053710938,0.04030609,0.24744873,0.23895264,-0.15717773,0.0
20664,0.15349317,0.05633545,0.19148636,0.24744873,0.23895264,-0.15717773,0.0
20665,0.15349317,0.05633545,0.19148636,0.18797608,0.19541016,-0.26656494,0.0
20666,0.10552168,0.17142487,0.39027405,0.18797608,0.19541016,-0.26656494,0.0
20667,0.10552168,0.17142487,0.39027405,0.12319336,0.16036378,-0.3525879,0.0
20668,0.14309645,0.19691849,0.45648193,0.12319336,0.16036378,-0.3525879,0.0
20669,0.14309645,0.19691849,0.45648193,0.13168946,0.15505372,-0.42905274,0.0
20670,0.18912315,0.1481018,0.3809662,0.13168946,0.15505372,-0.42905274,0.0
20671,0.18912315,0.1481018,0.3809662,0.20072022,0.15186767,-0.49489745,0.0
20672,0.1651659,0.1696167,0.29002762,0.20072022,0.15186767,-0.49489745,0.0
20673,0.1651659,0.1696167,0.29002762,0.23151855,0.12956543,-0.55968016,0.0
20674,0.03006959,0.2875862,0.2915802,0.23151855,0.12956543,-0.55968016,0.0
20675,0.03006959,0.2875862,0.2915802,0.18691407,0.078588866,-0.63933104,0.0
20676,-0.16236997,0.36214828,0.3398323,0.18691407,0.078588866,-0.63933104,0.0
20677,-0.16236997,0.36214828,0.3398323,0.16142578,0.0361084,-0.6956177,0.0
20678,-0.29705906,0.36288452,0.33816147,0.16142578,0.0361084,-0.6956177,0.0
20679,-0.29705906,0.36288452,0.33816147,0.13062744,-0.0053100586,-0.7540283,0.0
20680,-0.2974372,0.30764008,0.25696945,0.13062744,-0.0053100586,-0.7540283,0.0
20681,-0.2974372,0.30764008,0.25696945,0.13381349,-0.028674318,-0.81031495,0.0
20682,-0.21298647,0.25243378,0.0805397,0.13381349,-0.028674318,-0.81031495,0.0
20683,-0.21298647,0.25243378,0.0805397,0.1720459,-0.028674318,-0.8623535,0.0
20684,-0.12469816,0.2803421,-0.13638687,0.1720459,-0.028674318,-0.8623535,0.0
20685,-0.12469816,0.2803421,-0.13638687,0.15930176,0.007434082,-0.903772,0.0
20686,-0.12049842,0.36730194,-0.23731995,0.15930176,0.007434082,-0.903772,0.0
20687,-0.12049842,0.36730194,-0.23731995,0.1178833,0.10407715,-0.9430664,0.0
20688,-0.27111816,0.4113617,-0.19791412,0.1178833,0.10407715,-0.9430664,0.0
20689,-0.27111816,0.4113617,-0.19791412,0.15186767,0.16142578,-0.9685547,0.0
20690,-0.4519775,0.278965,-0.32871628,0.15186767,0.16142578,-0.9685547,0.0
20691,-0.4519775,0.278965,-0.32871628,0.3717041,0.1731079,-0.9802368,0.0
20692,-0.4794898,0.048721313,-0.840744,0.3717041,0.1731079,-0.9802368,0.0
20693,-0.4794898,0.048721313,-0.840744,0.5671143,0.18797608,-0.9696167,0.0
20694,-0.58854795,0.09210205,-1.1110573,0.5671143,0.18797608,-0.9696167,0.0
20695,-0.58854795,0.09210205,-1.1110573,0.39400634,0.32603762,-0.97280276,0.0
20696,-1.0106087,0.31642914,-0.62987137,0.39400634,0.32603762,-0.97280276,0.0
20697,-1.0106087,0.31642914,-0.62987137,0.087084964,0.27718505,-0.9600586,0.0
20698,-1.3145051,0.28307343,0.045017242,0.087084964,0.27718505,-0.9600586,0.0
20699,-1.3145051,0.28307343,0.045017242,0.08602295,0.26762697,-0.9526245,0.0
20700,-1.2852101,0.12600708,0.32178116,0.08602295,0.26762697,-0.9526245,0.0
20701,-1.2852101,0.12600708,0.32178116,0.121069334,0.3175415,-0.92926025,0.0
20702,-1.267487,0.16031265,0.31209946,0.121069334,0.3175415,-0.92926025,0.0
20703,-1.267487,0.16031265,0.31209946,0.1444336,0.3334717,-0.905896,0.0
20704,-1.3769903,0.23583221,0.21714783,0.1444336,0.3334717,-0.905896,0.0
20705,-1.3769903,0.23583221,0.21714783,0.2081543,0.32816163,-0.87191164,0.0
20706,-1.4118462,0.17089081,-0.038539886,0.2081543,0.32816163,-0.87191164,0.0
20707,-1.4118462,0.17089081,-0.038539886,0.32816163,0.31010744,-0.83898926,0.0
20708,-1.2860441,0.09352493,-0.39749527,0.32816163,0.31010744,-0.83898926,0.0
20709,-1.2860441,0.09352493,-0.39749527,0.26019287,0.31116945,-0.8315552,0.0
20710,-1.1359887,0.13335419,-0.5585365,0.26019287,0.31116945,-0.8315552,0.0
20711,-1.1359887,0.13335419,-0.5585365,0.21452637,0.27612305,-0.8262451,0.0
20712,-1.1321306,0.24328995,-0.31756973,0.21452637,0.27612305,-0.8262451,0.0
20713,-1.1321306,0.24328995,-0.31756973,0.14974366,0.2548828,-0.8623535,0.0
20714,-1.2491856,0.2851448,-0.028968811,0.14974366,0.2548828,-0.8623535,0.0
20715,-1.2491856,0.2851448,-0.028968811,0.14868164,0.10938721,-0.8729736,0.0
20716,-1.2442455,0.22724915,-0.15136337,0.14868164,0.10938721,-0.8729736,0.0
20717,-1.2442455,0.22724915,-0.15136337,0.19116211,0.05628662,-0.8602295,0.0
20718,-1.1347032,0.18061829,-0.44044113,0.19116211,0.05628662,-0.8602295,0.0
20719,-1.1347032,0.18061829,-0.44044113,0.1539917,-0.029736329,-0.815625,0.0
20720,-0.9980087,0.1556778,-0.50562286,0.1539917,-0.029736329,-0.815625,0.0
20721,-0.9980087,0.1556778,-0.50562286,0.16567384,-0.1178833,-0.74871826,0.0
20722,-0.7770939,0.10562134,-0.36209106,0.16567384,-0.1178833,-0.74871826,0.0
20723,-0.7770939,0.10562134,-0.36209106,0.20496826,-0.14018555,-0.6786255,0.0
20724,-0.48164845,0.09347153,-0.2397728,0.20496826,-0.14018555,-0.6786255,0.0
20725,-0.48164845,0.09347153,-0.2397728,0.26019287,-0.107263185,-0.630835,0.0
20726,-0.29675674,0.15612793,-0.14679718,0.26019287,-0.107263185,-0.630835,0.0
20727,-0.29675674,0.15612793,-0.14679718,0.13168946,-0.021240234,-0.630835,0.0
20728,-0.36184406,0.13692474,-0.004928589,0.13168946,-0.021240234,-0.630835,0.0
20729,-0.36184406,0.13692474,-0.004928589,0.09664307,0.0180542,-0.61702883,0.0
20730,-0.54236794,0.0075263977,0.07873535,0.09664307,0.0180542,-0.61702883,0.0
20731,-0.54236794,0.0075263977,0.07873535,0.16461182,0.027612304,-0.60216063,0.0
20732,-0.6556225,-0.108566284,0.025035858,0.16461182,0.027612304,-0.60216063,0.0
20733,-0.6556225,-0.108566284,0.025035858,0.26337892,0.004248047,-0.5607422,0.0
20734,-0.6069937,-0.13813782,-0.18762589,0.26337892,0.004248047,-0.5607422,0.0
20735,-0.6069937,-0.13813782,-0.18762589,0.34940186,-0.025488282,-0.5214478,0.0
20736,-0.40469933,-0.081588745,-0.43972397,0.34940186,-0.025488282,-0.5214478,0.0
20737,-0.40469933,-0.081588745,-0.43972397,0.32391357,-0.04991455,-0.46622315,0.0
20738,-0.105522156,-0.069740295,-0.6258278,0.32391357,-0.04991455,-0.46622315,0.0
20739,-0.105522156,-0.069740295,-0.6258278,0.26656494,-0.020178223,-0.41949463,0.0
20740,-0.105522156,-0.069740295,-0.6258278,0.26656494,-0.020178223,-0.41949463,0.0
20741,0.1466732,-0.10735321,-0.6158714,0.26656494,-0.020178223,-0.41949463,0.0
20742,0.1466732,-0.10735321,-0.6158714,0.13912354,0.07752686,-0.3695801,0.0
20743,0.1849165,-0.06996536,-0.37374115,0.13912354,0.07752686,-0.3695801,0.0
20744,0.1849165,-0.06996536,-0.37374115,0.090270996,0.1529297,-0.31966552,0.0
20745,0.047005653,-0.009059906,-0.11255264,0.090270996,0.1529297,-0.31966552,0.0
20746,0.047005653,-0.009059906,-0.11255264,0.1263794,0.16673584,-0.27293703,0.0
20747,-0.10189724,0.04548645,-0.020328522,0.1263794,0.16673584,-0.27293703,0.0
20748,-0.10189724,0.04548645,-0.020328522,0.115759276,0.16248779,-0.2538208,0.0
20749,-0.2304802,0.14811707,-0.011428833,0.115759276,0.16248779,-0.2538208,0.0
20750,-0.2304802,0.14811707,-0.011428833,-0.023364259,0.15080567,-0.24107666,0.0
20751,-0.35840797,0.22431564,0.03139496,-0.023364259,0.15080567,-0.24107666,0.0
20752,-0.35840797,0.22431564,0.03139496,-0.121069334,0.14549561,-0.22302246,0.0
20753,-0.49186516,0.20005798,0.164608,-0.121069334,0.14549561,-0.22302246,0.0
20754,-0.49186516,0.20005798,0.164608,-0.11469727,0.15611573,-0.20178223,0.0
20755,-0.63710785,0.1395607,0.30472183,-0.11469727,0.15611573,-0.20178223,0.0
20756,-0.63710785,0.1395607,0.30472183,-0.04460449,0.14124756,-0.16779785,0.0
20757,-0.6897402,0.063446045,0.25841522,-0.04460449,0.14124756,-0.16779785,0.0
20758,-0.6897402,0.063446045,0.25841522,0.0722168,0.12319336,-0.121069334,0.0
20759,-0.59191704,0.07623291,0.035858154,0.0722168,0.12319336,-0.121069334,0.0
20760,-0.59191704,0.07623291,0.035858154,0.053100586,0.115759276,-0.087084964,0.0
20761,-0.4493761,0.11845398,-0.15633392,0.053100586,0.115759276,-0.087084964,0.0
20762,-0.4493761,0.11845398,-0.15633392,-0.07540283,0.07752686,-0.060534667,0.0
20763,-0.3022747,0.030174255,-0.16249466,-0.07540283,0.07752686,-0.060534667,0.0
20764,-0.3022747,0.030174255,-0.16249466,-0.13487549,0.07965088,-0.04885254,0.0
20765,-0.15637112,-0.13661194,-0.02840805,-0.13487549,0.07965088,-0.04885254,0.0
20766,-0.15637112,-0.13661194,-0.02840805,-0.11257324,0.060534667,-0.032922365,0.0
20767,0.004102707,-0.25722504,0.0884552,-0.11257324,0.060534667,-0.032922365,0.0
20768,0.004102707,-0.25722504,0.0884552,-0.026550293,0.06584473,-0.027612304,0.0
20769,0.1286726,-0.22724152,0.15189362,-0.026550293,0.06584473,-0.027612304,0.0
20770,0.1286726,-0.22724152,0.15189362,-0.04885254,0.07646485,-0.028674318,0.0
20771,0.15335274,-0.11867142,0.13636017,-0.04885254,0.07646485,-0.028674318,0.0
20772,0.15335274,-0.11867142,0.13636017,-0.09239502,0.08283692,-0.0180542,0.0
20773,0.12551403,-0.039894104,0.015850067,-0.09239502,0.08283692,-0.0180542,0.0
20774,0.12551403,-0.039894104,0.015850067,-0.0998291,0.09239502,0.0021240234,0.0
20775,0.041891098,0.021575928,-0.062698364,-0.0998291,0.09239502,0.0021240234,0.0
20776,0.041891098,0.021575928,-0.062698364,-0.093457036,0.070092775,0.029736329,0.0
20777,-0.048042297,0.080783844,-0.0072021484,-0.093457036,0.070092775,0.029736329,0.0
20778,-0.048042297,0.080783844,-0.0072021484,-0.09451904,0.07115479,0.057348635,0.0
20779,-0.06555748,0.1145401,0.07221985,-0.09451904,0.07115479,0.057348635,0.0
20780,-0.06555748,0.1145401,0.07221985,-0.06478272,0.058410645,0.09239502,0.0
20781,0.028229713,0.11994171,0.022205353,-0.06478272,0.058410645,0.09239502,0.0
20782,0.028229713,0.11994171,0.022205353,-0.022302246,0.07752686,0.12000733,0.0
20783,0.15185642,0.17186737,-0.123298645,-0.022302246,0.07752686,0.12000733,0.0
20784,0.15185642,0.17186737,-0.123298645,-0.046728518,0.11257324,0.16248779,0.0
20785,0.2033453,0.14269638,-0.20368195,-0.046728518,0.11257324,0.16248779,0.0
20786,0.2033453,0.14269638,-0.20368195,-0.052038576,0.10620117,0.1996582,0.0
20787,0.23738289,-0.051467896,-0.23739624,-0.052038576,0.10620117,0.1996582,0.0
20788,0.23738289,-0.051467896,-0.23739624,0.07434082,0.098767094,0.19647217,0.0
20789,0.28479195,-0.21691895,-0.27535248,0.07434082,0.098767094,0.19647217,0.0
20790,0.28479195,-0.21691895,-0.27535248,0.27293703,0.08814698,0.17735596,0.0
20791,0.32745457,-0.29405594,-0.32959747,0.27293703,0.08814698,0.17735596,0.0
20792,0.32745457,-0.29405594,-0.32959747,0.6680054,0.05628662,0.16036378,0.0
20793,0.36589432,-0.39505768,-0.43486023,0.6680054,0.05628662,0.16036378,0.0
20794,0.36589432,-0.39505768,-0.43486023,1.2627319,0.029736329,0.14230958,0.0
20795,0.380826,-0.38550186,-0.6080818,1.2627319,0.029736329,0.14230958,0.0
20796,0.380826,-0.38550186,-0.6080818,1.8563966,0.033984374,0.14230958,0.0
20797,0.310874,0.059898376,-0.81822586,1.8563966,0.033984374,0.14230958,0.0
20798,0.310874,0.059898376,-0.81822586,1.9764038,0.060534667,0.15717773,0.0
20799,0.1956358,0.78419876,-1.0985985,1.9764038,0.060534667,0.15717773,0.0
20800,0.1956358,0.78419876,-1.0985985,1.7119629,0.11469727,0.16354981,0.0
20801,0.07229233,1.209732,-1.3550262,1.7119629,0.11469727,0.16354981,0.0
20802,0.07229233,1.209732,-1.3550262,1.5675293,0.21452637,0.26125488,0.0
20803,-0.18684387,1.2540894,-1.3669662,1.5675293,0.21452637,0.26125488,0.0
20804,-0.18684387,1.2540894,-1.3669662,1.4793824,0.2538208,0.34833986,0.0
20805,-0.49287128,1.1856308,-1.213314,1.4793824,0.2538208,0.34833986,0.0
20806,-0.49287128,1.1856308,-1.213314,1.5292969,0.20072022,0.44073486,0.0
20807,-0.5463476,1.0071335,-1.1735458,1.5292969,0.20072022,0.44073486,0.0
20808,-0.5463476,1.0071335,-1.1735458,1.7597535,0.16036378,0.48640138,0.0
20809,-0.30547428,0.6598053,-1.3184738,1.7597535,0.16036378,0.48640138,0.0
20810,-0.30547428,0.6598053,-1.3184738,2.2068603,0.18266602,0.5511841,0.0
20811,-0.048651695,0.4572754,-1.4088058,2.2068603,0.18266602,0.5511841,0.0
20812,-0.048651695,0.4572754,-1.4088058,2.1590698,0.2166504,0.56605226,0.0
20813,0.0060739517,0.7482681,-1.1362267,2.1590698,0.2166504,0.56605226,0.0
20814,0.0060739517,0.7482681,-1.1362267,1.3243287,0.20496826,0.50020754,0.0
20815,-0.070690155,1.1359711,-0.5229111,1.3243287,0.20496826,0.50020754,0.0
20816,-0.070690155,1.1359711,-0.5229111,0.15930176,0.13912354,0.4078125,0.0
20817,0.009829521,0.7322006,-0.0796814,0.15930176,0.13912354,0.4078125,0.0
20818,0.009829521,0.7322006,-0.0796814,-0.09451904,0.12319336,0.40250245,0.0
20819,0.290102,-0.38239288,-0.19704437,-0.09451904,0.12319336,0.40250245,0.0
20820,0.290102,-0.38239288,-0.19704437,0.83686525,0.078588866,0.49064943,0.0
20821,0.5643568,-0.8866043,-0.59487915,0.83686525,0.078588866,0.49064943,0.0
20822,0.5643568,-0.8866043,-0.59487915,1.5484132,0.035046387,0.541626,0.0
20823,0.7728481,-0.2836876,-0.9135475,1.5484132,0.035046387,0.541626,0.0
20824,0.7728481,-0.2836876,-0.9135475,1.4082276,0.028674318,0.5161377,0.0
20825,0.9214649,0.73365784,-1.1076698,1.4082276,0.028674318,0.5161377,0.0
20826,0.9214649,0.73365784,-1.1076698,0.6786255,0.09451904,0.4333008,0.0
20827,0.9026995,1.0844345,-1.245964,0.6786255,0.09451904,0.4333008,0.0
20828,0.9026995,1.0844345,-1.245964,0.48533937,0.13275146,0.4258667,0.0
20829,0.6947422,0.5135536,-1.2097473,0.48533937,0.13275146,0.4258667,0.0
20830,0.6947422,0.5135536,-1.2097473,0.9430664,0.13168946,0.47578126,0.0
20831,0.4800129,-0.18677521,-0.86948013,0.9430664,0.13168946,0.47578126,0.0
20832,0.4800129,-0.18677521,-0.86948013,1.1958252,0.15930176,0.4364868,0.0
20833,0.49392223,-0.56749725,-0.58397675,1.1958252,0.15930176,0.4364868,0.0
20834,0.49392223,-0.56749725,-0.58397675,1.5547851,0.18691407,0.36745605,0.0
20835,0.5938072,-0.25517273,-0.78401566,1.5547851,0.18691407,0.36745605,0.0
20836,0.5938072,-0.25517273,-0.78401566,1.6238159,0.2793091,0.4078125,0.0
20837,0.5416355,-0.03406906,-1.0897598,1.6238159,0.2793091,0.4078125,0.0
20838,0.5416355,-0.03406906,-1.0897598,1.9615357,0.2793091,0.4598511,0.0
20839,0.39014435,-0.45518494,-1.2349167,1.9615357,0.2793091,0.4598511,0.0
20840,0.39014435,-0.45518494,-1.2349167,2.265271,0.33771974,0.41524658,0.0
20841,0.32421303,-0.4543457,-1.4785957,2.265271,0.33771974,0.41524658,0.0
20842,0.32421303,-0.4543457,-1.4785957,2.075171,0.3419678,0.39188233,0.0
20843,0.4878006,-0.09821701,-1.812748,2.075171,0.3419678,0.39188233,0.0
20844,0.4878006,-0.09821701,-1.812748,2.1165893,0.45454103,0.38551027,0.0
20845,0.8298769,-0.23937988,-2.0856094,2.1165893,0.45454103,0.38551027,0.0
20846,0.8298769,-0.23937988,-2.0856094,2.4808595,0.5522461,0.31329346,0.0
20847,1.0848489,-0.5707512,-2.4182816,2.4808595,0.5522461,0.31329346,0.0
20848,1.0848489,-0.5707512,-2.4182816,2.6709595,0.51932377,0.24001466,0.0
20849,0.94436836,-0.3749466,-2.7247849,2.6709595,0.51932377,0.24001466,0.0
20850,0.94436836,-0.3749466,-2.7247849,2.3141236,0.5628662,0.1539917,0.0
20851,0.66740894,-0.08740997,-2.6889114,2.3141236,0.5628662,0.1539917,0.0
20852,0.66740894,-0.08740997,-2.6889114,2.1452637,0.55755615,0.06159668,0.0
20853,0.432621,0.21251678,-2.3969307,2.1452637,0.55755615,0.06159668,0.0
20854,0.432621,0.21251678,-2.3969307,2.0433106,0.5033936,0.07434082,0.0
20855,0.050430298,0.342144,-2.0848656,2.0433106,0.5033936,0.07434082,0.0
20856,0.050430298,0.342144,-2.0848656,1.7533814,0.47896728,0.08920898,0.0
20857,-0.25875235,-0.6687889,-1.6711273,1.7533814,0.47896728,0.08920898,0.0
20858,-0.25875235,-0.6687889,-1.6711273,1.8351563,0.40144044,0.07327881,0.0
20859,-0.15083742,-2.2321014,-1.1059952,1.8351563,0.40144044,0.07327881,0.0
20860,-0.15083742,-2.2321014,-1.1059952,2.2323487,0.2824951,-0.0637207,0.0
20861,0.2354827,-1.9166145,-1.0500183,2.2323487,0.2824951,-0.0637207,0.0
20862,0.2354827,-1.9166145,-1.0500183,2.3396118,0.20284425,-0.1083252,0.0
20863,0.4487381,0.9737282,-1.7530403,2.3396118,0.20284425,-0.1083252,0.0
20864,0.4487381,0.9737282,-1.7530403,1.1926392,0.32285157,0.10407715,0.0
20865,0.08773804,3.1123085,-2.673355,1.1926392,0.32285157,0.10407715,0.0
20866,0.08773804,3.1123085,-2.673355,0.23682861,0.32709962,0.0722168,0.0
20867,-1.292151,2.4359398,-2.7055893,0.23682861,0.32709962,0.0722168,0.0
20868,-1.292151,2.4359398,-2.7055893,-0.2782471,0.107263185,0.12956543,0.0
20869,-2.2619925,-0.18708801,-1.2496758,-0.2782471,0.107263185,0.12956543,0.0
20870,-2.2619925,-0.18708801,-1.2496758,0.35577393,0.052038576,0.3727661,0.0
20871,-1.4569817,-2.213585,0.5854645,0.35577393,0.052038576,0.3727661,0.0
20872,-1.4569817,-2.213585,0.5854645,0.08496094,-0.052038576,0.32072756,0.0
20873,0.1978302,-1.8721733,1.2588997,0.08496094,-0.052038576,0.32072756,0.0
20874,0.1978302,-1.8721733,1.2588997,0.28674316,-0.2782471,0.2814331,0.0
20875,1.665967,-0.4397049,0.0767746,0.28674316,-0.2782471,0.2814331,0.0
20876,1.665967,-0.4397049,0.0767746,0.17629395,-0.27293703,0.16885987,0.0
20877,2.1621318,0.7724762,-1.8357964,0.17629395,-0.27293703,0.16885987,0.0
20878,2.1621318,0.7724762,-1.8357964,0.2347046,-0.14761963,0.0063720704,0.0
20879,1.5344052,0.8327141,-2.3766823,0.2347046,-0.14761963,0.0063720704,0.0
20880,1.5344052,0.8327141,-2.3766823,-0.083898924,-0.14124756,0.0998291,0.0
20881,0.6135349,-0.38324356,-1.0202179,-0.083898924,-0.14124756,0.0998291,0.0
20882,0.6135349,-0.38324356,-1.0202179,-0.008496094,-0.21027832,-0.004248047,0.0
20883,0.08798361,-1.1106567,0.7260742,-0.008496094,-0.21027832,-0.004248047,0.0
20884,0.08798361,-1.1106567,0.7260742,-0.011682129,-0.19434814,0.052038576,0.0
20885,-0.065941334,-0.8346443,1.5252457,-0.011682129,-0.19434814,0.052038576,0.0
20886,-0.065941334,-0.8346443,1.5252457,0.052038576,-0.11257324,0.07327881,0.0
20887,0.004070759,-0.54698944,1.4057198,0.052038576,-0.11257324,0.07327881,0.0
20888,0.004070759,-0.54698944,1.4057198,0.11469727,-0.118945315,0.05522461,0.0
20889,0.11585426,-0.30628967,0.698246,0.11469727,-0.118945315,0.05522461,0.0
20890,0.11585426,-0.30628967,0.698246,0.21346436,-0.10938721,0.04885254,0.0
20891,0.18191719,0.0939827,-0.08622742,0.21346436,-0.10938721,0.04885254,0.0
20892,0.18191719,0.0939827,-0.08622742,0.060534667,-0.060534667,0.04885254,0.0
20893,0.28581715,0.42530823,-0.65148926,0.060534667,-0.060534667,0.04885254,0.0
20894,0.28581715,0.42530823,-0.65148926,-0.12213135,0.0010620117,0.004248047,0.0
20895,0.28581715,0.42530823,-0.65148926,-0.12213135,0.0010620117,0.004248047,79.0
20896,0.45096827,0.5102272,-1.0155411,-0.12213135,0.0010620117,0.004248047,79.0
20897,0.45096827,0.5102272,-1.0155411,-0.20496826,0.03186035,0.009558106,79.0
20898,0.4345169,0.16430664,-0.6723213,-0.20496826,0.03186035,0.009558106,79.0
20899,0.4345169,0.16430664,-0.6723213,0.1985962,-0.06796875,0.04885254,79.0
20900,0.15845346,-0.24683762,0.2593956,0.1985962,-0.06796875,0.04885254,79.0
20901,0.15845346,-0.24683762,0.2593956,0.32922363,-0.12319336,0.04141846,79.0
20902,-0.05158186,-0.1539154,0.8135605,0.32922363,-0.12319336,0.04141846,79.0
20903,-0.05158186,-0.1539154,0.8135605,0.060534667,-0.08283692,0.019116212,79.0
20904,-0.0062437057,-0.1467781,0.8637619,0.060534667,-0.08283692,0.019116212,79.0
20905,-0.0062437057,-0.1467781,0.8637619,0.22514649,-0.09770508,0.0180542,79.0
20906,0.056052685,-0.21471405,0.6853714,0.22514649,-0.09770508,0.0180542,79.0
20907,0.056052685,-0.21471405,0.6853714,0.11151123,-0.04991455,0.004248047,79.0
20908,-0.014911175,-0.09857941,0.574276,0.11151123,-0.04991455,0.004248047,79.0
20909,-0.014911175,-0.09857941,0.574276,0.19753419,-0.03079834,-0.0031860352,79.0
20910,-0.05068636,0.11740112,0.603611,0.19753419,-0.03079834,-0.0031860352,79.0
20911,-0.05068636,0.11740112,0.603611,-0.08920898,-0.0010620117,-0.04248047,79.0
20912,-0.039950848,0.3119011,0.2664566,-0.08920898,-0.0010620117,-0.04248047,79.0
20913,-0.039950848,0.3119011,0.2664566,-0.07965088,0.03717041,-0.019116212,79.0
20914,-0.08584261,0.1590805,-0.117046356,-0.07965088,0.03717041,-0.019116212,79.0
20915,-0.08584261,0.1590805,-0.117046356,-0.021240234,0.022302246,-0.016992187,79.0
20916,-0.10582018,-0.1703682,0.050807953,-0.021240234,0.022302246,-0.016992187,79.0
20917,-0.10582018,-0.1703682,0.050807953,0.0180542,-0.07540283,-0.04991455,79.0
20918,-0.120251656,-0.21289444,0.28500748,0.0180542,-0.07540283,-0.04991455,79.0
20919,-0.120251656,-0.21289444,0.28500748,-0.014868164,-0.13275146,-0.0722168,79.0
20920,-0.1617527,0.0719223,-0.023460388,-0.014868164,-0.13275146,-0.0722168,79.0
20921,-0.1617527,0.0719223,-0.023460388,-0.028674318,-0.16354981,-0.07540283,79.0
20922,-0.110444546,0.08778381,-0.39805222,-0.028674318,-0.16354981,-0.07540283,79.0
20923,-0.110444546,0.08778381,-0.39805222,-0.043542482,-0.23789063,-0.09451904,79.0
20924,-0.15830183,-0.13066483,-0.27713394,-0.043542482,-0.23789063,-0.09451904,79.0
20925,-0.15830183,-0.13066483,-0.27713394,0.0021240234,-0.35789797,-0.12850343,79.0
20926,-0.49988365,-0.20874023,0.1711998,0.0021240234,-0.35789797,-0.12850343,79.0
20927,-0.49988365,-0.20874023,0.1711998,0.009558106,-0.45135498,-0.1444336,79.0
20928,-0.84347343,0.06232834,0.24263382,0.009558106,-0.45135498,-0.1444336,79.0
20929,-0.84347343,0.06232834,0.24263382,-0.21027832,-0.4322388,-0.19647217,79.0
20930,-0.7031965,0.27238464,-0.3306961,-0.21027832,-0.4322388,-0.19647217,79.0
20931,-0.7031965,0.27238464,-0.3306961,-0.47790527,-0.45666504,-0.21558838,79.0
20932,-0.36325312,-0.16866302,-0.86795044,-0.47790527,-0.45666504,-0.21558838,79.0
20933,-0.36325312,-0.16866302,-0.86795044,-0.44604492,-0.47578126,-0.26762697,79.0
20934,-0.45542145,-0.62319946,-0.7375107,-0.44604492,-0.47578126,-0.26762697,79.0
20935,-0.45542145,-0.62319946,-0.7375107,-0.32922363,-0.5628662,-0.3334717,79.0
20936,-0.8723326,-0.4753914,-0.33021927,-0.32922363,-0.5628662,-0.3334717,79.0
20937,-0.8723326,-0.4753914,-0.33021927,-0.08814698,-0.62977296,-0.35152587,79.0
20938,-1.0771999,0.13865662,-0.49134827,-0.08814698,-0.62977296,-0.35152587,79.0
20939,-1.0771999,0.13865662,-0.49134827,-0.32816163,-0.6287109,-0.41843262,79.0
20940,-0.9779463,0.27398682,-0.9616928,-0.32816163,-0.6287109,-0.41843262,79.0
20941,-0.9779463,0.27398682,-0.9616928,-0.2793091,-0.62127686,-0.44179687,79.0
20942,-0.93112373,-0.1780777,-0.7979088,-0.2793091,-0.62127686,-0.44179687,79.0
20943,-0.93112373,-0.1780777,-0.7979088,-0.19541016,-0.66269535,-0.47471926,79.0
20944,-0.9476943,-0.35266876,0.15335846,-0.19541016,-0.66269535,-0.47471926,79.0
20945,-0.9476943,-0.35266876,0.15335846,-0.22408448,-0.61278075,-0.4248047,79.0
20946,-0.90890026,-0.11428833,0.92422485,-0.22408448,-0.61278075,-0.4248047,79.0
20947,-0.90890026,-0.11428833,0.92422485,-0.36639404,-0.6000366,-0.42374268,79.0
20948,-0.9260092,0.10908508,0.7213974,-0.36639404,-0.6000366,-0.42374268,79.0
20949,-0.9260092,0.10908508,0.7213974,-0.53737795,-0.544812,-0.40250245,79.0
20950,-0.8179188,-0.08336258,0.08888626,-0.53737795,-0.544812,-0.40250245,79.0
20951,-0.8179188,-0.08336258,0.08888626,-0.59047854,-0.48533937,-0.41843262,79.0
20952,-0.5313492,-0.32712555,-0.103134155,-0.59047854,-0.48533937,-0.41843262,79.0
20953,-0.5313492,-0.32712555,-0.103134155,-0.75296634,-0.4258667,-0.47578126,79.0
20954,-0.35388756,-0.046279907,0.06599045,-0.75296634,-0.4258667,-0.47578126,79.0
20955,-0.35388756,-0.046279907,0.06599045,-0.87615967,-0.37489015,-0.48215333,79.0
20956,-0.42002392,0.6305046,0.22963715,-0.87615967,-0.37489015,-0.48215333,79.0
20957,-0.42002392,0.6305046,0.22963715,-0.9600586,-0.36427003,-0.4598511,79.0
20958,-0.5020838,0.9521179,0.27215195,-0.9600586,-0.36427003,-0.4598511,79.0
20959,-0.5020838,0.9521179,0.27215195,-0.80394286,-0.3982544,-0.36851808,79.0
20960,-0.45987034,0.42017746,0.22042084,-0.80394286,-0.3982544,-0.36851808,79.0
20961,-0.45987034,0.42017746,0.22042084,-0.6488892,-0.41524658,-0.43967286,79.0
20962,-0.54530144,-0.0987854,0.0496521,-0.6488892,-0.41524658,-0.43967286,79.0
20963,-0.54530144,-0.0987854,0.0496521,-0.6446411,-0.4991455,-0.51082766,79.0
20964,-0.6139269,0.31134033,-0.0032730103,-0.6446411,-0.4991455,-0.51082766,79.0
20965,-0.6139269,0.31134033,-0.0032730103,-0.90908206,-0.4704712,-0.47365722,79.0
20966,-0.34419346,0.7959366,0.46200562,-0.90908206,-0.4704712,-0.47365722,79.0
20967,-0.34419346,0.7959366,0.46200562,-0.9876709,-0.3812622,-0.4704712,79.0
20968,-0.11070633,0.2805977,1.0109863,-0.9876709,-0.3812622,-0.4704712,79.0
20969,-0.11070633,0.2805977,1.0109863,-0.5915405,-0.40993652,-0.48427734,79.0
20970,-0.33470726,-0.46181488,0.84617996,-0.5915405,-0.40993652,-0.48427734,79.0
20971,-0.33470726,-0.46181488,0.84617996,-0.5235718,-0.40037844,-0.52675784,79.0
20972,-0.7197437,-0.28104782,0.18860245,-0.5235718,-0.40037844,-0.52675784,79.0
20973,-0.7197437,-0.28104782,0.18860245,-1.0407715,-0.33878174,-0.5713623,79.0
20974,-0.9045553,0.50115204,-0.10734558,-1.0407715,-0.33878174,-0.5713623,79.0
20975,-0.9045553,0.50115204,-0.10734558,-1.531421,-0.31966552,-0.55755615,79.0
20976,-0.88404465,0.8351898,0.20776367,-1.531421,-0.31966552,-0.55755615,79.0
20977,-0.88404465,0.8351898,0.20776367,-1.5558472,-0.3430298,-0.49383545,79.0
20978,-0.68677616,0.6360588,0.6856079,-1.5558472,-0.3430298,-0.49383545,79.0
20979,-0.68677616,0.6360588,0.6856079,-1.5027466,-0.32603762,-0.43011475,79.0
20980,-0.42930317,0.64782333,0.93702316,-1.5027466,-0.32603762,-0.43011475,79.0
20981,-0.42930317,0.64782333,0.93702316,-2.1909301,-0.2888672,-0.5214478,79.0
20982,-0.26263142,0.798851,1.1539383,-2.1909301,-0.2888672,-0.5214478,79.0
20983,-0.26263142,0.798851,1.1539383,-2.5764406,-0.23258057,-0.44073486,79.0
20984,-0.28746128,0.37727356,1.6557922,-2.5764406,-0.23258057,-0.44073486,79.0
20985,-0.28746128,0.37727356,1.6557922,-1.7926759,-0.23045655,-0.35577393,79.0
20986,-0.4681282,-0.15085602,2.149353,-1.7926759,-0.23045655,-0.35577393,79.0
20987,-0.4681282,-0.15085602,2.149353,-1.3965454,-0.3462158,-0.31329346,79.0
20988,-0.50378704,-0.23926544,2.07716,-1.3965454,-0.3462158,-0.31329346,79.0
20989,-0.50378704,-0.23926544,2.07716,-1.8723267,-0.3334717,-0.41206056,79.0
20990,-0.43314362,-0.099472046,1.738327,-1.8723267,-0.3334717,-0.41206056,79.0
20991,-0.43314362,-0.099472046,1.738327,-2.170752,-0.34940186,-0.48321533,79.0
20992,-0.31720543,-1.0536003,1.2294312,-2.170752,-0.34940186,-0.48321533,79.0
20993,-0.31720543,-1.0536003,1.2294312,-1.1692749,-0.30161133,-0.4704712,79.0
20994,-0.32976532,-1.2645493,1.1002922,-1.1692749,-0.30161133,-0.4704712,79.0
20995,-0.32976532,-1.2645493,1.1002922,-0.63720703,-0.19328614,-0.51082766,79.0
20996,-0.44096088,-0.8680115,1.691452,-0.63720703,-0.19328614,-0.51082766,79.0
20997,-0.44096088,-0.8680115,1.691452,-0.4959595,-0.3993164,-0.6711914,79.0
20998,-0.45035172,0.1611824,1.7914925,-0.4959595,-0.3993164,-0.6711914,79.0
20999,-0.45035172,0.1611824,1.7914925,-0.9781128,-0.4163086,-0.6595093,79.0
21000,-0.12452698,1.3503342,1.9956818,-0.9781128,-0.4163086,-0.6595093,79.0
21001,-0.12452698,1.3503342,1.9956818,-0.03717041,-0.5564942,-0.52250975,79.0
21002,-0.13651085,1.0749207,1.3145638,-0.03717041,-0.5564942,-0.52250975,79.0
21003,-0.13651085,1.0749207,1.3145638,-0.03717041,-0.5564942,-0.52250975,75.0
21004,-0.13651085,1.0749207,1.3145638,0.38232422,-0.67331547,-0.4725952,75.0
21005,-0.27594376,1.7122574,-0.74677277,0.38232422,-0.67331547,-0.4725952,75.0
21006,-0.27594376,1.7122574,-0.74677277,0.65207523,-0.71791995,-0.3971924,75.0
21007,-0.36229515,1.913826,-1.2669373,0.65207523,-0.71791995,-0.3971924,75.0
21008,-0.36229515,1.913826,-1.2669373,0.015930176,-0.5734863,-0.6903076,75.0
21009,-0.37681198,0.49667358,-1.6442986,0.015930176,-0.5734863,-0.6903076,75.0
21010,-0.37681198,0.49667358,-1.6442986,-0.3154175,-0.3079834,-0.6595093,75.0
21011,-0.5028162,-0.29951477,-0.9330063,-0.3154175,-0.3079834,-0.6595093,75.0
21012,-0.5028162,-0.29951477,-0.9330063,-0.4439209,-0.271875,-0.63933104,75.0
21013,-0.8771181,-1.2129364,0.6481743,-0.4439209,-0.271875,-0.63933104,75.0
21014,-0.8771181,-1.2129364,0.6481743,-0.8729736,-0.053100586,-0.5097656,75.0
21015,-0.84450436,-0.8976593,0.9028778,-0.8729736,-0.053100586,-0.5097656,75.0
21016,-0.84450436,-0.8976593,0.9028778,-0.904834,-0.02442627,-0.44179687,75.0
21017,-0.923296,-0.8549652,1.3934822,-0.904834,-0.02442627,-0.44179687,75.0
21018,-0.923296,-0.8549652,1.3934822,-0.72960204,0.059472658,-0.2177124,75.0
21019,-0.82091236,-0.80599594,1.2672615,-0.72960204,0.059472658,-0.2177124,75.0
21020,-0.82091236,-0.80599594,1.2672615,-0.51826173,0.050976563,-0.15717773,75.0
21021,-0.8039341,-0.4555893,1.0792389,-0.51826173,0.050976563,-0.15717773,75.0
21022,-0.8039341,-0.4555893,1.0792389,-0.34940186,0.039294433,-0.06903076,75.0
21023,-0.59826183,-0.045707703,0.8826294,-0.34940186,0.039294433,-0.06903076,75.0
21024,-0.59826183,-0.045707703,0.8826294,-0.30479738,0.06690674,-0.039294433,75.0
21025,-0.26242352,0.8030968,0.87413406,-0.30479738,0.06690674,-0.039294433,75.0
21026,-0.26242352,0.8030968,0.87413406,-0.21240234,0.06584473,0.04991455,75.0
21027,-0.15902328,0.6722641,0.7465744,-0.21240234,0.06584473,0.04991455,75.0
21028,-0.15902328,0.6722641,0.7465744,-0.098767094,0.08496094,0.05628662,75.0
21029,-0.014498711,0.08116913,0.53305054,-0.098767094,0.08496094,0.05628662,75.0
21030,-0.014498711,0.08116913,0.53305054,0.14549561,0.083898924,0.09133301,75.0
21031,0.10428238,-0.3503723,0.3342781,0.14549561,0.083898924,0.09133301,75.0
21032,0.10428238,-0.3503723,0.3342781,0.06584473,0.093457036,0.10938721,75.0
21033,0.21465206,-0.28762054,0.10290909,0.06584473,0.093457036,0.10938721,75.0
21034,0.21465206,-0.28762054,0.10290909,-0.12213135,0.11363526,0.12850343,75.0
21035,0.19838238,-0.2002716,0.09088516,-0.12213135,0.11363526,0.12850343,75.0
21036,0.19838238,-0.2002716,0.09088516,-0.12213135,0.10195313,0.15505372,75.0
21037,0.13192368,-0.17895508,0.5914459,-0.12213135,0.10195313,0.15505372,75.0
21038,0.13192368,-0.17895508,0.5914459,0.04885254,0.06584473,0.23045655,75.0
21039,0.11145973,-0.120643616,0.7073593,0.04885254,0.06584473,0.23045655,75.0
21040,0.11145973,-0.120643616,0.7073593,0.05628662,0.060534667,0.26337892,75.0
21041,-0.024003029,0.09300995,0.80454636,0.05628662,0.060534667,0.26337892,75.0
21042,-0.024003029,0.09300995,0.80454636,0.015930176,0.03717041,0.3154175,75.0
21043,-0.121949196,0.14077759,0.35589218,0.015930176,0.03717041,0.3154175,75.0
21044,-0.121949196,0.14077759,0.35589218,0.26019287,-0.03717041,0.35471192,75.0
21045,0.25772572,-0.049793243,-0.685791,0.26019287,-0.03717041,0.35471192,75.0
21046,0.25772572,-0.049793243,-0.685791,0.42055663,-0.03079834,0.33878174,75.0
21047,0.4102211,-0.013954163,-0.73853683,0.42055663,-0.03079834,0.33878174,75.0
21048,0.4102211,-0.013954163,-0.73853683,0.28461915,0.0031860352,0.3058594,75.0
21049,0.52879906,0.33185577,-0.4099083,0.28461915,0.0031860352,0.3058594,75.0
21050,0.52879906,0.33185577,-0.4099083,0.020178223,0.06265869,0.30373535,75.0
21051,0.4433403,0.7606735,0.11386871,0.020178223,0.06265869,0.30373535,75.0
21052,0.4433403,0.7606735,0.11386871,-0.33134767,0.13699952,0.35789797,75.0
21053,0.41226482,0.5293274,0.22932816,-0.33134767,0.13699952,0.35789797,75.0
21054,0.41226482,0.5293274,0.22932816,-0.73703617,0.23789063,0.39188233,75.0
21055,0.42403793,-0.4405861,0.098609924,-0.73703617,0.23789063,0.39188233,75.0
21056,0.42403793,-0.4405861,0.098609924,-0.8241211,0.28355715,0.47365722,75.0
21057,0.32966042,-1.0843658,-0.05690384,-0.8241211,0.28355715,0.47365722,75.0
21058,0.32966042,-1.0843658,-0.05690384,-0.7126099,0.2357666,0.49064943,75.0
21059,0.3461628,-0.63282394,-0.09803772,-0.7126099,0.2357666,0.49064943,75.0
21060,0.3461628,-0.63282394,-0.09803772,-0.5341919,0.2166504,0.51826173,75.0
21061,0.56197643,0.48592758,0.17110443,-0.5341919,0.2166504,0.51826173,75.0
21062,0.56197643,0.48592758,0.17110443,-0.26444092,0.16248779,0.54587406,75.0
21063,0.79148865,1.3828354,0.63827515,-0.26444092,0.16248779,0.54587406,75.0
21064,0.79148865,1.3828354,0.63827515,-0.18691407,0.10407715,0.5564942,75.0
21065,0.82797813,0.9769592,0.5954361,-0.18691407,0.10407715,0.5564942,75.0
21066,0.82797813,0.9769592,0.5954361,-0.6637573,0.124255374,0.46834716,75.0
21067,0.7380171,0.34583664,0.33999634,-0.6637573,0.124255374,0.46834716,75.0
21068,0.7380171,0.34583664,0.33999634,-0.7954468,0.098767094,0.42374268,75.0
21069,0.77339745,-0.42309952,0.12276459,-0.7954468,0.098767094,0.42374268,75.0
21070,0.77339745,-0.42309952,0.12276459,-0.7508423,0.14974366,0.41418457,75.0
21071,0.563591,-0.29758453,0.60108185,-0.7508423,0.14974366,0.41418457,75.0
21072,0.563591,-0.29758453,0.60108185,-0.68712157,0.07752686,0.38975832,75.0
21073,0.06296921,0.08660126,1.0025215,-0.68712157,0.07752686,0.38975832,75.0
21074,0.06296921,0.08660126,1.0025215,-0.69349366,0.1083252,0.38975832,75.0
21075,-0.14347267,-0.1479454,0.8665924,-0.69349366,0.1083252,0.38975832,75.0
21076,-0.14347267,-0.1479454,0.8665924,-0.48746338,0.040356446,0.36745605,75.0
21077,0.15646172,-0.5392685,0.85985184,-0.48746338,0.040356446,0.36745605,75.0
21078,0.15646172,-0.5392685,0.85985184,-0.3430298,0.10301514,0.33984375,75.0
21079,0.56124115,-0.3528633,1.0949249,-0.3430298,0.10301514,0.33984375,75.0
21080,0.56124115,-0.3528633,1.0949249,-0.33878174,0.15823975,0.33028564,75.0
21081,0.75599957,0.0018882751,1.1569672,-0.33878174,0.15823975,0.33028564,75.0
21082,0.75599957,0.0018882751,1.1569672,-0.21134034,0.20178223,0.36320803,75.0
21083,0.71803284,0.10799408,0.97099304,-0.21134034,0.20178223,0.36320803,75.0
21084,0.71803284,0.10799408,0.97099304,-0.5713623,0.2262085,0.33878174,75.0
21085,0.54107666,-0.17410278,0.726841,-0.5713623,0.2262085,0.33878174,75.0
21086,0.54107666,-0.17410278,0.726841,-0.7147339,0.24851075,0.2984253,75.0
21087,0.43395996,-0.5264282,0.7308006,-0.7147339,0.24851075,0.2984253,75.0
21088,0.43395996,-0.5264282,0.7308006,-0.64782715,0.2803711,0.2888672,75.0
21089,0.40355206,-0.44503403,1.0242615,-0.64782715,0.2803711,0.2888672,75.0
21090,0.40355206,-0.44503403,1.0242615,-0.46728516,0.2824951,0.30373535,75.0
21091,0.37265873,-0.14786148,1.1561546,-0.46728516,0.2824951,0.30373535,75.0
21092,0.37265873,-0.14786148,1.1561546,-0.3727661,0.25913087,0.2888672,75.0
21093,0.34828568,0.041610718,0.7920723,-0.3727661,0.25913087,0.2888672,75.0
21094,0.34828568,0.041610718,0.7920723,-0.29736328,0.2357666,0.23789063,75.0
21095,0.3100376,0.18196106,0.28366852,-0.29736328,0.2357666,0.23789063,75.0
21096,0.3100376,0.18196106,0.28366852,-0.4078125,0.22514649,0.19222413,75.0
21097,0.25745392,0.03847885,-0.13920212,-0.4078125,0.22514649,0.19222413,75.0
21098,0.25745392,0.03847885,-0.13920212,-0.17523193,0.18691407,0.16461182,75.0
21099,0.33001137,-0.3042984,-0.3687477,-0.17523193,0.18691407,0.16461182,75.0
21100,0.33001137,-0.3042984,-0.3687477,-0.059472658,0.19116211,0.14230958,75.0
21101,0.4435501,-0.29479218,-0.32479477,-0.059472658,0.19116211,0.14230958,75.0
21102,0.4435501,-0.29479218,-0.32479477,-0.21346436,0.18054199,0.090270996,75.0
21103,0.43895912,-0.01619339,-0.09547806,-0.21346436,0.18054199,0.090270996,75.0
21104,0.43895912,-0.01619339,-0.09547806,-0.29736328,0.19116211,0.043542482,75.0
21105,0.3654251,0.014816284,0.22740173,-0.29736328,0.19116211,0.043542482,75.0
21106,0.3654251,0.014816284,0.22740173,-0.18266602,0.21346436,0.03079834,75.0
21107,0.320014,-0.23390198,0.5002594,-0.18266602,0.21346436,0.03079834,75.0
21108,0.320014,-0.23390198,0.5002594,0.032922365,0.22727051,0.012744141,75.0
21109,0.30241013,-0.25901794,0.58776855,0.032922365,0.22727051,0.012744141,75.0
21110,0.30241013,-0.25901794,0.58776855,-0.12213135,0.22302246,0.010620117,75.0
21111,0.2885952,-0.06666565,0.4839096,-0.12213135,0.22302246,0.010620117,75.0
21112,0.2885952,-0.06666565,0.4839096,-0.3175415,0.18903808,-0.0063720704,75.0
21113,0.2522993,-0.016700745,0.3606491,-0.3175415,0.18903808,-0.0063720704,75.0
21114,0.2522993,-0.016700745,0.3606491,-0.634021,0.18054199,-0.0063720704,75.0
21115,0.03964424,-0.31023407,0.23623657,-0.634021,0.18054199,-0.0063720704,75.0
21116,0.03964424,-0.31023407,0.23623657,-0.5851685,0.14018555,-0.028674318,75.0
21117,-0.40373325,-0.6675453,0.0056152344,-0.5851685,0.14018555,-0.028674318,75.0
21118,-0.40373325,-0.6675453,0.0056152344,-0.32497558,0.08496094,0.03079834,75.0
21119,-0.7769785,-0.7564697,-0.37530518,-0.32497558,0.08496094,0.03079834,75.0
21120,-0.7769785,-0.7564697,-0.37530518,0.0021240234,0.004248047,0.058410645,75.0
21121,-0.7769785,-0.7564697,-0.37530518,0.0021240234,0.004248047,0.058410645,76.0
21122,-0.5390997,-0.624527,-0.651062,0.0021240234,0.004248047,0.058410645,76.0
21123,-0.5390997,-0.624527,-0.651062,0.013806152,-0.058410645,0.078588866,76.0
21124,0.022833824,-0.2347641,-0.44398117,0.013806152,-0.058410645,0.078588866,76.0
21125,0.022833824,-0.2347641,-0.44398117,-0.22196046,-0.033984374,0.03186035,76.0
21126,0.12587166,0.21033478,0.07203674,-0.22196046,-0.033984374,0.03186035,76.0
21127,0.12587166,0.21033478,0.07203674,-0.12531738,-0.07327881,0.019116212,76.0
21128,-0.1302967,0.40848923,0.3994255,-0.12531738,-0.07327881,0.019116212,76.0
21129,-0.1302967,0.40848923,0.3994255,0.39294434,-0.08814698,-0.019116212,76.0
21130,-0.2362442,0.61608887,0.5340538,0.39294434,-0.08814698,-0.019116212,76.0
21131,-0.2362442,0.61608887,0.5340538,0.5150757,-0.07327881,-0.052038576,76.0
21132,-0.017804146,0.77928543,0.59264755,0.5150757,-0.07327881,-0.052038576,76.0
21133,-0.017804146,0.77928543,0.59264755,0.33984375,0.021240234,-0.087084964,76.0
21134,0.11793423,0.7336197,0.47615814,0.33984375,0.021240234,-0.087084964,76.0
21135,0.11793423,0.7336197,0.47615814,0.023364259,0.050976563,-0.10620117,76.0
21136,-0.18452263,0.46692657,0.28783417,0.023364259,0.050976563,-0.10620117,76.0
21137,-0.18452263,0.46692657,0.28783417,0.07434082,0.019116212,-0.059472658,76.0
21138,-0.49734974,-0.2739296,-0.23589325,0.07434082,0.019116212,-0.059472658,76.0
21139,-0.49734974,-0.2739296,-0.23589325,0.721106,-0.12213135,0.039294433,76.0
21140,-0.08562374,-0.9643707,-1.2844391,0.721106,-0.12213135,0.039294433,76.0
21141,-0.08562374,-0.9643707,-1.2844391,0.74022216,-0.115759276,0.0053100586,76.0
21142,0.4608593,-0.31419373,-1.7597542,0.74022216,-0.115759276,0.0053100586,76.0
21143,0.4608593,-0.31419373,-1.7597542,0.026550293,-0.1083252,-0.07540283,76.0
21144,0.23338509,1.0626068,-0.70329666,0.026550293,-0.1083252,-0.07540283,76.0
21145,0.23338509,1.0626068,-0.70329666,-0.24957275,-0.20072022,-0.03717041,76.0
21146,-0.38372612,0.68214035,0.3900833,-0.24957275,-0.20072022,-0.03717041,76.0
21147,-0.38372612,0.68214035,0.3900833,0.4694092,-0.33984375,0.083898924,76.0
21148,-0.38592434,-0.8651886,0.01537323,0.4694092,-0.33984375,0.083898924,76.0
21149,-0.38592434,-0.8651886,0.01537323,0.6818115,-0.26550293,0.059472658,76.0
21150,0.0064821243,-0.7101593,-0.7077217,0.6818115,-0.26550293,0.059472658,76.0
21151,0.0064821243,-0.7101593,-0.7077217,0.059472658,-0.26868898,0.06265869,76.0
21152,-0.16817856,0.6220093,-0.37886047,0.059472658,-0.26868898,0.06265869,76.0
21153,-0.16817856,0.6220093,-0.37886047,0.0031860352,-0.35577393,0.16461182,76.0
21154,-0.2571745,0.391613,-0.15976715,0.0031860352,-0.35577393,0.16461182,76.0
21155,-0.2571745,0.391613,-0.15976715,0.53100586,-0.3982544,0.17523193,76.0
21156,0.44128227,-0.40559387,-1.0153732,0.53100586,-0.3982544,0.17523193,76.0
21157,0.44128227,-0.40559387,-1.0153732,0.047790527,-0.2166504,0.016992187,76.0
21158,0.7809553,0.50341797,-1.1782646,0.047790527,-0.2166504,0.016992187,76.0
21159,0.7809553,0.50341797,-1.1782646,-0.43011475,-0.25594482,0.0361084,76.0
21160,-0.009329796,1.5937004,0.5663452,-0.43011475,-0.25594482,0.0361084,76.0
21161,-0.009329796,1.5937004,0.5663452,-0.24001466,-0.19647217,0.022302246,76.0
21162,-0.8443785,1.290535,2.1743164,-0.24001466,-0.19647217,0.022302246,76.0
21163,-0.8443785,1.290535,2.1743164,0.37595215,-0.039294433,0.027612304,76.0
21164,-0.6359396,0.24327087,1.1368523,0.37595215,-0.039294433,0.027612304,76.0
21165,-0.6359396,0.24327087,1.1368523,0.5479981,0.07752686,-0.03079834,76.0
21166,0.22661209,-0.3653679,-1.0986252,0.5479981,0.07752686,-0.03079834,76.0
21167,0.22661209,-0.3653679,-1.0986252,0.059472658,0.10301514,-0.13699952,76.0
21168,0.5476723,-0.22084808,-1.8196487,0.059472658,0.10301514,-0.13699952,76.0
21169,0.5476723,-0.22084808,-1.8196487,0.23895264,0.07540283,-0.20709229,76.0
21170,0.16490746,0.27420044,-0.86902237,0.23895264,0.07540283,-0.20709229,76.0
21171,0.16490746,0.27420044,-0.86902237,0.41312256,0.1444336,-0.3440918,76.0
21172,-0.07951164,0.4078827,-0.1994667,0.41312256,0.1444336,-0.3440918,76.0
21173,-0.07951164,0.4078827,-0.1994667,0.50020754,0.31860352,-0.36851808,76.0
21174,-0.061228752,-0.14411545,-0.642128,0.50020754,0.31860352,-0.36851808,76.0
21175,-0.061228752,-0.14411545,-0.642128,0.70305175,0.22727051,-0.41099855,76.0
21176,-0.14705467,-0.08677673,-0.8156662,0.70305175,0.22727051,-0.41099855,76.0
21177,-0.14705467,-0.08677673,-0.8156662,0.4354248,0.21027832,-0.542688,76.0
21178,-0.27894783,0.43443298,-0.29356003,0.4354248,0.21027832,-0.542688,76.0
21179,-0.27894783,0.43443298,-0.29356003,0.66588134,0.21983643,-0.5479981,76.0
21180,-0.51960564,0.5426407,0.22645569,0.66588134,0.21983643,-0.5479981,76.0
21181,-0.51960564,0.5426407,0.22645569,0.6881836,0.18797608,-0.5511841,76.0
21182,-0.9450302,0.5167656,0.25765228,0.6881836,0.18797608,-0.5511841,76.0
21183,-0.9450302,0.5167656,0.25765228,0.38763428,0.09770508,-0.57242435,76.0
21184,-1.306427,0.23596191,0.028385162,0.38763428,0.09770508,-0.57242435,76.0
21185,-1.306427,0.23596191,0.028385162,0.46834716,-0.007434082,-0.540564,76.0
21186,-1.1915407,-0.40093994,-0.2250328,0.46834716,-0.007434082,-0.540564,76.0
21187,-1.1915407,-0.40093994,-0.2250328,0.62552494,0.03186035,-0.5331299,76.0
21188,-0.5815525,-0.7370987,-0.52606964,0.62552494,0.03186035,-0.5331299,76.0
21189,-0.5815525,-0.7370987,-0.52606964,0.76358646,0.06690674,-0.5246338,76.0
21190,0.031658173,-0.1924591,-0.6026039,0.76358646,0.06690674,-0.5246338,76.0
21191,0.031658173,-0.1924591,-0.6026039,0.61915284,0.07646485,-0.5479981,76.0
21192,0.12544823,0.43976974,-0.64089584,0.61915284,0.07646485,-0.5479981,76.0
21193,0.12544823,0.43976974,-0.64089584,0.5586182,0.08602295,-0.5341919,76.0
21194,-0.21275139,0.23952484,-0.8948059,0.5586182,0.08602295,-0.5341919,76.0
21195,-0.21275139,0.23952484,-0.8948059,0.5915405,0.093457036,-0.50870365,76.0
21196,-0.34128284,-0.62308884,-1.1628304,0.5915405,0.093457036,-0.50870365,76.0
21197,-0.34128284,-0.62308884,-1.1628304,0.68287355,0.12213135,-0.5150757,76.0
21198,-0.14242363,-0.90655136,-1.047329,0.68287355,0.12213135,-0.5150757,76.0
21199,-0.14242363,-0.90655136,-1.047329,0.49489745,0.13062744,-0.52250975,76.0
21200,-0.04221058,-0.26553726,-0.5609474,0.49489745,0.13062744,-0.52250975,76.0
21201,-0.04221058,-0.26553726,-0.5609474,0.8251831,0.1263794,-0.4598511,76.0
21202,-0.13857841,0.13130951,-0.4895172,0.8251831,0.1263794,-0.4598511,76.0
21203,-0.13857841,0.13130951,-0.4895172,1.4857544,0.2516968,-0.3175415,76.0
21204,-0.30989838,-0.22362518,-1.2467651,1.4857544,0.2516968,-0.3175415,76.0
21205,-0.30989838,-0.22362518,-1.2467651,2.0040162,0.3334717,-0.17523193,76.0
21206,-0.52993774,-0.413517,-1.8267441,2.0040162,0.3334717,-0.17523193,76.0
21207,-0.52993774,-0.413517,-1.8267441,1.0556396,0.33984375,-0.36427003,76.0
21208,-0.7083492,-0.07329559,-1.3530464,1.0556396,0.33984375,-0.36427003,76.0
21209,-0.7083492,-0.07329559,-1.3530464,-0.078588866,0.31329346,-0.49383545,76.0
21210,-0.78428173,0.11338806,-0.56044006,-0.078588866,0.31329346,-0.49383545,76.0
21211,-0.78428173,0.11338806,-0.56044006,0.12000733,0.3079834,-0.42905274,76.0
21212,-0.78428173,0.11338806,-0.56044006,0.12000733,0.3079834,-0.42905274,76.0
21213,-0.7955036,0.4208145,-0.3008194,0.12000733,0.3079834,-0.42905274,76.0
21214,-0.7955036,0.4208145,-0.3008194,0.36002198,0.36745605,-0.34940186,76.0
21215,-0.59339714,0.5585251,-0.504303,0.36002198,0.36745605,-0.34940186,76.0
21216,-0.59339714,0.5585251,-0.504303,0.39613038,0.42905274,-0.32072756,76.0
21217,-0.24484634,0.15917206,-0.6344719,0.39613038,0.42905274,-0.32072756,76.0
21218,-0.24484634,0.15917206,-0.6344719,0.24213867,0.4800293,-0.270813,76.0
21219,-0.09508419,-0.4012375,-0.60256195,0.24213867,0.4800293,-0.270813,76.0
21220,-0.09508419,-0.4012375,-0.60256195,0.32497558,0.5140137,-0.17523193,76.0
21221,-0.089214325,-0.7707825,-0.6593437,0.32497558,0.5140137,-0.17523193,76.0
21222,-0.089214325,-0.7707825,-0.6593437,0.5713623,0.56392825,-0.17841797,76.0
21223,0.02847004,-0.57082367,-0.8054657,0.5713623,0.56392825,-0.17841797,76.0
21224,0.02847004,-0.57082367,-0.8054657,0.3993164,0.55543214,-0.21452637,76.0
21225,0.20601654,-0.050979614,-0.90128326,0.3993164,0.55543214,-0.21452637,76.0
21226,0.20601654,-0.050979614,-0.90128326,0.35789797,0.5055176,-0.24851075,76.0
21227,0.24092484,0.25065613,-0.7753334,0.35789797,0.5055176,-0.24851075,76.0
21228,0.24092484,0.25065613,-0.7753334,0.35152587,0.49064943,-0.26656494,76.0
21229,0.017520905,0.12860107,-0.6060715,0.35152587,0.49064943,-0.26656494,76.0
21230,0.017520905,0.12860107,-0.6060715,0.3971924,0.4428589,-0.24957275,76.0
21231,-0.24959373,-0.1478157,-0.51272583,0.3971924,0.4428589,-0.24957275,76.0
21232,-0.24959373,-0.1478157,-0.51272583,0.2538208,0.4895874,-0.24320069,76.0
21233,-0.25695038,-0.37384415,-0.3664322,0.2538208,0.4895874,-0.24320069,76.0
21234,-0.25695038,-0.37384415,-0.3664322,0.32709962,0.46622315,-0.24001466,76.0
21235,-0.0042905807,-0.46245575,-0.14242554,0.32709962,0.46622315,-0.24001466,76.0
21236,-0.0042905807,-0.46245575,-0.14242554,0.2888672,0.44710693,-0.26444092,76.0
21237,0.28796196,-0.26229858,-0.004310608,0.2888672,0.44710693,-0.26444092,76.0
21238,0.28796196,-0.26229858,-0.004310608,0.270813,0.47471926,-0.32922363,76.0
21239,0.36506176,0.019863129,-0.14992142,0.270813,0.47471926,-0.32922363,76.0
21240,0.36506176,0.019863129,-0.14992142,0.6159668,0.4959595,-0.37595215,76.0
21241,0.1703577,0.32536316,-0.36901093,0.6159668,0.4959595,-0.37595215,76.0
21242,0.1703577,0.32536316,-0.36901093,0.80606693,0.5915405,-0.40037844,76.0
21243,-0.25751305,0.66347504,-0.28118134,0.80606693,0.5915405,-0.40037844,76.0
21244,-0.25751305,0.66347504,-0.28118134,0.32709962,0.6414551,-0.33771974,76.0
21245,-0.97792244,0.20226288,-0.31517792,0.32709962,0.6414551,-0.33771974,76.0
21246,-0.97792244,0.20226288,-0.31517792,-0.10620117,0.49277344,-0.48746338,76.0
21247,-1.6099873,-0.7759819,-1.2100754,-0.10620117,0.49277344,-0.48746338,76.0
21248,-1.6099873,-0.7759819,-1.2100754,0.021240234,0.4704712,-0.5140137,76.0
21249,-1.5545177,-0.6478348,-2.133831,0.021240234,0.4704712,-0.5140137,76.0
21250,-1.5545177,-0.6478348,-2.133831,0.29523927,0.54693604,-0.5363159,76.0
21251,-0.76464653,0.29254913,-1.8128777,0.29523927,0.54693604,-0.5363159,76.0
21252,-0.76464653,0.29254913,-1.8128777,0.4630371,0.56180423,-0.4715332,76.0
21253,0.12198639,0.6121521,-0.72375107,0.4630371,0.56180423,-0.4715332,76.0
21254,0.12198639,0.6121521,-0.72375107,0.49171144,0.5543701,-0.45666504,76.0
21255,0.4585514,0.13027573,0.0053253174,0.49171144,0.5543701,-0.45666504,76.0
21256,0.4585514,0.13027573,0.0053253174,0.58410645,0.47684327,-0.38232422,76.0
21257,0.2653885,-0.9404831,0.21622467,0.58410645,0.47684327,-0.38232422,76.0
21258,0.2653885,-0.9404831,0.21622467,0.3525879,0.5649902,-0.38338622,76.0
21259,0.04085064,-1.8195724,0.3670578,0.3525879,0.5649902,-0.38338622,76.0
21260,0.04085064,-1.8195724,0.3670578,0.14868164,0.6223389,-0.36320803,76.0
21261,-0.03417778,-1.5390472,0.3723793,0.14868164,0.6223389,-0.36320803,76.0
21262,-0.03417778,-1.5390472,0.3723793,-0.023364259,0.631897,-0.28674316,76.0
21263,-0.071751595,-0.62835693,0.0037727356,-0.023364259,0.631897,-0.28674316,76.0
21264,-0.071751595,-0.62835693,0.0037727356,-0.029736329,0.60959476,-0.24107666,76.0
21265,-0.049736023,-0.0031356812,-0.4214058,-0.029736329,0.60959476,-0.24107666,76.0
21266,-0.049736023,-0.0031356812,-0.4214058,-0.08496094,0.54375,-0.20709229,76.0
21267,0.08833599,0.16030884,-0.69457245,-0.08496094,0.54375,-0.20709229,76.0
21268,0.08833599,0.16030884,-0.69457245,-0.08814698,0.48215333,-0.17947999,76.0
21269,0.27375698,0.05645752,-0.72312546,-0.08814698,0.48215333,-0.17947999,76.0
21270,0.27375698,0.05645752,-0.72312546,0.011682129,0.44179687,-0.15930176,76.0
21271,0.3891964,-0.19704437,-0.5228729,0.011682129,0.44179687,-0.15930176,76.0
21272,0.3891964,-0.19704437,-0.5228729,0.008496094,0.3812622,-0.121069334,76.0
21273,0.3956709,-0.39775085,-0.3207512,0.008496094,0.3812622,-0.121069334,76.0
21274,0.3956709,-0.39775085,-0.3207512,-0.06796875,0.29417726,-0.10195313,76.0
21275,0.3093109,-0.34867096,-0.2746048,-0.06796875,0.29417726,-0.10195313,76.0
21276,0.3093109,-0.34867096,-0.2746048,-0.10301514,0.18266602,-0.04991455,76.0
21277,0.16238976,-0.22197723,-0.28910446,-0.10301514,0.18266602,-0.04991455,76.0
21278,0.16238976,-0.22197723,-0.28910446,-0.022302246,0.11469727,0.007434082,76.0
21279,-0.004170418,-0.14947128,-0.21081161,-0.022302246,0.11469727,0.007434082,76.0
21280,-0.004170418,-0.14947128,-0.21081161,0.008496094,0.04991455,0.093457036,76.0
21281,-0.18133926,-0.1327858,-0.037094116,0.008496094,0.04991455,0.093457036,76.0
21282,-0.18133926,-0.1327858,-0.037094116,-0.004248047,0.015930176,0.18585205,76.0
21283,-0.26135635,-0.1359787,0.11466217,-0.004248047,0.015930176,0.18585205,76.0
21284,-0.26135635,-0.1359787,0.11466217,-0.11469727,-0.03079834,0.25913087,76.0
21285,-0.14898968,-0.0039138794,0.1414833,-0.11469727,-0.03079834,0.25913087,76.0
21286,-0.14898968,-0.0039138794,0.1414833,-0.1985962,-0.087084964,0.3058594,76.0
21287,0.045334816,0.17863464,0.012248993,-0.1985962,-0.087084964,0.3058594,76.0
21288,0.045334816,0.17863464,0.012248993,-0.16248779,-0.15186767,0.3345337,76.0
21289,0.15888691,0.26494217,-0.1455841,-0.16248779,-0.15186767,0.3345337,76.0
21290,0.15888691,0.26494217,-0.1455841,-0.060534667,-0.21027832,0.36320803,76.0
21291,0.19687271,0.21125793,-0.116882324,-0.060534667,-0.21027832,0.36320803,76.0
21292,0.19687271,0.21125793,-0.116882324,-0.053100586,-0.271875,0.38551027,76.0
21293,0.16915607,0.14196777,0.031116486,-0.053100586,-0.271875,0.38551027,76.0
21294,0.16915607,0.14196777,0.031116486,-0.18903808,-0.3345337,0.4088745,76.0
21295,0.09316158,0.21124268,0.08856583,-0.18903808,-0.3345337,0.4088745,76.0
21296,0.09316158,0.21124268,0.08856583,-0.28568116,-0.37701416,0.4163086,76.0
21297,0.06644821,0.28824615,0.10605621,-0.28568116,-0.37701416,0.4163086,76.0
21298,0.06644821,0.28824615,0.10605621,-0.25063476,-0.41418457,0.44923097,76.0
21299,0.12836552,0.23484421,0.16138458,-0.25063476,-0.41418457,0.44923097,76.0
21300,0.12836552,0.23484421,0.16138458,-0.2442627,-0.44179687,0.46834716,76.0
21301,0.24413586,0.23548126,0.24007034,-0.2442627,-0.44179687,0.46834716,76.0
21302,0.24413586,0.23548126,0.24007034,-0.3334717,-0.47790527,0.46409914,76.0
21303,0.2824545,0.33918,0.3303604,-0.3334717,-0.47790527,0.46409914,76.0
21304,0.2824545,0.33918,0.3303604,-0.5787964,-0.5065796,0.5012695,76.0
21305,0.25004768,0.21321106,0.44757843,-0.5787964,-0.5065796,0.5012695,76.0
21306,0.25004768,0.21321106,0.44757843,-0.4609131,-0.544812,0.5501221,76.0
21307,0.24233627,-0.018604279,0.58337784,-0.4609131,-0.544812,0.5501221,76.0
21308,0.24233627,-0.018604279,0.58337784,-0.3462158,-0.544812,0.5851685,76.0
21309,0.24233627,-0.018604279,0.58337784,-0.3462158,-0.544812,0.5851685,76.0
21310,0.2148037,0.09407425,0.66737366,-0.3462158,-0.544812,0.5851685,76.0
21311,0.2148037,0.09407425,0.66737366,-0.33134767,-0.50445557,0.5957886,76.0
21312,0.108903885,0.38914108,0.63155365,-0.33134767,-0.50445557,0.5957886,76.0
21313,0.108903885,0.38914108,0.63155365,-0.31435546,-0.45454103,0.5851685,76.0
21314,0.050172806,0.5888901,0.53818893,-0.31435546,-0.45454103,0.5851685,76.0
21315,0.050172806,0.5888901,0.53818893,-0.38338622,-0.4067505,0.56605226,76.0
21316,0.19882965,0.53157425,0.4267807,-0.38338622,-0.4067505,0.56605226,76.0
21317,0.19882965,0.53157425,0.4267807,-0.3727661,-0.42374268,0.5703003,76.0
21318,0.50582886,0.22035217,0.3132019,-0.3727661,-0.42374268,0.5703003,76.0
21319,0.50582886,0.22035217,0.3132019,-0.3536499,-0.48109132,0.5320679,76.0
21320,0.7980461,-0.1141243,0.29732513,-0.3536499,-0.48109132,0.5320679,76.0
21321,0.7980461,-0.1141243,0.29732513,-0.32072756,-0.52675784,0.53950197,76.0
21322,0.99339294,-1.202301,0.3546219,-0.32072756,-0.52675784,0.53950197,76.0
21323,0.99339294,-1.202301,0.3546219,0.36851808,-0.6988037,0.60322267,76.0
21324,1.2368774,-2.8253288,-0.13245392,0.36851808,-0.6988037,0.60322267,76.0
21325,1.2368774,-2.8253288,-0.13245392,1.5027466,-0.8581055,0.5872925,76.0
21326,1.3507328,-2.5427704,-1.0166702,1.5027466,-0.8581055,0.5872925,76.0
21327,1.3507328,-2.5427704,-1.0166702,0.5628662,-1.1597168,0.26868898,76.0
21328,1.3692703,0.9816055,-0.8385315,0.5628662,-1.1597168,0.26868898,76.0
21329,1.3692703,0.9816055,-0.8385315,-1.3041505,-1.178833,0.2442627,76.0
21330,1.2241879,4.3221626,0.8419075,-1.3041505,-1.178833,0.2442627,76.0
21331,1.2241879,4.3221626,0.8419075,-0.6053467,-1.0333375,0.38975832,76.0
21332,-0.13720226,4.187683,2.0294075,-0.6053467,-1.0333375,0.38975832,76.0
21333,-0.13720226,4.187683,2.0294075,0.08071289,-0.85704345,0.41418457,76.0
21334,-2.4308434,2.1406097,1.7915077,0.08071289,-0.85704345,0.41418457,76.0
21335,-2.4308434,2.1406097,1.7915077,0.46834716,-0.72854006,0.16248779,76.0
21336,-3.540903,0.5738754,1.683281,0.46834716,-0.72854006,0.16248779,76.0
21337,-3.540903,0.5738754,1.683281,0.027612304,-0.49064943,-0.0031860352,76.0
21338,-2.391695,-0.10710907,1.646553,0.027612304,-0.49064943,-0.0031860352,76.0
21339,-2.391695,-0.10710907,1.646553,-0.14974366,-0.14549561,-0.115759276,76.0
21340,-0.3392229,-0.03705597,1.0662422,-0.14974366,-0.14549561,-0.115759276,76.0
21341,-0.3392229,-0.03705597,1.0662422,-0.54375,0.09133301,-0.2347046,76.0
21342,1.0364456,0.34577942,0.17864227,-0.54375,0.09133301,-0.2347046,76.0
21343,1.0364456,0.34577942,0.17864227,-0.54587406,0.24638672,-0.2793091,76.0
21344,1.5788021,-0.15763092,-0.5741997,-0.54587406,0.24638672,-0.2793091,76.0
21345,1.5788021,-0.15763092,-0.5741997,-0.2803711,0.15505372,-0.2538208,76.0
21346,1.3211594,-1.0963058,-0.5574684,-0.2803711,0.15505372,-0.2538208,76.0
21347,1.3211594,-1.0963058,-0.5574684,-0.26868898,0.08602295,-0.18054199,76.0
21348,0.35853958,-1.214325,0.1403656,-0.26868898,0.08602295,-0.18054199,76.0
21349,0.35853958,-1.214325,0.1403656,-0.54693604,0.08814698,-0.17841797,76.0
21350,-0.44163513,-0.4545517,0.6423111,-0.54693604,0.08814698,-0.17841797,76.0
21351,-0.44163513,-0.4545517,0.6423111,-0.52675784,0.1901001,-0.081774905,76.0
21352,-0.628088,0.36483765,0.57125854,-0.52675784,0.1901001,-0.081774905,76.0
21353,-0.628088,0.36483765,0.57125854,-0.47365722,0.21346436,-0.06584473,76.0
21354,-0.25723076,0.21534729,0.21514893,-0.47365722,0.21346436,-0.06584473,76.0
21355,-0.25723076,0.21534729,0.21514893,-0.38657227,0.15717773,-0.02442627,76.0
21356,0.35641098,-0.39627838,-0.10876465,-0.38657227,0.15717773,-0.02442627,76.0
21357,0.35641098,-0.39627838,-0.10876465,-0.26656494,0.09239502,-0.0180542,76.0
21358,0.7137909,-0.5676575,-0.2991333,-0.26656494,0.09239502,-0.0180542,76.0
21359,0.7137909,-0.5676575,-0.2991333,-0.21027832,0.029736329,-0.029736329,76.0
21360,0.6541996,-0.3529663,-0.23392487,-0.21027832,0.029736329,-0.029736329,76.0
21361,0.6541996,-0.3529663,-0.23392487,-0.1901001,0.0063720704,-0.07115479,76.0
21362,0.35722256,-0.04425049,0.014984131,-0.1901001,0.0063720704,-0.07115479,76.0
21363,0.35722256,-0.04425049,0.014984131,-0.20603028,0.013806152,-0.11682129,76.0
21364,0.009960175,0.08060074,0.16139984,-0.20603028,0.013806152,-0.11682129,76.0
21365,0.009960175,0.08060074,0.16139984,-0.10407715,0.004248047,-0.16248779,76.0
21366,-0.12656593,-0.07826996,0.10397339,-0.10407715,0.004248047,-0.16248779,76.0
21367,-0.12656593,-0.07826996,0.10397339,0.032922365,0.009558106,-0.19753419,76.0
21368,0.050945282,-0.16397095,-0.033836365,0.032922365,0.009558106,-0.19753419,76.0
21369,0.050945282,-0.16397095,-0.033836365,-0.08283692,0.039294433,-0.22833252,76.0
21370,0.25994587,-0.104198456,-0.11287308,-0.08283692,0.039294433,-0.22833252,76.0
21371,0.25994587,-0.104198456,-0.11287308,-0.15611573,0.08920898,-0.24001466,76.0
21372,0.19599342,0.026123047,0.037216187,-0.15611573,0.08920898,-0.24001466,76.0
21373,0.19599342,0.026123047,0.037216187,-0.3812622,0.11363526,-0.24213867,76.0
21374,-0.18747997,0.18034744,0.3003044,-0.3812622,0.11363526,-0.24213867,76.0
21375,-0.18747997,0.18034744,0.3003044,-0.52888185,0.13699952,-0.25913087,76.0
21376,-0.556612,0.13264465,0.45534515,-0.52888185,0.13699952,-0.25913087,76.0
21377,-0.556612,0.13264465,0.45534515,-0.36002198,0.15611573,-0.23895264,76.0
21378,-0.6963272,0.08588791,0.45425415,-0.36002198,0.15611573,-0.23895264,76.0
21379,-0.6963272,0.08588791,0.45425415,-0.24320069,0.17841797,-0.2357666,76.0
21380,-0.7170105,0.27268982,0.4657097,-0.24320069,0.17841797,-0.2357666,76.0
21381,-0.7170105,0.27268982,0.4657097,-0.39506838,0.19434814,-0.26019287,76.0
21382,-0.7198,0.3743286,0.580513,-0.39506838,0.19434814,-0.26019287,76.0
21383,-0.7198,0.3743286,0.580513,-0.5055176,0.21027832,-0.2824951,76.0
21384,-0.7513895,0.24350739,0.6907387,-0.5055176,0.21027832,-0.2824951,76.0
21385,-0.7513895,0.24350739,0.6907387,-0.40993652,0.1996582,-0.24957275,76.0
21386,-0.7487793,0.105293274,0.6152878,-0.40993652,0.1996582,-0.24957275,76.0
21387,-0.7487793,0.105293274,0.6152878,-0.16779785,0.18903808,-0.18479005,76.0
21388,-0.45079327,0.011222839,0.2884102,-0.16779785,0.18903808,-0.18479005,76.0
21389,-0.45079327,0.011222839,0.2884102,-0.046728518,0.16779785,-0.13487549,76.0
21390,0.4076271,-0.4757042,-0.26504898,-0.046728518,0.16779785,-0.13487549,76.0
21391,0.4076271,-0.4757042,-0.26504898,-0.22408448,0.3717041,-0.06265869,76.0
21392,1.1553259,-1.1349716,-0.659523,-0.22408448,0.3717041,-0.06265869,76.0
21393,1.1553259,-1.1349716,-0.659523,-0.2803711,0.21558838,-0.15080567,76.0
21394,1.0698175,-0.6353607,-0.5600281,-0.2803711,0.21558838,-0.15080567,76.0
21395,1.0698175,-0.6353607,-0.5600281,-0.6085327,0.14761963,-0.09451904,76.0
21396,0.54287815,0.46445465,-0.28837967,-0.6085327,0.14761963,-0.09451904,76.0
21397,0.54287815,0.46445465,-0.28837967,-0.5511841,0.11469727,-0.0541626,76.0
21398,-0.07706165,0.5766907,-0.15340805,-0.5511841,0.11469727,-0.0541626,76.0
21399,-0.07706165,0.5766907,-0.15340805,-0.39400634,-0.03186035,-0.06796875,76.0
21400,-0.4791174,0.19396973,-0.1381073,-0.39400634,-0.03186035,-0.06796875,76.0
21401,-0.4791174,0.19396973,-0.1381073,-0.65207523,-0.12850343,-0.09239502,76.0
21402,-0.37660408,0.043247223,-0.38681793,-0.65207523,-0.12850343,-0.09239502,76.0
21403,-0.37660408,0.043247223,-0.38681793,-0.8729736,-0.20496826,-0.1274414,76.0
21404,-0.2436533,0.05260086,-0.8802414,-0.8729736,-0.20496826,-0.1274414,76.0
21405,-0.2436533,0.05260086,-0.8802414,-0.72004396,-0.37489015,-0.13062744,76.0
21406,-0.62446404,0.031570435,-0.6998596,-0.72004396,-0.37489015,-0.13062744,76.0
21407,-0.62446404,0.031570435,-0.6998596,-0.32285157,-0.6042847,-0.09770508,76.0
21408,-1.3073835,0.37568665,0.7922478,-0.32285157,-0.6042847,-0.09770508,76.0
21409,-1.3073835,0.37568665,0.7922478,-0.3175415,-0.7476563,-0.270813,76.0
21410,-1.4258013,0.56142426,2.4201508,-0.3175415,-0.7476563,-0.270813,76.0
21411,-1.4258013,0.56142426,2.4201508,-0.26656494,-0.7657105,-0.4067505,76.0
21412,-0.58794403,-0.2887993,2.4149323,-0.26656494,-0.7657105,-0.4067505,76.0
21413,-0.58794403,-0.2887993,2.4149323,-0.3355957,-0.53525394,-0.42692873,76.0
21414,0.598114,-1.0092392,0.8194351,-0.3355957,-0.53525394,-0.42692873,76.0
21415,0.598114,-1.0092392,0.8194351,-0.271875,-0.41099855,-0.35471192,76.0
21416,1.2796144,-0.77225876,-0.52108765,-0.271875,-0.41099855,-0.35471192,76.0
21417,1.2796144,-0.77225876,-0.52108765,-0.081774905,-0.3525879,-0.3525879,76.0
21418,1.2796144,-0.77225876,-0.52108765,-0.081774905,-0.3525879,-0.3525879,76.0
21419,0.9482393,0.39871216,-0.8580551,-0.081774905,-0.3525879,-0.3525879,76.0
21420,0.9482393,0.39871216,-0.8580551,0.22939454,-0.32497558,-0.30373535,76.0
21421,-0.05891323,1.4382095,-0.73085403,0.22939454,-0.32497558,-0.30373535,76.0
21422,-0.05891323,1.4382095,-0.73085403,0.26019287,-0.5851685,-0.46834716,76.0
21423,-0.9388294,1.3637848,-0.36377335,0.26019287,-0.5851685,-0.46834716,76.0
21424,-0.9388294,1.3637848,-0.36377335,0.3695801,-0.74659425,-0.60322267,76.0
21425,-1.3867445,0.92108154,0.08066177,0.3695801,-0.74659425,-0.60322267,76.0
21426,-1.3867445,0.92108154,0.08066177,0.30373535,-0.96430665,-0.69349366,76.0
21427,-1.2847862,0.55394363,0.24032211,0.30373535,-0.96430665,-0.69349366,76.0
21428,-1.2847862,0.55394363,0.24032211,0.45666504,-1.1214844,-0.68712157,76.0
21429,-0.7935753,0.2300415,0.038154602,0.45666504,-1.1214844,-0.68712157,76.0
21430,-0.7935753,0.2300415,0.038154602,0.48746338,-1.2574219,-0.7657105,76.0
21431,-0.35243893,-0.028663635,-0.2912674,0.48746338,-1.2574219,-0.7657105,76.0
21432,-0.35243893,-0.028663635,-0.2912674,0.48109132,-1.4167236,-0.78376466,76.0
21433,-0.2788744,-0.44119263,-0.37255096,0.48109132,-1.4167236,-0.78376466,76.0
21434,-0.2788744,-0.44119263,-0.37255096,0.12956543,-1.5462891,-1.0609497,76.0
21435,-0.3976364,-0.9894562,-0.4217949,0.12956543,-1.5462891,-1.0609497,76.0
21436,-0.3976364,-0.9894562,-0.4217949,0.6786255,-1.4220337,-0.9897949,76.0
21437,-0.45725727,-0.91130066,-0.5061722,0.6786255,-1.4220337,-0.9897949,76.0
21438,-0.45725727,-0.91130066,-0.5061722,1.2255615,-1.1809571,-1.0397094,76.0
21439,-0.58648396,-0.4407463,-0.2558403,1.2255615,-1.1809571,-1.0397094,76.0
21440,-0.58648396,-0.4407463,-0.2558403,1.2999023,-1.0949341,-1.1629028,76.0
21441,-0.8218603,-0.0149383545,0.08286667,1.2999023,-1.0949341,-1.1629028,76.0
21442,-0.8218603,-0.0149383545,0.08286667,1.3030884,-0.98236084,-1.174585,76.0
21443,-1.0630789,0.08686447,1.1603241,1.3030884,-0.98236084,-1.174585,76.0
21444,-1.0630789,0.08686447,1.1603241,1.2499878,-0.99722904,-1.1129884,76.0
21445,-1.016222,-0.78845215,3.382347,1.2499878,-0.99722904,-1.1129884,76.0
21446,-1.016222,-0.78845215,3.382347,0.7062378,-0.9388184,-1.1894531,76.0
21447,-0.65018463,-1.822998,4.189678,0.7062378,-0.9388184,-1.1894531,76.0
21448,-0.65018463,-1.822998,4.189678,1.0588257,-0.44073486,-1.350879,76.0
21449,-0.6527405,-1.6640625,2.0749855,1.0588257,-0.44073486,-1.350879,76.0
21450,-0.6527405,-1.6640625,2.0749855,0.9759888,-0.2814331,-1.1310425,76.0
21451,-0.98676777,-1.0254402,-0.6867523,0.9759888,-0.2814331,-1.1310425,76.0
21452,-0.98676777,-1.0254402,-0.6867523,0.5586182,-0.05522461,-1.0014771,76.0
21453,-1.0885849,-1.2799454,-1.7182503,0.5586182,-0.05522461,-1.0014771,76.0
21454,-1.0885849,-1.2799454,-1.7182503,0.62127686,0.03717041,-0.97492677,76.0
21455,-0.858551,-1.9946594,-1.1406174,0.62127686,0.03717041,-0.97492677,76.0
21456,-0.858551,-1.9946594,-1.1406174,1.0131592,0.04991455,-1.0067872,76.0
21457,-0.51966476,-1.9007072,-0.63526154,1.0131592,0.04991455,-1.0067872,76.0
21458,-0.51966476,-1.9007072,-0.63526154,0.96430665,0.07115479,-1.0790039,76.0
21459,-0.6026573,-0.99980164,-0.8797188,0.96430665,0.07115479,-1.0790039,76.0
21460,-0.6026573,-0.99980164,-0.8797188,0.36533204,-0.014868164,-1.080066,76.0
21461,-1.3071995,-0.20802307,-1.5820198,0.36533204,-0.014868164,-1.080066,76.0
21462,-1.3071995,-0.20802307,-1.5820198,0.098767094,-0.0722168,-1.183081,76.0
21463,-1.8729572,-0.059886932,-2.366764,0.098767094,-0.0722168,-1.183081,76.0
21464,-1.8729572,-0.059886932,-2.366764,0.2516968,-0.057348635,-1.1905152,76.0
21465,-1.6704483,-0.42092896,-2.6841698,0.2516968,-0.057348635,-1.1905152,76.0
21466,-1.6704483,-0.42092896,-2.6841698,0.61065674,-0.15186767,-1.1660889,76.0
21467,-1.1026802,-0.3629532,-2.266842,0.61065674,-0.15186767,-1.1660889,76.0
21468,-1.1026802,-0.3629532,-2.266842,0.68924564,-0.27399904,-1.2425537,76.0
21469,-0.6785431,0.09144592,-1.2836151,0.68924564,-0.27399904,-1.2425537,76.0
21470,-0.6785431,0.09144592,-1.2836151,0.56605226,-0.24213867,-1.3986695,76.0
21471,-0.2341919,0.40833664,-0.14215088,0.56605226,-0.24213867,-1.3986695,76.0
21472,-0.2341919,0.40833664,-0.14215088,0.95581055,-0.083898924,-1.4294678,76.0
21473,0.21169472,0.5953064,0.6328964,0.95581055,-0.083898924,-1.4294678,76.0
21474,0.21169472,0.5953064,0.6328964,1.0237793,0.14761963,-1.6089478,76.0
21475,0.20680618,0.32048035,0.90571976,1.0237793,0.14761963,-1.6089478,76.0
21476,0.20680618,0.32048035,0.90571976,1.1937011,0.06584473,-1.7395753,76.0
21477,0.0401268,-0.41375732,0.6812172,1.1937011,0.06584473,-1.7395753,76.0
21478,0.0401268,-0.41375732,0.6812172,1.8340943,0.023364259,-1.6439942,76.0
21479,-0.17414856,-0.8155365,0.27578354,1.8340943,0.023364259,-1.6439942,76.0
21480,-0.17414856,-0.8155365,0.27578354,2.1919923,-0.20709229,-1.5335449,76.0
21481,-0.42831993,-0.99694824,-0.016910553,2.1919923,-0.20709229,-1.5335449,76.0
21482,-0.42831993,-0.99694824,-0.016910553,2.1909301,-0.4895874,-1.545227,76.0
21483,-0.39532852,-1.6360359,-0.69360733,2.1909301,-0.4895874,-1.545227,76.0
21484,-0.39532852,-1.6360359,-0.69360733,2.53396,-0.3058594,-1.6376221,76.0
21485,-0.5526638,-2.3345985,-1.3428154,2.53396,-0.3058594,-1.6376221,76.0
21486,-0.5526638,-2.3345985,-1.3428154,3.1913452,-0.3451538,-1.6142578,76.0
21487,-0.8498459,-2.8454018,-1.1716881,3.1913452,-0.3451538,-1.6142578,76.0
21488,-0.8498459,-2.8454018,-1.1716881,4.1089234,-0.4959595,-1.6801026,76.0
21489,-0.5243225,-3.115055,-0.77685165,4.1089234,-0.4959595,-1.6801026,76.0
21490,-0.5243225,-3.115055,-0.77685165,4.727014,-0.008496094,-1.8617066,76.0
21491,-0.034046173,-2.9925842,-0.92375183,4.727014,-0.008496094,-1.8617066,76.0
21492,-0.034046173,-2.9925842,-0.92375183,4.9139285,0.087084964,-1.992334,76.0
21493,-0.0060329437,-2.4486313,-1.3928223,4.9139285,0.087084964,-1.992334,76.0
21494,-0.0060329437,-2.4486313,-1.3928223,4.7588744,-0.043542482,-1.9679078,76.0
21495,-0.15527725,-1.50811,-1.2323608,4.7588744,-0.043542482,-1.9679078,76.0
21496,-0.15527725,-1.50811,-1.2323608,4.009094,-0.2899292,-1.8648926,76.0
21497,-0.14068985,-0.8344269,-0.0139045715,4.009094,-0.2899292,-1.8648926,76.0
21498,-0.14068985,-0.8344269,-0.0139045715,3.2805543,-0.5479981,-1.7055908,76.0
21499,0.25148582,-0.9372711,1.4773521,3.2805543,-0.5479981,-1.7055908,76.0
21500,0.25148582,-0.9372711,1.4773521,2.6879518,-0.5564942,-1.5993897,76.0
21501,0.7861614,-1.423439,2.3200035,2.6879518,-0.5564942,-1.5993897,76.0
21502,0.7861614,-1.423439,2.3200035,2.1611938,-0.5171997,-1.5006226,76.0
21503,1.1025257,-1.7611389,2.2748032,2.1611938,-0.5171997,-1.5006226,76.0
21504,1.1025257,-1.7611389,2.2748032,1.6949707,-0.47471926,-1.4029175,76.0
21505,1.2088394,-1.8331451,1.7849197,1.6949707,-0.47471926,-1.4029175,76.0
21506,1.2088394,-1.8331451,1.7849197,1.2914063,-0.38444826,-1.2914063,76.0
21507,1.1058655,-1.7711945,1.4577942,1.2914063,-0.38444826,-1.2914063,76.0
21508,1.1058655,-1.7711945,1.4577942,1.1618408,-0.35683593,-1.2510499,76.0
21509,0.7387943,-1.8206787,1.3508682,1.1618408,-0.35683593,-1.2510499,76.0
21510,0.7387943,-1.8206787,1.3508682,0.9717407,-0.29630128,-1.1639649,76.0
21511,0.41012764,-1.6109238,1.2798538,0.9717407,-0.29630128,-1.1639649,76.0
21512,0.41012764,-1.6109238,1.2798538,0.92076415,-0.3419678,-1.1310425,76.0
21513,-0.55366135,-1.2830734,1.1324158,0.92076415,-0.3419678,-1.1310425,76.0
21514,-0.55366135,-1.2830734,1.1324158,0.8666016,-0.4694092,-1.0312134,76.0
21515,-0.6669159,-1.1699982,0.89764404,0.8666016,-0.4694092,-1.0312134,76.0
21516,-0.6669159,-1.1699982,0.89764404,0.8889038,-0.5320679,-0.998291,76.0
21517,-1.061779,-1.2521362,0.25233078,0.8889038,-0.5320679,-0.998291,76.0
21518,-1.061779,-1.2521362,0.25233078,1.1299804,-0.81031495,-0.8358032,76.0
21519,-0.93125916,-1.2300644,0.176548,1.1299804,-0.81031495,-0.8358032,76.0
21520,-0.93125916,-1.2300644,0.176548,1.2202514,-0.89208984,-0.77102053,76.0
21521,-0.82647705,-1.2845001,0.018192291,1.2202514,-0.89208984,-0.77102053,76.0
21522,-0.82647705,-1.2845001,0.018192291,1.3763672,-1.0683838,-0.60216063,76.0
21523,-0.82647705,-1.2845001,0.018192291,1.3763672,-1.0683838,-0.60216063,77.0
21524,-0.69700813,-1.2317963,0.21362686,1.3763672,-1.0683838,-0.60216063,77.0
21525,-0.69700813,-1.2317963,0.21362686,1.3933594,-1.1331666,-0.542688,77.0
21526,-0.3207283,-1.4537125,0.2539711,1.3933594,-1.1331666,-0.542688,77.0
21527,-0.3207283,-1.4537125,0.2539711,1.354065,-1.2128174,-0.43011475,77.0
21528,-0.12090111,-1.4692459,0.34521866,1.354065,-1.2128174,-0.43011475,77.0
21529,-0.12090111,-1.4692459,0.34521866,1.357251,-1.2138795,-0.4067505,77.0
21530,0.33246613,-1.6804581,0.2644081,1.357251,-1.2138795,-0.4067505,77.0
21531,0.33246613,-1.6804581,0.2644081,1.3094605,-1.1055542,-0.4248047,77.0
21532,0.27484703,-1.5007477,0.45160294,1.3094605,-1.1055542,-0.4248047,77.0
21533,0.27484703,-1.5007477,0.45160294,1.270166,-1.0492676,-0.44710693,77.0
21534,-0.092977524,-1.364891,0.8710098,1.270166,-1.0492676,-0.44710693,77.0
21535,-0.092977524,-1.364891,0.8710098,1.1958252,-0.96643066,-0.4959595,77.0
21536,-0.19268036,-1.2430649,1.0113602,1.1958252,-0.96643066,-0.4959595,77.0
21537,-0.19268036,-1.2430649,1.0113602,1.174585,-0.93775636,-0.50870365,77.0
21538,-0.26687622,-1.2874222,1.0587616,1.174585,-0.93775636,-0.50870365,77.0
21539,-0.26687622,-1.2874222,1.0587616,1.1352905,-0.92501223,-0.5055176,77.0
21540,-0.16015625,-1.2063141,0.9898796,1.1352905,-0.92501223,-0.5055176,77.0
21541,-0.16015625,-1.2063141,0.9898796,1.1342286,-0.903772,-0.50020754,77.0
21542,0.08218956,-1.2645264,0.8041458,1.1342286,-0.903772,-0.50020754,77.0
21543,0.08218956,-1.2645264,0.8041458,1.1044922,-0.8028809,-0.48640138,77.0
21544,0.15057755,-1.1675644,0.8222618,1.1044922,-0.8028809,-0.48640138,77.0
21545,0.15057755,-1.1675644,0.8222618,1.1023682,-0.77314454,-0.47896728,77.0
21546,0.30459213,-1.1092453,0.8879852,1.1023682,-0.77314454,-0.47896728,77.0
21547,0.30459213,-1.1092453,0.8879852,1.0418335,-0.6701294,-0.47365722,77.0
21548,0.48423767,-0.98500824,1.0455322,1.0418335,-0.6701294,-0.47365722,77.0
21549,0.48423767,-0.98500824,1.0455322,0.9218262,-0.5809204,-0.47471926,77.0
21550,0.66215897,-0.8334274,1.1750984,0.9218262,-0.5809204,-0.47471926,77.0
21551,0.66215897,-0.8334274,1.1750984,0.7699585,-0.40993652,-0.5065796,77.0
21552,0.6302757,-0.7197418,1.0704346,0.7699585,-0.40993652,-0.5065796,77.0
21553,0.6302757,-0.7197418,1.0704346,0.727478,-0.36427003,-0.5140137,77.0
21554,0.65372086,-0.5867462,1.0226669,0.727478,-0.36427003,-0.5140137,77.0
21555,0.65372086,-0.5867462,1.0226669,0.59472656,-0.18797608,-0.5522461,77.0
21556,0.58874893,-0.46588898,0.97607803,0.59472656,-0.18797608,-0.5522461,77.0
21557,0.58874893,-0.46588898,0.97607803,0.5543701,-0.14549561,-0.55755615,77.0
21558,0.4219761,-0.2396164,1.0317764,0.5543701,-0.14549561,-0.55755615,77.0
21559,0.4219761,-0.2396164,1.0317764,0.45029297,-0.070092775,-0.5734863,77.0
21560,0.1868248,-0.01701355,1.0146408,0.45029297,-0.070092775,-0.5734863,77.0
21561,0.1868248,-0.01701355,1.0146408,0.3982544,-0.07115479,-0.5734863,77.0
21562,0.03268814,0.08219147,0.85344696,0.3982544,-0.07115479,-0.5734863,77.0
21563,0.03268814,0.08219147,0.85344696,0.41524658,-0.08283692,-0.5628662,77.0
21564,0.01625061,0.079322815,0.615448,0.41524658,-0.08283692,-0.5628662,77.0
21565,0.01625061,0.079322815,0.615448,0.50233155,-0.13699952,-0.5171997,77.0
21566,0.11713791,0.040275574,0.3899765,0.50233155,-0.13699952,-0.5171997,77.0
21567,0.11713791,0.040275574,0.3899765,0.61702883,-0.1731079,-0.47578126,77.0
21568,0.21697617,0.037979126,0.3313675,0.61702883,-0.1731079,-0.47578126,77.0
21569,0.21697617,0.037979126,0.3313675,0.66269535,-0.16354981,-0.45347902,77.0
21570,0.21751404,0.058143616,0.43738556,0.66269535,-0.16354981,-0.45347902,77.0
21571,0.21751404,0.058143616,0.43738556,0.68712157,-0.18903808,-0.42268068,77.0
21572,0.18076134,0.07209778,0.47974396,0.68712157,-0.18903808,-0.42268068,77.0
21573,0.18076134,0.07209778,0.47974396,0.6860596,-0.22302246,-0.362146,77.0
21574,0.23248672,0.0684433,0.3245163,0.6860596,-0.22302246,-0.362146,77.0
21575,0.23248672,0.0684433,0.3245163,0.70305175,-0.2516968,-0.29523927,77.0
21576,0.35376167,0.0443573,0.043498993,0.70305175,-0.2516968,-0.29523927,77.0
21577,0.35376167,0.0443573,0.043498993,0.74871826,-0.23682861,-0.2262085,77.0
21578,0.40501785,0.06311035,-0.19608307,0.74871826,-0.23682861,-0.2262085,77.0
21579,0.40501785,0.06311035,-0.19608307,0.73809814,-0.15823975,-0.18479005,77.0
21580,0.2918129,0.18188477,-0.23559189,0.73809814,-0.15823975,-0.18479005,77.0
21581,0.2918129,0.18188477,-0.23559189,0.6435791,-0.0722168,-0.15611573,77.0
21582,0.06811905,0.35876465,-0.051887512,0.6435791,-0.0722168,-0.15611573,77.0
21583,0.06811905,0.35876465,-0.051887512,0.5246338,0.060534667,-0.16248779,77.0
21584,-0.18995094,0.48949432,0.20990372,0.5246338,0.060534667,-0.16248779,77.0
21585,-0.18995094,0.48949432,0.20990372,0.41099855,0.19647217,-0.16673584,77.0
21586,-0.4150219,0.52173615,0.34497452,0.41099855,0.19647217,-0.16673584,77.0
21587,-0.4150219,0.52173615,0.34497452,0.29099122,0.32497558,-0.1709839,77.0
21588,-0.5765114,0.44069672,0.2570572,0.29099122,0.32497558,-0.1709839,77.0
21589,-0.5765114,0.44069672,0.2570572,0.27612305,0.4428589,-0.16461182,77.0
21590,-0.6588783,0.31563568,0.10309601,0.27612305,0.4428589,-0.16461182,77.0
21591,-0.6588783,0.31563568,0.10309601,0.30161133,0.48321533,-0.14337158,77.0
21592,-0.53055763,0.20580292,0.021842957,0.30161133,0.48321533,-0.14337158,77.0
21593,-0.53055763,0.20580292,0.021842957,0.39188233,0.46516114,-0.10513916,77.0
21594,-0.115242004,0.063591,-0.013946533,0.39188233,0.46516114,-0.10513916,77.0
21595,-0.115242004,0.063591,-0.013946533,0.4725952,0.47790527,-0.043542482,77.0
21596,0.36063766,-0.08892059,-0.054100037,0.4725952,0.47790527,-0.043542482,77.0
21597,0.36063766,-0.08892059,-0.054100037,0.52675784,0.49383545,0.011682129,77.0
21598,0.6546593,-0.15502167,-0.0871048,0.52675784,0.49383545,0.011682129,77.0
21599,0.6546593,-0.15502167,-0.0871048,0.5097656,0.5501221,0.038232423,77.0
21600,0.6486912,-0.059806824,-0.036262512,0.5097656,0.5501221,0.038232423,77.0
21601,0.6486912,-0.059806824,-0.036262512,0.4258667,0.6244629,-0.008496094,77.0
21602,0.40445137,0.09719849,0.107112885,0.4258667,0.6244629,-0.008496094,77.0
21603,0.40445137,0.09719849,0.107112885,0.2984253,0.68499756,-0.083898924,77.0
21604,0.07931137,0.20690918,0.2227974,0.2984253,0.68499756,-0.083898924,77.0
21605,0.07931137,0.20690918,0.2227974,0.1720459,0.7168579,-0.16354981,77.0
21606,-0.19179916,0.2076416,0.1869545,0.1720459,0.7168579,-0.16354981,77.0
21607,-0.19179916,0.2076416,0.1869545,0.12213135,0.6839356,-0.20709229,77.0
21608,-0.31623268,0.10387421,0.038345337,0.12213135,0.6839356,-0.20709229,77.0
21609,-0.31623268,0.10387421,0.038345337,0.18054199,0.6488892,-0.22939454,77.0
21610,-0.35773468,-0.039627075,-0.08353424,0.18054199,0.6488892,-0.22939454,77.0
21611,-0.35773468,-0.039627075,-0.08353424,0.33771974,0.5777344,-0.22302246,77.0
21612,-0.38936043,-0.08345032,-0.08377075,0.33771974,0.5777344,-0.22302246,77.0
21613,-0.38936043,-0.08345032,-0.08377075,0.4980835,0.5097656,-0.2081543,77.0
21614,-0.40468788,0.0022354126,-0.015991211,0.4980835,0.5097656,-0.2081543,77.0
21615,-0.40468788,0.0022354126,-0.015991211,0.60109866,0.42055663,-0.1985962,77.0
21616,-0.3870678,0.12582397,-0.004333496,0.60109866,0.42055663,-0.1985962,77.0
21617,-0.3870678,0.12582397,-0.004333496,0.60109866,0.3717041,-0.19647217,77.0
21618,-0.3538437,0.23254395,-0.061828613,0.60109866,0.3717041,-0.19647217,77.0
21619,-0.3538437,0.23254395,-0.061828613,0.4991455,0.30479738,-0.19647217,77.0
21620,-0.3411312,0.27075195,-0.1418953,0.4991455,0.30479738,-0.19647217,77.0
21621,-0.3411312,0.27075195,-0.1418953,0.3430298,0.24001466,-0.20709229,77.0
21622,-0.35775566,0.26812744,-0.19039917,0.3430298,0.24001466,-0.20709229,77.0
21623,-0.35775566,0.26812744,-0.19039917,0.17523193,0.16779785,-0.23045655,77.0
21624,-0.3626442,0.24464417,-0.22459793,0.17523193,0.16779785,-0.23045655,77.0
21625,-0.3626442,0.24464417,-0.22459793,0.078588866,0.07646485,-0.2516968,77.0
21626,-0.30999947,0.16401672,-0.24048233,0.078588866,0.07646485,-0.2516968,77.0
21627,-0.30999947,0.16401672,-0.24048233,0.08496094,0.023364259,-0.26444092,77.0
21628,-0.30999947,0.16401672,-0.24048233,0.08496094,0.023364259,-0.26444092,81.0
21629,-0.26882553,0.06172943,-0.21824265,0.08496094,0.023364259,-0.26444092,81.0
21630,-0.26882553,0.06172943,-0.21824265,0.16354981,-0.05522461,-0.27506104,81.0
21631,-0.25174332,-0.019248962,-0.20503998,0.16354981,-0.05522461,-0.27506104,81.0
21632,-0.25174332,-0.019248962,-0.20503998,0.23258057,-0.11682129,-0.29736328,81.0
21633,-0.21748352,-0.07971954,-0.17782593,0.23258057,-0.11682129,-0.29736328,81.0
21634,-0.21748352,-0.07971954,-0.17782593,0.3069214,-0.17947999,-0.32178956,81.0
21635,-0.12882042,-0.12677765,-0.13806152,0.3069214,-0.17947999,-0.32178956,81.0
21636,-0.12882042,-0.12677765,-0.13806152,0.38338622,-0.24957275,-0.3345337,81.0
21637,0.063215256,-0.15107727,-0.14769363,0.38338622,-0.24957275,-0.3345337,81.0
21638,0.063215256,-0.15107727,-0.14769363,0.44816896,-0.31223145,-0.33984375,81.0
21639,0.317564,-0.210289,-0.19815063,0.44816896,-0.31223145,-0.33984375,81.0
21640,0.317564,-0.210289,-0.19815063,0.5140137,-0.3355957,-0.3355957,81.0
21641,0.49033165,-0.25106812,-0.20261383,0.5140137,-0.3355957,-0.3355957,81.0
21642,0.49033165,-0.25106812,-0.20261383,0.5703003,-0.3536499,-0.33240968,81.0
21643,0.53878593,-0.23508453,-0.14752579,0.5703003,-0.3536499,-0.33240968,81.0
21644,0.53878593,-0.23508453,-0.14752579,0.61915284,-0.3993164,-0.33878174,81.0
21645,0.58794975,-0.21711731,-0.09560776,0.61915284,-0.3993164,-0.33878174,81.0
21646,0.58794975,-0.21711731,-0.09560776,0.6403931,-0.38232422,-0.38657227,81.0
21647,0.6439686,-0.19134521,-0.011383057,0.6403931,-0.38232422,-0.38657227,81.0
21648,0.6439686,-0.19134521,-0.011383057,0.6202149,-0.33878174,-0.45029297,81.0
21649,0.6074238,-0.10688782,0.11270523,0.6202149,-0.33878174,-0.45029297,81.0
21650,0.6074238,-0.10688782,0.11270523,0.5713623,-0.30161133,-0.5246338,81.0
21651,0.49049187,0.01398468,0.21757126,0.5713623,-0.30161133,-0.5246338,81.0
21652,0.49049187,0.01398468,0.21757126,0.5533081,-0.27399904,-0.5734863,81.0
21653,0.4246807,0.08973694,0.24608994,0.5533081,-0.27399904,-0.5734863,81.0
21654,0.4246807,0.08973694,0.24608994,0.58410645,-0.26019287,-0.6000366,81.0
21655,0.4644642,0.12712097,0.21653748,0.58410645,-0.26019287,-0.6000366,81.0
21656,0.4644642,0.12712097,0.21653748,0.62127686,-0.23151855,-0.59897465,81.0
21657,0.5526867,0.16764832,0.18609619,0.62127686,-0.23151855,-0.59897465,81.0
21658,0.5526867,0.16764832,0.18609619,0.6287109,-0.20072022,-0.5979126,81.0
21659,0.6176739,0.22483826,0.23067474,0.6287109,-0.20072022,-0.5979126,81.0
21660,0.6176739,0.22483826,0.23067474,0.6042847,-0.15717773,-0.5936646,81.0
21661,0.6208725,0.2529068,0.34212112,0.6042847,-0.15717773,-0.5936646,81.0
21662,0.6208725,0.2529068,0.34212112,0.5883545,-0.090270996,-0.59260255,81.0
21663,0.5659847,0.21320343,0.42861557,0.5883545,-0.090270996,-0.59260255,81.0
21664,0.5659847,0.21320343,0.42861557,0.61278075,-0.04460449,-0.5766724,81.0
21665,0.52845955,0.10216522,0.40977478,0.61278075,-0.04460449,-0.5766724,81.0
21666,0.52845955,0.10216522,0.40977478,0.68712157,0.007434082,-0.5564942,81.0
21667,0.51174545,-0.07701874,0.3381729,0.68712157,0.007434082,-0.5564942,81.0
21668,0.51174545,-0.07701874,0.3381729,0.8496094,0.08602295,-0.54587406,81.0
21669,0.4905491,-0.2422409,0.3498459,0.8496094,0.08602295,-0.54587406,81.0
21670,0.4905491,-0.2422409,0.3498459,1.0407715,0.14549561,-0.5140137,81.0
21671,0.43893623,-0.33733368,0.48142624,1.0407715,0.14549561,-0.5140137,81.0
21672,0.43893623,-0.33733368,0.48142624,1.2266235,0.21983643,-0.4980835,81.0
21673,0.311244,-0.31570435,0.66404724,1.2266235,0.21983643,-0.4980835,81.0
21674,0.311244,-0.31570435,0.66404724,1.3530029,0.25063476,-0.48427734,81.0
21675,0.15589237,-0.16851807,0.79271317,1.3530029,0.25063476,-0.48427734,81.0
21676,0.15589237,-0.16851807,0.79271317,1.3402588,0.25913087,-0.4800293,81.0
21677,0.024787903,-0.0020370483,0.8366089,1.3402588,0.25913087,-0.4800293,81.0
21678,0.024787903,-0.0020370483,0.8366089,1.2085694,0.26975098,-0.47578126,81.0
21679,-0.17009926,0.093437195,0.84173584,1.2085694,0.26975098,-0.47578126,81.0
21680,-0.17009926,0.093437195,0.84173584,1.0290893,0.26125488,-0.4725952,81.0
21681,-0.45849228,0.11292267,0.83522797,1.0290893,0.26125488,-0.4725952,81.0
21682,-0.45849228,0.11292267,0.83522797,0.81881106,0.20709229,-0.47471926,81.0
21683,-0.7430382,0.06324005,0.7679596,0.81881106,0.20709229,-0.47471926,81.0
21684,-0.7430382,0.06324005,0.7679596,0.63720703,0.12213135,-0.4598511,81.0
21685,-0.94083023,-0.010917664,0.6236191,0.63720703,0.12213135,-0.4598511,81.0
21686,-0.94083023,-0.010917664,0.6236191,0.53100586,0.0063720704,-0.42055663,81.0
21687,-1.0105381,-0.049957275,0.44300842,0.53100586,0.0063720704,-0.42055663,81.0
21688,-1.0105381,-0.049957275,0.44300842,0.4980835,-0.1359375,-0.3440918,81.0
21689,-0.89832306,-0.029975891,0.30234146,0.4980835,-0.1359375,-0.3440918,81.0
21690,-0.89832306,-0.029975891,0.30234146,0.5150757,-0.28568116,-0.2538208,81.0
21691,-0.5811825,-0.0071487427,0.24240875,0.5150757,-0.28568116,-0.2538208,81.0
21692,-0.5811825,-0.0071487427,0.24240875,0.540564,-0.38444826,-0.1731079,81.0
21693,-0.16603279,-0.022102356,0.20573425,0.540564,-0.38444826,-0.1731079,81.0
21694,-0.16603279,-0.022102356,0.20573425,0.54375,-0.45878908,-0.10089111,81.0
21695,0.22192192,-0.07884216,0.14923096,0.54375,-0.45878908,-0.10089111,81.0
21696,0.22192192,-0.07884216,0.14923096,0.5533081,-0.5012695,-0.06478272,81.0
21697,0.51791763,-0.10707855,0.07387543,0.5533081,-0.5012695,-0.06478272,81.0
21698,0.51791763,-0.10707855,0.07387543,0.5586182,-0.4895874,-0.08071289,81.0
21699,0.6902981,-0.061958313,0.02041626,0.5586182,-0.4895874,-0.08071289,81.0
21700,0.6902981,-0.061958313,0.02041626,0.5171997,-0.4725952,-0.124255374,81.0
21701,0.7935467,0.01864624,0.009132385,0.5171997,-0.4725952,-0.124255374,81.0
21702,0.7935467,0.01864624,0.009132385,0.4364868,-0.4163086,-0.17841797,81.0
21703,0.8255596,0.045898438,0.07464218,0.4364868,-0.4163086,-0.17841797,81.0
21704,0.8255596,0.045898438,0.07464218,0.41099855,-0.32603762,-0.22196046,81.0
21705,0.75289154,0.024108887,0.19810486,0.41099855,-0.32603762,-0.22196046,81.0
21706,0.75289154,0.024108887,0.19810486,0.4333008,-0.25063476,-0.25594482,81.0
21707,0.65836716,0.024925232,0.2843132,0.4333008,-0.25063476,-0.25594482,81.0
21708,0.65836716,0.024925232,0.2843132,0.45135498,-0.17629395,-0.29099122,81.0
21709,0.61021423,0.047225952,0.30187607,0.45135498,-0.17629395,-0.29099122,81.0
21710,0.61021423,0.047225952,0.30187607,0.4598511,-0.07646485,-0.3334717,81.0
21711,0.5620003,0.070388794,0.31889343,0.4598511,-0.07646485,-0.3334717,81.0
21712,0.5620003,0.070388794,0.31889343,0.3982544,0.007434082,-0.38232422,81.0
21713,0.4613676,0.07878113,0.3340721,0.3982544,0.007434082,-0.38232422,81.0
21714,0.4613676,0.07878113,0.3340721,0.31435546,0.06265869,-0.4248047,81.0
21715,0.3316059,0.0439682,0.31637573,0.31435546,0.06265869,-0.4248047,81.0
21716,0.3316059,0.0439682,0.31637573,0.22196046,0.10407715,-0.4630371,81.0
21717,0.22470856,0.05418396,0.3277092,0.22196046,0.10407715,-0.4630371,81.0
21718,0.22470856,0.05418396,0.3277092,0.06584473,0.13168946,-0.4959595,81.0
21719,0.19548893,0.11122131,0.3869133,0.06584473,0.13168946,-0.4959595,81.0
21720,0.19548893,0.11122131,0.3869133,-0.11044922,0.0998291,-0.4885254,81.0
21721,0.19363499,0.05529785,0.4211769,-0.11044922,0.0998291,-0.4885254,81.0
21722,0.19363499,0.05529785,0.4211769,-0.18266602,0.093457036,-0.46834716,81.0
21723,0.07689285,-0.13145447,0.38768387,-0.18266602,0.093457036,-0.46834716,81.0
21724,0.07689285,-0.13145447,0.38768387,-0.1083252,0.03186035,-0.42374268,81.0
21725,-0.11197281,-0.2733307,0.30279922,-0.1083252,0.03186035,-0.42374268,81.0
21726,-0.11197281,-0.2733307,0.30279922,0.033984374,-0.04991455,-0.36745605,81.0
21727,-0.25133324,-0.30173492,0.2137146,0.033984374,-0.04991455,-0.36745605,81.0
21728,-0.25133324,-0.30173492,0.2137146,0.2347046,-0.14230958,-0.29736328,81.0
21729,-0.29055595,-0.22818756,0.19826889,0.2347046,-0.14230958,-0.29736328,81.0
21730,-0.29055595,-0.22818756,0.19826889,0.44816896,-0.22302246,-0.23045655,81.0
21731,-0.25878716,-0.041633606,0.2627411,0.44816896,-0.22302246,-0.23045655,81.0
21732,-0.25878716,-0.041633606,0.2627411,0.5671143,-0.28568116,-0.16142578,81.0
21733,-0.25878716,-0.041633606,0.2627411,0.5671143,-0.28568116,-0.16142578,87.0
21734,-0.16817474,0.12269592,0.34947586,0.5671143,-0.28568116,-0.16142578,87.0
21735,-0.16817474,0.12269592,0.34947586,0.64995116,-0.34090576,-0.081774905,87.0
21736,-0.017803192,0.18388367,0.37151337,0.64995116,-0.34090576,-0.081774905,87.0
21737,-0.017803192,0.18388367,0.37151337,0.66588134,-0.3791382,0.011682129,87.0
21738,0.1409092,0.1904068,0.33802032,0.66588134,-0.3791382,0.011682129,87.0
21739,0.1409092,0.1904068,0.33802032,0.630835,-0.40144044,0.0998291,87.0
21740,0.23439503,0.1542511,0.31842422,0.630835,-0.40144044,0.0998291,87.0
21741,0.23439503,0.1542511,0.31842422,0.5543701,-0.39294434,0.14761963,87.0
21742,0.19208145,0.09749603,0.375782,0.5543701,-0.39294434,0.14761963,87.0
21743,0.19208145,0.09749603,0.375782,0.41843262,-0.38763428,0.1529297,87.0
21744,0.0882597,0.0046691895,0.5281143,0.41843262,-0.38763428,0.1529297,87.0
21745,0.0882597,0.0046691895,0.5281143,0.29205322,-0.39400634,0.13062744,87.0
21746,0.08739281,-0.11909485,0.6627884,0.29205322,-0.39400634,0.13062744,87.0
21747,0.08739281,-0.11909485,0.6627884,0.2262085,-0.40037844,0.08602295,87.0
21748,0.24620819,-0.19891357,0.7034111,0.2262085,-0.40037844,0.08602295,87.0
21749,0.24620819,-0.19891357,0.7034111,0.23258057,-0.40993652,0.04141846,87.0
21750,0.4795227,-0.2243805,0.6843834,0.23258057,-0.40993652,0.04141846,87.0
21751,0.4795227,-0.2243805,0.6843834,0.26019287,-0.4364868,0.0063720704,87.0
21752,0.68855,-0.2591629,0.61816025,0.26019287,-0.4364868,0.0063720704,87.0
21753,0.68855,-0.2591629,0.61816025,0.30373535,-0.47471926,-0.0180542,87.0
21754,0.7492409,-0.24599457,0.5077591,0.30373535,-0.47471926,-0.0180542,87.0
21755,0.7492409,-0.24599457,0.5077591,0.3536499,-0.5161377,-0.06159668,87.0
21756,0.6689358,-0.12461853,0.38404846,0.3536499,-0.5161377,-0.06159668,87.0
21757,0.6689358,-0.12461853,0.38404846,0.4088745,-0.5766724,-0.118945315,87.0
21758,0.58313465,0.033607483,0.25049973,0.4088745,-0.5766724,-0.118945315,87.0
21759,0.58313465,0.033607483,0.25049973,0.5033936,-0.58410645,-0.17841797,87.0
21760,0.5659704,0.19506073,0.14823914,0.5033936,-0.58410645,-0.17841797,87.0
21761,0.5659704,0.19506073,0.14823914,0.58410645,-0.5809204,-0.22408448,87.0
21762,0.5914116,0.38217926,0.10241699,0.58410645,-0.5809204,-0.22408448,87.0
21763,0.5914116,0.38217926,0.10241699,0.63720703,-0.541626,-0.2538208,87.0
21764,0.6121187,0.5580292,0.08634186,0.63720703,-0.541626,-0.2538208,87.0
21765,0.6121187,0.5580292,0.08634186,0.67331547,-0.46622315,-0.28780517,87.0
21766,0.5798321,0.67829895,0.11370468,0.67331547,-0.46622315,-0.28780517,87.0
21767,0.5798321,0.67829895,0.11370468,0.6531372,-0.35046387,-0.33878174,87.0
21768,0.5036001,0.75148773,0.23944855,0.6531372,-0.35046387,-0.33878174,87.0
21769,0.5036001,0.75148773,0.23944855,0.5766724,-0.23045655,-0.38869628,87.0
21770,0.45076847,0.7873306,0.42555237,0.5766724,-0.23045655,-0.38869628,87.0
21771,0.45076847,0.7873306,0.42555237,0.4800293,-0.13699952,-0.42905274,87.0
21772,0.50419426,0.80083466,0.51558685,0.4800293,-0.13699952,-0.42905274,87.0
21773,0.50419426,0.80083466,0.51558685,0.35046387,-0.039294433,-0.4598511,87.0
21774,0.6040392,0.79026794,0.450943,0.35046387,-0.039294433,-0.4598511,87.0
21775,0.6040392,0.79026794,0.450943,0.21452637,0.045666505,-0.47790527,87.0
21776,0.6178627,0.7211304,0.3200798,0.21452637,0.045666505,-0.47790527,87.0
21777,0.6178627,0.7211304,0.3200798,0.08071289,0.118945315,-0.48215333,87.0
21778,0.5293617,0.58267975,0.25889587,0.08071289,0.118945315,-0.48215333,87.0
21779,0.5293617,0.58267975,0.25889587,0.0063720704,0.1720459,-0.47578126,87.0
21780,0.4375763,0.4356842,0.25646973,0.0063720704,0.1720459,-0.47578126,87.0
21781,0.4375763,0.4356842,0.25646973,0.013806152,0.20496826,-0.45560303,87.0
21782,0.39940166,0.35903168,0.2593994,0.013806152,0.20496826,-0.45560303,87.0
21783,0.39940166,0.35903168,0.2593994,0.040356446,0.25063476,-0.44498292,87.0
21784,0.34558296,0.39027405,0.25672913,0.040356446,0.25063476,-0.44498292,87.0
21785,0.34558296,0.39027405,0.25672913,-0.007434082,0.27612305,-0.44710693,87.0
21786,0.22476959,0.4520874,0.24723816,-0.007434082,0.27612305,-0.44710693,87.0
21787,0.22476959,0.4520874,0.24723816,-0.09239502,0.27718505,-0.43754885,87.0
21788,0.10385132,0.484375,0.2244873,-0.09239502,0.27718505,-0.43754885,87.0
21789,0.10385132,0.484375,0.2244873,-0.16779785,0.2782471,-0.42799073,87.0
21790,0.06932354,0.5004425,0.22608948,-0.16779785,0.2782471,-0.42799073,87.0
21791,0.06932354,0.5004425,0.22608948,-0.24744873,0.28780517,-0.40037844,87.0
21792,0.17715073,0.4876709,0.23334885,-0.24744873,0.28780517,-0.40037844,87.0
21793,0.17715073,0.4876709,0.23334885,-0.35789797,0.30054933,-0.33878174,87.0
21794,0.28869247,0.4440689,0.20059204,-0.35789797,0.30054933,-0.33878174,87.0
21795,0.28869247,0.4440689,0.20059204,-0.4959595,0.33771974,-0.2793091,87.0
21796,0.22431278,0.3403778,0.12962723,-0.4959595,0.33771974,-0.2793091,87.0
21797,0.22431278,0.3403778,0.12962723,-0.5894165,0.34727785,-0.21027832,87.0
21798,0.009430885,0.14984131,0.10967255,-0.5894165,0.34727785,-0.21027832,87.0
21799,0.009430885,0.14984131,0.10967255,-0.6159668,0.33771974,-0.13381349,87.0
21800,-0.2193718,-0.057273865,0.13127899,-0.6159668,0.33771974,-0.13381349,87.0
21801,-0.2193718,-0.057273865,0.13127899,-0.57242435,0.26975098,-0.033984374,87.0
21802,-0.3615818,-0.1962204,0.10543823,-0.57242435,0.26975098,-0.033984374,87.0
21803,-0.3615818,-0.1962204,0.10543823,-0.49171144,0.18266602,0.07752686,87.0
21804,-0.39588165,-0.23997498,-0.024879456,-0.49171144,0.18266602,0.07752686,87.0
21805,-0.39588165,-0.23997498,-0.024879456,-0.44816896,0.09239502,0.17841797,87.0
21806,-0.40765953,-0.2510605,-0.22504425,-0.44816896,0.09239502,0.17841797,87.0
21807,-0.40765953,-0.2510605,-0.22504425,-0.44498292,-0.009558106,0.27612305,87.0
21808,-0.42861748,-0.25751495,-0.4144745,-0.44498292,-0.009558106,0.27612305,87.0
21809,-0.42861748,-0.25751495,-0.4144745,-0.4694092,-0.08920898,0.36320803,87.0
21810,-0.42975903,-0.2804489,-0.54937744,-0.4694092,-0.08920898,0.36320803,87.0
21811,-0.42975903,-0.2804489,-0.54937744,-0.49489745,-0.14230958,0.45135498,87.0
21812,-0.39147568,-0.34894562,-0.60689926,-0.49489745,-0.14230958,0.45135498,87.0
21813,-0.39147568,-0.34894562,-0.60689926,-0.45560303,-0.16779785,0.5384399,87.0
21814,-0.31973553,-0.41098022,-0.6394234,-0.45560303,-0.16779785,0.5384399,87.0
21815,-0.31973553,-0.41098022,-0.6394234,-0.44179687,-0.16673584,0.6085327,87.0
21816,-0.26331997,-0.43714142,-0.6753578,-0.44179687,-0.16673584,0.6085327,87.0
21817,-0.26331997,-0.43714142,-0.6753578,-0.46622315,-0.16461182,0.67331547,87.0
21818,-0.2374382,-0.45498657,-0.69708633,-0.46622315,-0.16461182,0.67331547,87.0
21819,-0.2374382,-0.45498657,-0.69708633,-0.51082766,-0.15186767,0.71791995,87.0
21820,-0.2511444,-0.48124695,-0.707901,-0.51082766,-0.15186767,0.71791995,87.0
21821,-0.2511444,-0.48124695,-0.707901,-0.5533081,-0.124255374,0.7476563,87.0
21822,-0.28043175,-0.5034561,-0.70350266,-0.5533081,-0.124255374,0.7476563,87.0
21823,-0.28043175,-0.5034561,-0.70350266,-0.5798584,-0.08071289,0.75615233,87.0
21824,-0.27767754,-0.4910965,-0.7098961,-0.5798584,-0.08071289,0.75615233,87.0
21825,-0.27767754,-0.4910965,-0.7098961,-0.64570314,-0.0361084,0.7805786,87.0
21826,-0.23956108,-0.45838165,-0.73249435,-0.64570314,-0.0361084,0.7805786,87.0
21827,-0.23956108,-0.45838165,-0.73249435,-0.6988037,0.02442627,0.80606693,87.0
21828,-0.24666595,-0.4344406,-0.7246094,-0.6988037,0.02442627,0.80606693,87.0
21829,-0.24666595,-0.4344406,-0.7246094,-0.7412842,0.090270996,0.8315552,87.0
21830,-0.3298645,-0.4104309,-0.68341064,-0.7412842,0.090270996,0.8315552,87.0
21831,-0.3298645,-0.4104309,-0.68341064,-0.81668705,0.16036378,0.82836914,87.0
21832,-0.42155743,-0.33571625,-0.6232567,-0.81668705,0.16036378,0.82836914,87.0
21833,-0.42155743,-0.33571625,-0.6232567,-0.991919,0.23151855,0.811377,87.0
