,accx,accy,accz,gyrox,gyroy,gyroz,heart rate
24264,open,open,open,open,open,open,open
24265,-0.07177067,-0.1326294,0.21412659,-0.1274414,0.019116212,-0.0541626,142.0
24266,-0.07177067,-0.1326294,0.21412659,-0.025488282,-0.035046387,-0.06265869,142.0
24267,-0.06298256,-0.104637146,0.17209625,-0.025488282,-0.035046387,-0.06265869,142.0
24268,-0.06298256,-0.104637146,0.17209625,-0.039294433,-0.020178223,-0.08283692,142.0
24269,-0.05425644,-0.08068085,0.13833618,-0.039294433,-0.020178223,-0.08283692,142.0
24270,0.89225197,2.9271545,-0.13412857,-0.039294433,-0.020178223,-0.08283692,142.0
24271,0.89225197,2.9271545,-0.13412857,-0.0063720704,-0.013806152,-0.09664307,142.0
24272,0.6840534,2.2583618,-0.065151215,-0.0063720704,-0.013806152,-0.09664307,142.0
24273,0.6840534,2.2583618,-0.065151215,0.033984374,-0.0180542,-0.08071289,142.0
24274,0.52867603,1.8461075,-0.025447845,0.033984374,-0.0180542,-0.08071289,142.0
24275,0.52867603,1.8461075,-0.025447845,0.047790527,-0.020178223,-0.09451904,142.0
24276,0.52867603,1.8461075,-0.025447845,0.010620117,-0.022302246,-0.1083252,142.0
24277,0.4267006,1.6040344,-0.081516266,0.010620117,-0.022302246,-0.1083252,142.0
24278,0.32522297,1.3688507,-0.13751602,0.010620117,-0.022302246,-0.1083252,142.0
24279,0.32522297,1.3688507,-0.13751602,-0.019116212,-0.027612304,-0.14337158,142.0
24280,0.23449421,1.0610275,-0.078689575,-0.019116212,-0.027612304,-0.14337158,142.0
24281,0.23449421,1.0610275,-0.078689575,0.0021240234,-0.040356446,-0.12213135,142.0
24282,0.19524956,0.74508667,0.03725815,0.0021240234,-0.040356446,-0.12213135,142.0
24283,0.19524956,0.74508667,0.03725815,0.04991455,-0.04991455,-0.050976563,142.0
24284,0.13991547,0.51042175,0.056941986,0.04991455,-0.04991455,-0.050976563,142.0
24285,0.13991547,0.51042175,0.056941986,0.10195313,-0.059472658,-0.053100586,142.0
24286,0.07382202,0.3965683,-0.030460358,0.10195313,-0.059472658,-0.053100586,142.0
24287,0.07382202,0.3965683,-0.030460358,0.107263185,-0.07434082,-0.07965088,142.0
24288,0.03798771,0.36707306,-0.06936264,0.107263185,-0.07434082,-0.07965088,142.0
24289,0.03798771,0.36707306,-0.06936264,0.09664307,-0.08814698,-0.09770508,142.0
24290,0.04855442,0.37397003,0.018508911,0.09664307,-0.08814698,-0.09770508,142.0
24291,0.04855442,0.37397003,0.018508911,0.04141846,-0.07540283,-0.06159668,142.0
24292,0.07216835,0.32681274,0.07720947,0.04141846,-0.07540283,-0.06159668,142.0
24293,0.07216835,0.32681274,0.07720947,-0.012744141,-0.04991455,-0.07540283,142.0
24294,0.0503006,0.16110992,0.0053215027,-0.012744141,-0.04991455,-0.07540283,142.0
24295,0.0503006,0.16110992,0.0053215027,-0.011682129,-0.04885254,-0.10195313,142.0
24296,-0.031194687,-0.11003113,-0.15150452,-0.011682129,-0.04885254,-0.10195313,142.0
24297,-0.031194687,-0.11003113,-0.15150452,0.1529297,-0.10513916,0.035046387,142.0
24298,-0.095415115,-0.26985168,-0.25279617,0.1529297,-0.10513916,0.035046387,142.0
24299,-0.095415115,-0.26985168,-0.25279617,0.25806886,-0.19116211,0.038232423,142.0
24300,-0.056239128,-0.16160583,-0.14211655,0.25806886,-0.19116211,0.038232423,142.0
24301,-0.056239128,-0.16160583,-0.14211655,0.11682129,-0.14549561,0.1444336,142.0
24302,0.03341484,0.023674011,0.07325745,0.11682129,-0.14549561,0.1444336,142.0
24303,0.03341484,0.023674011,0.07325745,-0.015930176,-0.1263794,0.21240234,142.0
24304,0.015257835,0.13534546,0.13024902,-0.015930176,-0.1263794,0.21240234,142.0
24305,0.015257835,0.13534546,0.13024902,-0.17523193,-0.08496094,0.1529297,142.0
24306,-0.07315731,0.12300873,0.06939697,-0.17523193,-0.08496094,0.1529297,142.0
24307,-0.07315731,0.12300873,0.06939697,-0.15717773,-0.115759276,0.12213135,142.0
24308,-0.04745388,0.097969055,0.04738617,-0.15717773,-0.115759276,0.12213135,142.0
24309,-0.04745388,0.097969055,0.04738617,-0.10938721,-0.11151123,0.18054199,142.0
24310,-0.007030487,0.10095978,0.056098938,-0.10938721,-0.11151123,0.18054199,142.0
24311,-0.007030487,0.10095978,0.056098938,-0.032922365,-0.10513916,0.1731079,142.0
24312,0.0015773773,0.16853333,0.06655884,-0.032922365,-0.10513916,0.1731079,142.0
24313,0.0015773773,0.16853333,0.06655884,0.0361084,-0.11257324,0.16354981,142.0
24314,0.02811718,0.28733063,0.08237076,0.0361084,-0.11257324,0.16354981,142.0
24315,0.02811718,0.28733063,0.08237076,0.043542482,-0.10513916,0.14124756,142.0
24316,0.06922245,0.37602997,0.110305786,0.043542482,-0.10513916,0.14124756,142.0
24317,0.06922245,0.37602997,0.110305786,0.028674318,-0.0998291,0.11257324,142.0
24318,0.10336399,0.35151672,0.13647461,0.028674318,-0.0998291,0.11257324,142.0
24319,0.10336399,0.35151672,0.13647461,-0.0021240234,-0.090270996,0.090270996,142.0
24320,0.13593864,0.2545395,0.13050461,-0.0021240234,-0.090270996,0.090270996,142.0
24321,0.13593864,0.2545395,0.13050461,-0.03186035,-0.07965088,0.070092775,142.0
24322,0.17205715,0.1548996,0.075740814,-0.03186035,-0.07965088,0.070092775,142.0
24323,0.17205715,0.1548996,0.075740814,-0.059472658,-0.06159668,0.058410645,142.0
24324,0.2142086,0.03591919,0.020114899,-0.059472658,-0.06159668,0.058410645,142.0
24325,0.2142086,0.03591919,0.020114899,-0.04141846,-0.05522461,0.06796875,142.0
24326,0.25348377,-0.071876526,0.01360321,-0.04141846,-0.05522461,0.06796875,142.0
24327,0.25348377,-0.071876526,0.01360321,-0.039294433,-0.03717041,0.07646485,142.0
24328,0.27801895,-0.0819931,0.03407669,-0.039294433,-0.03717041,0.07646485,142.0
24329,0.27801895,-0.0819931,0.03407669,-0.10195313,0.020178223,0.09451904,142.0
24330,0.2645054,-0.0077819824,0.0036392212,-0.10195313,0.020178223,0.09451904,142.0
24331,0.2645054,-0.0077819824,0.0036392212,-0.18372802,0.081774905,0.115759276,142.0
24332,0.1900835,0.02784729,-0.117328644,-0.18372802,0.081774905,0.115759276,142.0
24333,0.1900835,0.02784729,-0.117328644,-0.24107666,0.13487549,0.13806152,142.0
24334,0.07065773,-0.02998352,-0.25652313,-0.24107666,0.13487549,0.13806152,142.0
24335,0.07065773,-0.02998352,-0.25652313,-0.271875,0.16248779,0.14655761,142.0
24336,-0.036039352,-0.09681702,-0.37545776,-0.271875,0.16248779,0.14655761,142.0
24337,-0.036039352,-0.09681702,-0.37545776,-0.31329346,0.18372802,0.16036378,142.0
24338,-0.12421703,-0.13419342,-0.44256592,-0.31329346,0.18372802,0.16036378,142.0
24339,-0.12421703,-0.13419342,-0.44256592,-0.3355957,0.14868164,0.16461182,142.0
24340,-0.13473701,-0.17192078,-0.42515945,-0.3355957,0.14868164,0.16461182,142.0
24341,-0.13473701,-0.17192078,-0.42515945,-0.36851808,0.087084964,0.16142578,142.0
24342,-0.008997917,-0.21134186,-0.34355927,-0.36851808,0.087084964,0.16142578,142.0
24343,-0.008997917,-0.21134186,-0.34355927,-0.43861085,0.039294433,0.16992188,142.0
24344,0.24022579,-0.20777893,-0.27878952,-0.43861085,0.039294433,0.16992188,142.0
24345,0.24022579,-0.20777893,-0.27878952,-0.5968506,0.015930176,0.16567384,142.0
24346,0.53572273,-0.14313507,-0.31344986,-0.5968506,0.015930176,0.16567384,142.0
24347,0.53572273,-0.14313507,-0.31344986,-0.8772217,0.027612304,0.14230958,142.0
24348,0.6421404,-0.07386017,-0.44516754,-0.8772217,0.027612304,0.14230958,142.0
24349,0.6421404,-0.07386017,-0.44516754,-1.1151123,0.04460449,0.17735596,142.0
24350,0.312809,-0.09164429,-0.49209595,-1.1151123,0.04460449,0.17735596,142.0
24351,0.312809,-0.09164429,-0.49209595,-1.1958252,-0.093457036,0.20709229,142.0
24352,-0.06774616,-0.105270386,-0.3440323,-1.1958252,-0.093457036,0.20709229,142.0
24353,-0.06774616,-0.105270386,-0.3440323,-1.2298096,-0.25063476,0.21134034,142.0
24354,-0.06396294,-0.03299713,-0.10113907,-1.2298096,-0.25063476,0.21134034,142.0
24355,-0.06396294,-0.03299713,-0.10113907,-1.3222046,-0.3154175,0.15823975,142.0
24356,0.071131706,0.07576752,0.075424194,-1.3222046,-0.3154175,0.15823975,142.0
24357,0.071131706,0.07576752,0.075424194,-1.3784913,-0.35895997,0.13275146,142.0
24358,0.030098915,0.23542786,0.10058594,-1.3784913,-0.35895997,0.13275146,142.0
24359,0.030098915,0.23542786,0.10058594,-1.4326538,-0.4609131,0.059472658,142.0
24360,-0.06044197,0.49308014,0.09426117,-1.4326538,-0.4609131,0.059472658,142.0
24361,-0.06044197,0.49308014,0.09426117,-1.5983276,-0.56180423,-0.0722168,142.0
24362,-0.051246643,0.7485199,0.20232391,-1.5983276,-0.56180423,-0.0722168,142.0
24363,-0.051246643,0.7485199,0.20232391,-1.8415283,-0.58623046,-0.23895264,142.0
24364,-0.104730606,0.80594635,0.4320984,-1.8415283,-0.58623046,-0.23895264,142.0
24365,-0.104730606,0.80594635,0.4320984,-1.9636596,-0.6616333,-0.38975832,142.0
24366,-0.2268629,0.6220627,0.68084717,-1.9636596,-0.6616333,-0.38975832,142.0
24367,-0.2268629,0.6220627,0.68084717,-2.0125122,-0.7625244,-0.58198243,142.0
24368,-0.21963787,0.34909058,0.8581886,-2.0125122,-0.7625244,-0.58198243,142.0
24369,-0.21963787,0.34909058,0.8581886,-1.9541016,-0.8050049,-0.7784546,142.0
24370,-0.23840523,0.1233902,0.9672165,-1.9541016,-0.8050049,-0.7784546,142.0
24371,-0.23840523,0.1233902,0.9672165,-1.8202881,-0.8612915,-0.90695804,142.0
24372,-0.40715504,-0.08366394,1.0918045,-1.8202881,-0.8612915,-0.90695804,142.0
24373,-0.40715504,-0.08366394,1.0918045,-1.5462891,-1.0184692,-1.0280274,142.0
24374,-0.45542336,-0.27683258,1.2427444,-1.5462891,-1.0184692,-1.0280274,142.0
24375,-0.45542336,-0.27683258,1.2427444,-1.2818482,-1.1406006,-1.1076783,142.0
24376,-0.25993156,-0.35183716,1.3681717,-1.2818482,-1.1406006,-1.1076783,142.0
24377,-0.25993156,-0.35183716,1.3681717,-1.1937011,-1.177771,-1.2234375,142.0
24378,-0.017417908,-0.34497833,1.4216881,-1.1937011,-1.177771,-1.2234375,142.0
24379,-0.017417908,-0.34497833,1.4216881,-1.2234375,-1.1533448,-1.2839721,142.0
24380,0.11265278,-0.40850067,1.4126434,-1.2234375,-1.1533448,-1.2839721,142.0
24381,0.11265278,-0.40850067,1.4126434,-1.2489258,-1.1204224,-1.3275146,142.0
24382,0.15206051,-0.62285614,1.3695221,-1.2489258,-1.1204224,-1.3275146,142.0
24383,0.15206051,-0.62285614,1.3695221,-1.1894531,-1.0620117,-1.2584839,142.0
24384,0.15066433,-0.8427658,1.299427,-1.1894531,-1.0620117,-1.2584839,142.0
24385,0.15066433,-0.8427658,1.299427,-1.1544068,-1.0078491,-1.2213135,142.0
24386,0.13494778,-0.9915314,1.2375755,-1.1544068,-1.0078491,-1.2213135,142.0
24387,0.13494778,-0.9915314,1.2375755,-1.0683838,-0.9239502,-1.0747559,142.0
24388,0.09365177,-1.1051865,1.278305,-1.0683838,-0.9239502,-1.0747559,142.0
24389,0.09365177,-1.1051865,1.278305,-0.8612915,-0.8007569,-0.90270996,142.0
24390,0.023248672,-1.0782394,1.3300171,-0.8612915,-0.8007569,-0.90270996,142.0
24391,0.023248672,-1.0782394,1.3300171,-0.64782715,-0.6595093,-0.725354,142.0
24392,-0.052640915,-0.8385544,1.1606445,-0.64782715,-0.6595093,-0.725354,142.0
24393,-0.052640915,-0.8385544,1.1606445,-0.5299439,-0.5161377,-0.62340087,142.0
24394,-0.15687084,-0.5351181,0.77305984,-0.5299439,-0.5161377,-0.62340087,142.0
24395,-0.15687084,-0.5351181,0.77305984,-0.50020754,-0.3812622,-0.53737795,142.0
24396,-0.2655115,-0.4024353,0.36343002,-0.50020754,-0.3812622,-0.53737795,142.0
24397,-0.2655115,-0.4024353,0.36343002,-0.41099855,-0.27612305,-0.4322388,142.0
24398,-0.3203802,-0.39803314,0.019943237,-0.41099855,-0.27612305,-0.4322388,142.0
24399,-0.3203802,-0.39803314,0.019943237,-0.3090454,-0.20390625,-0.33240968,142.0
24400,-0.32360172,-0.30392456,-0.21462631,-0.3090454,-0.20390625,-0.33240968,142.0
24401,-0.32360172,-0.30392456,-0.21462631,-0.22727051,-0.13381349,-0.25063476,142.0
24402,-0.2870798,-0.11714935,-0.32505798,-0.22727051,-0.13381349,-0.25063476,142.0
24403,-0.2870798,-0.11714935,-0.32505798,-0.17841797,-0.07327881,-0.18797608,142.0
24404,-0.22194862,0.06741333,-0.37197113,-0.17841797,-0.07327881,-0.18797608,142.0
24405,-0.22194862,0.06741333,-0.37197113,-0.19541016,-0.02442627,-0.1444336,142.0
24406,-0.16773224,0.14379883,-0.39118195,-0.19541016,-0.02442627,-0.1444336,142.0
24407,-0.16773224,0.14379883,-0.39118195,-0.2166504,0.0,-0.11257324,142.0
24408,-0.124090195,0.07929993,-0.40208054,-0.2166504,0.0,-0.11257324,142.0
24409,-0.124090195,0.07929993,-0.40208054,-0.15717773,0.0021240234,-0.057348635,142.0
24410,-0.060050964,-0.0051116943,-0.40717316,-0.15717773,0.0021240234,-0.057348635,142.0
24411,-0.060050964,-0.0051116943,-0.40717316,-0.059472658,0.0,0.009558106,142.0
24412,-0.016901016,0.03265381,-0.40486145,-0.059472658,0.0,0.009558106,142.0
24413,-0.016901016,0.03265381,-0.40486145,-0.023364259,0.0,0.045666505,142.0
24414,-0.008173943,0.15960693,-0.41460037,-0.023364259,0.0,0.045666505,142.0
24415,-0.008173943,0.15960693,-0.41460037,-0.022302246,-0.007434082,0.052038576,142.0
24416,0.016971588,0.2459259,-0.43666077,-0.022302246,-0.007434082,0.052038576,142.0
24417,0.016971588,0.2459259,-0.43666077,-0.020178223,-0.019116212,0.05628662,142.0
24418,0.07060814,0.22973633,-0.4389305,-0.020178223,-0.019116212,0.05628662,142.0
24419,0.07060814,0.22973633,-0.4389305,0.0031860352,-0.038232423,0.06478272,142.0
24420,0.11188221,0.20091248,-0.37452316,0.0031860352,-0.038232423,0.06478272,142.0
24421,0.11188221,0.20091248,-0.37452316,-0.004248047,-0.046728518,0.052038576,142.0
24422,0.13204765,0.22114563,-0.2746315,-0.004248047,-0.046728518,0.052038576,142.0
24423,0.13204765,0.22114563,-0.2746315,-0.04141846,-0.04460449,0.0361084,142.0
24424,0.12722015,0.2255249,-0.1817398,-0.04141846,-0.04460449,0.0361084,142.0
24425,0.12722015,0.2255249,-0.1817398,-0.04141846,-0.04885254,0.019116212,142.0
24426,0.12260151,0.14577484,-0.13223267,-0.04141846,-0.04885254,0.019116212,142.0
24427,0.12260151,0.14577484,-0.13223267,-0.015930176,-0.053100586,0.015930176,142.0
24428,0.10589409,0.0525589,-0.10886383,-0.015930176,-0.053100586,0.015930176,142.0
24429,0.10589409,0.0525589,-0.10886383,0.008496094,-0.06265869,0.007434082,142.0
24430,0.10002327,0.022163391,-0.07633591,0.008496094,-0.06265869,0.007434082,142.0
24431,0.10002327,0.022163391,-0.07633591,0.021240234,-0.06478272,0.013806152,142.0
24432,0.09574127,0.052505493,-0.02676773,0.021240234,-0.06478272,0.013806152,142.0
24433,0.09574127,0.052505493,-0.02676773,0.0053100586,-0.05628662,0.0063720704,142.0
24434,0.084649086,0.08243561,0.010738373,0.0053100586,-0.05628662,0.0063720704,142.0
24435,0.084649086,0.08243561,0.010738373,-0.026550293,-0.04991455,0.0021240234,142.0
24436,0.056183815,0.061569214,0.011619568,-0.026550293,-0.04991455,0.0021240234,142.0
24437,0.056183815,0.061569214,0.011619568,-0.046728518,-0.04460449,-0.0021240234,142.0
24438,0.018507004,-0.0021591187,-0.019699097,-0.046728518,-0.04460449,-0.0021240234,142.0
24439,0.018507004,-0.0021591187,-0.019699097,-0.0063720704,-0.053100586,0.0031860352,142.0
24440,3.5190582E-4,-0.06632233,-0.03149414,-0.0063720704,-0.053100586,0.0031860352,142.0
24441,3.5190582E-4,-0.06632233,-0.03149414,0.008496094,-0.05522461,0.012744141,142.0
24442,0.0053720474,-0.08732605,-0.010951996,0.008496094,-0.05522461,0.012744141,142.0
24443,0.0053720474,-0.08732605,-0.010951996,0.023364259,-0.060534667,0.023364259,142.0
24444,0.021936417,-0.060836792,0.016971588,0.023364259,-0.060534667,0.023364259,142.0
24445,0.021936417,-0.060836792,0.016971588,0.013806152,-0.057348635,0.03079834,142.0
24446,0.020357132,-0.021865845,0.029678345,0.013806152,-0.057348635,0.03079834,142.0
24447,0.020357132,-0.021865845,0.029678345,-0.0031860352,-0.058410645,0.038232423,142.0
24448,0.011390686,-0.008605957,0.006542206,-0.0031860352,-0.058410645,0.038232423,142.0
24449,0.011390686,-0.008605957,0.006542206,-0.0031860352,-0.06584473,0.04460449,142.0
24450,0.02472496,-0.015785217,-0.02350235,-0.0031860352,-0.06584473,0.04460449,142.0
24451,0.02472496,-0.015785217,-0.02350235,-0.0021240234,-0.0637207,0.06159668,142.0
24452,0.04761219,0.002105713,-0.039970398,-0.0021240234,-0.0637207,0.06159668,142.0
24453,0.04761219,0.002105713,-0.039970398,-0.0010620117,-0.0637207,0.06690674,142.0
24454,0.0697546,0.04735565,-0.04901886,-0.0010620117,-0.0637207,0.06690674,142.0
24455,0.0697546,0.04735565,-0.04901886,-0.0063720704,-0.06796875,0.06690674,142.0
24456,0.08648014,0.058547974,-0.053337097,-0.0063720704,-0.06796875,0.06690674,142.0
24457,0.08648014,0.058547974,-0.053337097,0.011682129,-0.07327881,0.06265869,142.0
24458,0.10695267,0.04776764,-0.03378296,0.011682129,-0.07327881,0.06265869,142.0
24459,0.10695267,0.04776764,-0.03378296,0.011682129,-0.07752686,0.058410645,142.0
24460,0.11070824,0.0499115,0.0014648438,0.011682129,-0.07752686,0.058410645,142.0
24461,0.11070824,0.0499115,0.0014648438,0.013806152,-0.08496094,0.0541626,142.0
24462,0.10964775,0.06286621,0.029663086,0.013806152,-0.08496094,0.0541626,142.0
24463,0.10964775,0.06286621,0.029663086,0.014868164,-0.083898924,0.052038576,142.0
24464,0.116539,0.06542969,0.040527344,0.014868164,-0.083898924,0.052038576,142.0
24465,0.116539,0.06542969,0.040527344,0.010620117,-0.078588866,0.04885254,142.0
24466,0.10643959,0.06821442,0.027256012,0.010620117,-0.078588866,0.04885254,142.0
24467,0.10643959,0.06821442,0.027256012,-0.0031860352,-0.07540283,0.04141846,142.0
24468,0.082551956,0.05860138,0.005302429,-0.0031860352,-0.07540283,0.04141846,142.0
24469,0.082551956,0.05860138,0.005302429,-0.010620117,-0.0722168,0.027612304,142.0
24470,0.06596851,0.030441284,0.006965637,-0.010620117,-0.0722168,0.027612304,142.0
24471,0.06596851,0.030441284,0.006965637,-0.0053100586,-0.0722168,0.013806152,142.0
24472,0.06714249,0.007118225,0.023757935,-0.0053100586,-0.0722168,0.013806152,142.0
24473,0.06714249,0.007118225,0.023757935,-0.0031860352,-0.07434082,0.0063720704,142.0
24474,0.06683636,0.017669678,0.0409317,-0.0031860352,-0.07434082,0.0063720704,142.0
24475,0.06683636,0.017669678,0.0409317,-0.012744141,-0.07434082,-0.004248047,142.0
24476,0.042995453,0.04245758,0.060112,-0.012744141,-0.07434082,-0.004248047,142.0
24477,0.042995453,0.04245758,0.060112,-0.03186035,-0.07434082,-0.019116212,142.0
24478,0.034591675,0.026237488,0.09396362,-0.03186035,-0.07434082,-0.019116212,142.0
24479,0.034591675,0.026237488,0.09396362,-0.019116212,-0.07115479,-0.023364259,142.0
24480,0.032910347,-0.011039734,0.1146965,-0.019116212,-0.07115479,-0.023364259,142.0
24481,0.032910347,-0.011039734,0.1146965,-0.011682129,-0.050976563,-0.029736329,142.0
24482,0.017343521,-0.0068893433,0.102890015,-0.011682129,-0.050976563,-0.029736329,142.0
24483,0.017343521,-0.0068893433,0.102890015,-0.008496094,-0.039294433,-0.03186035,142.0
24484,-0.02721405,0.06493378,0.029273987,-0.008496094,-0.039294433,-0.03186035,142.0
24485,-0.02721405,0.06493378,0.029273987,-0.013806152,-0.0031860352,-0.03717041,142.0
24486,-0.03847027,0.08000946,-6.5612793E-4,-0.013806152,-0.0031860352,-0.03717041,142.0
24487,-0.03847027,0.08000946,-6.5612793E-4,-0.019116212,0.009558106,-0.039294433,142.0
24488,-0.09259224,0.08527374,-0.062950134,-0.019116212,0.009558106,-0.039294433,142.0
24489,-0.09259224,0.08527374,-0.062950134,-0.020178223,0.025488282,-0.047790527,142.0
24490,-0.09839058,0.029769897,-0.068157196,-0.020178223,0.025488282,-0.047790527,142.0
24491,-0.09839058,0.029769897,-0.068157196,-0.0063720704,0.02442627,-0.0541626,142.0
24492,-0.12877369,-0.095336914,-0.06960297,-0.0063720704,0.02442627,-0.0541626,142.0
24493,-0.12877369,-0.095336914,-0.06960297,0.027612304,0.004248047,-0.06690674,142.0
24494,-0.12877369,-0.095336914,-0.06960297,0.027612304,0.004248047,-0.06690674,0.0
24495,-0.108145714,-0.103897095,-0.05091095,0.027612304,0.004248047,-0.06690674,0.0
24496,-0.108145714,-0.103897095,-0.05091095,0.023364259,-0.0010620117,-0.070092775,0.0
24497,-0.07693386,-0.101882935,-0.03798294,0.023364259,-0.0010620117,-0.070092775,0.0
24498,-0.07693386,-0.101882935,-0.03798294,0.004248047,-0.013806152,-0.07115479,0.0
24499,-0.048851967,-0.08709717,-0.036758423,0.004248047,-0.013806152,-0.07115479,0.0
24500,-0.048851967,-0.08709717,-0.036758423,-0.007434082,-0.015930176,-0.07115479,0.0
24501,0.016350746,-0.07772064,-0.06186676,-0.007434082,-0.015930176,-0.07115479,0.0
24502,0.016350746,-0.07772064,-0.06186676,-0.020178223,-0.0180542,-0.059472658,0.0
24503,0.023237228,-0.06060028,-0.050151825,-0.020178223,-0.0180542,-0.059472658,0.0
24504,0.023237228,-0.06060028,-0.050151825,-0.028674318,-0.0180542,-0.0541626,0.0
24505,0.012877464,-6.790161E-4,-0.0016326904,-0.028674318,-0.0180542,-0.0541626,0.0
24506,0.012877464,-6.790161E-4,-0.0016326904,-0.038232423,-0.0180542,-0.060534667,0.0
24507,0.004125595,0.008163452,0.029224396,-0.038232423,-0.0180542,-0.060534667,0.0
24508,0.004125595,0.008163452,0.029224396,-0.03717041,-0.015930176,-0.06796875,0.0
24509,-0.010139465,0.03766632,0.09132385,-0.03717041,-0.015930176,-0.06796875,0.0
24510,-0.010139465,0.03766632,0.09132385,-0.043542482,-0.0053100586,-0.081774905,0.0
24511,-0.021978378,0.029823303,0.07172775,-0.043542482,-0.0053100586,-0.081774905,0.0
24512,-0.021978378,0.029823303,0.07172775,-0.038232423,-0.0053100586,-0.08283692,0.0
24513,-0.03165722,0.006538391,0.02783966,-0.038232423,-0.0053100586,-0.08283692,0.0
24514,-0.03165722,0.006538391,0.02783966,-0.021240234,0.0031860352,-0.087084964,0.0
24515,-0.031881332,-0.009590149,0.018440247,-0.021240234,0.0031860352,-0.087084964,0.0
24516,-0.031881332,-0.009590149,0.018440247,-0.0180542,0.0053100586,-0.087084964,0.0
24517,-0.02358818,-0.034492493,0.005783081,-0.0180542,0.0053100586,-0.087084964,0.0
24518,-0.02358818,-0.034492493,0.005783081,-0.0180542,0.011682129,-0.09239502,0.0
24519,-0.028160095,-0.04550171,-0.018753052,-0.0180542,0.011682129,-0.09239502,0.0
24520,-0.028160095,-0.04550171,-0.018753052,-0.021240234,0.012744141,-0.090270996,0.0
24521,-0.02843666,-0.053749084,-0.045028687,-0.021240234,0.012744141,-0.090270996,0.0
24522,-0.02843666,-0.053749084,-0.045028687,-0.03079834,0.010620117,-0.093457036,0.0
24523,-0.016523361,-0.06328583,-0.062026978,-0.03079834,0.010620117,-0.093457036,0.0
24524,-0.016523361,-0.06328583,-0.062026978,-0.03186035,0.009558106,-0.08496094,0.0
24525,-0.034812927,-0.06626892,-0.054641724,-0.03186035,0.009558106,-0.08496094,0.0
24526,-0.034812927,-0.06626892,-0.054641724,-0.026550293,-0.020178223,-0.0722168,0.0
24527,-0.05043316,-0.065956116,-0.029579163,-0.026550293,-0.020178223,-0.0722168,0.0
24528,-0.05043316,-0.065956116,-0.029579163,-0.013806152,-0.029736329,-0.06690674,0.0
24529,-0.071229935,-0.06919861,0.010650635,-0.013806152,-0.029736329,-0.06690674,0.0
24530,-0.071229935,-0.06919861,0.010650635,-0.0031860352,-0.04248047,-0.06159668,0.0
24531,-0.0684948,-0.036643982,0.024082184,-0.0031860352,-0.04248047,-0.06159668,0.0
24532,-0.0684948,-0.036643982,0.024082184,-0.011682129,-0.04460449,-0.05628662,0.0
24533,-0.04302883,-0.010421753,0.027065277,-0.011682129,-0.04460449,-0.05628662,0.0
24534,-0.04302883,-0.010421753,0.027065277,-0.014868164,-0.043542482,-0.050976563,0.0
24535,-0.021654129,-0.022888184,0.03319931,-0.014868164,-0.043542482,-0.050976563,0.0
24536,-0.021654129,-0.022888184,0.03319931,-0.012744141,-0.04248047,-0.043542482,0.0
24537,-0.003578186,-0.05556488,0.0373497,-0.012744141,-0.04248047,-0.043542482,0.0
24538,-0.003578186,-0.05556488,0.0373497,0.0031860352,-0.040356446,-0.03079834,0.0
24539,-0.010760307,-0.053245544,0.04465103,0.0031860352,-0.040356446,-0.03079834,0.0
24540,-0.010760307,-0.053245544,0.04465103,-0.0053100586,-0.0361084,-0.023364259,0.0
24541,-0.011770248,-0.03263855,0.04531479,-0.0053100586,-0.0361084,-0.023364259,0.0
24542,-0.011770248,-0.03263855,0.04531479,0.009558106,-0.0361084,-0.012744141,0.0
24543,0.006965637,-0.01625061,0.04150009,0.009558106,-0.0361084,-0.012744141,0.0
24544,0.006965637,-0.01625061,0.04150009,0.008496094,-0.032922365,-0.0021240234,0.0
24545,0.027508736,0.0065689087,0.038547516,0.008496094,-0.032922365,-0.0021240234,0.0
24546,0.027508736,0.0065689087,0.038547516,0.004248047,-0.03079834,0.009558106,0.0
24547,0.048337936,0.026664734,0.037330627,0.004248047,-0.03079834,0.009558106,0.0
24548,0.048337936,0.026664734,0.037330627,-0.0021240234,-0.029736329,0.011682129,0.0
24549,0.058555603,0.042411804,0.030914307,-0.0021240234,-0.029736329,0.011682129,0.0
24550,0.058555603,0.042411804,0.030914307,0.0031860352,-0.021240234,0.019116212,0.0
24551,0.052435875,0.050605774,0.0011482239,0.0031860352,-0.021240234,0.019116212,0.0
24552,0.052435875,0.050605774,0.0011482239,0.010620117,-0.013806152,0.021240234,0.0
24553,0.044341087,0.064888,-0.04244232,0.010620117,-0.013806152,0.021240234,0.0
24554,0.044341087,0.064888,-0.04244232,0.008496094,-0.010620117,0.022302246,0.0
24555,0.0444088,0.08847046,-0.0716362,0.008496094,-0.010620117,0.022302246,0.0
24556,0.0444088,0.08847046,-0.0716362,-0.0021240234,-0.014868164,0.013806152,0.0
24557,0.043754578,0.073135376,-0.055660248,-0.0021240234,-0.014868164,0.013806152,0.0
24558,0.043754578,0.073135376,-0.055660248,-0.0053100586,-0.020178223,0.013806152,0.0
24559,0.054389,0.028892517,-0.028476715,-0.0053100586,-0.020178223,0.013806152,0.0
24560,0.054389,0.028892517,-0.028476715,0.010620117,-0.026550293,0.015930176,0.0
24561,0.059282303,0.020271301,-0.018486023,0.010620117,-0.026550293,0.015930176,0.0
24562,0.059282303,0.020271301,-0.018486023,0.0063720704,-0.02442627,0.015930176,0.0
24563,0.04369068,0.05683136,-0.012699127,0.0063720704,-0.02442627,0.015930176,0.0
24564,0.04369068,0.05683136,-0.012699127,-0.009558106,-0.023364259,0.011682129,0.0
24565,0.027347565,0.08257294,-0.015357971,-0.009558106,-0.023364259,0.011682129,0.0
24566,0.027347565,0.08257294,-0.015357971,-0.021240234,-0.022302246,0.008496094,0.0
24567,0.013589859,0.061515808,-0.016288757,-0.021240234,-0.022302246,0.008496094,0.0
24568,0.013589859,0.061515808,-0.016288757,-0.02442627,-0.026550293,0.004248047,0.0
24569,0.025263786,0.0048294067,0.008636475,-0.02442627,-0.026550293,0.004248047,0.0
24570,0.025263786,0.0048294067,0.008636475,-0.0031860352,-0.029736329,0.0053100586,0.0
24571,0.04200077,-0.038375854,0.04258728,-0.0031860352,-0.029736329,0.0053100586,0.0
24572,0.04200077,-0.038375854,0.04258728,0.009558106,-0.029736329,0.0010620117,0.0
24573,0.047053337,-0.024246216,0.06557846,0.009558106,-0.029736329,0.0010620117,0.0
24574,0.047053337,-0.024246216,0.06557846,0.008496094,-0.027612304,-0.0031860352,0.0
24575,0.04306221,0.014564514,0.058200836,0.008496094,-0.027612304,-0.0031860352,0.0
24576,0.04306221,0.014564514,0.058200836,-0.0010620117,-0.026550293,-0.012744141,0.0
24577,0.044459343,0.030807495,0.025173187,-0.0010620117,-0.026550293,-0.012744141,0.0
24578,0.044459343,0.030807495,0.025173187,-0.0063720704,-0.015930176,-0.012744141,0.0
24579,0.023604393,0.04763031,-0.013832092,-0.0063720704,-0.015930176,-0.012744141,0.0
24580,0.023604393,0.04763031,-0.013832092,-0.008496094,-0.010620117,-0.015930176,0.0
24581,-0.01226902,0.07966614,-0.045539856,-0.008496094,-0.010620117,-0.015930176,0.0
24582,-0.01226902,0.07966614,-0.045539856,-0.016992187,-0.0063720704,-0.023364259,0.0
24583,-0.045752525,0.07741547,-0.06324768,-0.016992187,-0.0063720704,-0.023364259,0.0
24584,-0.045752525,0.07741547,-0.06324768,-0.016992187,-0.009558106,-0.03079834,0.0
24585,-0.047112465,0.032447815,-0.05007553,-0.016992187,-0.009558106,-0.03079834,0.0
24586,-0.047112465,0.032447815,-0.05007553,-0.014868164,-0.012744141,-0.04248047,0.0
24587,-0.01895237,-0.018486023,-0.02620697,-0.014868164,-0.012744141,-0.04248047,0.0
24588,-0.01895237,-0.018486023,-0.02620697,-0.026550293,-0.014868164,-0.050976563,0.0
24589,0.0020503998,-0.024269104,-0.016460419,-0.026550293,-0.014868164,-0.050976563,0.0
24590,0.0020503998,-0.024269104,-0.016460419,-0.045666505,-0.02442627,-0.06159668,0.0
24591,0.017252922,-0.032669067,7.8582764E-4,-0.045666505,-0.02442627,-0.06159668,0.0
24592,0.017252922,-0.032669067,7.8582764E-4,-0.04248047,-0.03717041,-0.06265869,0.0
24593,0.029366493,-0.06803131,0.024406433,-0.04248047,-0.03717041,-0.06265869,0.0
24594,0.029366493,-0.06803131,0.024406433,-0.015930176,-0.04248047,-0.05628662,0.0
24595,0.029366493,-0.06803131,0.024406433,-0.015930176,-0.04248047,-0.05628662,0.0
24596,0.02803421,-0.08180237,0.038211823,-0.015930176,-0.04248047,-0.05628662,0.0
24597,0.02803421,-0.08180237,0.038211823,-0.010620117,-0.035046387,-0.058410645,0.0
24598,0.003824234,-0.039711,0.041275024,-0.010620117,-0.035046387,-0.058410645,0.0
24599,0.003824234,-0.039711,0.041275024,-0.013806152,-0.032922365,-0.06159668,0.0
24600,-0.030522346,0.010818481,0.033359528,-0.013806152,-0.032922365,-0.06159668,0.0
24601,-0.030522346,0.010818481,0.033359528,-0.033984374,-0.025488282,-0.06584473,0.0
24602,-0.05812168,0.036071777,0.01964569,-0.033984374,-0.025488282,-0.06584473,0.0
24603,-0.05812168,0.036071777,0.01964569,-0.0361084,-0.025488282,-0.06903076,0.0
24604,-0.053565025,-0.014221191,0.018913269,-0.0361084,-0.025488282,-0.06903076,0.0
24605,-0.053565025,-0.014221191,0.018913269,-0.011682129,-0.026550293,-0.070092775,0.0
24606,-0.026983261,-0.07839203,0.040447235,-0.011682129,-0.026550293,-0.070092775,0.0
24607,-0.026983261,-0.07839203,0.040447235,-0.0031860352,-0.025488282,-0.070092775,0.0
24608,-0.0055093765,-0.07131958,0.05073929,-0.0031860352,-0.025488282,-0.070092775,0.0
24609,-0.0055093765,-0.07131958,0.05073929,-0.028674318,-0.025488282,-0.06903076,0.0
24610,-0.007214546,-0.028465271,0.042129517,-0.028674318,-0.025488282,-0.06903076,0.0
24611,-0.007214546,-0.028465271,0.042129517,-0.04991455,-0.025488282,-0.0637207,0.0
24612,-0.030747414,-0.027763367,0.023731232,-0.04991455,-0.025488282,-0.0637207,0.0
24613,-0.030747414,-0.027763367,0.023731232,-0.04248047,-0.023364259,-0.05628662,0.0
24614,-0.048743248,-0.05089569,-0.0117378235,-0.04248047,-0.023364259,-0.05628662,0.0
24615,-0.048743248,-0.05089569,-0.0117378235,-0.026550293,-0.022302246,-0.047790527,0.0
24616,-0.055217743,-0.0554657,-0.04937744,-0.026550293,-0.022302246,-0.047790527,0.0
24617,-0.055217743,-0.0554657,-0.04937744,-0.011682129,-0.02442627,-0.043542482,0.0
24618,-0.048934937,-0.020187378,-0.052028656,-0.011682129,-0.02442627,-0.043542482,0.0
24619,-0.048934937,-0.020187378,-0.052028656,-0.022302246,-0.02442627,-0.04460449,0.0
24620,-0.028467178,-0.011375427,-0.02773285,-0.022302246,-0.02442627,-0.04460449,0.0
24621,-0.028467178,-0.011375427,-0.02773285,-0.010620117,-0.026550293,-0.038232423,0.0
24622,-0.0080394745,-0.01876831,-0.007671356,-0.010620117,-0.026550293,-0.038232423,0.0
24623,-0.0080394745,-0.01876831,-0.007671356,-0.022302246,-0.027612304,-0.03717041,0.0
24624,0.0044202805,-0.009559631,0.008239746,-0.022302246,-0.027612304,-0.03717041,0.0
24625,0.0044202805,-0.009559631,0.008239746,-0.016992187,-0.03186035,-0.032922365,0.0
24626,0.018270493,-0.008918762,0.021827698,-0.016992187,-0.03186035,-0.032922365,0.0
24627,0.018270493,-0.008918762,0.021827698,-0.020178223,-0.029736329,-0.033984374,0.0
24628,0.026079178,-0.012863159,0.016159058,-0.020178223,-0.029736329,-0.033984374,0.0
24629,0.026079178,-0.012863159,0.016159058,-0.019116212,-0.025488282,-0.03079834,0.0
24630,0.013539314,0.0012664795,0.016906738,-0.019116212,-0.025488282,-0.03079834,0.0
24631,0.013539314,0.0012664795,0.016906738,-0.0361084,-0.022302246,-0.03186035,0.0
24632,-0.015413284,0.017288208,0.021961212,-0.0361084,-0.022302246,-0.03186035,0.0
24633,-0.015413284,0.017288208,0.021961212,-0.04248047,-0.021240234,-0.028674318,0.0
24634,-0.030591965,0.007522583,0.022209167,-0.04248047,-0.021240234,-0.028674318,0.0
24635,-0.030591965,0.007522583,0.022209167,-0.035046387,-0.02442627,-0.023364259,0.0
24636,-0.03085804,-0.008018494,0.014228821,-0.035046387,-0.02442627,-0.023364259,0.0
24637,-0.03085804,-0.008018494,0.014228821,-0.03079834,-0.026550293,-0.022302246,0.0
24638,-0.026834488,-0.016410828,0.0037651062,-0.03079834,-0.026550293,-0.022302246,0.0
24639,-0.026834488,-0.016410828,0.0037651062,-0.02442627,-0.026550293,-0.0180542,0.0
24640,-0.0043535233,-0.0233078,0.0027656555,-0.02442627,-0.026550293,-0.0180542,0.0
24641,-0.0043535233,-0.0233078,0.0027656555,-0.023364259,-0.025488282,-0.0180542,0.0
24642,0.025399208,-0.041633606,0.0042152405,-0.023364259,-0.025488282,-0.0180542,0.0
24643,0.025399208,-0.041633606,0.0042152405,-0.012744141,-0.020178223,-0.009558106,0.0
24644,0.041998863,-0.04863739,-0.0028038025,-0.012744141,-0.020178223,-0.009558106,0.0
24645,0.041998863,-0.04863739,-0.0028038025,-0.011682129,-0.016992187,-0.007434082,0.0
24646,0.025896072,-0.03364563,0.0030174255,-0.011682129,-0.016992187,-0.007434082,0.0
24647,0.025896072,-0.03364563,0.0030174255,-0.007434082,-0.016992187,0.0053100586,0.0
24648,0.0059947968,-0.009536743,0.015232086,-0.007434082,-0.016992187,0.0053100586,0.0
24649,0.0059947968,-0.009536743,0.015232086,-0.004248047,-0.013806152,0.009558106,0.0
24650,0.005747795,0.029174805,0.0056762695,-0.004248047,-0.013806152,0.009558106,0.0
24651,0.005747795,0.029174805,0.0056762695,-0.012744141,-0.013806152,0.012744141,0.0
24652,0.024447441,0.061210632,-0.02741623,-0.012744141,-0.013806152,0.012744141,0.0
24653,0.024447441,0.061210632,-0.02741623,-0.023364259,-0.0180542,0.010620117,0.0
24654,0.046278954,0.0552063,-0.015655518,-0.023364259,-0.0180542,0.010620117,0.0
24655,0.046278954,0.0552063,-0.015655518,-0.0180542,-0.022302246,0.007434082,0.0
24656,0.04431057,0.026916504,0.016563416,-0.0180542,-0.022302246,0.007434082,0.0
24657,0.04431057,0.026916504,0.016563416,-0.019116212,-0.025488282,0.0063720704,0.0
24658,0.015880585,0.024497986,0.020450592,-0.019116212,-0.025488282,0.0063720704,0.0
24659,0.015880585,0.024497986,0.020450592,-0.020178223,-0.026550293,0.009558106,0.0
24660,8.878708E-4,0.033821106,0.004070282,-0.020178223,-0.026550293,0.009558106,0.0
24661,8.878708E-4,0.033821106,0.004070282,-0.021240234,-0.027612304,0.010620117,0.0
24662,-0.0037574768,0.05014038,-0.02280426,-0.021240234,-0.027612304,0.010620117,0.0
24663,-0.0037574768,0.05014038,-0.02280426,-0.03717041,-0.027612304,0.0063720704,0.0
24664,-0.0037574768,0.05014038,-0.02280426,-0.047790527,-0.022302246,0.0010620117,0.0
24665,0.011605263,0.056030273,-0.036064148,-0.047790527,-0.022302246,0.0010620117,0.0
24666,0.022993088,0.03781891,-0.03409958,-0.047790527,-0.022302246,0.0010620117,0.0
24667,0.022993088,0.03781891,-0.03409958,-0.06584473,-0.020178223,-0.0053100586,0.0
24668,0.03178501,0.0332489,-0.025985718,-0.06584473,-0.020178223,-0.0053100586,0.0
24669,0.03178501,0.0332489,-0.025985718,-0.095581055,-0.025488282,-0.013806152,0.0
24670,0.030604362,0.023338318,-0.009792328,-0.095581055,-0.025488282,-0.013806152,0.0
24671,0.030604362,0.023338318,-0.009792328,-0.10513916,-0.032922365,-0.011682129,0.0
24672,0.028657913,0.007949829,0.016078949,-0.10513916,-0.032922365,-0.011682129,0.0
24673,0.028657913,0.007949829,0.016078949,-0.10938721,-0.04460449,-0.014868164,0.0
24674,0.030848503,-0.0160141,0.036750793,-0.10938721,-0.04460449,-0.014868164,0.0
24675,0.030848503,-0.0160141,0.036750793,-0.10089111,-0.043542482,-0.020178223,0.0
24676,0.025094032,-0.03679657,0.04390335,-0.10089111,-0.043542482,-0.020178223,0.0
24677,0.025094032,-0.03679657,0.04390335,-0.087084964,-0.040356446,-0.020178223,0.0
24678,0.01200676,-0.032684326,0.029190063,-0.087084964,-0.040356446,-0.020178223,0.0
24679,0.01200676,-0.032684326,0.029190063,-0.07434082,-0.035046387,-0.027612304,0.0
24680,-0.0019788742,-0.019065857,0.015907288,-0.07434082,-0.035046387,-0.027612304,0.0
24681,-0.0019788742,-0.019065857,0.015907288,-0.06903076,-0.029736329,-0.029736329,0.0
24682,-0.013032913,-0.012619019,0.023662567,-0.06903076,-0.029736329,-0.029736329,0.0
24683,-0.013032913,-0.012619019,0.023662567,-0.0637207,-0.023364259,-0.033984374,0.0
24684,-0.013929367,-0.027160645,0.044330597,-0.0637207,-0.023364259,-0.033984374,0.0
24685,-0.013929367,-0.027160645,0.044330597,-0.057348635,-0.022302246,-0.03186035,0.0
24686,-0.010777473,-0.042930603,0.052848816,-0.057348635,-0.022302246,-0.03186035,0.0
24687,-0.010777473,-0.042930603,0.052848816,-0.052038576,-0.022302246,-0.03079834,0.0
24688,0.0036945343,-0.051651,0.047698975,-0.052038576,-0.022302246,-0.03079834,0.0
24689,0.0036945343,-0.051651,0.047698975,-0.04991455,-0.021240234,-0.026550293,0.0
24690,0.019373894,-0.04673004,0.03219986,-0.04991455,-0.021240234,-0.026550293,0.0
24691,0.019373894,-0.04673004,0.03219986,-0.053100586,-0.019116212,-0.025488282,0.0
24692,0.017391205,-0.04660034,0.018901825,-0.053100586,-0.019116212,-0.025488282,0.0
24693,0.017391205,-0.04660034,0.018901825,-0.04141846,-0.0180542,-0.020178223,0.0
24694,0.008859634,-0.04701233,0.010688782,-0.04141846,-0.0180542,-0.020178223,0.0
24695,0.008859634,-0.04701233,0.010688782,-0.026550293,-0.015930176,-0.013806152,0.0
24696,0.008859634,-0.04701233,0.010688782,-0.026550293,-0.015930176,-0.013806152,0.0
24697,-0.00538826,-0.032485962,-4.234314E-4,-0.026550293,-0.015930176,-0.013806152,0.0
24698,-0.00538826,-0.032485962,-4.234314E-4,-0.025488282,-0.012744141,-0.011682129,0.0
24699,-0.019630432,0.0066375732,-0.0059776306,-0.025488282,-0.012744141,-0.011682129,0.0
24700,-0.019630432,0.0066375732,-0.0059776306,-0.0361084,-0.010620117,-0.010620117,0.0
24701,-0.015704155,0.039718628,-0.012397766,-0.0361084,-0.010620117,-0.010620117,0.0
24702,-0.015704155,0.039718628,-0.012397766,-0.059472658,-0.011682129,-0.013806152,0.0
24703,0.009970665,0.024368286,-0.005180359,-0.059472658,-0.011682129,-0.013806152,0.0
24704,0.009970665,0.024368286,-0.005180359,-0.05522461,-0.012744141,-0.015930176,0.0
24705,0.026055336,-0.008743286,0.014945984,-0.05522461,-0.012744141,-0.015930176,0.0
24706,0.026055336,-0.008743286,0.014945984,-0.033984374,-0.014868164,-0.011682129,0.0
24707,0.011969566,-0.0048828125,0.01940155,-0.033984374,-0.014868164,-0.011682129,0.0
24708,0.011969566,-0.0048828125,0.01940155,-0.033984374,-0.016992187,-0.014868164,0.0
24709,-0.018536568,0.024513245,0.0034103394,-0.033984374,-0.016992187,-0.014868164,0.0
24710,-0.018536568,0.024513245,0.0034103394,-0.026550293,-0.0180542,-0.011682129,0.0
24711,-0.031528473,0.040420532,-0.0015716553,-0.026550293,-0.0180542,-0.011682129,0.0
24712,-0.031528473,0.040420532,-0.0015716553,-0.028674318,-0.0180542,-0.014868164,0.0
24713,-0.014895439,0.025794983,-0.0025405884,-0.028674318,-0.0180542,-0.014868164,0.0
24714,-0.014895439,0.025794983,-0.0025405884,-0.022302246,-0.015930176,-0.013806152,0.0
24715,0.0021953583,-0.0023498535,-0.004425049,-0.022302246,-0.015930176,-0.013806152,0.0
24716,0.0021953583,-0.0023498535,-0.004425049,-0.014868164,-0.016992187,-0.012744141,0.0
24717,0.011961937,-0.013381958,-0.013473511,-0.014868164,-0.016992187,-0.012744141,0.0
24718,0.011961937,-0.013381958,-0.013473511,-0.014868164,-0.019116212,-0.014868164,0.0
24719,0.019628525,-0.018356323,-0.00907135,-0.014868164,-0.019116212,-0.014868164,0.0
24720,0.019628525,-0.018356323,-0.00907135,-0.014868164,-0.019116212,-0.007434082,0.0
24721,0.03347683,-0.017944336,-0.0049972534,-0.014868164,-0.019116212,-0.007434082,0.0
24722,0.03347683,-0.017944336,-0.0049972534,-0.023364259,-0.0180542,-0.0053100586,0.0
24723,0.040721893,-0.0010757446,0.007171631,-0.023364259,-0.0180542,-0.0053100586,0.0
24724,0.040721893,-0.0010757446,0.007171631,-0.033984374,-0.0180542,-0.0053100586,0.0
24725,0.03197956,0.0011901855,0.01625824,-0.033984374,-0.0180542,-0.0053100586,0.0
24726,0.03197956,0.0011901855,0.01625824,-0.022302246,-0.014868164,0.0,0.0
24727,0.017942429,-0.010009766,0.009723663,-0.022302246,-0.014868164,0.0,0.0
24728,0.017942429,-0.010009766,0.009723663,-0.0180542,-0.010620117,-0.0031860352,0.0
24729,0.0033187866,-0.0074691772,1.1444092E-4,-0.0180542,-0.010620117,-0.0031860352,0.0
24730,0.0033187866,-0.0074691772,1.1444092E-4,-0.011682129,-0.004248047,-0.0010620117,0.0
24731,-0.019818306,0.006729126,-0.0030975342,-0.011682129,-0.004248047,-0.0010620117,0.0
24732,-0.019818306,0.006729126,-0.0030975342,-0.02442627,-0.0021240234,-0.0021240234,0.0
24733,-0.03454399,0.011352539,-8.049011E-4,-0.02442627,-0.0021240234,-0.0021240234,0.0
24734,-0.03454399,0.011352539,-8.049011E-4,-0.028674318,-0.004248047,-0.0010620117,0.0
24735,-0.015684128,1.2207031E-4,-0.0023918152,-0.028674318,-0.004248047,-0.0010620117,0.0
24736,-0.015684128,1.2207031E-4,-0.0023918152,-0.03717041,-0.0063720704,-0.0031860352,0.0
24737,0.0070695877,-0.008377075,-0.014633179,-0.03717041,-0.0063720704,-0.0031860352,0.0
24738,0.0070695877,-0.008377075,-0.014633179,-0.039294433,-0.0063720704,-0.0010620117,0.0
24739,0.014431953,-0.013809204,-0.031448364,-0.039294433,-0.0063720704,-0.0010620117,0.0
24740,0.014431953,-0.013809204,-0.031448364,-0.047790527,-0.0053100586,0.0,0.0
24741,0.008688927,-0.019508362,-0.030822754,-0.047790527,-0.0053100586,0.0,0.0
24742,0.008688927,-0.019508362,-0.030822754,-0.028674318,-0.010620117,0.0,0.0
24743,0.002702713,-0.025894165,-0.0037384033,-0.028674318,-0.010620117,0.0,0.0
24744,0.002702713,-0.025894165,-0.0037384033,-0.016992187,-0.012744141,-0.0031860352,0.0
24745,0.017946243,-0.024551392,0.019435883,-0.016992187,-0.012744141,-0.0031860352,0.0
24746,0.017946243,-0.024551392,0.019435883,0.0031860352,-0.007434082,-0.0010620117,0.0
24747,0.030701637,0.007774353,0.026435852,0.0031860352,-0.007434082,-0.0010620117,0.0
24748,0.030701637,0.007774353,0.026435852,-0.004248047,0.0010620117,-0.0010620117,0.0
24749,0.016907692,0.041412354,0.010406494,-0.004248047,0.0010620117,-0.0010620117,0.0
24750,0.016907692,0.041412354,0.010406494,-0.026550293,0.0021240234,-0.007434082,0.0
24751,-0.0018062592,0.04714203,-5.1498413E-4,-0.026550293,0.0021240234,-0.007434082,0.0
24752,-0.0018062592,0.04714203,-5.1498413E-4,-0.04248047,0.0021240234,-0.011682129,0.0
24753,-0.0014448166,0.017074585,0.013542175,-0.04248047,0.0021240234,-0.011682129,0.0
24754,-0.0014448166,0.017074585,0.013542175,-0.033984374,0.0021240234,-0.013806152,0.0
24755,0.0026769638,-0.020324707,0.034332275,-0.033984374,0.0021240234,-0.013806152,0.0
24756,0.0026769638,-0.020324707,0.034332275,-0.015930176,-0.0010620117,-0.013806152,0.0
24757,-0.0016918182,-0.01625824,0.03129959,-0.015930176,-0.0010620117,-0.013806152,0.0
24758,-0.0016918182,-0.01625824,0.03129959,-0.015930176,-0.0010620117,-0.013806152,0.0
24759,-0.012840271,-5.41687E-4,0.029895782,-0.015930176,-0.0010620117,-0.013806152,0.0
24760,-0.012840271,-5.41687E-4,0.029895782,-0.022302246,0.0010620117,-0.016992187,0.0
24761,-0.002606392,-0.019584656,0.027748108,-0.022302246,0.0010620117,-0.016992187,0.0
24762,-0.002606392,-0.019584656,0.027748108,-0.0063720704,0.004248047,-0.012744141,0.0
24763,0.0027608871,-0.039093018,0.012836456,-0.0063720704,0.004248047,-0.012744141,0.0
24764,0.0027608871,-0.039093018,0.012836456,0.0010620117,0.011682129,-0.014868164,0.0
24765,-0.0037727356,-0.012123108,-0.03006363,0.0010620117,0.011682129,-0.014868164,0.0
24766,-0.0037727356,-0.012123108,-0.03006363,-0.012744141,0.020178223,-0.0180542,0.0
24767,-0.012820244,0.022415161,-0.074344635,-0.012744141,0.020178223,-0.0180542,0.0
24768,-0.012820244,0.022415161,-0.074344635,-0.03186035,0.0180542,-0.019116212,0.0
24769,-0.008803368,0.012573242,-0.06264877,-0.03186035,0.0180542,-0.019116212,0.0
24770,-0.008803368,0.012573242,-0.06264877,-0.035046387,0.013806152,-0.021240234,0.0
24771,-0.002770424,-0.018859863,-0.022003174,-0.035046387,0.013806152,-0.021240234,0.0
24772,-0.002770424,-0.018859863,-0.022003174,-0.03079834,0.0031860352,-0.019116212,0.0
24773,-0.0060367584,-0.02885437,0.0031738281,-0.03079834,0.0031860352,-0.019116212,0.0
24774,-0.0060367584,-0.02885437,0.0031738281,-0.027612304,-0.0063720704,-0.015930176,0.0
24775,-0.012495041,-0.009773254,0.008289337,-0.027612304,-0.0063720704,-0.015930176,0.0
24776,-0.012495041,-0.009773254,0.008289337,-0.03079834,-0.011682129,-0.015930176,0.0
24777,-0.0072250366,-0.0065841675,0.020706177,-0.03079834,-0.011682129,-0.015930176,0.0
24778,-0.0072250366,-0.0065841675,0.020706177,-0.023364259,-0.015930176,-0.015930176,0.0
24779,0.012176514,-0.039215088,0.04922104,-0.023364259,-0.015930176,-0.015930176,0.0
24780,0.012176514,-0.039215088,0.04922104,-0.011682129,-0.0180542,-0.016992187,0.0
24781,0.015942574,-0.058883667,0.06721115,-0.011682129,-0.0180542,-0.016992187,0.0
24782,0.015942574,-0.058883667,0.06721115,0.007434082,-0.020178223,-0.013806152,0.0
24783,2.0503998E-4,-0.020957947,0.04285431,0.007434082,-0.020178223,-0.013806152,0.0
24784,2.0503998E-4,-0.020957947,0.04285431,-0.0053100586,-0.012744141,-0.008496094,0.0
24785,-0.016180992,0.045417786,-0.044002533,-0.0053100586,-0.012744141,-0.008496094,0.0
24786,-0.016180992,0.045417786,-0.044002533,-0.03079834,-0.015930176,-0.012744141,0.0
24787,-0.02993679,0.0695343,-0.09941101,-0.03079834,-0.015930176,-0.012744141,0.0
24788,-0.02993679,0.0695343,-0.09941101,-0.04141846,-0.025488282,-0.019116212,0.0
24789,-0.049803734,0.02268982,-0.07442474,-0.04141846,-0.025488282,-0.019116212,0.0
24790,-0.049803734,0.02268982,-0.07442474,-0.022302246,-0.04141846,-0.019116212,0.0
24791,-0.051329613,-9.994507E-4,-0.028068542,-0.022302246,-0.04141846,-0.019116212,0.0
24792,-0.051329613,-9.994507E-4,-0.028068542,-0.0180542,-0.04991455,-0.013806152,0.0
24793,-0.033885956,0.036445618,-0.025749207,-0.0180542,-0.04991455,-0.013806152,0.0
24794,-0.033885956,0.036445618,-0.025749207,-0.04991455,-0.05522461,-0.015930176,0.0
24795,-0.005636215,0.056022644,-0.029083252,-0.04991455,-0.05522461,-0.015930176,0.0
24796,-0.005636215,0.056022644,-0.029083252,-0.06690674,-0.06159668,-0.023364259,0.0
24797,0.01649952,0.014175415,0.022434235,-0.06690674,-0.06159668,-0.023364259,0.0
24798,0.01649952,0.014175415,0.022434235,-0.059472658,-0.06903076,-0.020178223,0.0
24799,0.022940636,-0.03513336,0.09733963,-0.059472658,-0.06903076,-0.020178223,0.0
24800,0.022940636,-0.03513336,0.09733963,-0.046728518,-0.06903076,-0.0180542,0.0
24801,0.03611374,-0.060333252,0.15188217,-0.046728518,-0.06903076,-0.0180542,0.0
24802,0.03611374,-0.060333252,0.15188217,-0.0361084,-0.0637207,-0.014868164,0.0
24803,0.06715965,-0.045265198,0.14102173,-0.0361084,-0.0637207,-0.014868164,0.0
24804,0.06715965,-0.045265198,0.14102173,-0.04991455,-0.04460449,-0.008496094,0.0
24805,0.09748936,-0.020942688,0.089012146,-0.04991455,-0.04460449,-0.008496094,0.0
24806,0.09748936,-0.020942688,0.089012146,-0.05628662,-0.023364259,-0.007434082,0.0
24807,0.09331131,-0.005973816,0.043941498,-0.05628662,-0.023364259,-0.007434082,0.0
24808,0.09331131,-0.005973816,0.043941498,-0.045666505,-0.0010620117,-0.011682129,0.0
24809,0.057229996,0.032943726,0.009712219,-0.045666505,-0.0010620117,-0.011682129,0.0
24810,0.057229996,0.032943726,0.009712219,-0.052038576,0.025488282,-0.019116212,0.0
24811,0.005976677,0.079422,-0.037555695,-0.052038576,0.025488282,-0.019116212,0.0
24812,0.005976677,0.079422,-0.037555695,-0.057348635,0.033984374,-0.022302246,0.0
24813,-0.0053014755,0.077682495,-0.07104492,-0.057348635,0.033984374,-0.022302246,0.0
24814,-0.0053014755,0.077682495,-0.07104492,-0.060534667,0.029736329,-0.028674318,0.0
24815,0.019586563,0.021583557,-0.048511505,-0.060534667,0.029736329,-0.028674318,0.0
24816,0.019586563,0.021583557,-0.048511505,-0.050976563,0.03186035,-0.032922365,0.0
24817,0.0583086,-0.024124146,-0.015640259,-0.050976563,0.03186035,-0.032922365,0.0
24818,0.0583086,-0.024124146,-0.015640259,-0.052038576,0.032922365,-0.039294433,0.0
24819,0.074064255,-0.03328705,-0.011795044,-0.052038576,0.032922365,-0.039294433,0.0
24820,0.074064255,-0.03328705,-0.011795044,-0.06903076,0.040356446,-0.043542482,0.0
24821,0.037254333,-0.024101257,-0.01940918,-0.06903076,0.040356446,-0.043542482,0.0
24822,0.037254333,-0.024101257,-0.01940918,-0.078588866,0.04248047,-0.040356446,0.0
24823,-0.02333355,-0.02104187,-0.006210327,-0.078588866,0.04248047,-0.040356446,0.0
24824,-0.02333355,-0.02104187,-0.006210327,-0.0722168,0.0361084,-0.04460449,0.0
24825,-0.05284691,-0.035621643,0.033374786,-0.0722168,0.0361084,-0.04460449,0.0
24826,-0.05284691,-0.035621643,0.033374786,-0.045666505,0.035046387,-0.04141846,0.0
24827,-0.04209423,-0.03752899,0.055618286,-0.045666505,0.035046387,-0.04141846,0.0
24828,-0.04209423,-0.03752899,0.055618286,-0.040356446,0.04460449,-0.052038576,0.0
24829,-0.037129402,-4.9591064E-4,0.019821167,-0.040356446,0.04460449,-0.052038576,0.0
24830,-0.037129402,-4.9591064E-4,0.019821167,-0.0541626,0.050976563,-0.057348635,0.0
24831,-0.059915543,0.0104904175,-0.023647308,-0.0541626,0.050976563,-0.057348635,0.0
24832,-0.059915543,0.0104904175,-0.023647308,-0.057348635,0.053100586,-0.057348635,0.0
24833,-0.074373245,-0.0440979,-0.02230835,-0.057348635,0.053100586,-0.057348635,0.0
24834,-0.074373245,-0.0440979,-0.02230835,-0.023364259,0.050976563,-0.05522461,0.0
24835,-0.074373245,-0.0440979,-0.02230835,-0.023364259,0.050976563,-0.05522461,79.0
24836,-0.06256294,-0.08187103,-0.0044937134,-0.023364259,0.050976563,-0.05522461,79.0
24837,-0.06256294,-0.08187103,-0.0044937134,-0.0063720704,0.057348635,-0.05628662,79.0
24838,-0.037355423,-0.034713745,-0.035907745,-0.0063720704,0.057348635,-0.05628662,79.0
24839,-0.037355423,-0.034713745,-0.035907745,-0.028674318,0.06159668,-0.05628662,79.0
24840,-0.02141285,0.01360321,-0.09185791,-0.028674318,0.06159668,-0.05628662,79.0
24841,-0.02141285,0.01360321,-0.09185791,-0.0637207,0.057348635,-0.058410645,79.0
24842,-0.012943268,-0.020179749,-0.085876465,-0.0637207,0.057348635,-0.058410645,79.0
24843,-0.012943268,-0.020179749,-0.085876465,-0.05522461,0.046728518,-0.0541626,79.0
24844,-0.021767616,-0.08213806,-0.03142166,-0.05522461,0.046728518,-0.0541626,79.0
24845,-0.021767616,-0.08213806,-0.03142166,-0.0361084,0.03079834,-0.04248047,79.0
24846,-0.03740883,-0.08605194,0.009090424,-0.0361084,0.03079834,-0.04248047,79.0
24847,-0.03740883,-0.08605194,0.009090424,-0.027612304,0.013806152,-0.03717041,79.0
24848,-0.030573845,-0.038131714,0.023483276,-0.027612304,0.013806152,-0.03717041,79.0
24849,-0.030573845,-0.038131714,0.023483276,-0.03717041,0.010620117,-0.029736329,79.0
24850,-0.013240814,-0.0064468384,0.024108887,-0.03717041,0.010620117,-0.029736329,79.0
24851,-0.013240814,-0.0064468384,0.024108887,-0.039294433,0.009558106,-0.025488282,79.0
24852,-0.0066251755,-0.013496399,0.018383026,-0.039294433,0.009558106,-0.025488282,79.0
24853,-0.0066251755,-0.013496399,0.018383026,-0.011682129,0.014868164,-0.023364259,79.0
24854,-0.02754116,-0.012039185,0.012447357,-0.011682129,0.014868164,-0.023364259,79.0
24855,-0.02754116,-0.012039185,0.012447357,-0.0010620117,0.021240234,-0.023364259,79.0
24856,-0.044384003,0.027549744,0.004119873,-0.0010620117,0.021240234,-0.023364259,79.0
24857,-0.044384003,0.027549744,0.004119873,-0.020178223,0.021240234,-0.028674318,79.0
24858,-0.027755737,0.04121399,-6.2561035E-4,-0.020178223,0.021240234,-0.028674318,79.0
24859,-0.027755737,0.04121399,-6.2561035E-4,-0.033984374,0.019116212,-0.03079834,79.0
24860,0.0048217773,0.0020980835,0.010498047,-0.033984374,0.019116212,-0.03079834,79.0
24861,0.0048217773,0.0020980835,0.010498047,-0.022302246,0.013806152,-0.023364259,79.0
24862,0.026928902,-0.029769897,0.018909454,-0.022302246,0.013806152,-0.023364259,79.0
24863,0.026928902,-0.029769897,0.018909454,-0.014868164,0.011682129,-0.022302246,79.0
24864,0.014890671,-0.016151428,-0.0014381409,-0.014868164,0.011682129,-0.022302246,79.0
24865,0.014890671,-0.016151428,-0.0014381409,-0.016992187,0.008496094,-0.020178223,79.0
24866,4.1389465E-4,0.022506714,-0.026931763,-0.016992187,0.008496094,-0.020178223,79.0
24867,4.1389465E-4,0.022506714,-0.026931763,-0.022302246,0.007434082,-0.019116212,79.0
24868,-0.003501892,0.02684021,-0.03559494,-0.022302246,0.007434082,-0.019116212,79.0
24869,-0.003501892,0.02684021,-0.03559494,-0.022302246,0.0063720704,-0.019116212,79.0
24870,-0.0066223145,0.002319336,-0.036144257,-0.022302246,0.0063720704,-0.019116212,79.0
24871,-0.0066223145,0.002319336,-0.036144257,-0.009558106,-0.0021240234,-0.020178223,79.0
24872,-0.016797066,-0.009628296,-0.032737732,-0.009558106,-0.0021240234,-0.020178223,79.0
24873,-0.016797066,-0.009628296,-0.032737732,-0.011682129,-0.010620117,-0.019116212,79.0
24874,-0.01452446,-0.011009216,-0.012798309,-0.011682129,-0.010620117,-0.019116212,79.0
24875,-0.01452446,-0.011009216,-0.012798309,-0.022302246,-0.016992187,-0.016992187,79.0
24876,-0.0015611649,-0.007499695,0.01210022,-0.022302246,-0.016992187,-0.016992187,79.0
24877,-0.0015611649,-0.007499695,0.01210022,-0.025488282,-0.021240234,-0.011682129,79.0
24878,0.008382797,-0.004432678,0.032836914,-0.025488282,-0.021240234,-0.011682129,79.0
24879,0.008382797,-0.004432678,0.032836914,-0.03079834,-0.025488282,-0.007434082,79.0
24880,0.0044851303,-0.0066452026,0.037475586,-0.03079834,-0.025488282,-0.007434082,79.0
24881,0.0044851303,-0.0066452026,0.037475586,-0.013806152,-0.029736329,-0.0063720704,79.0
24882,-0.0022706985,-0.012969971,0.040172577,-0.013806152,-0.029736329,-0.0063720704,79.0
24883,-0.0022706985,-0.012969971,0.040172577,-0.0031860352,-0.025488282,-0.007434082,79.0
24884,0.015908241,0.008773804,0.033908844,-0.0031860352,-0.025488282,-0.007434082,79.0
24885,0.015908241,0.008773804,0.033908844,-0.007434082,-0.016992187,-0.007434082,79.0
24886,0.03523636,0.034347534,0.02445221,-0.007434082,-0.016992187,-0.007434082,79.0
24887,0.03523636,0.034347534,0.02445221,-0.022302246,-0.011682129,-0.012744141,79.0
24888,0.03201008,0.044532776,0.021442413,-0.022302246,-0.011682129,-0.012744141,79.0
24889,0.03201008,0.044532776,0.021442413,-0.03186035,-0.008496094,-0.0180542,79.0
24890,0.029013634,0.028671265,0.010795593,-0.03186035,-0.008496094,-0.0180542,79.0
24891,0.029013634,0.028671265,0.010795593,-0.0180542,-0.012744141,-0.0180542,79.0
24892,0.018425941,0.003768921,-0.009334564,-0.0180542,-0.012744141,-0.0180542,79.0
24893,0.018425941,0.003768921,-0.009334564,-0.0021240234,-0.014868164,-0.019116212,79.0
24894,0.0047798157,0.009338379,-0.021396637,-0.0021240234,-0.014868164,-0.019116212,79.0
24895,0.0047798157,0.009338379,-0.021396637,-0.010620117,-0.015930176,-0.027612304,79.0
24896,-0.0028409958,0.021560669,-0.026416779,-0.010620117,-0.015930176,-0.027612304,79.0
24897,-0.0028409958,0.021560669,-0.026416779,-0.029736329,-0.013806152,-0.032922365,79.0
24898,0.0019388199,0.009231567,-0.028701782,-0.029736329,-0.013806152,-0.032922365,79.0
24899,0.0019388199,0.009231567,-0.028701782,-0.035046387,-0.019116212,-0.0361084,79.0
24900,9.403229E-4,-0.028320312,-0.01108551,-0.035046387,-0.019116212,-0.0361084,79.0
24901,9.403229E-4,-0.028320312,-0.01108551,-0.027612304,-0.027612304,-0.040356446,79.0
24902,-2.7275085E-4,-0.059280396,0.029338837,-0.027612304,-0.027612304,-0.040356446,79.0
24903,-2.7275085E-4,-0.059280396,0.029338837,-0.019116212,-0.033984374,-0.03717041,79.0
24904,0.0059947968,-0.05344391,0.07367706,-0.019116212,-0.033984374,-0.03717041,79.0
24905,0.0059947968,-0.05344391,0.07367706,-0.026550293,-0.029736329,-0.046728518,79.0
24906,0.01535511,-0.021331787,0.09386444,-0.026550293,-0.029736329,-0.046728518,79.0
24907,0.01535511,-0.021331787,0.09386444,-0.040356446,-0.015930176,-0.050976563,79.0
24908,0.027921677,0.004310608,0.062446594,-0.040356446,-0.015930176,-0.050976563,79.0
24909,0.027921677,0.004310608,0.062446594,-0.038232423,-0.0031860352,-0.050976563,79.0
24910,0.026939392,0.020729065,0.01348114,-0.038232423,-0.0031860352,-0.050976563,79.0
24911,0.026939392,0.020729065,0.01348114,-0.039294433,0.012744141,-0.053100586,79.0
24912,0.015240669,0.02658081,-0.026031494,-0.039294433,0.012744141,-0.053100586,79.0
24913,0.015240669,0.02658081,-0.026031494,-0.04885254,0.015930176,-0.05628662,79.0
24914,0.02878189,0.008094788,-0.023265839,-0.04885254,0.015930176,-0.05628662,79.0
24915,0.02878189,0.008094788,-0.023265839,-0.050976563,0.021240234,-0.06159668,79.0
24916,0.03677082,0.0055999756,0.0054130554,-0.050976563,0.021240234,-0.06159668,79.0
24917,0.03677082,0.0055999756,0.0054130554,-0.057348635,0.029736329,-0.05522461,79.0
24918,0.01291275,0.043174744,-0.012908936,-0.057348635,0.029736329,-0.05522461,79.0
24919,0.01291275,0.043174744,-0.012908936,-0.07115479,0.028674318,-0.053100586,79.0
24920,-0.028988838,0.06991577,-0.054031372,-0.07115479,0.028674318,-0.053100586,79.0
24921,-0.028988838,0.06991577,-0.054031372,-0.06690674,0.025488282,-0.04885254,79.0
24922,-0.0628643,0.03617096,-0.04216385,-0.06690674,0.025488282,-0.04885254,79.0
24923,-0.0628643,0.03617096,-0.04216385,-0.043542482,0.022302246,-0.04991455,79.0
24924,-0.07459545,-0.019096375,-0.015163422,-0.043542482,0.022302246,-0.04991455,79.0
24925,-0.07459545,-0.019096375,-0.015163422,-0.03186035,0.02442627,-0.050976563,79.0
24926,-0.045808792,-0.03201294,-0.019477844,-0.03186035,0.02442627,-0.050976563,79.0
24927,-0.045808792,-0.03201294,-0.019477844,-0.046728518,0.022302246,-0.04991455,79.0
24928,-0.008180618,-0.025512695,-0.028045654,-0.046728518,0.022302246,-0.04991455,79.0
24929,-0.008180618,-0.025512695,-0.028045654,-0.0637207,0.011682129,-0.052038576,79.0
24930,0.025169373,-0.058311462,0.008338928,-0.0637207,0.011682129,-0.052038576,79.0
24931,0.025169373,-0.058311462,0.008338928,-0.059472658,0.0063720704,-0.045666505,79.0
24932,0.032831192,-0.09215546,0.06414032,-0.059472658,0.0063720704,-0.045666505,79.0
24933,0.032831192,-0.09215546,0.06414032,-0.050976563,0.0053100586,-0.040356446,79.0
24934,0.027888298,-0.06977081,0.07343292,-0.050976563,0.0053100586,-0.040356446,79.0
24935,0.027888298,-0.06977081,0.07343292,-0.04141846,0.007434082,-0.0361084,79.0
24936,0.021017075,-0.001876831,0.05305481,-0.04141846,0.007434082,-0.0361084,79.0
24937,0.021017075,-0.001876831,0.05305481,-0.0541626,0.015930176,-0.04141846,79.0
24938,0.021017075,-0.001876831,0.05305481,-0.06478272,0.03186035,-0.058410645,79.0
24939,0.011942863,0.056129456,0.040138245,-0.06478272,0.03186035,-0.058410645,79.0
24940,-0.0037145615,0.07431793,0.017707825,-0.06478272,0.03186035,-0.058410645,79.0
24941,-0.0037145615,0.07431793,0.017707825,-0.06584473,0.040356446,-0.0722168,79.0
24942,-0.021184921,0.04814148,-0.005302429,-0.06584473,0.040356446,-0.0722168,79.0
24943,-0.021184921,0.04814148,-0.005302429,-0.045666505,0.033984374,-0.08071289,79.0
24944,-0.024540901,-0.0019760132,0.0054626465,-0.045666505,0.033984374,-0.08071289,79.0
24945,-0.024540901,-0.0019760132,0.0054626465,-0.021240234,0.029736329,-0.083898924,79.0
24946,-0.015835762,-0.031692505,0.016834259,-0.021240234,0.029736329,-0.083898924,79.0
24947,-0.015835762,-0.031692505,0.016834259,-0.027612304,0.0361084,-0.090270996,79.0
24948,0.0068502426,-0.046592712,-5.722046E-5,-0.027612304,0.0361084,-0.090270996,79.0
24949,0.0068502426,-0.046592712,-5.722046E-5,-0.027612304,0.0361084,-0.090270996,77.0
24950,0.0068502426,-0.046592712,-5.722046E-5,-0.04141846,0.046728518,-0.093457036,77.0
24951,0.022192001,-0.06980896,-0.029975891,-0.04141846,0.046728518,-0.093457036,77.0
24952,0.022192001,-0.06980896,-0.029975891,-0.045666505,0.06159668,-0.09451904,77.0
24953,0.008415222,-0.081077576,-0.036102295,-0.045666505,0.06159668,-0.09451904,77.0
24954,0.008415222,-0.081077576,-0.036102295,-0.04460449,0.07327881,-0.098767094,77.0
24955,-0.028948784,-0.063446045,-0.014965057,-0.04460449,0.07327881,-0.098767094,77.0
24956,-0.028948784,-0.063446045,-0.014965057,-0.04248047,0.07965088,-0.0998291,77.0
24957,-0.058473587,-0.018447876,-0.01739502,-0.04248047,0.07965088,-0.0998291,77.0
24958,-0.058473587,-0.018447876,-0.01739502,-0.050976563,0.08283692,-0.10089111,77.0
24959,-0.07450104,0.01424408,-0.041648865,-0.050976563,0.08283692,-0.10089111,77.0
24960,-0.07450104,0.01424408,-0.041648865,-0.053100586,0.08071289,-0.098767094,77.0
24961,-0.08378315,0.0210495,-0.06086731,-0.053100586,0.08071289,-0.098767094,77.0
24962,-0.08378315,0.0210495,-0.06086731,-0.053100586,0.078588866,-0.10195313,77.0
24963,-0.084067345,-0.008560181,-0.04940033,-0.053100586,0.078588866,-0.10195313,77.0
24964,-0.084067345,-0.008560181,-0.04940033,-0.047790527,0.07434082,-0.10513916,77.0
24965,-0.06619167,-0.033302307,-0.028495789,-0.047790527,0.07434082,-0.10513916,77.0
24966,-0.06619167,-0.033302307,-0.028495789,-0.046728518,0.06903076,-0.11044922,77.0
24967,-0.044249535,-0.048698425,-0.01878357,-0.046728518,0.06903076,-0.11044922,77.0
24968,-0.044249535,-0.048698425,-0.01878357,-0.050976563,0.06903076,-0.11044922,77.0
24969,-0.037950516,-0.05253601,-0.0142707825,-0.050976563,0.06903076,-0.11044922,77.0
24970,-0.037950516,-0.05253601,-0.0142707825,-0.0637207,0.07115479,-0.10938721,77.0
24971,-0.05969429,-0.050575256,-0.020889282,-0.0637207,0.07115479,-0.10938721,77.0
24972,-0.05969429,-0.050575256,-0.020889282,-0.07540283,0.06584473,-0.10407715,77.0
24973,-0.08182526,-0.06047821,-0.013523102,-0.07540283,0.06584473,-0.10407715,77.0
24974,-0.08182526,-0.06047821,-0.013523102,-0.070092775,0.053100586,-0.1083252,77.0
24975,-0.08828735,-0.08811951,0.0035972595,-0.070092775,0.053100586,-0.1083252,77.0
24976,-0.08828735,-0.08811951,0.0035972595,-0.052038576,0.043542482,-0.09770508,77.0
24977,-0.08583927,-0.10255432,0.009723663,-0.052038576,0.043542482,-0.09770508,77.0
24978,-0.08583927,-0.10255432,0.009723663,-0.046728518,0.033984374,-0.08814698,77.0
24979,-0.079621315,-0.08992767,3.8146973E-6,-0.046728518,0.033984374,-0.08814698,77.0
24980,-0.079621315,-0.08992767,3.8146973E-6,-0.04460449,0.025488282,-0.07434082,77.0
24981,-0.082141876,-0.08693695,0.015590668,-0.04460449,0.025488282,-0.07434082,77.0
24982,-0.082141876,-0.08693695,0.015590668,-0.0361084,0.016992187,-0.06690674,77.0
24983,-0.079520226,-0.104011536,0.04588318,-0.0361084,0.016992187,-0.06690674,77.0
24984,-0.079520226,-0.104011536,0.04588318,-0.012744141,0.013806152,-0.050976563,77.0
24985,-0.05708599,-0.101615906,0.042541504,-0.012744141,0.013806152,-0.050976563,77.0
24986,-0.05708599,-0.101615906,0.042541504,-0.0053100586,0.015930176,-0.038232423,77.0
24987,-0.041090965,-0.055351257,0.009178162,-0.0053100586,0.015930176,-0.038232423,77.0
24988,-0.041090965,-0.055351257,0.009178162,-0.010620117,0.014868164,-0.019116212,77.0
24989,-0.028014183,-0.009811401,-0.013130188,-0.010620117,0.014868164,-0.019116212,77.0
24990,-0.028014183,-0.009811401,-0.013130188,-0.008496094,0.008496094,-0.009558106,77.0
24991,0.005505562,0.0072402954,0.0031814575,-0.008496094,0.008496094,-0.009558106,77.0
24992,0.005505562,0.0072402954,0.0031814575,0.014868164,0.0010620117,0.0031860352,77.0
24993,0.03285885,0.035942078,0.015262604,0.014868164,0.0010620117,0.0031860352,77.0
24994,0.03285885,0.035942078,0.015262604,0.023364259,-0.0031860352,0.009558106,77.0
24995,0.055291176,0.07102966,-0.0019226074,0.023364259,-0.0031860352,0.009558106,77.0
24996,0.055291176,0.07102966,-0.0019226074,0.0180542,-0.0031860352,0.013806152,77.0
24997,0.06935501,0.09605408,-0.014759064,0.0180542,-0.0031860352,0.013806152,77.0
24998,0.06935501,0.09605408,-0.014759064,0.008496094,-0.0010620117,0.012744141,77.0
24999,0.06528664,0.093322754,-0.009487152,0.008496094,-0.0010620117,0.012744141,77.0
25000,0.06528664,0.093322754,-0.009487152,0.007434082,0.0021240234,0.013806152,77.0
25001,0.035310745,0.06825256,0.002407074,0.007434082,0.0021240234,0.013806152,77.0
25002,0.035310745,0.06825256,0.002407074,0.009558106,0.0,0.013806152,77.0
25003,0.022877693,0.040382385,0.0040130615,0.009558106,0.0,0.013806152,77.0
25004,0.022877693,0.040382385,0.0040130615,0.010620117,0.0,0.014868164,77.0
25005,0.020718575,0.0033111572,0.0057258606,0.010620117,0.0,0.014868164,77.0
25006,0.020718575,0.0033111572,0.0057258606,0.0053100586,0.0010620117,0.0180542,77.0
25007,0.023044586,-0.0029678345,0.0033874512,0.0053100586,0.0010620117,0.0180542,77.0
25008,0.023044586,-0.0029678345,0.0033874512,0.004248047,0.0,0.019116212,77.0
25009,0.025418282,0.004020691,-0.0023918152,0.004248047,0.0,0.019116212,77.0
25010,0.025418282,0.004020691,-0.0023918152,0.0053100586,-0.0021240234,0.025488282,77.0
25011,0.0157938,0.013557434,-0.0068473816,0.0053100586,-0.0021240234,0.025488282,77.0
25012,0.0157938,0.013557434,-0.0068473816,0.0031860352,-0.0053100586,0.02442627,77.0
25013,0.023352623,0.03593445,-0.0071258545,0.0031860352,-0.0053100586,0.02442627,77.0
25014,0.023352623,0.03593445,-0.0071258545,0.009558106,-0.010620117,0.022302246,77.0
25015,0.025261879,0.0419693,3.1661987E-4,0.009558106,-0.010620117,0.022302246,77.0
25016,0.025261879,0.0419693,3.1661987E-4,0.009558106,-0.010620117,0.020178223,77.0
25017,0.044574738,0.042289734,0.014953613,0.009558106,-0.010620117,0.020178223,77.0
25018,0.044574738,0.042289734,0.014953613,0.0180542,-0.016992187,0.016992187,77.0
25019,0.05234623,0.022857666,0.033786774,0.0180542,-0.016992187,0.016992187,77.0
25020,0.05234623,0.022857666,0.033786774,0.025488282,-0.020178223,0.021240234,77.0
25021,0.1427803,-0.016944885,0.19314194,0.025488282,-0.020178223,0.021240234,77.0
25022,0.1427803,-0.016944885,0.19314194,0.023364259,-0.009558106,0.009558106,77.0
25023,0.15727806,0.0058288574,0.23020935,0.023364259,-0.009558106,0.009558106,77.0
25024,0.15727806,0.0058288574,0.23020935,0.0010620117,0.0031860352,-0.0010620117,77.0
25025,0.21934032,0.08836365,0.34650803,0.0010620117,0.0031860352,-0.0010620117,77.0
25026,0.21934032,0.08836365,0.34650803,-0.07327881,0.03717041,-0.03079834,77.0
25027,0.2663412,0.19797516,0.424263,-0.07327881,0.03717041,-0.03079834,77.0
25028,0.2663412,0.19797516,0.424263,-0.15080567,0.10195313,-0.078588866,77.0
25029,0.24173546,0.29141998,0.4310112,-0.15080567,0.10195313,-0.078588866,77.0
25030,0.24173546,0.29141998,0.4310112,-0.1901001,0.1901001,-0.12850343,77.0
25031,0.13202381,0.3603058,0.32370377,-0.1901001,0.1901001,-0.12850343,77.0
25032,0.13202381,0.3603058,0.32370377,-0.18054199,0.27293703,-0.14124756,77.0
25033,-0.031538963,0.41127014,0.11672592,-0.18054199,0.27293703,-0.14124756,77.0
25034,-0.031538963,0.41127014,0.11672592,-0.15930176,0.3536499,-0.16567384,77.0
25035,-0.17693996,0.50354004,-0.11689758,-0.15930176,0.3536499,-0.16567384,77.0
25036,-0.17693996,0.50354004,-0.11689758,-0.18691407,0.4067505,-0.21027832,77.0
25037,-0.24224758,0.5984726,-0.31369781,-0.18691407,0.4067505,-0.21027832,77.0
25038,-0.24224758,0.5984726,-0.31369781,-0.2824951,0.4354248,-0.270813,77.0
25039,-0.25535774,0.5663376,-0.45211792,-0.2824951,0.4354248,-0.270813,77.0
25040,-0.25535774,0.5663376,-0.45211792,-0.38763428,0.45135498,-0.36745605,77.0
25041,-0.27552605,0.33733368,-0.55911636,-0.38763428,0.45135498,-0.36745605,77.0
25042,-0.27552605,0.33733368,-0.55911636,-0.45454103,0.4333008,-0.46409914,77.0
25043,-0.35270882,-0.031784058,-0.6218529,-0.45454103,0.4333008,-0.46409914,77.0
25044,-0.35270882,-0.031784058,-0.6218529,-0.43967286,0.38232422,-0.54693604,77.0
25045,-0.45484734,-0.29743958,-0.5960922,-0.43967286,0.38232422,-0.54693604,77.0
25046,-0.45484734,-0.29743958,-0.5960922,-0.40462646,0.31860352,-0.60109866,77.0
25047,-0.501585,-0.26324463,-0.47756958,-0.40462646,0.31860352,-0.60109866,77.0
25048,-0.501585,-0.26324463,-0.47756958,-0.5076416,0.30479738,-0.62977296,77.0
25049,-0.49434662,-0.094184875,-0.30324554,-0.5076416,0.30479738,-0.62977296,77.0
25050,-0.49434662,-0.094184875,-0.30324554,-0.64570314,0.27506104,-0.66269535,77.0
25051,-0.49441528,-0.034088135,-0.115226746,-0.64570314,0.27506104,-0.66269535,77.0
25052,-0.49441528,-0.034088135,-0.115226746,-0.74022216,0.21240234,-0.71579593,77.0
25053,-0.54505634,-0.12902832,0.118377686,-0.74022216,0.21240234,-0.71579593,77.0
25054,-0.54505634,-0.12902832,0.118377686,-0.7880127,0.14761963,-0.75296634,77.0
25055,-0.58028316,-0.32330322,0.38755035,-0.7880127,0.14761963,-0.75296634,77.0
25056,-0.58028316,-0.32330322,0.38755035,-0.6956177,0.08920898,-0.7720825,77.0
25057,-0.5147877,-0.45414734,0.5779495,-0.6956177,0.08920898,-0.7720825,77.0
25058,-0.5147877,-0.45414734,0.5779495,-0.6956177,0.08920898,-0.7720825,88.0
25059,-0.5147877,-0.45414734,0.5779495,-0.6531372,0.0722168,-0.79013675,88.0
25060,-0.39123726,-0.5110855,0.59762573,-0.6531372,0.0722168,-0.79013675,88.0
25061,-0.39123726,-0.5110855,0.59762573,-0.5607422,0.052038576,-0.79119873,88.0
25062,-0.29615593,-0.5634308,0.5620003,-0.5607422,0.052038576,-0.79119873,88.0
25063,-0.29615593,-0.5634308,0.5620003,-0.46834716,0.04141846,-0.78376466,88.0
25064,-0.24374866,-0.5818634,0.6039696,-0.46834716,0.04141846,-0.78376466,88.0
25065,-0.24374866,-0.5818634,0.6039696,-0.44923097,0.07752686,-0.7805786,88.0
25066,-0.24297237,-0.59288025,0.62828064,-0.44923097,0.07752686,-0.7805786,88.0
25067,-0.24297237,-0.59288025,0.62828064,-0.4630371,0.12850343,-0.77951664,88.0
25068,-0.28964138,-0.62086487,0.50582504,-0.4630371,0.12850343,-0.77951664,88.0
25069,-0.28964138,-0.62086487,0.50582504,-0.42905274,0.17947999,-0.74871826,88.0
25070,-0.3842888,-0.6521225,0.26229858,-0.42905274,0.17947999,-0.74871826,88.0
25071,-0.3842888,-0.6521225,0.26229858,-0.39188233,0.21346436,-0.69136965,88.0
25072,-0.46982193,-0.664505,0.030715942,-0.39188233,0.21346436,-0.69136965,88.0
25073,-0.46982193,-0.664505,0.030715942,-0.32497558,0.20709229,-0.62977296,88.0
25074,-0.45683956,-0.66654205,-0.072654724,-0.32497558,0.20709229,-0.62977296,88.0
25075,-0.45683956,-0.66654205,-0.072654724,-0.31860352,0.2166504,-0.5883545,88.0
25076,-0.34581852,-0.7043915,-0.052799225,-0.31860352,0.2166504,-0.5883545,88.0
25077,-0.34581852,-0.7043915,-0.052799225,-0.31966552,0.21983643,-0.51826173,88.0
25078,-0.22642326,-0.778183,-0.002128601,-0.31966552,0.21983643,-0.51826173,88.0
25079,-0.22642326,-0.778183,-0.002128601,-0.36533204,0.2527588,-0.39188233,88.0
25080,-0.18763256,-0.84407043,-0.019561768,-0.36533204,0.2527588,-0.39188233,88.0
25081,-0.18763256,-0.84407043,-0.019561768,-0.29630128,0.24213867,-0.26656494,88.0
25082,-0.18479824,-0.7825699,-0.107471466,-0.29630128,0.24213867,-0.26656494,88.0
25083,-0.18479824,-0.7825699,-0.107471466,-0.2538208,0.21983643,-0.11257324,88.0
25084,-0.14797306,-0.6595764,-0.15052795,-0.2538208,0.21983643,-0.11257324,88.0
25085,-0.14797306,-0.6595764,-0.15052795,-0.17523193,0.16248779,0.038232423,88.0
25086,0.03437996,-0.62581635,-0.055747986,-0.17523193,0.16248779,0.038232423,88.0
25087,0.03437996,-0.62581635,-0.055747986,-0.083898924,0.07434082,0.16673584,88.0
25088,0.39508247,-0.7057953,0.17899704,-0.083898924,0.07434082,0.16673584,88.0
25089,0.39508247,-0.7057953,0.17899704,-0.0031860352,0.020178223,0.29205322,88.0
25090,0.7575455,-0.78660583,0.3833084,-0.0031860352,0.020178223,0.29205322,88.0
25091,0.7575455,-0.78660583,0.3833084,0.0998291,0.022302246,0.41843262,88.0
25092,0.882391,-0.721962,0.32730103,0.0998291,0.022302246,0.41843262,88.0
25093,0.882391,-0.721962,0.32730103,0.1996582,0.029736329,0.541626,88.0
25094,0.77098846,-0.435997,-0.04007721,0.1996582,0.029736329,0.541626,88.0
25095,0.77098846,-0.435997,-0.04007721,0.3058594,-0.02442627,0.6637573,88.0
25096,0.6881046,-0.10535431,-0.38198853,0.3058594,-0.02442627,0.6637573,88.0
25097,0.6881046,-0.10535431,-0.38198853,0.41099855,-0.16354981,0.7391602,88.0
25098,0.77693653,0.011917114,-0.38983154,0.41099855,-0.16354981,0.7391602,88.0
25099,0.77693653,0.011917114,-0.38983154,0.631897,-0.32391357,0.76677245,88.0
25100,0.9085846,0.078178406,-0.13703537,0.631897,-0.32391357,0.76677245,88.0
25101,0.9085846,0.078178406,-0.13703537,0.75296634,-0.40144044,0.81243896,88.0
25102,0.9036989,0.37257385,-0.047790527,0.75296634,-0.40144044,0.81243896,88.0
25103,0.9036989,0.37257385,-0.047790527,0.75721437,-0.3993164,0.8857178,88.0
25104,0.69214916,0.85245514,-0.3800316,0.75721437,-0.3993164,0.8857178,88.0
25105,0.69214916,0.85245514,-0.3800316,0.66588134,-0.3717041,0.9281983,88.0
25106,0.38305283,1.2404938,-0.942894,0.66588134,-0.3717041,0.9281983,88.0
25107,0.38305283,1.2404938,-0.942894,0.6085327,-0.35152587,0.9674927,88.0
25108,0.094833374,1.329834,-1.3960266,0.6085327,-0.35152587,0.9674927,88.0
25109,0.094833374,1.329834,-1.3960266,0.60216063,-0.35683593,0.94731444,88.0
25110,-0.0840826,1.1493073,-1.4888153,0.60216063,-0.35683593,0.94731444,88.0
25111,-0.0840826,1.1493073,-1.4888153,0.6680054,-0.39506838,0.8931519,88.0
25112,-0.048638344,0.7787018,-1.1689224,0.6680054,-0.39506838,0.8931519,88.0
25113,-0.048638344,0.7787018,-1.1689224,0.6488892,-0.3802002,0.82730716,88.0
25114,0.202178,0.19376373,-0.5891533,0.6488892,-0.3802002,0.82730716,88.0
25115,0.202178,0.19376373,-0.5891533,0.87191164,-0.29205322,0.7678345,88.0
25116,0.5753412,-0.42051697,0.016933441,0.87191164,-0.29205322,0.7678345,88.0
25117,0.5753412,-0.42051697,0.016933441,0.9611206,-0.07752686,0.72854006,88.0
25118,0.9321966,-0.8108673,0.4391327,0.9611206,-0.07752686,0.72854006,88.0
25119,0.9321966,-0.8108673,0.4391327,1.2298096,0.19434814,0.72641605,88.0
25120,1.1212826,-0.7238159,0.61911774,1.2298096,0.19434814,0.72641605,88.0
25121,1.1212826,-0.7238159,0.61911774,1.1406006,0.53950197,0.68074954,88.0
25122,1.0757742,-0.22436523,0.5567169,1.1406006,0.53950197,0.68074954,88.0
25123,1.0757742,-0.22436523,0.5567169,1.089624,0.8878418,0.64570314,88.0
25124,0.8126211,0.4650879,0.23985672,1.089624,0.8878418,0.64570314,88.0
25125,0.8126211,0.4650879,0.23985672,0.814563,1.1374146,0.6117188,88.0
25126,0.36955452,1.1207047,-0.25305176,0.814563,1.1374146,0.6117188,88.0
25127,0.36955452,1.1207047,-0.25305176,0.6042847,1.2414917,0.541626,88.0
25128,-0.005186081,1.2444992,-0.6155777,0.6042847,1.2414917,0.541626,88.0
25129,-0.005186081,1.2444992,-0.6155777,0.71579593,1.3083985,0.4980835,88.0
25130,-0.16041088,0.87480927,-0.7617874,0.71579593,1.3083985,0.4980835,88.0
25131,-0.16041088,0.87480927,-0.7617874,1.0460815,1.2956543,0.4885254,88.0
25132,-0.28251553,0.5815277,-0.67551804,1.0460815,1.2956543,0.4885254,88.0
25133,-0.28251553,0.5815277,-0.67551804,0.9526245,1.2903442,0.40144044,88.0
25134,-0.4629879,0.48161316,-0.38005066,0.9526245,1.2903442,0.40144044,88.0
25135,-0.4629879,0.48161316,-0.38005066,0.7954468,1.263794,0.29523927,88.0
25136,-0.5487232,0.3424225,-0.07570648,0.7954468,1.263794,0.29523927,88.0
25137,-0.5487232,0.3424225,-0.07570648,0.7890747,1.2181275,0.19647217,88.0
25138,-0.40576363,0.10811615,0.03060913,0.7890747,1.2181275,0.19647217,88.0
25139,-0.40576363,0.10811615,0.03060913,0.5649902,1.3073364,0.15611573,88.0
25140,-0.24091911,-0.23530579,-0.048511505,0.5649902,1.3073364,0.15611573,88.0
25141,-0.24091911,-0.23530579,-0.048511505,0.6403931,1.3243287,0.14230958,88.0
25142,-0.258873,-0.48423004,-0.2237587,0.6403931,1.3243287,0.14230958,88.0
25143,-0.258873,-0.48423004,-0.2237587,0.8772217,1.4145997,0.052038576,88.0
25144,-0.4933529,-0.22975159,-0.39730835,0.8772217,1.4145997,0.052038576,88.0
25145,-0.4933529,-0.22975159,-0.39730835,0.8379273,1.4326538,-0.12319336,88.0
25146,-0.8150921,0.43818665,-0.48228836,0.8379273,1.4326538,-0.12319336,88.0
25147,-0.8150921,0.43818665,-0.48228836,0.6977417,1.4315919,-0.3355957,88.0
25148,-1.0005722,0.9675522,-0.5885658,0.6977417,1.4315919,-0.3355957,88.0
25149,-1.0005722,0.9675522,-0.5885658,0.39082032,1.3869873,-0.4715332,88.0
25150,-1.083869,0.9838333,-0.7743912,0.39082032,1.3869873,-0.4715332,88.0
25151,-1.083869,0.9838333,-0.7743912,0.35895997,1.2298096,-0.59260255,88.0
25152,-1.1048517,0.7121887,-0.842659,0.35895997,1.2298096,-0.59260255,88.0
25153,-1.1048517,0.7121887,-0.842659,0.29736328,1.0630738,-0.69136965,88.0
25154,-1.0459175,0.41529846,-0.67074585,0.29736328,1.0630738,-0.69136965,88.0
25155,-1.0459175,0.41529846,-0.67074585,0.27293703,0.90058595,-0.67650145,88.0
25156,-0.8829498,0.16693878,-0.4230461,0.27293703,0.90058595,-0.67650145,88.0
25157,-0.8829498,0.16693878,-0.4230461,0.21877442,0.77314454,-0.6042847,88.0
25158,-0.65628624,-0.030471802,-0.28995132,0.21877442,0.77314454,-0.6042847,88.0
25159,-0.65628624,-0.030471802,-0.28995132,0.21027832,0.6690674,-0.50020754,88.0
25160,-0.5479908,-0.20202637,-0.22198868,0.21027832,0.6690674,-0.50020754,88.0
25161,-0.5479908,-0.20202637,-0.22198868,0.05628662,0.58623046,-0.37807617,88.0
25162,-0.59809685,-0.35072327,-0.16131973,0.05628662,0.58623046,-0.37807617,88.0
25163,-0.59809685,-0.35072327,-0.16131973,-0.10620117,0.4895874,-0.2824951,88.0
25164,-0.6600208,-0.52345276,-0.025283813,-0.10620117,0.4895874,-0.2824951,88.0
25165,-0.6600208,-0.52345276,-0.025283813,-0.18797608,0.42692873,-0.14230958,88.0
25166,-0.6600208,-0.52345276,-0.025283813,-0.18797608,0.42692873,-0.14230958,92.0
25167,-0.8920059,-0.7086868,0.2796135,-0.18797608,0.42692873,-0.14230958,92.0
25168,-0.8920059,-0.7086868,0.2796135,-0.32285157,0.37382814,0.10407715,92.0
25169,-1.4813166,-0.8311691,0.72654724,-0.32285157,0.37382814,0.10407715,92.0
25170,-1.4813166,-0.8311691,0.72654724,-0.3419678,0.3090454,0.4343628,92.0
25171,-2.0463448,-0.7602844,1.2014999,-0.3419678,0.3090454,0.4343628,92.0
25172,-2.0463448,-0.7602844,1.2014999,-0.2824951,0.29099122,0.78164065,92.0
25173,-2.1316805,-0.34944916,1.4587097,-0.2824951,0.29099122,0.78164065,92.0
25174,-2.1316805,-0.34944916,1.4587097,-0.3334717,0.38232422,1.1395386,92.0
25175,-1.7576761,0.12358856,1.1586685,-0.3334717,0.38232422,1.1395386,92.0
25176,-1.7576761,0.12358856,1.1586685,-0.2899292,0.42161867,1.4071655,92.0
25177,-1.148365,0.25348663,0.30261612,-0.2899292,0.42161867,1.4071655,92.0
25178,-1.148365,0.25348663,0.30261612,-0.04991455,0.33878174,1.6450561,92.0
25179,-0.4446802,0.29641724,-0.66588974,-0.04991455,0.33878174,1.6450561,92.0
25180,-0.4446802,0.29641724,-0.66588974,0.10407715,0.18479005,1.7863038,92.0
25181,0.26704693,0.734375,-1.2562599,0.10407715,0.18479005,1.7863038,92.0
25182,0.26704693,0.734375,-1.2562599,0.0010620117,-0.016992187,1.713025,92.0
25183,1.0358906,1.1872101,-1.3278961,0.0010620117,-0.016992187,1.713025,92.0
25184,1.0358906,1.1872101,-1.3278961,0.15186767,-0.18797608,1.6386842,92.0
25185,1.82234,1.0830917,-1.1891365,0.15186767,-0.18797608,1.6386842,92.0
25186,1.82234,1.0830917,-1.1891365,0.29099122,-0.38444826,1.4071655,92.0
25187,2.3815174,0.7232208,-1.1804581,0.29099122,-0.38444826,1.4071655,92.0
25188,2.3815174,0.7232208,-1.1804581,0.43967286,-0.5872925,0.904834,92.0
25189,2.7581806,0.34192657,-1.303215,0.43967286,-0.5872925,0.904834,92.0
25190,2.7581806,0.34192657,-1.303215,0.94625247,-0.815625,0.59897465,92.0
25191,3.2350483,0.03186798,-1.1555862,0.94625247,-0.815625,0.59897465,92.0
25192,3.2350483,0.03186798,-1.1555862,1.1204224,-1.0099732,0.30373535,92.0
25193,3.8760757,-0.021110535,-0.42593384,1.1204224,-1.0099732,0.30373535,92.0
25194,3.8760757,-0.021110535,-0.42593384,1.0609497,-0.9345703,0.12319336,92.0
25195,4.1911926,0.03527069,0.54340744,1.0609497,-0.9345703,0.12319336,92.0
25196,4.1911926,0.03527069,0.54340744,0.74871826,-0.68499756,0.090270996,92.0
25197,3.796558,0.117515564,1.0184174,0.74871826,-0.68499756,0.090270996,92.0
25198,3.796558,0.117515564,1.0184174,0.20709229,-0.452417,0.021240234,92.0
25199,3.024356,0.17369843,0.7776489,0.20709229,-0.452417,0.021240234,92.0
25200,3.024356,0.17369843,0.7776489,-0.06690674,-0.2516968,0.090270996,92.0
25201,2.0062523,0.25089264,0.26362228,-0.06690674,-0.2516968,0.090270996,92.0
25202,2.0062523,0.25089264,0.26362228,-0.20072022,-0.13806152,0.1996582,92.0
25203,0.71928406,0.5252838,-0.05208969,-0.20072022,-0.13806152,0.1996582,92.0
25204,0.71928406,0.5252838,-0.05208969,-0.33240968,-0.13487549,0.23895264,92.0
25205,-0.47697783,0.9072113,0.014152527,-0.33240968,-0.13487549,0.23895264,92.0
25206,-0.47697783,0.9072113,0.014152527,-0.44073486,-0.18585205,0.21027832,92.0
25207,-1.2935448,1.0486374,0.28146362,-0.44073486,-0.18585205,0.21027832,92.0
25208,-1.2935448,1.0486374,0.28146362,-0.41312256,-0.2793091,0.19647217,92.0
25209,-1.7484465,0.8939743,0.5224991,-0.41312256,-0.2793091,0.19647217,92.0
25210,-1.7484465,0.8939743,0.5224991,-0.18160401,-0.40462646,0.20390625,92.0
25211,-1.9389181,0.68032837,0.6651535,-0.18160401,-0.40462646,0.20390625,92.0
25212,-1.9389181,0.68032837,0.6651535,-0.015930176,-0.5161377,0.16142578,92.0
25213,-1.8786736,0.6021271,0.7879944,-0.015930176,-0.5161377,0.16142578,92.0
25214,-1.8786736,0.6021271,0.7879944,0.04248047,-0.54693604,0.06265869,92.0
25215,-1.5888767,0.5569916,0.8993759,0.04248047,-0.54693604,0.06265869,92.0
25216,-1.5888767,0.5569916,0.8993759,-0.0063720704,-0.49171144,-0.023364259,92.0
25217,-1.2291822,0.34255219,0.8911896,-0.0063720704,-0.49171144,-0.023364259,92.0
25218,-1.2291822,0.34255219,0.8911896,0.0063720704,-0.41737062,-0.095581055,92.0
25219,-0.9416342,-0.0023727417,0.7603378,0.0063720704,-0.41737062,-0.095581055,92.0
25220,-0.9416342,-0.0023727417,0.7603378,-0.022302246,-0.32709962,-0.18266602,92.0
25221,-0.7163811,-0.30587006,0.5725403,-0.022302246,-0.32709962,-0.18266602,92.0
25222,-0.7163811,-0.30587006,0.5725403,-0.025488282,-0.22408448,-0.22089843,92.0
25223,-0.531332,-0.51636505,0.372303,-0.025488282,-0.22408448,-0.22089843,92.0
25224,-0.531332,-0.51636505,0.372303,-0.021240234,-0.13487549,-0.22727051,92.0
25225,-0.38856697,-0.61859894,0.18592834,-0.021240234,-0.13487549,-0.22727051,92.0
25226,-0.38856697,-0.61859894,0.18592834,-0.019116212,-0.04991455,-0.18372802,92.0
25227,-0.33473015,-0.5686798,0.014919281,-0.019116212,-0.04991455,-0.18372802,92.0
25228,-0.33473015,-0.5686798,0.014919281,-0.007434082,0.0063720704,-0.121069334,92.0
25229,-0.35698128,-0.3861313,-0.15470123,-0.007434082,0.0063720704,-0.121069334,92.0
25230,-0.35698128,-0.3861313,-0.15470123,-0.070092775,0.021240234,-0.06478272,92.0
25231,-0.4007826,-0.22449493,-0.25373077,-0.070092775,0.021240234,-0.06478272,92.0
25232,-0.4007826,-0.22449493,-0.25373077,-0.10407715,0.033984374,-0.015930176,92.0
25233,-0.44637108,-0.17365265,-0.2337799,-0.10407715,0.033984374,-0.015930176,92.0
25234,-0.44637108,-0.17365265,-0.2337799,-0.08602295,0.03717041,0.052038576,92.0
25235,-0.48488045,-0.14077759,-0.1274414,-0.08602295,0.03717041,0.052038576,92.0
25236,-0.48488045,-0.14077759,-0.1274414,-0.07327881,0.0541626,0.11363526,92.0
25237,-0.5103903,-0.080444336,-0.0439682,-0.07327881,0.0541626,0.11363526,92.0
25238,-0.5103903,-0.080444336,-0.0439682,-0.050976563,0.070092775,0.1529297,92.0
25239,-0.5798092,-0.0256958,-0.03593445,-0.050976563,0.070092775,0.1529297,92.0
25240,-0.5798092,-0.0256958,-0.03593445,0.050976563,0.06903076,0.23682861,92.0
25241,-0.7923384,0.11834717,-0.05057144,0.050976563,0.06903076,0.23682861,92.0
25242,-0.7923384,0.11834717,-0.05057144,0.14549561,0.043542482,0.33028564,92.0
25243,-1.0662069,0.3290558,0.019699097,0.14549561,0.043542482,0.33028564,92.0
25244,-1.0662069,0.3290558,0.019699097,0.2177124,-0.020178223,0.38975832,92.0
25245,-1.218566,0.38272858,0.22866058,0.2177124,-0.020178223,0.38975832,92.0
25246,-1.218566,0.38272858,0.22866058,0.3079834,-0.04248047,0.42161867,92.0
25247,-1.2170277,0.15060425,0.41952515,0.3079834,-0.04248047,0.42161867,92.0
25248,-1.2170277,0.15060425,0.41952515,0.47365722,-0.07540283,0.4333008,92.0
25249,-0.6857805,0.016403198,0.360878,0.47365722,-0.07540283,0.4333008,92.0
25250,-0.6857805,0.016403198,0.360878,0.7688965,-0.16779785,0.43967286,92.0
25251,-0.54590225,-0.15098572,0.054473877,0.7688965,-0.16779785,0.43967286,92.0
25252,-0.54590225,-0.15098572,0.054473877,0.9600586,-0.27293703,0.47896728,92.0
25253,-0.4899807,0.0207901,-0.2625618,0.9600586,-0.27293703,0.47896728,92.0
25254,-0.4899807,0.0207901,-0.2625618,0.99510497,-0.39082032,0.46622315,92.0
25255,-0.36765575,0.25925446,-0.5361748,0.99510497,-0.39082032,0.46622315,92.0
25256,-0.36765575,0.25925446,-0.5361748,0.8687256,-0.4609131,0.47578126,92.0
25257,-0.06645107,0.09740448,-0.86541367,0.8687256,-0.4609131,0.47578126,92.0
25258,-0.06645107,0.09740448,-0.86541367,0.9505005,-0.5511841,0.49277344,92.0
25259,0.31755447,-0.368721,-1.1589813,0.9505005,-0.5511841,0.49277344,92.0
25260,0.31755447,-0.368721,-1.1589813,1.1671509,-0.7104859,0.51082766,92.0
25261,0.736393,-0.56975555,-1.1874008,1.1671509,-0.7104859,0.51082766,92.0
25262,0.736393,-0.56975555,-1.1874008,1.1448487,-0.84111327,0.42374268,92.0
25263,1.1280556,-0.4737854,-0.9271431,1.1448487,-0.84111327,0.42374268,92.0
25264,1.1280556,-0.4737854,-0.9271431,1.081128,-0.901648,0.36745605,92.0
25265,1.1280556,-0.4737854,-0.9271431,1.081128,-0.901648,0.36745605,93.0
25266,1.3613682,-0.40504456,-0.6659317,1.081128,-0.901648,0.36745605,93.0
25267,1.3613682,-0.40504456,-0.6659317,0.9568726,-0.93138427,0.35895997,93.0
25268,1.4282789,-0.31854248,-0.6392021,0.9568726,-0.93138427,0.35895997,93.0
25269,1.4282789,-0.31854248,-0.6392021,0.7827026,-0.97492677,0.3164795,93.0
25270,1.3705158,-0.115745544,-0.740757,0.7827026,-0.97492677,0.3164795,93.0
25271,1.3705158,-0.115745544,-0.740757,0.6945557,-1.0588257,0.26337892,93.0
25272,1.2257347,0.11100769,-0.80286026,0.6945557,-1.0588257,0.26337892,93.0
25273,1.2257347,0.11100769,-0.80286026,0.65419924,-1.1629028,0.1709839,93.0
25274,1.1271696,0.283432,-0.7672653,0.65419924,-1.1629028,0.1709839,93.0
25275,1.1271696,0.283432,-0.7672653,0.5671143,-1.2776002,0.052038576,93.0
25276,1.1100731,0.36141205,-0.65776825,0.5671143,-1.2776002,0.052038576,93.0
25277,1.1100731,0.36141205,-0.65776825,0.40356445,-1.363623,-0.04248047,93.0
25278,1.1134853,0.26164246,-0.41095734,0.40356445,-1.363623,-0.04248047,93.0
25279,1.1134853,0.26164246,-0.41095734,0.5872925,-1.4921265,-0.107263185,93.0
25280,1.1324387,0.33348083,-0.07612991,0.5872925,-1.4921265,-0.107263185,93.0
25281,1.1324387,0.33348083,-0.07612991,0.37382814,-1.5685914,-0.18585205,93.0
25282,1.1565733,0.4251938,0.07614517,0.37382814,-1.5685914,-0.18585205,93.0
25283,1.1565733,0.4251938,0.07614517,0.0722168,-1.6503662,-0.1731079,93.0
25284,1.0552998,-0.029205322,-0.08886337,0.0722168,-1.6503662,-0.1731079,93.0
25285,1.0552998,-0.029205322,-0.08886337,0.31010744,-1.7066529,-0.093457036,93.0
25286,1.0144672,-0.93840027,-0.05796814,0.31010744,-1.7066529,-0.093457036,93.0
25287,1.0144672,-0.93840027,-0.05796814,1.5739014,-1.5972656,-0.1263794,93.0
25288,1.274025,-0.1440506,0.9766846,1.5739014,-1.5972656,-0.1263794,93.0
25289,1.274025,-0.1440506,0.9766846,-0.48109132,-0.97280276,0.33028564,93.0
25290,1.121808,0.24259949,1.7425079,-0.48109132,-0.97280276,0.33028564,93.0
25291,1.121808,0.24259949,1.7425079,-0.8963379,-0.51826173,-0.027612304,93.0
25292,0.98202896,-1.6539078,2.2100945,-0.8963379,-0.51826173,-0.027612304,93.0
25293,0.98202896,-1.6539078,2.2100945,1.3073364,-0.27293703,-0.08814698,93.0
25294,1.252017,-2.2125778,2.892662,1.3073364,-0.27293703,-0.08814698,93.0
25295,1.252017,-2.2125778,2.892662,0.9632446,0.17629395,0.86553955,93.0
25296,0.63781977,-1.4276886,1.2606125,0.9632446,0.17629395,0.86553955,93.0
25297,0.63781977,-1.4276886,1.2606125,2.353418,-0.24320069,0.99935305,93.0
25298,-0.45167065,-0.025306702,-1.8965034,2.353418,-0.24320069,0.99935305,93.0
25299,-0.45167065,-0.025306702,-1.8965034,2.3194337,-0.45347902,1.083252,93.0
25300,-1.3470788,0.25019836,-3.4031258,2.3194337,-0.45347902,1.083252,93.0
25301,-1.3470788,0.25019836,-3.4031258,2.9237182,-0.7189819,1.2574219,93.0
25302,-1.8927875,-0.30377197,-2.6320457,2.9237182,-0.7189819,1.2574219,93.0
25303,-1.8927875,-0.30377197,-2.6320457,3.2922363,-0.9674927,1.176709,93.0
25304,-1.3820763,0.35838318,-0.8866539,3.2922363,-0.9674927,1.176709,93.0
25305,-1.3820763,0.35838318,-0.8866539,2.7006958,-0.93138427,0.7986328,93.0
25306,-0.22070026,1.4064178,0.38474274,2.7006958,-0.93138427,0.7986328,93.0
25307,-0.22070026,1.4064178,0.38474274,2.4320068,-0.91120607,0.69136965,93.0
25308,0.7037864,1.5549088,1.7011528,2.4320068,-0.91120607,0.69136965,93.0
25309,0.7037864,1.5549088,1.7011528,2.3852785,-0.7476563,0.7688965,93.0
25310,1.5826459,2.0416183,3.7552567,2.3852785,-0.7476563,0.7688965,93.0
25311,1.5826459,2.0416183,3.7552567,1.4315919,0.15930176,0.6414551,93.0
25312,1.845963,3.3709412,3.2263489,1.4315919,0.15930176,0.6414551,93.0
25313,1.845963,3.3709412,3.2263489,0.095581055,0.2347046,-0.078588866,93.0
25314,1.3782353,2.5306168,-0.572525,0.095581055,0.2347046,-0.078588866,93.0
25315,1.3782353,2.5306168,-0.572525,0.3175415,0.1083252,0.1731079,93.0
25316,1.0917363,-0.4115219,-3.162796,0.3175415,0.1083252,0.1731079,93.0
25317,1.0917363,-0.4115219,-3.162796,0.5341919,0.22727051,0.40356445,93.0
25318,0.8403568,-1.5582733,-2.874218,0.5341919,0.22727051,0.40356445,93.0
25319,0.8403568,-1.5582733,-2.874218,0.115759276,0.5055176,0.30054933,93.0
25320,0.3445754,-0.75785065,-0.9683914,0.115759276,0.5055176,0.30054933,93.0
25321,0.3445754,-0.75785065,-0.9683914,-0.93775636,0.9674927,0.14974366,93.0
25322,-0.3087144,-0.23253632,0.73453903,-0.93775636,0.9674927,0.14974366,93.0
25323,-0.3087144,-0.23253632,0.73453903,-1.3423828,1.2223755,0.0063720704,93.0
25324,-1.2587514,-0.18141174,0.65429306,-1.3423828,1.2223755,0.0063720704,93.0
25325,-1.2587514,-0.18141174,0.65429306,-1.99552,1.1915772,-0.107263185,93.0
25326,-2.1494327,-0.8528824,-0.28993225,-1.99552,1.1915772,-0.107263185,93.0
25327,-2.1494327,-0.8528824,-0.28993225,-1.536731,0.99510497,0.2166504,93.0
25328,-1.9562163,-1.3186264,-0.5960579,-1.536731,0.99510497,0.2166504,93.0
25329,-1.9562163,-1.3186264,-0.5960579,-1.6078857,0.93350834,0.020178223,93.0
25330,-0.8016186,-0.8885803,-0.4846344,-1.6078857,0.93350834,0.020178223,93.0
25331,-0.8016186,-0.8885803,-0.4846344,-1.3211426,0.88359374,0.2357666,93.0
25332,0.2994647,-0.36616516,-0.26145172,-1.3211426,0.88359374,0.2357666,93.0
25333,0.2994647,-0.36616516,-0.26145172,-1.2510499,0.8878418,0.31223145,93.0
25334,0.8051357,-0.021766663,0.054073334,-1.2510499,0.8878418,0.31223145,93.0
25335,0.8051357,-0.021766663,0.054073334,-1.2213135,0.8867798,0.4258667,93.0
25336,0.7224045,0.1028595,0.44792175,-1.2213135,0.8867798,0.4258667,93.0
25337,0.7224045,0.1028595,0.44792175,-1.2244996,0.8782837,0.52038574,93.0
25338,0.42804575,0.18449402,0.75416183,-1.2244996,0.8782837,0.52038574,93.0
25339,0.42804575,0.18449402,0.75416183,-1.356189,0.8729736,0.5479981,93.0
25340,0.20735359,0.07507324,0.70391464,-1.356189,0.8729736,0.5479981,93.0
25341,0.20735359,0.07507324,0.70391464,-1.3094605,0.88253176,0.63933104,93.0
25342,0.020826817,-0.02494812,0.43159103,-1.3094605,0.88253176,0.63933104,93.0
25343,0.020826817,-0.02494812,0.43159103,-1.2170655,0.817749,0.721106,93.0
25344,-0.065235615,0.1797638,0.5020714,-1.2170655,0.817749,0.721106,93.0
25345,-0.065235615,0.1797638,0.5020714,-1.3317627,0.8729736,0.8464233,93.0
25346,-0.052200317,0.37965393,0.92427826,-1.3317627,0.8729736,0.8464233,93.0
25347,-0.052200317,0.37965393,0.92427826,-1.3922974,1.0152832,0.96643066,93.0
25348,-0.14916992,0.38739014,1.1896782,-1.3922974,1.0152832,0.96643066,93.0
25349,-0.14916992,0.38739014,1.1896782,-1.4623902,1.0864381,1.0991821,93.0
25350,-0.17467022,0.3087616,1.1704063,-1.4623902,1.0864381,1.0991821,93.0
25351,-0.17467022,0.3087616,1.1704063,-1.5940796,1.183081,1.1629028,93.0
25352,0.081516266,0.31142426,1.0170746,-1.5940796,1.183081,1.1629028,93.0
25353,0.081516266,0.31142426,1.0170746,-1.8266602,1.3243287,1.2351197,93.0
25354,0.28000784,0.65099335,0.76867676,-1.8266602,1.3243287,1.2351197,93.0
25355,0.28000784,0.65099335,0.76867676,-2.088977,1.3986695,1.2393677,93.0
25356,0.22864485,0.9489441,0.18348312,-2.088977,1.3986695,1.2393677,93.0
25357,0.22864485,0.9489441,0.18348312,-2.4893556,1.26167,1.260608,93.0
25358,0.32784986,0.9076538,-0.5886383,-2.4893556,1.26167,1.260608,93.0
25359,0.32784986,0.9076538,-0.5886383,-2.3757203,1.1406006,1.3742431,93.0
25360,0.7818599,1.0477905,-1.068409,-2.3757203,1.1406006,1.3742431,93.0
25361,0.7818599,1.0477905,-1.068409,-3.2125854,0.92926025,1.5569092,93.0
25362,0.4732418,1.5424957,-2.128151,-3.2125854,0.92926025,1.5569092,93.0
25363,0.4732418,1.5424957,-2.128151,-2.8302612,0.07965088,1.3370727,93.0
25364,-0.4128127,0.7823944,-2.3053665,-2.8302612,0.07965088,1.3370727,93.0
25365,-0.4128127,0.7823944,-2.3053665,-1.629126,-0.23682861,2.175,93.0
25366,-0.4128127,0.7823944,-2.3053665,-1.629126,-0.23682861,2.175,93.0
25367,0.19177103,-1.5425644,0.6650696,-1.629126,-0.23682861,2.175,93.0
25368,0.19177103,-1.5425644,0.6650696,-0.8782837,-0.2177124,2.5690064,93.0
25369,1.7896962,-2.3863907,4.0058823,-0.8782837,-0.2177124,2.5690064,93.0
25370,1.7896962,-2.3863907,4.0058823,-0.7423462,-0.15080567,2.347046,93.0
25371,2.9728336,-0.88145447,5.0487366,-0.7423462,-0.15080567,2.347046,93.0
25372,2.9728336,-0.88145447,5.0487366,-2.077295,0.4258667,2.437317,93.0
25373,3.5900102,0.43067932,4.0338135,-2.077295,0.4258667,2.437317,93.0
25374,3.5900102,0.43067932,4.0338135,-1.7937378,0.98129886,2.4489992,93.0
25375,3.1713858,0.78427887,2.274002,-1.7937378,0.98129886,2.4489992,93.0
25376,3.1713858,0.78427887,2.274002,-2.7867188,1.0906861,2.430945,93.0
25377,2.021215,0.93053436,1.0664177,-2.7867188,1.0906861,2.430945,93.0
25378,2.021215,0.93053436,1.0664177,-4.3807983,0.9674927,2.6943238,93.0
25379,0.48746777,1.2289963,0.75541687,-4.3807983,0.9674927,2.6943238,93.0
25380,0.48746777,1.2289963,0.75541687,-5.1082764,0.76677245,2.7760987,93.0
25381,-0.74625635,2.3608932,0.7852402,-5.1082764,0.76677245,2.7760987,93.0
25382,-0.74625635,2.3608932,0.7852402,-5.3493533,0.80819094,2.4744873,93.0
25383,-1.4209795,3.7911072,0.86663055,-5.3493533,0.80819094,2.4744873,93.0
25384,-1.4209795,3.7911072,0.86663055,-6.885022,1.265918,1.9764038,93.0
25385,-1.8470497,3.2160034,0.9525833,-6.885022,1.265918,1.9764038,93.0
25386,-1.8470497,3.2160034,0.9525833,-6.577039,1.8723267,1.1480347,93.0
25387,-1.8093047,0.6450958,0.86499786,-6.577039,1.8723267,1.1480347,93.0
25388,-1.8093047,0.6450958,0.86499786,-4.9988894,2.4543092,0.21027832,93.0
25389,-1.6505203,-1.847702,0.25642395,-4.9988894,2.4543092,0.21027832,93.0
25390,-1.6505203,-1.847702,0.25642395,-3.5662353,2.707068,-0.5129517,93.0
25391,-1.5465517,-3.1175308,-0.74598694,-3.5662353,2.707068,-0.5129517,93.0
25392,-1.5465517,-3.1175308,-0.74598694,-2.7622926,2.9566407,-0.58198243,93.0
25393,-1.8278904,-3.262352,-1.4370613,-2.7622926,2.9566407,-0.58198243,93.0
25394,-1.8278904,-3.262352,-1.4370613,-1.5420411,3.1042602,-0.4980835,93.0
25395,-2.4779496,-2.8053513,-1.8408356,-1.5420411,3.1042602,-0.4980835,93.0
25396,-2.4779496,-2.8053513,-1.8408356,-0.5671143,3.1509888,-0.4343628,93.0
25397,-3.288866,-1.8239899,-2.450367,-0.5671143,3.1509888,-0.4343628,93.0
25398,-3.288866,-1.8239899,-2.450367,-0.13699952,3.0277956,-0.3525879,93.0
25399,-4.0408707,-0.9339218,-3.3062172,-0.13699952,3.0277956,-0.3525879,93.0
25400,-4.0408707,-0.9339218,-3.3062172,-0.36533204,2.5668824,-0.28461915,93.0
25401,-4.37724,-1.0520325,-4.156864,-0.36533204,2.5668824,-0.28461915,93.0
25402,-4.37724,-1.0520325,-4.156864,0.542688,1.6556762,-0.20390625,93.0
25403,-3.92733,-1.7571564,-4.613495,0.542688,1.6556762,-0.20390625,93.0
25404,-3.92733,-1.7571564,-4.613495,1.1204224,0.44073486,0.010620117,93.0
25405,-2.654376,-2.1641235,-4.060936,1.1204224,0.44073486,0.010620117,93.0
25406,-2.654376,-2.1641235,-4.060936,2.061365,-0.57242435,0.4056885,93.0
25407,-1.054678,-2.353531,-1.9342232,2.061365,-0.57242435,0.4056885,93.0
25408,-1.054678,-2.353531,-1.9342232,3.978296,-1.1044922,0.6180908,93.0
25409,0.2567463,-2.5071564,0.19968033,3.978296,-1.1044922,0.6180908,93.0
25410,0.2567463,-2.5071564,0.19968033,6.1320558,-1.7820557,0.41206056,93.0
25411,1.1950951,-1.434288,0.62937164,6.1320558,-1.7820557,0.41206056,93.0
25412,1.1950951,-1.434288,0.62937164,6.8297973,-2.4012086,0.30373535,93.0
25413,2.0247898,1.0969543,0.5198555,6.8297973,-2.4012086,0.30373535,93.0
25414,2.0247898,1.0969543,0.5198555,4.9436646,-2.5031617,0.62127686,93.0
25415,2.0247898,1.0969543,0.5198555,2.5796266,-2.347046,0.9547486,93.0
25416,2.5985308,2.6261978,0.888237,2.5796266,-2.347046,0.9547486,93.0
25417,2.5836344,1.797699,1.2500801,2.5796266,-2.347046,0.9547486,93.0
25418,2.5836344,1.797699,1.2500801,1.5038086,-2.3119996,1.1161743,93.0
25419,2.1025887,0.02040863,1.3088913,1.5038086,-2.3119996,1.1161743,93.0
25420,2.1025887,0.02040863,1.3088913,1.8447144,-2.430945,1.2244996,93.0
25421,1.5750275,-0.715744,1.0928192,1.8447144,-2.430945,1.2244996,93.0
25422,1.5750275,-0.715744,1.0928192,2.4914796,-2.5530763,1.1682129,93.0
25423,1.4269896,-0.061279297,0.7537346,2.4914796,-2.5530763,1.1682129,93.0
25424,1.4269896,-0.061279297,0.7537346,2.532898,-2.5456421,1.1979493,93.0
25425,1.5582299,0.69880676,0.59900665,2.532898,-2.5456421,1.1979493,93.0
25426,1.5582299,0.69880676,0.59900665,2.2981935,-2.3417358,1.3699951,93.0
25427,1.5271626,0.9116821,0.7712364,2.2981935,-2.3417358,1.3699951,93.0
25428,1.5271626,0.9116821,0.7712364,1.9084351,-2.1463258,1.3731812,93.0
25429,1.3366227,0.8930893,0.94810486,1.9084351,-2.1463258,1.3731812,93.0
25430,1.3366227,0.8930893,0.94810486,1.5176147,-1.9541016,1.3168945,93.0
25431,1.1244249,0.6297455,1.330967,1.5176147,-1.9541016,1.3168945,93.0
25432,1.1244249,0.6297455,1.330967,1.081128,-1.4783204,1.5027466,93.0
25433,0.7939005,-0.25404358,2.0353928,1.081128,-1.4783204,1.5027466,93.0
25434,0.7939005,-0.25404358,2.0353928,1.6567383,-1.1862671,1.531421,93.0
25435,0.47856522,-0.847435,2.1977348,1.6567383,-1.1862671,1.531421,93.0
25436,0.47856522,-0.847435,2.1977348,1.8415283,-0.9430664,1.4761963,93.0
25437,0.35132122,-0.35391998,1.3902435,1.8415283,-0.9430664,1.4761963,93.0
25438,0.35132122,-0.35391998,1.3902435,1.5176147,-0.6775635,1.442212,93.0
25439,0.38465786,0.4290924,0.2006836,1.5176147,-0.6775635,1.442212,93.0
25440,0.38465786,0.4290924,0.2006836,1.5739014,-0.5936646,1.3360108,93.0
25441,0.5398674,0.90338135,-0.7269516,1.5739014,-0.5936646,1.3360108,93.0
25442,0.5398674,0.90338135,-0.7269516,1.3731812,-0.46622315,1.350879,93.0
25443,0.62903786,0.7512741,-1.2180977,1.3731812,-0.46622315,1.350879,93.0
25444,0.62903786,0.7512741,-1.2180977,1.3200806,-0.43967286,1.3296387,93.0
25445,0.5423417,0.15589142,-1.370697,1.3200806,-0.43967286,1.3296387,93.0
25446,0.5423417,0.15589142,-1.370697,1.630188,-0.50020754,1.4305298,93.0
25447,0.40591908,-0.22055054,-1.2693329,1.630188,-0.50020754,1.4305298,93.0
25448,0.40591908,-0.22055054,-1.2693329,1.4400879,-0.52888185,1.5940796,93.0
25449,0.31379795,-0.11503601,-0.9958,1.4400879,-0.52888185,1.5940796,93.0
25450,0.31379795,-0.11503601,-0.9958,0.8952759,-0.35471192,1.7151489,93.0
25451,0.1901741,0.17691803,-0.6740341,0.8952759,-0.35471192,1.7151489,93.0
25452,0.1901741,0.17691803,-0.6740341,0.5278198,-0.27718505,1.812854,93.0
25453,0.1901741,0.17691803,-0.6740341,0.29948732,-0.14230958,1.803296,93.0
25454,-0.003537178,0.17403412,-0.47815704,0.29948732,-0.14230958,1.803296,93.0
25455,-0.103598595,-0.076034546,-0.47603226,0.29948732,-0.14230958,1.803296,93.0
25456,-0.103598595,-0.076034546,-0.47603226,0.12850343,-0.058410645,1.7480713,93.0
25457,0.057074547,-0.3756714,-0.5926666,0.12850343,-0.058410645,1.7480713,93.0
25458,0.057074547,-0.3756714,-0.5926666,-0.1083252,-0.040356446,1.7109009,93.0
25459,0.475811,-0.54665375,-0.63388824,-0.1083252,-0.040356446,1.7109009,93.0
25460,0.475811,-0.54665375,-0.63388824,-0.32709962,-0.007434082,1.7459472,93.0
25461,0.8223238,-0.56869507,-0.44337845,-0.32709962,-0.007434082,1.7459472,93.0
25462,0.8223238,-0.56869507,-0.44337845,-0.46409914,-0.016992187,1.7671875,93.0
25463,0.91085005,-0.48213196,-0.0151023865,-0.46409914,-0.016992187,1.7671875,93.0
25464,0.91085005,-0.48213196,-0.0151023865,-0.44816896,-0.0053100586,1.7841797,93.0
25465,0.7728205,-0.31319427,0.4264679,-0.44816896,-0.0053100586,1.7841797,93.0
25466,0.7728205,-0.31319427,0.4264679,-0.46834716,-0.020178223,1.7873658,93.0
25467,0.7728205,-0.31319427,0.4264679,-0.46834716,-0.020178223,1.7873658,92.0
25468,0.4924631,-0.15454865,0.61966324,-0.46834716,-0.020178223,1.7873658,92.0
25469,0.4924631,-0.15454865,0.61966324,-0.66481936,0.008496094,1.8521484,92.0
25470,0.12874842,-0.06541443,0.6392975,-0.66481936,0.008496094,1.8521484,92.0
25471,0.12874842,-0.06541443,0.6392975,-0.6775635,0.013806152,1.906311,92.0
25472,-0.07435703,-0.06199646,0.5468979,-0.6775635,0.013806152,1.906311,92.0
25473,-0.07435703,-0.06199646,0.5468979,-0.6053467,-0.020178223,2.0284424,92.0
25474,0.0058221817,-0.17689514,0.23426819,-0.6053467,-0.020178223,2.0284424,92.0
25475,0.0058221817,-0.17689514,0.23426819,-0.58410645,-0.13381349,2.2397828,92.0
25476,0.12866879,-0.39977264,-0.104579926,-0.58410645,-0.13381349,2.2397828,92.0
25477,0.12866879,-0.39977264,-0.104579926,-0.47471926,-0.26868898,2.5509522,92.0
25478,0.16254187,-0.5497589,-0.2735443,-0.47471926,-0.26868898,2.5509522,92.0
25479,0.16254187,-0.5497589,-0.2735443,-0.2814331,-0.48215333,2.8398194,92.0
25480,0.4196086,-0.58836365,-0.45326233,-0.2814331,-0.48215333,2.8398194,92.0
25481,0.4196086,-0.58836365,-0.45326233,0.009558106,-0.7614624,2.9354005,92.0
25482,1.0222349,-0.84498596,-0.70163727,0.009558106,-0.7614624,2.9354005,92.0
25483,1.0222349,-0.84498596,-0.70163727,0.121069334,-0.9685547,2.984253,92.0
25484,1.1473534,-1.2753983,-0.7022629,0.121069334,-0.9685547,2.984253,92.0
25485,1.1473534,-1.2753983,-0.7022629,0.56392825,-0.9568726,3.3007324,92.0
25486,0.26927423,-1.1499863,-0.11413193,0.56392825,-0.9568726,3.3007324,92.0
25487,0.26927423,-1.1499863,-0.11413193,0.5171997,-0.72960204,3.439856,92.0
25488,-0.7234602,-0.47161102,0.2154541,0.5171997,-0.72960204,3.439856,92.0
25489,-0.7234602,-0.47161102,0.2154541,0.2984253,-0.80181885,2.9290283,92.0
25490,-0.6730797,-0.44075012,-0.05158615,0.2984253,-0.80181885,2.9290283,92.0
25491,-0.6730797,-0.44075012,-0.05158615,0.035046387,-0.81243896,2.9385865,92.0
25492,-0.15111017,-1.2178497,-0.0822258,0.035046387,-0.81243896,2.9385865,92.0
25493,-0.15111017,-1.2178497,-0.0822258,-0.012744141,-0.81668705,2.8408813,92.0
25494,-0.19349527,-2.0815048,0.49683,-0.012744141,-0.81668705,2.8408813,92.0
25495,-0.19349527,-2.0815048,0.49683,-0.053100586,-0.88253176,2.70813,92.0
25496,-0.46453762,-2.8116837,1.1548233,-0.053100586,-0.88253176,2.70813,92.0
25497,-0.46453762,-2.8116837,1.1548233,0.19753419,-0.90695804,2.7229981,92.0
25498,-0.46203518,-2.617302,0.8776169,0.19753419,-0.90695804,2.7229981,92.0
25499,-0.46203518,-2.617302,0.8776169,0.33878174,-0.7455322,2.8376954,92.0
25500,-0.37602472,-1.8622055,0.07149124,0.33878174,-0.7455322,2.8376954,92.0
25501,-0.37602472,-1.8622055,0.07149124,0.22089843,-0.73703617,2.7591064,92.0
25502,0.11460972,-0.5168991,-2.6143875,0.22089843,-0.73703617,2.7591064,92.0
25503,0.11460972,-0.5168991,-2.6143875,-0.060534667,-0.7604004,2.7527344,92.0
25504,-0.0325799,-0.7154236,-2.458969,-0.060534667,-0.7604004,2.7527344,92.0
25505,-0.0325799,-0.7154236,-2.458969,-0.14655761,-0.6701294,2.6603394,92.0
25506,-1.0390644,-1.8302002,-1.0161018,-0.14655761,-0.6701294,2.6603394,92.0
25507,-1.0390644,-1.8302002,-1.0161018,0.052038576,-0.5809204,2.4957275,92.0
25508,-1.2258315,-1.9235001,-0.33649063,0.052038576,-0.5809204,2.4957275,92.0
25509,-1.2258315,-1.9235001,-0.33649063,0.11044922,-0.5171997,2.4320068,92.0
25510,-0.55554295,-1.8768082,0.37345886,0.11044922,-0.5171997,2.4320068,92.0
25511,-0.55554295,-1.8768082,0.37345886,0.22408448,-0.38338622,2.1495118,92.0
25512,-0.10180712,-1.3664474,0.24684906,0.22408448,-0.38338622,2.1495118,92.0
25513,-0.10180712,-1.3664474,0.24684906,0.050976563,-0.271875,2.0008302,92.0
25514,0.7104244,-0.45376587,-0.11343384,0.050976563,-0.271875,2.0008302,92.0
25515,0.7104244,-0.45376587,-0.11343384,-0.11151123,-0.22727051,1.9625977,92.0
25516,0.53761435,-0.2131958,-0.08033371,-0.11151123,-0.22727051,1.9625977,92.0
25517,0.53761435,-0.2131958,-0.08033371,-0.016992187,-0.22727051,1.9498535,92.0
25518,-0.08845091,0.71406555,0.27256012,-0.016992187,-0.22727051,1.9498535,92.0
25519,-0.08845091,0.71406555,0.27256012,0.040356446,-0.16461182,1.81073,92.0
25520,-0.4000702,0.73807526,0.22140503,0.040356446,-0.16461182,1.81073,92.0
25521,-0.4000702,0.73807526,0.22140503,0.06584473,-0.1985962,1.7831177,92.0
25522,-0.7102418,0.59459686,-0.03806305,0.06584473,-0.1985962,1.7831177,92.0
25523,-0.7102418,0.59459686,-0.03806305,0.09664307,-0.2527588,1.6864747,92.0
25524,-0.7102418,0.59459686,-0.03806305,0.016992187,-0.23364258,1.538855,92.0
25525,-0.62269783,0.11656952,-0.27040482,0.016992187,-0.23364258,1.538855,92.0
25526,-0.42779684,-0.33328247,-0.3518219,0.016992187,-0.23364258,1.538855,92.0
25527,-0.42779684,-0.33328247,-0.3518219,0.15930176,-0.271875,1.3827393,92.0
25528,-0.21827507,-0.48184967,-0.35930252,0.15930176,-0.271875,1.3827393,92.0
25529,-0.21827507,-0.48184967,-0.35930252,0.22196046,-0.24320069,1.2521118,92.0
25530,-0.04362631,-0.20868683,-0.15190506,0.22196046,-0.24320069,1.2521118,92.0
25531,-0.04362631,-0.20868683,-0.15190506,0.47471926,-0.28355715,1.1629028,92.0
25532,0.09067297,0.40605164,0.31438828,0.47471926,-0.28355715,1.1629028,92.0
25533,0.09067297,0.40605164,0.31438828,0.2803711,-0.23895264,0.95581055,92.0
25534,0.1503458,0.8190689,0.6462364,0.2803711,-0.23895264,0.95581055,92.0
25535,0.1503458,0.8190689,0.6462364,0.1985962,-0.2357666,0.81031495,92.0
25536,0.013281822,0.73462677,0.44628906,0.1985962,-0.2357666,0.81031495,92.0
25537,0.013281822,0.73462677,0.44628906,-0.04460449,-0.18797608,0.63933104,92.0
25538,-0.4410467,-0.11672974,-0.030483246,-0.04460449,-0.18797608,0.63933104,92.0
25539,-0.4410467,-0.11672974,-0.030483246,0.33984375,-0.34727785,0.84748536,92.0
25540,-0.7863579,-0.6998062,0.09046936,0.33984375,-0.34727785,0.84748536,92.0
25541,-0.7863579,-0.6998062,0.09046936,0.65844727,-0.48640138,0.903772,92.0
25542,-0.5646577,0.0110321045,0.7297478,0.65844727,-0.48640138,0.903772,92.0
25543,-0.5646577,0.0110321045,0.7297478,0.36320803,-0.33665773,0.7327881,92.0
25544,-0.19982147,0.47227478,0.6933212,0.36320803,-0.33665773,0.7327881,92.0
25545,-0.19982147,0.47227478,0.6933212,0.28461915,-0.35789797,0.70198977,92.0
25546,-0.16953707,-0.03404236,-0.0055618286,0.28461915,-0.35789797,0.70198977,92.0
25547,-0.16953707,-0.03404236,-0.0055618286,0.68074954,-0.6000366,0.8379273,92.0
25548,-0.18300533,-0.2936554,-0.35111618,0.68074954,-0.6000366,0.8379273,92.0
25549,-0.18300533,-0.2936554,-0.35111618,0.632959,-0.6701294,0.7391602,92.0
25550,0.010639191,0.13877869,-0.28409195,0.632959,-0.6701294,0.7391602,92.0
25551,0.010639191,0.13877869,-0.28409195,0.270813,-0.58198243,0.5872925,92.0
25552,0.34581566,0.43743134,-0.30812073,0.270813,-0.58198243,0.5872925,92.0
25553,0.34581566,0.43743134,-0.30812073,0.027612304,-0.5798584,0.31329346,92.0
25554,0.42493153,0.11351776,-0.35943604,0.027612304,-0.5798584,0.31329346,92.0
25555,0.42493153,0.11351776,-0.35943604,-0.29205322,-0.7497803,0.1720459,92.0
25556,-0.068294525,-0.082611084,0.004722595,-0.29205322,-0.7497803,0.1720459,92.0
25557,-0.068294525,-0.082611084,0.004722595,-0.5479981,-0.9218262,0.2793091,92.0
25558,-0.36910105,0.1281128,0.6920471,-0.5479981,-0.9218262,0.2793091,92.0
25559,-0.36910105,0.1281128,0.6920471,-0.5256958,-0.9451904,0.28568116,92.0
25560,-0.37424803,0.7390137,0.75370026,-0.5256958,-0.9451904,0.28568116,92.0
25561,-0.37424803,0.7390137,0.75370026,-0.48746338,-0.996167,0.36427003,92.0
25562,-0.76037264,1.1158981,0.4611168,-0.48746338,-0.996167,0.36427003,92.0
25563,-0.76037264,1.1158981,0.4611168,-0.85491943,-0.7104859,0.54693604,92.0
25564,-0.84209967,0.33809662,-0.06295776,-0.85491943,-0.7104859,0.54693604,92.0
25565,-0.84209967,0.33809662,-0.06295776,-0.67331547,-0.64570314,0.49489745,92.0
25566,-0.41052055,-0.9603729,-1.3082886,-0.67331547,-0.64570314,0.49489745,92.0
25567,-0.41052055,-0.9603729,-1.3082886,-0.2177124,-0.7965088,0.66481936,92.0
25568,0.023890972,-1.5189209,-2.0046272,-0.2177124,-0.7965088,0.66481936,92.0
25569,0.023890972,-1.5189209,-2.0046272,0.25806886,-0.83686525,0.7041138,92.0
25570,0.46228933,-0.75086975,-1.3128319,0.25806886,-0.83686525,0.7041138,92.0
25571,0.46228933,-0.75086975,-1.3128319,0.31223145,-0.6074707,0.634021,92.0
25572,0.70069075,0.42814636,-0.23813248,0.31223145,-0.6074707,0.634021,92.0
25573,0.70069075,0.42814636,-0.23813248,0.078588866,-0.32497558,0.61915284,92.0
25574,0.57521343,0.7471466,0.20097351,0.078588866,-0.32497558,0.61915284,92.0
25575,0.57521343,0.7471466,0.20097351,0.06584473,-0.18797608,0.64782715,92.0
25576,0.20403051,0.46772766,0.18341064,0.06584473,-0.18797608,0.64782715,92.0
25577,0.20403051,0.46772766,0.18341064,0.16567384,-0.1539917,0.73809814,92.0
25578,-0.046333313,0.36893463,0.23676682,0.16567384,-0.1539917,0.73809814,92.0
25579,-0.046333313,0.36893463,0.23676682,0.09664307,-0.1274414,0.79969484,92.0
25580,-0.10475445,0.4917221,0.42601013,0.09664307,-0.1274414,0.79969484,92.0
25581,-0.10475445,0.4917221,0.42601013,0.060534667,-0.09770508,0.86553955,92.0
25582,-0.10830307,0.55083466,0.48740387,0.060534667,-0.09770508,0.86553955,92.0
25583,-0.10830307,0.55083466,0.48740387,0.045666505,-0.0637207,0.98236084,92.0
25584,-0.10830307,0.55083466,0.48740387,0.045666505,-0.0637207,0.98236084,93.0
25585,-0.112215996,0.2825241,0.42232132,0.045666505,-0.0637207,0.98236084,93.0
25586,-0.112215996,0.2825241,0.42232132,0.1731079,0.012744141,1.0365235,93.0
25587,-0.23087406,-0.1846695,0.22519684,0.1731079,0.012744141,1.0365235,93.0
25588,-0.23087406,-0.1846695,0.22519684,-0.13699952,0.08283692,1.0991821,93.0
25589,-0.36588812,-0.5382843,-0.19695663,-0.13699952,0.08283692,1.0991821,93.0
25590,-0.36588812,-0.5382843,-0.19695663,-0.19434814,0.0637207,0.9239502,93.0
25591,-0.3661847,-0.64029694,-0.4454689,-0.19434814,0.0637207,0.9239502,93.0
25592,-0.3661847,-0.64029694,-0.4454689,-0.09133301,0.19434814,0.99935305,93.0
25593,-0.3277502,-0.59986115,-0.28549957,-0.09133301,0.19434814,0.99935305,93.0
25594,-0.3277502,-0.59986115,-0.28549957,-0.10089111,0.18266602,0.901648,93.0
25595,-0.25606012,-0.24816132,-0.09369278,-0.10089111,0.18266602,0.901648,93.0
25596,-0.25606012,-0.24816132,-0.09369278,-0.32709962,0.10407715,0.86978763,93.0
25597,-0.42978716,0.17717743,0.27503204,-0.32709962,0.10407715,0.86978763,93.0
25598,-0.42978716,0.17717743,0.27503204,0.083898924,0.12213135,1.09281,93.0
25599,-0.6798649,0.18873596,0.6626282,0.083898924,0.12213135,1.09281,93.0
25600,-0.6798649,0.18873596,0.6626282,-0.16248779,0.16885987,0.88996583,93.0
25601,-0.4728837,-0.038780212,0.39248276,-0.16248779,0.16885987,0.88996583,93.0
25602,-0.4728837,-0.038780212,0.39248276,-0.16885987,0.17523193,0.8878418,93.0
25603,-0.013182163,-0.141922,-0.32263565,-0.16885987,0.17523193,0.8878418,93.0
25604,-0.013182163,-0.141922,-0.32263565,0.021240234,0.10620117,0.8050049,93.0
25605,0.20905876,0.036483765,-0.5652504,0.021240234,0.10620117,0.8050049,93.0
25606,0.20905876,0.036483765,-0.5652504,-0.06478272,0.095581055,0.7604004,93.0
25607,0.005674839,0.36014557,-0.11325836,-0.06478272,0.095581055,0.7604004,93.0
25608,0.005674839,0.36014557,-0.11325836,-0.25913087,0.058410645,0.72004396,93.0
25609,-0.38659763,0.40605164,0.45561218,-0.25913087,0.058410645,0.72004396,93.0
25610,-0.38659763,0.40605164,0.45561218,-0.38763428,0.010620117,0.7657105,93.0
25611,-0.650074,0.04298401,0.6693344,-0.38763428,0.010620117,0.7657105,93.0
25612,-0.650074,0.04298401,0.6693344,-0.24851075,-0.03079834,0.86553955,93.0
25613,-0.5549102,-0.1591034,0.36670685,-0.24851075,-0.03079834,0.86553955,93.0
25614,-0.5549102,-0.1591034,0.36670685,-0.22408448,-0.083898924,0.87615967,93.0
25615,-0.27033186,0.0010986328,-0.21101761,-0.22408448,-0.083898924,0.87615967,93.0
25616,-0.27033186,0.0010986328,-0.21101761,-0.22196046,-0.1359375,0.86341554,93.0
25617,-0.10348463,0.115745544,-0.6257248,-0.22196046,-0.1359375,0.86341554,93.0
25618,-0.10348463,0.115745544,-0.6257248,-0.13806152,-0.19328614,0.83474123,93.0
25619,-0.09389639,0.25028992,-0.76462936,-0.13806152,-0.19328614,0.83474123,93.0
25620,-0.09389639,0.25028992,-0.76462936,-0.04885254,-0.26125488,0.8591675,93.0
25621,-0.24098587,0.4296875,-0.71349716,-0.04885254,-0.26125488,0.8591675,93.0
25622,-0.24098587,0.4296875,-0.71349716,-0.019116212,-0.24532472,0.93775636,93.0
25623,-0.4327669,0.6436691,-0.53832626,-0.019116212,-0.24532472,0.93775636,93.0
25624,-0.4327669,0.6436691,-0.53832626,0.023364259,-0.3164795,0.8995239,93.0
25625,-0.3154273,0.64232635,-0.45671082,0.023364259,-0.3164795,0.8995239,93.0
25626,-0.3154273,0.64232635,-0.45671082,0.2347046,-0.40250245,1.0110352,93.0
25627,0.048561573,0.16409302,0.03355789,0.2347046,-0.40250245,1.0110352,93.0
25628,0.048561573,0.16409302,0.03355789,0.6425171,-0.32072756,1.1873292,93.0
25629,0.23861742,-0.12158203,1.0783958,0.6425171,-0.32072756,1.1873292,93.0
25630,0.23861742,-0.12158203,1.0783958,0.32178956,0.0021240234,0.9154541,93.0
25631,-0.016186237,-0.04434967,1.4690285,0.32178956,0.0021240234,0.9154541,93.0
25632,-0.016186237,-0.04434967,1.4690285,0.13168946,0.15080567,0.90058595,93.0
25633,-0.38558102,-0.044792175,0.878849,0.13168946,0.15080567,0.90058595,93.0
25634,-0.38558102,-0.044792175,0.878849,0.1529297,0.21452637,0.84536135,93.0
25635,-0.3499441,-0.079948425,0.05708313,0.1529297,0.21452637,0.84536135,93.0
25636,-0.3499441,-0.079948425,0.05708313,-0.0180542,0.26762697,0.7614624,93.0
25637,-0.24612951,-0.02153778,-0.5303116,-0.0180542,0.26762697,0.7614624,93.0
25638,-0.24612951,-0.02153778,-0.5303116,0.22833252,0.2803711,0.80819094,93.0
25639,-0.35456944,0.12258911,-0.62184525,0.22833252,0.2803711,0.80819094,93.0
25640,-0.35456944,0.12258911,-0.62184525,0.2357666,0.24320069,0.7582764,93.0
25641,-0.36159706,0.081100464,-0.1725502,0.2357666,0.24320069,0.7582764,93.0
25642,-0.36159706,0.081100464,-0.1725502,0.40462646,0.2347046,0.7848267,93.0
25643,-0.2199421,0.031188965,0.44369888,0.40462646,0.2347046,0.7848267,93.0
25644,-0.2199421,0.031188965,0.44369888,0.28461915,0.31860352,0.57561034,93.0
25645,-0.17672253,0.20362091,0.6832924,0.28461915,0.31860352,0.57561034,93.0
25646,-0.17672253,0.20362091,0.6832924,0.0021240234,0.4322388,0.38657227,93.0
25647,-0.2626915,0.15039825,0.39122772,0.0021240234,0.4322388,0.38657227,93.0
25648,-0.2626915,0.15039825,0.39122772,-0.0180542,0.4991455,0.36745605,93.0
25649,-0.34447956,-0.12476349,-0.092414856,-0.0180542,0.4991455,0.36745605,93.0
25650,-0.34447956,-0.12476349,-0.092414856,-0.03186035,0.5256958,0.17416993,93.0
25651,-0.3527689,-0.22384644,-0.5143242,-0.03186035,0.5256958,0.17416993,93.0
25652,-0.3527689,-0.22384644,-0.5143242,-0.07646485,0.5256958,0.0541626,93.0
25653,-0.25621414,-0.20420837,-0.6293068,-0.07646485,0.5256958,0.0541626,93.0
25654,-0.25621414,-0.20420837,-0.6293068,-0.04248047,0.55968016,-0.0361084,93.0
25655,-0.121658325,-0.12966156,-0.38165665,-0.04248047,0.55968016,-0.0361084,93.0
25656,-0.121658325,-0.12966156,-0.38165665,-0.078588866,0.6180908,-0.20921631,93.0
25657,-0.044128418,0.0067825317,-0.057964325,-0.078588866,0.6180908,-0.20921631,93.0
25658,-0.044128418,0.0067825317,-0.057964325,-0.06478272,0.6669434,-0.31116945,93.0
25659,-0.02833271,0.19715118,0.15860748,-0.06478272,0.6669434,-0.31116945,93.0
25660,-0.02833271,0.19715118,0.15860748,-0.08602295,0.72216797,-0.47896728,93.0
25661,-0.044125557,0.33381653,0.2278862,-0.08602295,0.72216797,-0.47896728,93.0
25662,-0.044125557,0.33381653,0.2278862,-0.1444336,0.7349121,-0.62977296,93.0
25663,-0.07767105,0.2720337,0.12035751,-0.1444336,0.7349121,-0.62977296,93.0
25664,-0.07767105,0.2720337,0.12035751,-0.26125488,0.6149048,-0.81881106,93.0
25665,-0.048452377,0.054626465,0.059360504,-0.26125488,0.6149048,-0.81881106,93.0
25666,-0.048452377,0.054626465,0.059360504,-0.33984375,0.5214478,-0.99085695,93.0
25667,-0.013712883,-0.09780121,0.3419342,-0.33984375,0.5214478,-0.99085695,93.0
25668,-0.013712883,-0.09780121,0.3419342,-0.24213867,0.5915405,-1.0142212,93.0
25669,-0.1946497,0.06825256,0.6200676,-0.24213867,0.5915405,-1.0142212,93.0
25670,-0.1946497,0.06825256,0.6200676,-0.4364868,0.5798584,-1.0120972,93.0
25671,-0.38744545,0.3632965,0.48256683,-0.4364868,0.5798584,-1.0120972,93.0
25672,-0.38744545,0.3632965,0.48256683,-0.4970215,0.52038574,-1.0067872,93.0
25673,-0.38744545,0.3632965,0.48256683,-0.4970215,0.52038574,-1.0067872,92.0
25674,-0.31232452,0.4967804,0.09305954,-0.4970215,0.52038574,-1.0067872,92.0
25675,-0.31232452,0.4967804,0.09305954,-0.61915284,0.50445557,-1.0174073,92.0
25676,-0.19249916,0.5097809,-0.28725815,-0.61915284,0.50445557,-1.0174073,92.0
25677,-0.19249916,0.5097809,-0.28725815,-0.7423462,0.43754885,-1.0407715,92.0
25678,-0.0669384,0.5625076,-0.39501953,-0.7423462,0.43754885,-1.0407715,92.0
25679,-0.0669384,0.5625076,-0.39501953,-0.8379273,0.37489015,-1.0938721,92.0
25680,0.22346306,0.62989044,-0.19963455,-0.8379273,0.37489015,-1.0938721,92.0
25681,0.22346306,0.62989044,-0.19963455,-0.91120607,0.35683593,-1.085376,92.0
25682,0.4374857,0.570282,-0.06422424,-0.91120607,0.35683593,-1.085376,92.0
25683,0.4374857,0.570282,-0.06422424,-1.4963745,0.26444092,-1.0821899,92.0
25684,0.41694355,0.20874023,-0.28787994,-1.4963745,0.26444092,-1.0821899,92.0
25685,0.41694355,0.20874023,-0.28787994,-1.5569092,0.15080567,-0.9260742,92.0
25686,0.31586647,-0.05141449,-0.79148483,-1.5569092,0.15080567,-0.9260742,92.0
25687,0.31586647,-0.05141449,-0.79148483,-1.5133667,0.07646485,-0.77951664,92.0
25688,0.17149258,-0.25344086,-1.2392921,-1.5133667,0.07646485,-0.77951664,92.0
25689,0.17149258,-0.25344086,-1.2392921,-1.7788696,-0.08071289,-0.75296634,92.0
25690,0.11743069,-0.5355377,-1.6006737,-1.7788696,-0.08071289,-0.75296634,92.0
25691,0.11743069,-0.5355377,-1.6006737,-1.9233032,-0.26125488,-0.81243896,92.0
25692,0.45443058,-1.043663,-2.125019,-1.9233032,-0.26125488,-0.81243896,92.0
25693,0.45443058,-1.043663,-2.125019,-1.5654052,-0.38975832,-0.79226077,92.0
25694,0.9521799,-2.2694778,-2.7116623,-1.5654052,-0.38975832,-0.79226077,92.0
25695,0.9521799,-2.2694778,-2.7116623,-0.078588866,-0.61915284,-0.4970215,92.0
25696,1.2816048,-2.7847748,-2.263935,-0.078588866,-0.61915284,-0.4970215,92.0
25697,1.2816048,-2.7847748,-2.263935,1.809668,-0.6053467,0.1529297,92.0
25698,0.89704895,-0.67679596,0.9270706,1.809668,-0.6053467,0.1529297,92.0
25699,0.89704895,-0.67679596,0.9270706,1.8765748,-0.36002198,-0.5299439,92.0
25700,-0.39809608,2.6975784,4.7206345,1.8765748,-0.36002198,-0.5299439,92.0
25701,-0.39809608,2.6975784,4.7206345,0.2262085,-0.0541626,-1.1650269,92.0
25702,-1.1708937,2.7132492,4.8174744,0.2262085,-0.0541626,-1.1650269,92.0
25703,-1.1708937,2.7132492,4.8174744,-0.3536499,-0.16461182,-0.41949463,92.0
25704,-0.26794052,-0.77666473,1.857544,-0.3536499,-0.16461182,-0.41949463,92.0
25705,-0.26794052,-0.77666473,1.857544,1.1660889,-0.61065674,0.24851075,92.0
25706,1.0483308,-2.2446976,-1.2726173,1.1660889,-0.61065674,0.24851075,92.0
25707,1.0483308,-2.2446976,-1.2726173,0.9483765,-0.5522461,-0.15717773,92.0
25708,1.1647635,-0.8879318,-3.1658096,0.9483765,-0.5522461,-0.15717773,92.0
25709,1.1647635,-0.8879318,-3.1658096,0.45666504,-0.53950197,0.06796875,92.0
25710,0.3391719,0.35331726,-2.7555962,0.45666504,-0.53950197,0.06796875,92.0
25711,0.3391719,0.35331726,-2.7555962,0.35152587,-0.541626,-0.11151123,92.0
25712,-1.0021367,1.3259811,-0.27108002,0.35152587,-0.541626,-0.11151123,92.0
25713,-1.0021367,1.3259811,-0.27108002,0.54587406,-0.3079834,-0.32816163,92.0
25714,-1.8016481,1.7847214,1.8260574,0.54587406,-0.3079834,-0.32816163,92.0
25715,-1.8016481,1.7847214,1.8260574,-0.2824951,0.016992187,-0.24001466,92.0
25716,-1.677659,1.4897003,2.1417694,-0.2824951,0.016992187,-0.24001466,92.0
25717,-1.677659,1.4897003,2.1417694,-0.020178223,-0.19116211,-0.7657105,92.0
25718,-0.6936283,0.7094116,1.2756577,-0.020178223,-0.19116211,-0.7657105,92.0
25719,-0.6936283,0.7094116,1.2756577,0.033984374,-0.24957275,-0.27293703,92.0
25720,0.7735033,-0.7164917,-0.042621613,0.033984374,-0.24957275,-0.27293703,92.0
25721,0.7735033,-0.7164917,-0.042621613,-0.007434082,-0.26656494,-0.18691407,92.0
25722,1.5549722,-1.3771973,-0.83763885,-0.007434082,-0.26656494,-0.18691407,92.0
25723,1.5549722,-1.3771973,-0.83763885,-0.04248047,-0.3090454,-0.11469727,92.0
25724,1.416378,-1.15271,-0.5828934,-0.04248047,-0.3090454,-0.11469727,92.0
25725,1.416378,-1.15271,-0.5828934,0.19434814,-0.34833986,0.052038576,92.0
25726,0.8372774,-0.529541,0.17819214,0.19434814,-0.34833986,0.052038576,92.0
25727,0.8372774,-0.529541,0.17819214,0.07540283,-0.2538208,0.15505372,92.0
25728,0.16205788,0.027076721,0.71544266,0.07540283,-0.2538208,0.15505372,92.0
25729,0.16205788,0.027076721,0.71544266,0.11151123,-0.16567384,0.21983643,92.0
25730,-0.54712343,0.32154083,0.72582245,0.11151123,-0.16567384,0.21983643,92.0
25731,-0.54712343,0.32154083,0.72582245,-0.06690674,-0.11044922,0.060534667,92.0
25732,-0.9966831,0.2609787,0.32224655,-0.06690674,-0.11044922,0.060534667,92.0
25733,-0.9966831,0.2609787,0.32224655,-0.019116212,-0.07327881,-0.03079834,92.0
25734,-1.0892897,-0.11833191,-0.26540756,-0.019116212,-0.07327881,-0.03079834,92.0
25735,-1.0892897,-0.11833191,-0.26540756,0.19222413,-0.02442627,-0.15505372,92.0
25736,-0.93900967,-0.6692352,-0.59825134,0.19222413,-0.02442627,-0.15505372,92.0
25737,-0.93900967,-0.6692352,-0.59825134,0.65419924,-0.014868164,-0.0053100586,92.0
25738,-0.6536007,-1.0037689,-0.5353012,0.65419924,-0.014868164,-0.0053100586,92.0
25739,-0.6536007,-1.0037689,-0.5353012,0.71579593,0.08283692,0.010620117,92.0
25740,-0.4009323,-0.91796875,-0.3923874,0.71579593,0.08283692,0.010620117,92.0
25741,-0.4009323,-0.91796875,-0.3923874,0.76677245,0.12850343,-0.059472658,92.0
25742,-0.21311665,-0.47668457,-0.48283005,0.76677245,0.12850343,-0.059472658,92.0
25743,-0.21311665,-0.47668457,-0.48283005,0.69349366,0.24107666,-0.040356446,92.0
25744,-0.20076656,0.0076675415,-0.97114944,0.69349366,0.24107666,-0.040356446,92.0
25745,-0.20076656,0.0076675415,-0.97114944,0.6924316,0.16248779,-0.070092775,92.0
25746,-0.17969322,0.3037262,-1.626236,0.6924316,0.16248779,-0.070092775,92.0
25747,-0.17969322,0.3037262,-1.626236,0.6701294,-0.035046387,-0.10513916,92.0
25748,0.09383106,0.50445557,-2.1062737,0.6701294,-0.035046387,-0.10513916,92.0
25749,0.09383106,0.50445557,-2.1062737,0.36108398,-0.26337892,-0.14549561,92.0
