,accx,accy,accz,gyrox,gyroy,gyroz,heart rate
21843,open,open,open,open,open,open,open
21844,-0.8866811,-0.5453186,0.14570618,-0.24532472,0.16992188,0.28780517,160.0
21845,-0.8866811,-0.5453186,0.14570618,-0.1083252,-0.06478272,0.078588866,160.0
21846,-0.71734047,-0.4185562,0.12155151,-0.1083252,-0.06478272,0.078588866,160.0
21847,-0.5643873,-0.3529606,0.09144592,-0.1083252,-0.06478272,0.078588866,160.0
21848,-0.5643873,-0.3529606,0.09144592,-0.081774905,-0.07752686,0.08920898,160.0
21849,-1.7738609,0.7905941,-0.8717041,-0.081774905,-0.07752686,0.08920898,160.0
21850,-1.7738609,0.7905941,-0.8717041,-0.06796875,-0.08496094,0.07646485,160.0
21851,-1.3370576,0.671196,-0.74508667,-0.06796875,-0.08496094,0.07646485,160.0
21852,-1.3370576,0.671196,-0.74508667,-0.09239502,-0.06690674,0.043542482,160.0
21853,-1.0171804,0.56611824,-0.5237732,-0.09239502,-0.06690674,0.043542482,160.0
21854,-1.0171804,0.56611824,-0.5237732,-0.10938721,-0.046728518,0.025488282,160.0
21855,-0.80058527,0.4231701,-0.37294006,-0.10938721,-0.046728518,0.025488282,160.0
21856,-0.80058527,0.4231701,-0.37294006,-0.095581055,-0.04460449,0.010620117,160.0
21857,-0.65263844,0.2929058,-0.28352356,-0.095581055,-0.04460449,0.010620117,160.0
21858,-0.65263844,0.2929058,-0.28352356,-0.07752686,-0.05628662,0.0021240234,160.0
21859,-0.50630236,0.18322754,-0.18951416,-0.07752686,-0.05628662,0.0021240234,160.0
21860,-0.50630236,0.18322754,-0.18951416,-0.0637207,-0.0637207,0.0053100586,160.0
21861,-0.35813046,0.119140625,-0.09535217,-0.0637207,-0.0637207,0.0053100586,160.0
21862,-0.35813046,0.119140625,-0.09535217,-0.0637207,-0.0637207,0.0021240234,160.0
21863,-0.22057438,0.10434532,-0.031585693,-0.0637207,-0.0637207,0.0021240234,160.0
21864,-0.22057438,0.10434532,-0.031585693,-0.08071289,-0.06265869,0.0,160.0
21865,-0.12338352,0.097940445,-0.0068511963,-0.08071289,-0.06265869,0.0,160.0
21866,-0.12338352,0.097940445,-0.0068511963,-0.098767094,-0.050976563,-0.0021240234,160.0
21867,-0.12338352,0.097940445,-0.0068511963,-0.11044922,-0.04248047,-0.004248047,160.0
21868,-0.06599188,0.08385849,-0.009552002,-0.11044922,-0.04248047,-0.004248047,160.0
21869,-0.047678947,0.028305054,-0.015304565,-0.11044922,-0.04248047,-0.004248047,160.0
21870,-0.047678947,0.028305054,-0.015304565,-0.124255374,-0.038232423,0.0,160.0
21871,-0.072591305,-0.056934357,-0.038619995,-0.124255374,-0.038232423,0.0,160.0
21872,-0.072591305,-0.056934357,-0.038619995,-0.13168946,-0.029736329,0.009558106,160.0
21873,-0.11811924,-0.09183502,-0.118759155,-0.13168946,-0.029736329,0.009558106,160.0
21874,-0.11811924,-0.09183502,-0.118759155,-0.07540283,-0.043542482,-0.012744141,160.0
21875,-0.14792538,-0.030694962,-0.21081543,-0.07540283,-0.043542482,-0.012744141,160.0
21876,-0.14792538,-0.030694962,-0.21081543,-0.07540283,-0.060534667,-0.038232423,160.0
21877,-0.1459527,0.055252075,-0.2516327,-0.07540283,-0.060534667,-0.038232423,160.0
21878,-0.1459527,0.055252075,-0.2516327,-0.10195313,-0.08071289,-0.06796875,160.0
21879,-0.14118862,0.06716347,-0.2400055,-0.10195313,-0.08071289,-0.06796875,160.0
21880,-0.14118862,0.06716347,-0.2400055,-0.1083252,-0.10195313,-0.095581055,160.0
21881,-0.133605,-0.001285553,-0.1904602,-0.1083252,-0.10195313,-0.095581055,160.0
21882,-0.133605,-0.001285553,-0.1904602,-0.10089111,-0.1274414,-0.118945315,160.0
21883,-0.101317406,-0.08575821,-0.12574768,-0.10089111,-0.1274414,-0.118945315,160.0
21884,-0.101317406,-0.08575821,-0.12574768,-0.11151123,-0.14868164,-0.14018555,160.0
21885,-0.101317406,-0.08575821,-0.12574768,-0.11257324,-0.16885987,-0.15611573,160.0
21886,-0.05338049,-0.13741684,-0.0909729,-0.11257324,-0.16885987,-0.15611573,160.0
21887,-0.011381149,-0.20641899,-0.07267761,-0.11257324,-0.16885987,-0.15611573,160.0
21888,-0.011381149,-0.20641899,-0.07267761,-0.08920898,-0.19541016,-0.16142578,160.0
21889,0.054676533,-0.3252926,-0.031951904,-0.08920898,-0.19541016,-0.16142578,160.0
21890,0.054676533,-0.3252926,-0.031951904,-0.04248047,-0.20709229,-0.14124756,160.0
21891,0.16199064,-0.43583298,0.026794434,-0.04248047,-0.20709229,-0.14124756,160.0
21892,0.16199064,-0.43583298,0.026794434,-0.045666505,-0.21346436,-0.12319336,160.0
21893,0.24719524,-0.45931244,0.0771637,-0.045666505,-0.21346436,-0.12319336,160.0
21894,0.24719524,-0.45931244,0.0771637,-0.12213135,-0.20603028,-0.12000733,160.0
21895,0.28528023,-0.39880943,0.11395264,-0.12213135,-0.20603028,-0.12000733,160.0
21896,0.28528023,-0.39880943,0.11395264,-0.25594482,-0.17523193,-0.13381349,160.0
21897,0.3014784,-0.2842102,0.0778656,-0.25594482,-0.17523193,-0.13381349,160.0
21898,0.3014784,-0.2842102,0.0778656,-0.15186767,-0.20178223,-0.14974366,160.0
21899,0.34889793,-0.10078049,-0.047836304,-0.15186767,-0.20178223,-0.14974366,160.0
21900,0.34889793,-0.10078049,-0.047836304,-0.098767094,-0.21134034,-0.17947999,160.0
21901,0.40273905,0.1379795,-0.103302,-0.098767094,-0.21134034,-0.17947999,160.0
21902,0.40273905,0.1379795,-0.103302,-0.14230958,-0.22833252,-0.1539917,160.0
21903,0.41025257,0.26342392,-0.022262573,-0.14230958,-0.22833252,-0.1539917,160.0
21904,0.41025257,0.26342392,-0.022262573,-0.31010744,-0.20390625,-0.21452637,160.0
21905,0.41363907,0.1563797,0.08366394,-0.31010744,-0.20390625,-0.21452637,160.0
21906,0.41363907,0.1563797,0.08366394,-0.28780517,-0.22302246,-0.23789063,160.0
21907,0.3879547,-0.07305336,0.123306274,-0.28780517,-0.22302246,-0.23789063,160.0
21908,0.3879547,-0.07305336,0.123306274,-0.2888672,-0.20284425,-0.25594482,160.0
21909,0.35057402,-0.25515938,0.12825012,-0.2888672,-0.20284425,-0.25594482,160.0
21910,0.35057402,-0.25515938,0.12825012,-0.3525879,-0.19647217,-0.23789063,160.0
21911,0.35057402,-0.25515938,0.12825012,-0.54587406,-0.16567384,-0.18266602,160.0
21912,0.371377,-0.2848282,0.13096619,-0.54587406,-0.16567384,-0.18266602,160.0
21913,0.33524895,-0.20902634,0.11581421,-0.54587406,-0.16567384,-0.18266602,160.0
21914,0.33524895,-0.20902634,0.11581421,-0.47684327,-0.20390625,-0.10195313,160.0
21915,0.19244242,-0.15033913,0.060424805,-0.47684327,-0.20390625,-0.10195313,160.0
21916,0.19244242,-0.15033913,0.060424805,-0.33665773,-0.23258057,-0.14124756,160.0
21917,0.06533098,-0.19644356,-0.030044556,-0.33665773,-0.23258057,-0.14124756,160.0
21918,0.06533098,-0.19644356,-0.030044556,-0.2538208,-0.2442627,-0.15930176,160.0
21919,0.06533098,-0.19644356,-0.030044556,0.0010620117,-0.26868898,-0.1996582,160.0
21920,-0.04474449,-0.3070221,-0.100875854,0.0010620117,-0.26868898,-0.1996582,160.0
21921,-0.0059375763,-0.27865028,-0.123062134,0.0010620117,-0.26868898,-0.1996582,160.0
21922,-0.0059375763,-0.27865028,-0.123062134,0.07115479,-0.29523927,-0.25594482,160.0
21923,0.21910238,-0.13973999,-0.04663086,0.07115479,-0.29523927,-0.25594482,160.0
21924,0.21910238,-0.13973999,-0.04663086,-0.32603762,-0.22514649,-0.26762697,160.0
21925,0.383595,-0.1319828,0.08299255,-0.32603762,-0.22514649,-0.26762697,160.0
21926,0.383595,-0.1319828,0.08299255,-0.34940186,-0.22939454,-0.24001466,160.0
21927,0.39647532,-0.23159981,0.11029053,-0.34940186,-0.22939454,-0.24001466,160.0
21928,0.39647532,-0.23159981,0.11029053,-0.16779785,-0.2527588,-0.24107666,160.0
21929,0.3683033,-0.279274,-0.01777649,-0.16779785,-0.2527588,-0.24107666,160.0
21930,0.3683033,-0.279274,-0.01777649,-0.2814331,-0.2357666,-0.271875,160.0
21931,0.2872815,-0.3184147,-0.19926453,-0.2814331,-0.2357666,-0.271875,160.0
21932,0.2872815,-0.3184147,-0.19926453,-0.18266602,-0.28674316,-0.24107666,160.0
21933,0.14632893,-0.32029724,-0.3510437,-0.18266602,-0.28674316,-0.24107666,160.0
21934,0.14632893,-0.32029724,-0.3510437,-0.0063720704,-0.34727785,-0.27612305,160.0
21935,0.101438046,-0.20490646,-0.39759827,-0.0063720704,-0.34727785,-0.27612305,160.0
21936,0.101438046,-0.20490646,-0.39759827,-0.13381349,-0.39506838,-0.31860352,160.0
21937,0.18504477,-0.057640076,-0.32635498,-0.13381349,-0.39506838,-0.31860352,160.0
21938,0.18504477,-0.057640076,-0.32635498,-0.25700685,-0.4343628,-0.270813,160.0
21939,0.32098484,-0.058502197,-0.23851013,-0.25700685,-0.4343628,-0.270813,160.0
21940,0.32098484,-0.058502197,-0.23851013,-0.4895874,-0.4715332,-0.2803711,160.0
21941,0.398304,-0.3355465,-0.19970703,-0.4895874,-0.4715332,-0.2803711,160.0
21942,0.398304,-0.3355465,-0.19970703,-0.48215333,-0.48746338,-0.2899292,160.0
21943,0.54203224,-0.5304241,-0.15248108,-0.48215333,-0.48746338,-0.2899292,160.0
21944,0.54203224,-0.5304241,-0.15248108,-0.20072022,-0.5798584,-0.2803711,160.0
21945,0.78386974,-0.51371956,-0.09284973,-0.20072022,-0.5798584,-0.2803711,160.0
21946,0.78386974,-0.51371956,-0.09284973,-0.5278198,-0.55968016,-0.1720459,160.0
21947,0.8826504,-0.59415436,-0.0340271,-0.5278198,-0.55968016,-0.1720459,160.0
21948,0.8826504,-0.59415436,-0.0340271,-0.5894165,-0.5628662,-0.18903808,160.0
21949,0.83607626,-0.72488403,0.072631836,-0.5894165,-0.5628662,-0.18903808,160.0
21950,0.83607626,-0.72488403,0.072631836,-0.5936646,-0.5703003,-0.04248047,160.0
21951,0.7002821,-0.75951004,0.16159058,-0.5936646,-0.5703003,-0.04248047,160.0
21952,0.7002821,-0.75951004,0.16159058,-0.724292,-0.5692383,0.04460449,160.0
21953,0.4593835,-0.8472214,0.19664001,-0.724292,-0.5692383,0.04460449,160.0
21954,0.4593835,-0.8472214,0.19664001,-1.1289185,-0.5065796,0.021240234,160.0
21955,0.33999252,-1.2194042,0.17744446,-1.1289185,-0.5065796,0.021240234,160.0
21956,0.33999252,-1.2194042,0.17744446,-1.0216553,-0.48109132,0.10195313,160.0
21957,0.53940105,-1.6941757,0.0705719,-1.0216553,-0.48109132,0.10195313,160.0
21958,0.53940105,-1.6941757,0.0705719,-0.2262085,-0.49489745,0.25063476,160.0
21959,0.77532005,-1.6347237,-0.24862671,-0.2262085,-0.49489745,0.25063476,160.0
21960,0.77532005,-1.6347237,-0.24862671,0.38232422,-0.53950197,0.3462158,160.0
21961,0.7483444,-0.7801552,-0.67129517,0.38232422,-0.53950197,0.3462158,160.0
21962,0.7483444,-0.7801552,-0.67129517,0.44710693,-0.57242435,0.39506838,160.0
21963,0.5781431,0.26228905,-0.81941223,0.44710693,-0.57242435,0.39506838,160.0
21964,0.5781431,0.26228905,-0.81941223,0.118945315,-0.5299439,0.35471192,160.0
21965,0.5140648,0.6674614,-0.64346313,0.118945315,-0.5299439,0.35471192,160.0
21966,0.5140648,0.6674614,-0.64346313,-0.004248047,-0.47471926,0.27506104,160.0
21967,0.7364836,0.4162693,-0.35066223,-0.004248047,-0.47471926,0.27506104,160.0
21968,0.7364836,0.4162693,-0.35066223,0.18797608,-0.4078125,0.25806886,160.0
21969,1.17659,0.14965439,0.021316528,0.18797608,-0.4078125,0.25806886,160.0
21970,1.17659,0.14965439,0.021316528,0.3154175,-0.20390625,0.2442627,160.0
21971,1.4314089,0.1673069,0.34561157,0.3154175,-0.20390625,0.2442627,160.0
21972,1.4314089,0.1673069,0.34561157,0.40462646,0.0010620117,0.2888672,160.0
21973,1.1308327,0.37545967,0.40122986,0.40462646,0.0010620117,0.2888672,160.0
21974,1.1308327,0.37545967,0.40122986,0.5479981,0.10407715,0.27506104,160.0
21975,0.4698391,0.6055794,0.29814148,0.5479981,0.10407715,0.27506104,160.0
21976,0.4698391,0.6055794,0.29814148,0.721106,0.13699952,0.20496826,160.0
21977,-0.06486416,0.6254425,0.3100891,0.721106,0.13699952,0.20496826,160.0
21978,-0.06486416,0.6254425,0.3100891,0.8219971,0.17416993,0.16461182,160.0
21979,-0.26363468,0.49134445,0.44430542,0.8219971,0.17416993,0.16461182,160.0
21980,-0.26363468,0.49134445,0.44430542,0.8952759,0.22514649,0.15930176,160.0
21981,-0.30276585,0.46645164,0.4925232,0.8952759,0.22514649,0.15930176,160.0
21982,-0.30276585,0.46645164,0.4925232,0.94412845,0.28355715,0.16567384,160.0
21983,-0.33553505,0.62195396,0.34783936,0.94412845,0.28355715,0.16567384,160.0
21984,-0.33553505,0.62195396,0.34783936,0.9388184,0.3345337,0.121069334,160.0
21985,-0.3883381,0.82522583,0.0897522,0.9388184,0.3345337,0.121069334,160.0
21986,-0.3883381,0.82522583,0.0897522,0.7720825,0.36745605,0.095581055,160.0
21987,-0.46228218,0.8714237,-0.05256653,0.7720825,0.36745605,0.095581055,160.0
21988,-0.46228218,0.8714237,-0.05256653,0.5809204,0.4163086,0.08283692,160.0
21989,-0.591444,0.69270897,-0.0050354004,0.5809204,0.4163086,0.08283692,160.0
21990,-0.591444,0.69270897,-0.0050354004,0.452417,0.50445557,0.04991455,160.0
21991,-0.74927807,0.5065594,0.04928589,0.452417,0.50445557,0.04991455,160.0
21992,-0.74927807,0.5065594,0.04928589,0.41312256,0.6064087,0.0541626,160.0
21993,-0.71236134,0.5064087,0.024734497,0.41312256,0.6064087,0.0541626,160.0
21994,-0.71236134,0.5064087,0.024734497,0.30267334,0.67331547,0.021240234,160.0
21995,-0.40652275,0.589283,-0.018447876,0.30267334,0.67331547,0.021240234,160.0
21996,-0.40652275,0.589283,-0.018447876,0.0180542,0.7593384,0.053100586,160.0
21997,-0.17582893,0.48919868,-0.02470398,0.0180542,0.7593384,0.053100586,160.0
21998,-0.17582893,0.48919868,-0.02470398,-0.16779785,0.8219971,0.087084964,160.0
21999,-0.22019196,0.21849442,0.028808594,-0.16779785,0.8219971,0.087084964,160.0
22000,-0.22019196,0.21849442,0.028808594,-0.17947999,0.8506714,0.14655761,160.0
22001,-0.4096012,0.03492737,0.07884216,-0.17947999,0.8506714,0.14655761,160.0
22002,-0.4096012,0.03492737,0.07884216,-0.19116211,0.8644776,0.19753419,160.0
22003,-0.67770576,0.028173447,0.050354004,-0.19116211,0.8644776,0.19753419,160.0
22004,-0.67770576,0.028173447,0.050354004,-0.24744873,0.8517334,0.23151855,160.0
22005,-1.0012589,0.07452774,-0.02015686,-0.24744873,0.8517334,0.23151855,160.0
22006,-1.0012589,0.07452774,-0.02015686,-0.2623169,0.81668705,0.24213867,160.0
22007,-1.2624817,0.06292915,-0.06324768,-0.2623169,0.81668705,0.24213867,160.0
22008,-1.2624817,0.06292915,-0.06324768,-0.22196046,0.7614624,0.22727051,160.0
22009,-1.342444,-0.0073223114,-0.014541626,-0.22196046,0.7614624,0.22727051,160.0
22010,-1.342444,-0.0073223114,-0.014541626,-0.13062744,0.7062378,0.21452637,160.0
22011,-1.2695117,-0.056346893,0.07737732,-0.13062744,0.7062378,0.21452637,160.0
22012,-1.2695117,-0.056346893,0.07737732,-0.07327881,0.6510132,0.19753419,160.0
22013,-1.1486778,-0.06517029,0.14277649,-0.07327881,0.6510132,0.19753419,160.0
22014,-1.1486778,-0.06517029,0.14277649,-0.0722168,0.6149048,0.18160401,160.0
22015,-1.0025725,-0.071777344,0.14865112,-0.0722168,0.6149048,0.18160401,160.0
22016,-1.0025725,-0.071777344,0.14865112,-0.1263794,0.59047854,0.14868164,160.0
22017,-0.8518386,-0.14982986,0.12704468,-0.1263794,0.59047854,0.14868164,160.0
22018,-0.8518386,-0.14982986,0.12704468,-0.124255374,0.5703003,0.11469727,160.0
22019,-0.71287966,-0.26446915,0.112197876,-0.124255374,0.5703003,0.11469727,160.0
22020,-0.71287966,-0.26446915,0.112197876,-0.070092775,0.54693604,0.10301514,160.0
22021,-0.60785246,-0.2794571,0.07147217,-0.070092775,0.54693604,0.10301514,160.0
22022,-0.60785246,-0.2794571,0.07147217,-0.098767094,0.5363159,0.07646485,160.0
22023,-0.58070326,-0.17844772,-0.02696228,-0.098767094,0.5363159,0.07646485,160.0
22024,-0.58070326,-0.17844772,-0.02696228,-0.17416993,0.50020754,0.03717041,160.0
22025,-0.60613966,-0.12763214,-0.12678528,-0.17416993,0.50020754,0.03717041,160.0
22026,-0.60613966,-0.12763214,-0.12678528,-0.22514649,0.45560303,0.014868164,160.0
22027,-0.6189327,-0.2132988,-0.14247131,-0.22514649,0.45560303,0.014868164,160.0
22028,-0.6189327,-0.2132988,-0.14247131,-0.21983643,0.39613038,0.011682129,160.0
22029,-0.6354046,-0.3400612,-0.07926941,-0.21983643,0.39613038,0.011682129,160.0
22030,-0.6354046,-0.3400612,-0.07926941,-0.18903808,0.32603762,0.009558106,160.0
22031,-0.634984,-0.39176178,-0.014221191,-0.18903808,0.32603762,0.009558106,160.0
22032,-0.634984,-0.39176178,-0.014221191,-0.1731079,0.2548828,0.007434082,160.0
22033,-0.5867467,-0.35955048,0.005279541,-0.1731079,0.2548828,0.007434082,160.0
22034,-0.5867467,-0.35955048,0.005279541,-0.21027832,0.18903808,-0.004248047,160.0
22035,-0.48945332,-0.30434036,-0.015457153,-0.21027832,0.18903808,-0.004248047,160.0
22036,-0.48945332,-0.30434036,-0.015457153,-0.25806886,0.13062744,-0.023364259,160.0
22037,-0.40472174,-0.29170227,-0.025985718,-0.25806886,0.13062744,-0.023364259,160.0
22038,-0.40472174,-0.29170227,-0.025985718,-0.32922363,0.087084964,-0.03186035,160.0
22039,-0.3396101,-0.3610363,0.011184692,-0.32922363,0.087084964,-0.03186035,160.0
22040,-0.3396101,-0.3610363,0.011184692,-0.38232422,0.060534667,-0.058410645,160.0
22041,-0.23826504,-0.4486313,0.057785034,-0.38232422,0.060534667,-0.058410645,160.0
22042,-0.23826504,-0.4486313,0.057785034,-0.40356445,0.04460449,-0.08920898,160.0
22043,-0.12208176,-0.4706974,0.056671143,-0.40356445,0.04460449,-0.08920898,160.0
22044,-0.12208176,-0.4706974,0.056671143,-0.47896728,0.019116212,-0.13062744,160.0
22045,-0.1447115,-0.45181465,0.030380249,-0.47896728,0.019116212,-0.13062744,160.0
22046,-0.1447115,-0.45181465,0.030380249,-0.5713623,-0.019116212,-0.18585205,160.0
22047,-0.26357222,-0.4910164,0.019607544,-0.5713623,-0.019116212,-0.18585205,160.0
22048,-0.26357222,-0.4910164,0.019607544,-0.630835,-0.045666505,-0.24638672,160.0
22049,-0.26776695,-0.6093426,0.041503906,-0.630835,-0.045666505,-0.24638672,160.0
22050,-0.26776695,-0.6093426,0.041503906,-0.7189819,-0.04141846,-0.30161133,160.0
22051,-0.14027548,-0.7617283,0.040161133,-0.7189819,-0.04141846,-0.30161133,160.0
22052,-0.14027548,-0.7617283,0.040161133,-0.7975708,-0.033984374,-0.33878174,160.0
22053,-0.03546238,-0.90885735,0.018173218,-0.7975708,-0.033984374,-0.33878174,160.0
22054,-0.03546238,-0.90885735,0.018173218,-0.90802,-0.04248047,-0.3791382,160.0
22055,-0.0026373863,-1.0365219,0.011230469,-0.90802,-0.04248047,-0.3791382,160.0
22056,-0.0026373863,-1.0365219,0.011230469,-1.083252,-0.033984374,-0.42799073,160.0
22057,0.06515074,-1.2023621,0.011810303,-1.083252,-0.033984374,-0.42799073,160.0
22058,0.06515074,-1.2023621,0.011810303,-1.2839721,0.004248047,-0.48321533,160.0
22059,0.17531395,-1.4263802,-0.048080444,-1.2839721,0.004248047,-0.48321533,160.0
22060,0.17531395,-1.4263802,-0.048080444,-1.4953126,0.03186035,-0.5256958,160.0
22061,0.118254185,-1.6636257,-0.15647888,-1.4953126,0.03186035,-0.5256958,160.0
22062,0.118254185,-1.6636257,-0.15647888,-1.6418701,-0.0010620117,-0.51826173,160.0
22063,-0.07702732,-1.7898235,-0.22261047,-1.6418701,-0.0010620117,-0.51826173,160.0
22064,-0.07702732,-1.7898235,-0.22261047,-1.7342652,-0.0361084,-0.5278198,160.0
22065,-0.11099911,-1.7725201,-0.2535553,-1.7342652,-0.0361084,-0.5278198,160.0
22066,-0.11099911,-1.7725201,-0.2535553,-1.9190552,-0.040356446,-0.52888185,160.0
22067,0.030927181,-1.7883396,-0.32336426,-1.9190552,-0.040356446,-0.52888185,160.0
22068,0.030927181,-1.7883396,-0.32336426,-2.069861,-0.032922365,-0.5150757,160.0
22069,0.04587221,-2.025753,-0.39172363,-2.069861,-0.032922365,-0.5150757,160.0
22070,0.04587221,-2.025753,-0.39172363,-1.9392334,-0.10407715,-0.4619751,160.0
22071,-0.118160725,-2.3248262,-0.3735199,-1.9392334,-0.10407715,-0.4619751,160.0
22072,-0.118160725,-2.3248262,-0.3735199,-1.6248779,-0.21558838,-0.42799073,160.0
22073,-0.14707994,-2.3344097,-0.31285095,-1.6248779,-0.21558838,-0.42799073,160.0
22074,-0.14707994,-2.3344097,-0.31285095,-1.3275146,-0.2824951,-0.43967286,160.0
22075,0.16320753,-2.0447617,-0.28941345,-1.3275146,-0.2824951,-0.43967286,160.0
22076,0.16320753,-2.0447617,-0.28941345,-1.2499878,-0.28568116,-0.4619751,160.0
22077,0.55736065,-1.7094173,-0.30947876,-1.2499878,-0.28568116,-0.4619751,160.0
22078,0.55736065,-1.7094173,-0.30947876,-1.2499878,-0.28568116,-0.4619751,0.0
22079,0.55736065,-1.7094173,-0.30947876,-1.3742431,-0.25700685,-0.49383545,0.0
22080,0.6080346,-1.5280437,-0.28341675,-1.3742431,-0.25700685,-0.49383545,0.0
22081,0.6080346,-1.5280437,-0.28341675,-1.3784913,-0.2824951,-0.53525394,0.0
22082,0.4321308,-1.471837,-0.19316101,-1.3784913,-0.2824951,-0.53525394,0.0
22083,0.4321308,-1.471837,-0.19316101,-1.3030884,-0.29523927,-0.6244629,0.0
22084,0.4846573,-1.419755,-0.1272583,-1.3030884,-0.29523927,-0.6244629,0.0
22085,0.4846573,-1.419755,-0.1272583,-1.3041505,-0.2527588,-0.724292,0.0
22086,0.84630775,-1.3978405,-0.22918701,-1.3041505,-0.2527588,-0.724292,0.0
22087,0.84630775,-1.3978405,-0.22918701,-1.3859253,-0.1731079,-0.8262451,0.0
22088,1.2353468,-1.4628887,-0.5490875,-1.3859253,-0.1731079,-0.8262451,0.0
22089,1.2353468,-1.4628887,-0.5490875,-1.447522,-0.1444336,-0.8591675,0.0
22090,1.4465542,-1.4887314,-0.9231262,-1.447522,-0.1444336,-0.8591675,0.0
22091,1.4465542,-1.4887314,-0.9231262,-1.4369019,-0.16036378,-0.9430664,0.0
22092,1.4666429,-1.3496761,-1.0894623,-1.4369019,-0.16036378,-0.9430664,0.0
22093,1.4666429,-1.3496761,-1.0894623,-1.4772583,-0.17416993,-1.0588257,0.0
22094,1.3461657,-1.1518726,-0.9998169,-1.4772583,-0.17416993,-1.0588257,0.0
22095,1.3461657,-1.1518726,-0.9998169,-1.6004517,-0.16248779,-1.1544068,0.0
22096,1.2252235,-1.0700569,-0.79803467,-1.6004517,-0.16248779,-1.1544068,0.0
22097,1.2252235,-1.0700569,-0.79803467,-1.622754,-0.1985962,-1.2457398,0.0
22098,1.2147121,-1.1048851,-0.64668274,-1.622754,-0.1985962,-1.2457398,0.0
22099,1.2147121,-1.1048851,-0.64668274,-1.6195679,-0.25594482,-1.3466309,0.0
22100,1.2999315,-1.1666107,-0.60435486,-1.6195679,-0.25594482,-1.3466309,0.0
22101,1.2999315,-1.1666107,-0.60435486,-1.5707153,-0.29205322,-1.4708862,0.0
22102,1.3476357,-1.2441282,-0.63279724,-1.5707153,-0.29205322,-1.4708862,0.0
22103,1.3476357,-1.2441282,-0.63279724,-1.3774292,-0.38232422,-1.5176147,0.0
22104,1.2581263,-1.2598906,-0.65515137,-1.3774292,-0.38232422,-1.5176147,0.0
22105,1.2581263,-1.2598906,-0.65515137,-1.1586548,-0.4959595,-1.5229248,0.0
22106,1.170392,-1.1264668,-0.5966644,-1.1586548,-0.4959595,-1.5229248,0.0
22107,1.170392,-1.1264668,-0.5966644,-0.9674927,-0.58198243,-1.5271729,0.0
22108,1.1828709,-0.9076433,-0.4825592,-0.9674927,-0.58198243,-1.5271729,0.0
22109,1.1828709,-0.9076433,-0.4825592,-0.82836914,-0.5883545,-1.5484132,0.0
22110,1.236104,-0.7307043,-0.43644714,-0.82836914,-0.5883545,-1.5484132,0.0
22111,1.236104,-0.7307043,-0.43644714,-0.7062378,-0.5692383,-1.6015137,0.0
22112,1.2629433,-0.6360283,-0.5407562,-0.7062378,-0.5692383,-1.6015137,0.0
22113,1.2629433,-0.6360283,-0.5407562,-0.544812,-0.53950197,-1.6439942,0.0
22114,1.2226963,-0.5002899,-0.72247314,-0.544812,-0.53950197,-1.6439942,0.0
22115,1.2226963,-0.5002899,-0.72247314,-0.41312256,-0.5299439,-1.6068238,0.0
22116,1.1187458,-0.26285362,-0.7565155,-0.41312256,-0.5299439,-1.6068238,0.0
22117,1.1187458,-0.26285362,-0.7565155,-0.41737062,-0.5129517,-1.5877075,0.0
22118,1.0507336,-0.1248827,-0.80303955,-0.41737062,-0.5129517,-1.5877075,0.0
22119,1.0507336,-0.1248827,-0.80303955,-0.4619751,-0.40993652,-1.5792115,0.0
22120,1.0129128,0.013508797,-0.7383423,-0.4619751,-0.40993652,-1.5792115,0.0
22121,1.0129128,0.013508797,-0.7383423,-0.43117675,-0.37489015,-1.5696534,0.0
22122,0.97345257,0.065018654,-0.704834,-0.43117675,-0.37489015,-1.5696534,0.0
22123,0.97345257,0.065018654,-0.704834,-0.5214478,-0.19222413,-1.5112427,0.0
22124,0.8251486,0.21959305,-0.6282959,-0.5214478,-0.19222413,-1.5112427,0.0
22125,0.8251486,0.21959305,-0.6282959,-0.53737795,-0.13699952,-1.4740723,0.0
22126,0.55678654,0.20622826,-0.72380066,-0.53737795,-0.13699952,-1.4740723,0.0
22127,0.55678654,0.20622826,-0.72380066,-0.4322388,0.012744141,-1.3827393,0.0
22128,0.4726143,0.24735546,-0.6969757,-0.4322388,0.012744141,-1.3827393,0.0
22129,0.4726143,0.24735546,-0.6969757,-0.36639404,0.053100586,-1.3391968,0.0
22130,0.3676052,0.15238857,-0.8748779,-0.36639404,0.053100586,-1.3391968,0.0
22131,0.3676052,0.15238857,-0.8748779,-0.15186767,0.16673584,-1.2064453,0.0
22132,0.32793427,0.23233604,-0.77415466,-0.15186767,0.16673584,-1.2064453,0.0
22133,0.32793427,0.23233604,-0.77415466,-0.0541626,0.19116211,-1.1597168,0.0
22134,0.2892027,0.29974842,-0.8047333,-0.0541626,0.19116211,-1.1597168,0.0
22135,0.2892027,0.29974842,-0.8047333,0.18797608,0.24532472,-1.0205933,0.0
22136,0.26184273,0.4281044,-0.6348114,0.18797608,0.24532472,-1.0205933,0.0
22137,0.26184273,0.4281044,-0.6348114,0.23682861,0.2623169,-0.9685547,0.0
22138,0.27680779,0.67934895,-0.49061584,0.23682861,0.2623169,-0.9685547,0.0
22139,0.27680779,0.67934895,-0.49061584,0.26444092,0.29311523,-0.81031495,0.0
22140,0.25202465,0.7478256,-0.33277893,0.26444092,0.29311523,-0.81031495,0.0
22141,0.25202465,0.7478256,-0.33277893,0.23258057,0.30479738,-0.7540283,0.0
22142,0.2525959,0.84647846,-0.17686462,0.23258057,0.30479738,-0.7540283,0.0
22143,0.2525959,0.84647846,-0.17686462,0.17735596,0.31329346,-0.62552494,0.0
22144,0.27020454,0.8418312,-0.03375244,0.17735596,0.31329346,-0.62552494,0.0
22145,0.27020454,0.8418312,-0.03375244,0.1263794,0.32072756,-0.4895874,0.0
22146,0.29887772,0.777689,0.065475464,0.1263794,0.32072756,-0.4895874,0.0
22147,0.29887772,0.777689,0.065475464,0.043542482,0.31223145,-0.3419678,0.0
22148,0.3222437,0.7073803,0.1126709,0.043542482,0.31223145,-0.3419678,0.0
22149,0.3222437,0.7073803,0.1126709,-0.043542482,0.29205322,-0.19222413,0.0
22150,0.34976196,0.6250229,0.12902832,-0.043542482,0.29205322,-0.19222413,0.0
22151,0.34976196,0.6250229,0.12902832,-0.10301514,0.26125488,-0.035046387,0.0
22152,0.37408447,0.5261898,0.13006592,-0.10301514,0.26125488,-0.035046387,0.0
22153,0.37408447,0.5261898,0.13006592,-0.16673584,0.2166504,0.11469727,0.0
22154,0.4277706,0.42999744,0.14042664,-0.16673584,0.2166504,0.11469727,0.0
22155,0.4277706,0.42999744,0.14042664,-0.21240234,0.15930176,0.24213867,0.0
22156,0.5168619,0.3738079,0.16574097,-0.21240234,0.15930176,0.24213867,0.0
22157,0.5168619,0.3738079,0.16574097,-0.2899292,0.1083252,0.33240968,0.0
22158,0.5752573,0.3661728,0.17172241,-0.2899292,0.1083252,0.33240968,0.0
22159,0.5752573,0.3661728,0.17172241,-0.40993652,0.07434082,0.4322388,0.0
22160,0.5330696,0.33372116,0.13143921,-0.40993652,0.07434082,0.4322388,0.0
22161,0.5330696,0.33372116,0.13143921,-0.45560303,0.03186035,0.5097656,0.0
22162,0.43553734,0.28785133,0.066986084,-0.45560303,0.03186035,0.5097656,0.0
22163,0.43553734,0.28785133,0.066986084,-0.42268068,-0.060534667,0.5703003,0.0
22164,0.3467083,0.34235382,0.03227234,-0.42268068,-0.060534667,0.5703003,0.0
22165,0.3467083,0.34235382,0.03227234,-0.4163086,-0.10195313,0.5150757,0.0
22166,0.39062405,0.5307188,0.096069336,-0.4163086,-0.10195313,0.5150757,0.0
22167,0.39062405,0.5307188,0.096069336,-0.54375,-0.16673584,0.58198243,0.0
22168,0.5014639,0.67506313,0.19866943,-0.54375,-0.16673584,0.58198243,0.0
22169,0.5014639,0.67506313,0.19866943,-0.6064087,-0.21558838,0.54693604,0.0
22170,0.50671387,0.57073975,0.19459534,-0.6064087,-0.21558838,0.54693604,0.0
22171,0.50671387,0.57073975,0.19459534,-0.6085327,-0.25594482,0.52888185,0.0
22172,0.38173866,0.24161434,-0.0033569336,-0.6085327,-0.25594482,0.52888185,0.0
22173,0.38173866,0.24161434,-0.0033569336,-0.4088745,-0.2984253,0.4609131,0.0
22174,0.15489006,-0.24378109,-0.33062744,-0.4088745,-0.2984253,0.4609131,0.0
22175,0.15489006,-0.24378109,-0.33062744,-0.15930176,-0.30267334,0.3440918,0.0
22176,-0.07065582,-0.6801815,-0.6196289,-0.15930176,-0.30267334,0.3440918,0.0
22177,-0.07065582,-0.6801815,-0.6196289,0.095581055,-0.30479738,0.24107666,0.0
22178,-0.22919369,-0.89005566,-0.71398926,0.095581055,-0.30479738,0.24107666,0.0
22179,-0.22919369,-0.89005566,-0.71398926,0.3430298,-0.2899292,0.14230958,0.0
22180,-0.28283024,-0.81770897,-0.6061554,0.3430298,-0.2899292,0.14230958,0.0
22181,-0.28283024,-0.81770897,-0.6061554,0.5713623,-0.26019287,0.038232423,0.0
22182,-0.24766254,-0.59020233,-0.3755951,0.5713623,-0.26019287,0.038232423,0.0
22183,-0.24766254,-0.59020233,-0.3755951,0.5713623,-0.26019287,0.038232423,0.0
22184,-0.24766254,-0.59020233,-0.3755951,0.70942384,-0.20921631,-0.060534667,0.0
22185,-0.1529026,-0.29691792,-0.12893677,0.70942384,-0.20921631,-0.060534667,0.0
22186,-0.1529026,-0.29691792,-0.12893677,0.6595093,-0.14761963,-0.15505372,0.0
22187,-0.03964424,-0.034996033,0.042938232,0.6595093,-0.14761963,-0.15505372,0.0
22188,-0.03964424,-0.034996033,0.042938232,0.49171144,-0.07540283,-0.2177124,0.0
22189,0.03801155,0.109137535,0.13743591,0.49171144,-0.07540283,-0.2177124,0.0
22190,0.03801155,0.109137535,0.13743591,0.30373535,-0.021240234,-0.26444092,0.0
22191,0.071474075,0.116215706,0.18612671,0.30373535,-0.021240234,-0.26444092,0.0
22192,0.071474075,0.116215706,0.18612671,0.16567384,0.027612304,-0.26868898,0.0
22193,0.07254791,0.04916191,0.20999146,0.16567384,0.027612304,-0.26868898,0.0
22194,0.07254791,0.04916191,0.20999146,0.07327881,0.050976563,-0.25063476,0.0
22195,0.043987274,0.015928268,0.17388916,0.07327881,0.050976563,-0.25063476,0.0
22196,0.043987274,0.015928268,0.17388916,-0.040356446,0.070092775,-0.21558838,0.0
22197,-0.008047104,0.03566742,0.07733154,-0.040356446,0.070092775,-0.21558838,0.0
22198,-0.008047104,0.03566742,0.07733154,-0.1083252,0.07327881,-0.16673584,0.0
22199,-0.06660652,0.0395689,-0.013320923,-0.1083252,0.07327881,-0.16673584,0.0
22200,-0.06660652,0.0395689,-0.013320923,-0.10089111,0.057348635,-0.11363526,0.0
22201,-0.09509468,0.028749466,-0.061676025,-0.10089111,0.057348635,-0.11363526,0.0
22202,-0.09509468,0.028749466,-0.061676025,-0.081774905,0.032922365,-0.06159668,0.0
22203,-0.07621002,0.053749084,-0.071884155,-0.081774905,0.032922365,-0.06159668,0.0
22204,-0.07621002,0.053749084,-0.071884155,-0.04885254,0.008496094,-0.021240234,0.0
22205,-0.01908493,0.10526657,-0.055114746,-0.04885254,0.008496094,-0.021240234,0.0
22206,-0.01908493,0.10526657,-0.055114746,-0.045666505,-0.0031860352,0.0021240234,0.0
22207,0.053152084,0.15592957,-0.023361206,-0.045666505,-0.0031860352,0.0021240234,0.0
22208,0.053152084,0.15592957,-0.023361206,-0.04460449,-0.012744141,0.011682129,0.0
22209,0.10771942,0.19335938,-0.006591797,-0.04460449,-0.012744141,0.011682129,0.0
22210,0.10771942,0.19335938,-0.006591797,-0.04991455,-0.014868164,0.0,0.0
22211,0.13596725,0.2166624,0.0038909912,-0.04991455,-0.014868164,0.0,0.0
22212,0.13596725,0.2166624,0.0038909912,-0.07327881,-0.0063720704,-0.0180542,0.0
22213,0.13283348,0.20733929,0.03451538,-0.07327881,-0.0063720704,-0.0180542,0.0
22214,0.13283348,0.20733929,0.03451538,-0.08602295,0.0031860352,-0.043542482,0.0
22215,0.10768223,0.16773891,0.112472534,-0.08602295,0.0031860352,-0.043542482,0.0
22216,0.10768223,0.16773891,0.112472534,-0.060534667,0.021240234,-0.07965088,0.0
22217,0.09178543,0.13643646,0.10795593,-0.060534667,0.021240234,-0.07965088,0.0
22218,0.09178543,0.13643646,0.10795593,-0.047790527,0.027612304,-0.095581055,0.0
22219,0.079628944,0.13467407,0.090545654,-0.047790527,0.027612304,-0.095581055,0.0
22220,0.079628944,0.13467407,0.090545654,-0.032922365,0.0361084,-0.12850343,0.0
22221,0.047711372,0.16914082,0.039916992,-0.032922365,0.0361084,-0.12850343,0.0
22222,0.047711372,0.16914082,0.039916992,-0.027612304,0.045666505,-0.16248779,0.0
22223,0.0041236877,0.17438698,-0.015609741,-0.027612304,0.045666505,-0.16248779,0.0
22224,0.0041236877,0.17438698,-0.015609741,-0.0063720704,0.04248047,-0.18585205,0.0
22225,-0.0031471252,0.106720924,-0.043640137,-0.0063720704,0.04248047,-0.18585205,0.0
22226,-0.0031471252,0.106720924,-0.043640137,0.058410645,0.03079834,-0.19328614,0.0
22227,0.037679672,0.018945694,-0.041915894,0.058410645,0.03079834,-0.19328614,0.0
22228,0.037679672,0.018945694,-0.041915894,0.12000733,0.022302246,-0.1996582,0.0
22229,0.101249695,-0.021196365,-0.031799316,0.12000733,0.022302246,-0.1996582,0.0
22230,0.101249695,-0.021196365,-0.031799316,0.1731079,0.0180542,-0.1985962,0.0
22231,0.14418316,-0.0058116913,-0.041732788,0.1731079,0.0180542,-0.1985962,0.0
22232,0.14418316,-0.0058116913,-0.041732788,0.22514649,0.010620117,-0.18585205,0.0
22233,0.13205814,0.08435154,-0.08123779,0.22514649,0.010620117,-0.18585205,0.0
22234,0.13205814,0.08435154,-0.08123779,0.18903808,0.011682129,-0.16992188,0.0
22235,0.060455322,0.19721794,-0.15336609,0.18903808,0.011682129,-0.16992188,0.0
22236,0.060455322,0.19721794,-0.15336609,0.13381349,0.010620117,-0.15823975,0.0
22237,-0.03869629,0.22953987,-0.21473694,0.13381349,0.010620117,-0.15823975,0.0
22238,-0.03869629,0.22953987,-0.21473694,0.08283692,-0.004248047,-0.14655761,0.0
22239,-0.114172935,0.14008904,-0.22071838,0.08283692,-0.004248047,-0.14655761,0.0
22240,-0.114172935,0.14008904,-0.22071838,0.060534667,-0.025488282,-0.12956543,0.0
22241,-0.15378952,-0.016859055,-0.17671204,0.060534667,-0.025488282,-0.12956543,0.0
22242,-0.15378952,-0.016859055,-0.17671204,0.07540283,-0.05628662,-0.1178833,0.0
22243,-0.14561462,-0.17302132,-0.10345459,0.07540283,-0.05628662,-0.1178833,0.0
22244,-0.14561462,-0.17302132,-0.10345459,0.13062744,-0.0998291,-0.10089111,0.0
22245,-0.07987118,-0.26358795,-0.022735596,0.13062744,-0.0998291,-0.10089111,0.0
22246,-0.07987118,-0.26358795,-0.022735596,0.17841797,-0.14337158,-0.07646485,0.0
22247,0.0041942596,-0.25861168,0.056900024,0.17841797,-0.14337158,-0.07646485,0.0
22248,0.0041942596,-0.25861168,0.056900024,0.19647217,-0.1709839,-0.04248047,0.0
22249,0.07808685,-0.1707201,0.12211609,0.19647217,-0.1709839,-0.04248047,0.0
22250,0.07808685,-0.1707201,0.12211609,0.16992188,-0.18160401,0.008496094,0.0
22251,0.09307289,-0.032071114,0.11468506,0.16992188,-0.18160401,0.008496094,0.0
22252,0.09307289,-0.032071114,0.11468506,0.07327881,-0.17523193,0.06265869,0.0
22253,0.019770622,0.096120834,0.025039673,0.07327881,-0.17523193,0.06265869,0.0
22254,0.019770622,0.096120834,0.025039673,0.0053100586,-0.18372802,0.093457036,0.0
22255,-0.07736015,0.1079998,-0.05807495,0.0053100586,-0.18372802,0.093457036,0.0
22256,-0.07736015,0.1079998,-0.05807495,-0.06159668,-0.19222413,0.1083252,0.0
22257,-0.12811089,0.0102033615,-0.070388794,-0.06159668,-0.19222413,0.1083252,0.0
22258,-0.12811089,0.0102033615,-0.070388794,-0.13062744,-0.19753419,0.10407715,0.0
22259,-0.110936165,-0.13638115,-0.050582886,-0.13062744,-0.19753419,0.10407715,0.0
22260,-0.110936165,-0.13638115,-0.050582886,-0.15930176,-0.19116211,0.08283692,0.0
22261,-0.051359177,-0.2580185,-0.048187256,-0.15930176,-0.19116211,0.08283692,0.0
22262,-0.051359177,-0.2580185,-0.048187256,-0.13168946,-0.17947999,0.06690674,0.0
22263,0.011170387,-0.2977848,-0.06971741,-0.13168946,-0.17947999,0.06690674,0.0
22264,0.011170387,-0.2977848,-0.06971741,-0.09239502,-0.16673584,0.05522461,0.0
22265,0.05690956,-0.23338127,-0.11367798,-0.09239502,-0.16673584,0.05522461,0.0
22266,0.05690956,-0.23338127,-0.11367798,-0.058410645,-0.14761963,0.039294433,0.0
22267,0.08506584,-0.08069897,-0.15739441,-0.058410645,-0.14761963,0.039294433,0.0
22268,0.08506584,-0.08069897,-0.15739441,-0.058410645,-0.1263794,0.032922365,0.0
22269,0.064549446,0.086063385,-0.19474792,-0.058410645,-0.1263794,0.032922365,0.0
22270,0.064549446,0.086063385,-0.19474792,-0.10938721,-0.1083252,0.028674318,0.0
22271,0.01321125,0.18371868,-0.22442627,-0.10938721,-0.1083252,0.028674318,0.0
22272,0.01321125,0.18371868,-0.22442627,-0.14230958,-0.098767094,0.023364259,0.0
22273,-0.043275833,0.1772852,-0.2215271,-0.14230958,-0.098767094,0.023364259,0.0
22274,-0.043275833,0.1772852,-0.2215271,-0.15186767,-0.09664307,0.023364259,0.0
22275,-0.07736969,0.09110832,-0.19566345,-0.15186767,-0.09664307,0.023364259,0.0
22276,-0.07736969,0.09110832,-0.19566345,-0.14974366,-0.09451904,0.026550293,0.0
22277,-0.08208561,0.006565094,-0.16644287,-0.14974366,-0.09451904,0.026550293,0.0
22278,-0.08208561,0.006565094,-0.16644287,-0.16779785,-0.081774905,0.02442627,0.0
22279,-0.06270218,-0.00525856,-0.12684631,-0.16779785,-0.081774905,0.02442627,0.0
22280,-0.06270218,-0.00525856,-0.12684631,-0.20709229,-0.0637207,-0.007434082,0.0
22281,-0.07457638,-0.029914856,-0.06674194,-0.20709229,-0.0637207,-0.007434082,0.0
22282,-0.07457638,-0.029914856,-0.06674194,-0.32178956,-0.02442627,-0.04141846,0.0
22283,-0.15032196,-0.18745708,0.04598999,-0.32178956,-0.02442627,-0.04141846,0.0
22284,-0.15032196,-0.18745708,0.04598999,-0.36851808,0.016992187,-0.060534667,0.0
22285,-0.28953266,-0.28490162,0.2132721,-0.36851808,0.016992187,-0.060534667,0.0
22286,-0.28953266,-0.28490162,0.2132721,-0.42055663,0.053100586,-0.04991455,0.0
22287,-0.4360819,-0.13542938,0.3881073,-0.42055663,0.053100586,-0.04991455,0.0
22288,-0.4360819,-0.13542938,0.3881073,-0.42055663,0.053100586,-0.04991455,0.0
22289,-0.4360819,-0.13542938,0.3881073,-0.7083618,0.1529297,-0.02442627,0.0
22290,-0.5519295,-0.035199165,0.519577,-0.7083618,0.1529297,-0.02442627,0.0
22291,-0.5519295,-0.035199165,0.519577,-1.0120972,0.26019287,0.0031860352,0.0
22292,-0.655838,-0.25174332,0.6018524,-1.0120972,0.26019287,0.0031860352,0.0
22293,-0.655838,-0.25174332,0.6018524,-1.2754761,0.3695801,0.070092775,0.0
22294,-0.72896767,-0.6622591,0.5699463,-1.2754761,0.3695801,0.070092775,0.0
22295,-0.72896767,-0.6622591,0.5699463,-1.4305298,0.48215333,0.16992188,0.0
22296,-0.74252415,-1.1445045,0.3639679,-1.4305298,0.48215333,0.16992188,0.0
22297,-0.74252415,-1.1445045,0.3639679,-1.2627319,0.5299439,0.2803711,0.0
22298,-0.7220707,-1.4817047,0.025772095,-1.2627319,0.5299439,0.2803711,0.0
22299,-0.7220707,-1.4817047,0.025772095,-0.994043,0.5713623,0.3791382,0.0
22300,-0.7279377,-1.4448118,-0.26852417,-0.994043,0.5713623,0.3791382,0.0
22301,-0.7279377,-1.4448118,-0.26852417,-0.81881106,0.55543214,0.49489745,0.0
22302,-0.69662,-1.162612,-0.3556671,-0.81881106,0.55543214,0.49489745,0.0
22303,-0.69662,-1.162612,-0.3556671,-0.7965088,0.60322267,0.55755615,0.0
22304,-0.54002285,-0.9909172,-0.25520325,-0.7965088,0.60322267,0.55755615,0.0
22305,-0.54002285,-0.9909172,-0.25520325,-0.57454836,0.6446411,0.5777344,0.0
22306,-0.32846642,-1.0825405,-0.12055969,-0.57454836,0.6446411,0.5777344,0.0
22307,-0.32846642,-1.0825405,-0.12055969,-0.31860352,0.70092773,0.59260255,0.0
22308,-0.117533684,-1.2369184,-0.05618286,-0.31860352,0.70092773,0.59260255,0.0
22309,-0.117533684,-1.2369184,-0.05618286,-0.20390625,0.7657105,0.5607422,0.0
22310,0.13949394,-1.3350306,-0.0074310303,-0.20390625,0.7657105,0.5607422,0.0
22311,0.13949394,-1.3350306,-0.0074310303,-0.038232423,0.8846558,0.5586182,0.0
22312,0.39490795,-1.4208565,0.11779785,-0.038232423,0.8846558,0.5586182,0.0
22313,0.39490795,-1.4208565,0.11779785,0.18372802,0.94412845,0.6287109,0.0
22314,0.47600937,-1.2676425,0.14871216,0.18372802,0.94412845,0.6287109,0.0
22315,0.47600937,-1.2676425,0.14871216,-0.050976563,1.0343994,0.6977417,0.0
22316,0.32182312,-0.86783695,-0.030029297,-0.050976563,1.0343994,0.6977417,0.0
22317,0.32182312,-0.86783695,-0.030029297,-0.45454103,1.0630738,0.69986576,0.0
22318,0.051623344,-0.6116524,-0.24279785,-0.45454103,1.0630738,0.69986576,0.0
22319,0.051623344,-0.6116524,-0.24279785,-0.71367186,1.1299804,0.727478,0.0
22320,-0.19309998,-0.6698637,-0.29655457,-0.71367186,1.1299804,0.727478,0.0
22321,-0.19309998,-0.6698637,-0.29655457,-0.72004396,1.1533448,0.77951664,0.0
22322,-0.3610115,-0.72823715,-0.20169067,-0.72004396,1.1533448,0.77951664,0.0
22323,-0.3610115,-0.72823715,-0.20169067,-0.8241211,1.1352905,0.86978763,0.0
22324,-0.4945593,-0.3923068,-0.2738495,-0.8241211,1.1352905,0.86978763,0.0
22325,-0.4945593,-0.3923068,-0.2738495,-1.5537232,1.1395386,0.88996583,0.0
22326,-0.67233276,0.17631578,-0.7164917,-1.5537232,1.1395386,0.88996583,0.0
22327,-0.67233276,0.17631578,-0.7164917,-3.0224855,1.1406006,0.91014403,0.0
22328,-0.8451414,0.47513485,-1.40625,-3.0224855,1.1406006,0.91014403,0.0
22329,-0.8451414,0.47513485,-1.40625,-4.890564,1.0705079,0.93138427,0.0
22330,-1.013052,-0.06432581,-2.146637,-4.890564,1.0705079,0.93138427,0.0
22331,-1.013052,-0.06432581,-2.146637,-6.694922,1.0673218,1.0110352,0.0
22332,-1.269865,-1.5932822,-3.0283966,-6.694922,1.0673218,1.0110352,0.0
22333,-1.269865,-1.5932822,-3.0283966,-7.4988647,0.89421386,1.0959961,0.0
22334,-1.5743275,-3.305534,-4.088379,-7.4988647,0.89421386,1.0959961,0.0
22335,-1.5743275,-3.305534,-4.088379,-7.145215,0.6701294,1.1023682,0.0
22336,-1.6704121,-4.131207,-5.101181,-7.145215,0.6701294,1.1023682,0.0
22337,-1.6704121,-4.131207,-5.101181,-6.0364747,0.4715332,1.1023682,0.0
22338,-1.5314102,-3.8582006,-5.749878,-6.0364747,0.4715332,1.1023682,0.0
22339,-1.5314102,-3.8582006,-5.749878,-4.7121463,0.35683593,1.0651978,0.0
22340,-1.3588076,-3.2034307,-5.652603,-4.7121463,0.35683593,1.0651978,0.0
22341,-1.3588076,-3.2034307,-5.652603,-3.268872,0.21452637,0.99298096,0.0
22342,-1.2724342,-2.6197758,-4.7338257,-3.268872,0.21452637,0.99298096,0.0
22343,-1.2724342,-2.6197758,-4.7338257,-1.7937378,0.1274414,0.96430665,0.0
22344,-1.3282623,-1.7120315,-3.4987335,-1.7937378,0.1274414,0.96430665,0.0
22345,-1.3282623,-1.7120315,-3.4987335,-1.0567017,0.0722168,0.8687256,0.0
22346,-1.5698605,-0.4505701,-2.6401215,-1.0567017,0.0722168,0.8687256,0.0
22347,-1.5698605,-0.4505701,-2.6401215,-1.3859253,-0.022302246,0.73597413,0.0
22348,-1.8951097,0.32494426,-2.3979034,-1.3859253,-0.022302246,0.73597413,0.0
22349,-1.8951097,0.32494426,-2.3979034,-1.6546143,-0.11682129,0.5787964,0.0
22350,-2.0459461,0.23312426,-2.5218353,-1.6546143,-0.11682129,0.5787964,0.0
22351,-2.0459461,0.23312426,-2.5218353,-1.5069946,-0.17416993,0.42905274,0.0
22352,-1.8909564,-0.21883512,-2.613968,-1.5069946,-0.17416993,0.42905274,0.0
22353,-1.8909564,-0.21883512,-2.613968,-0.991919,-0.21346436,0.3090454,0.0
22354,-1.6248016,-0.5013987,-2.5696106,-0.991919,-0.21346436,0.3090454,0.0
22355,-1.6248016,-0.5013987,-2.5696106,-0.4088745,-0.2623169,0.24320069,0.0
22356,-1.4295654,-0.4701742,-2.4479523,-0.4088745,-0.2623169,0.24320069,0.0
22357,-1.4295654,-0.4701742,-2.4479523,0.2081543,-0.32072756,0.18903808,0.0
22358,-1.2609377,-0.23076582,-2.1752472,0.2081543,-0.32072756,0.18903808,0.0
22359,-1.2609377,-0.23076582,-2.1752472,0.68712157,-0.33240968,0.10513916,0.0
22360,-1.0264869,0.069842935,-1.6773987,0.68712157,-0.33240968,0.10513916,0.0
22361,-1.0264869,0.069842935,-1.6773987,0.8421753,-0.29523927,-0.0021240234,0.0
22362,-0.7477274,0.22898221,-1.0958252,0.8421753,-0.29523927,-0.0021240234,0.0
22363,-0.7477274,0.22898221,-1.0958252,0.52038574,-0.21240234,-0.08602295,0.0
22364,-0.4589119,0.12792444,-0.7144623,0.52038574,-0.21240234,-0.08602295,0.0
22365,-0.4589119,0.12792444,-0.7144623,-0.07752686,-0.14974366,-0.118945315,0.0
22366,-0.1929717,-0.1503948,-0.6079254,-0.07752686,-0.14974366,-0.118945315,0.0
22367,-0.1929717,-0.1503948,-0.6079254,-0.46834716,-0.107263185,-0.10195313,0.0
22368,-0.011701584,-0.4249301,-0.58895874,-0.46834716,-0.107263185,-0.10195313,0.0
22369,-0.011701584,-0.4249301,-0.58895874,-0.541626,-0.06159668,-0.047790527,0.0
22370,0.060316563,-0.46781278,-0.50146484,-0.541626,-0.06159668,-0.047790527,0.0
22371,0.060316563,-0.46781278,-0.50146484,-0.56817627,-0.015930176,0.06903076,0.0
22372,-0.018348217,-0.17986548,-0.4764099,-0.56817627,-0.015930176,0.06903076,0.0
22373,-0.018348217,-0.17986548,-0.4764099,-0.8952759,0.014868164,0.17416993,0.0
22374,-0.22736168,0.2222575,-0.6886749,-0.8952759,0.014868164,0.17416993,0.0
22375,-0.22736168,0.2222575,-0.6886749,-1.268042,0.039294433,0.2262085,0.0
22376,-0.4944749,0.47286224,-1.0913391,-1.268042,0.039294433,0.2262085,0.0
22377,-0.4944749,0.47286224,-1.0913391,-1.4655762,0.06478272,0.23258057,0.0
22378,-0.7041249,0.59762573,-1.3474274,-1.4655762,0.06478272,0.23258057,0.0
22379,-0.7041249,0.59762573,-1.3474274,-1.4199097,0.11044922,0.17629395,0.0
22380,-0.77739906,0.69147956,-1.3881531,-1.4199097,0.11044922,0.17629395,0.0
22381,-0.77739906,0.69147956,-1.3881531,-1.5080566,0.1709839,0.15717773,0.0
22382,-0.7553301,0.7344092,-1.4595947,-1.5080566,0.1709839,0.15717773,0.0
22383,-0.7553301,0.7344092,-1.4595947,-1.630188,0.22727051,0.1274414,0.0
22384,-0.7023597,0.7721343,-1.7423248,-1.630188,0.22727051,0.1274414,0.0
22385,-0.7023597,0.7721343,-1.7423248,-1.7289551,0.27612305,0.07965088,0.0
22386,-0.630296,0.8859935,-2.1309662,-1.7289551,0.27612305,0.07965088,0.0
22387,-0.630296,0.8859935,-2.1309662,-1.7565674,0.28355715,0.013806152,0.0
22388,-0.5427134,1.0231624,-2.3604279,-1.7565674,0.28355715,0.013806152,0.0
22389,-0.5427134,1.0231624,-2.3604279,-1.6843506,0.26868898,-0.040356446,0.0
22390,-0.43779612,1.0656123,-2.3541412,-1.6843506,0.26868898,-0.040356446,0.0
22391,-0.43779612,1.0656123,-2.3541412,-1.3976074,0.2548828,-0.06903076,0.0
22392,-0.30779314,0.9743283,-2.207138,-1.3976074,0.2548828,-0.06903076,0.0
22393,-0.30779314,0.9743283,-2.207138,-0.994043,0.21983643,-0.07327881,0.0
22394,-0.16480136,0.92088103,-1.9743347,-0.994043,0.21983643,-0.07327881,0.0
22395,-0.16480136,0.92088103,-1.9743347,-0.63826907,0.16779785,-0.1178833,0.0
22396,-0.040068626,1.0285871,-1.7072449,-0.63826907,0.16779785,-0.1178833,0.0
22397,-0.040068626,1.0285871,-1.7072449,-0.5501221,0.13806152,-0.16461182,0.0
22398,0.0611825,1.1618834,-1.4861755,-0.5501221,0.13806152,-0.16461182,0.0
22399,0.0611825,1.1618834,-1.4861755,-0.55543214,0.1263794,-0.22302246,0.0
22400,0.16674376,1.1135645,-1.3028259,-0.55543214,0.1263794,-0.22302246,0.0
22401,0.16674376,1.1135645,-1.3028259,-0.5511841,0.10301514,-0.2824951,0.0
22402,0.2768643,0.8270941,-1.1203461,-0.5511841,0.10301514,-0.2824951,0.0
22403,0.2768643,0.8270941,-1.1203461,-0.42161867,0.07752686,-0.31966552,0.0
22404,0.369941,0.48175573,-0.96217346,-0.42161867,0.07752686,-0.31966552,0.0
22405,0.369941,0.48175573,-0.96217346,-0.30161133,0.06796875,-0.33665773,0.0
22406,0.46281075,0.30961084,-0.92370605,-0.30161133,0.06796875,-0.33665773,0.0
22407,0.46281075,0.30961084,-0.92370605,-0.44816896,0.035046387,-0.3536499,0.0
22408,0.52101755,0.24329424,-0.99990845,-0.44816896,0.035046387,-0.3536499,0.0
22409,0.52101755,0.24329424,-0.99990845,-0.6053467,-0.025488282,-0.3451538,0.0
22410,0.5066824,0.12652016,-1.0539551,-0.6053467,-0.025488282,-0.3451538,0.0
22411,0.5066824,0.12652016,-1.0539551,-0.65419924,-0.08814698,-0.32709962,0.0
22412,0.43489885,-0.021489143,-1.0119629,-0.65419924,-0.08814698,-0.32709962,0.0
22413,0.43489885,-0.021489143,-1.0119629,-0.630835,-0.1359375,-0.3079834,0.0
22414,0.33637142,-0.13186407,-0.9042816,-0.630835,-0.1359375,-0.3079834,0.0
22415,0.33637142,-0.13186407,-0.9042816,-0.5331299,-0.18585205,-0.28568116,0.0
22416,0.23433161,-0.16900444,-0.74946594,-0.5331299,-0.18585205,-0.28568116,0.0
22417,0.23433161,-0.16900444,-0.74946594,-0.3706421,-0.23151855,-0.24957275,0.0
22418,0.11134195,-0.14157581,-0.53504944,-0.3706421,-0.23151855,-0.24957275,0.0
22419,0.11134195,-0.14157581,-0.53504944,-0.15611573,-0.271875,-0.22514649,0.0
22420,0.00726223,-0.065751076,-0.31558228,-0.15611573,-0.271875,-0.22514649,0.0
22421,0.00726223,-0.065751076,-0.31558228,0.028674318,-0.29630128,-0.19434814,0.0
22422,0.02463293,0.046666622,-0.096954346,0.028674318,-0.29630128,-0.19434814,0.0
22423,0.02463293,0.046666622,-0.096954346,0.04460449,-0.30479738,-0.14868164,0.0
22424,0.117667675,0.10836601,0.13972473,0.04460449,-0.30479738,-0.14868164,0.0
22425,0.117667675,0.10836601,0.13972473,-0.015930176,-0.28674316,-0.06584473,0.0
22426,0.14941978,0.040733337,0.27052307,-0.015930176,-0.28674316,-0.06584473,0.0
22427,0.14941978,0.040733337,0.27052307,-0.033984374,-0.26337892,0.033984374,0.0
22428,0.07726288,-0.026373386,0.25357056,-0.033984374,-0.26337892,0.033984374,0.0
22429,0.07726288,-0.026373386,0.25357056,-0.0541626,-0.2357666,0.10513916,0.0
22430,-0.029950142,-0.01595974,0.13084412,-0.0541626,-0.2357666,0.10513916,0.0
22431,-0.029950142,-0.01595974,0.13084412,-0.10407715,-0.20072022,0.16461182,0.0
22432,-0.1093483,0.05147791,-4.5776367E-5,-0.10407715,-0.20072022,0.16461182,0.0
22433,-0.1093483,0.05147791,-4.5776367E-5,-0.10620117,-0.16673584,0.20072022,0.0
22434,-0.16476154,0.15385342,-0.044906616,-0.10620117,-0.16673584,0.20072022,0.0
22435,-0.16476154,0.15385342,-0.044906616,-0.107263185,-0.14230958,0.21346436,0.0
22436,-0.22926998,0.27369308,0.02609253,-0.107263185,-0.14230958,0.21346436,0.0
22437,-0.22926998,0.27369308,0.02609253,-0.08814698,-0.118945315,0.1985962,0.0
22438,-0.28862858,0.35513592,0.13871765,-0.08814698,-0.118945315,0.1985962,0.0
22439,-0.28862858,0.35513592,0.13871765,-0.15505372,-0.093457036,0.18372802,0.0
22440,-0.29872513,0.34920883,0.15602112,-0.15505372,-0.093457036,0.18372802,0.0
22441,-0.29872513,0.34920883,0.15602112,-0.24213867,-0.058410645,0.18585205,0.0
22442,-0.28768635,0.26019,0.055282593,-0.24213867,-0.058410645,0.18585205,0.0
22443,-0.28768635,0.26019,0.055282593,-0.24213867,-0.058410645,0.18585205,76.0
22444,-0.28768635,0.26019,0.055282593,-0.16461182,-0.0053100586,0.19541016,76.0
22445,-0.28134537,0.16336441,-0.073516846,-0.16461182,-0.0053100586,0.19541016,76.0
22446,-0.28134537,0.16336441,-0.073516846,0.022302246,0.046728518,0.18372802,76.0
22447,-0.27066946,0.1316557,-0.15376282,0.022302246,0.046728518,0.18372802,76.0
22448,-0.27066946,0.1316557,-0.15376282,0.20178223,0.08602295,0.16354981,76.0
22449,-0.22611809,0.15049028,-0.15205383,0.20178223,0.08602295,0.16354981,76.0
22450,-0.22611809,0.15049028,-0.15205383,0.3090454,0.1274414,0.14337158,76.0
22451,-0.125206,0.14634466,-0.080459595,0.3090454,0.1274414,0.14337158,76.0
22452,-0.125206,0.14634466,-0.080459595,0.35683593,0.15717773,0.13381349,76.0
22453,-1.039505E-4,0.10689497,-0.0036010742,0.35683593,0.15717773,0.13381349,76.0
22454,-1.039505E-4,0.10689497,-0.0036010742,0.30373535,0.17841797,0.13381349,76.0
22455,0.08169174,0.099773884,0.0131073,0.30373535,0.17841797,0.13381349,76.0
22456,0.08169174,0.099773884,0.0131073,0.13806152,0.18903808,0.13062744,76.0
22457,0.075424194,0.106515884,-0.057281494,0.13806152,0.18903808,0.13062744,76.0
22458,0.075424194,0.106515884,-0.057281494,-0.047790527,0.1985962,0.1263794,76.0
22459,-0.020678759,0.08061075,-0.16824341,-0.047790527,0.1985962,0.1263794,76.0
22460,-0.020678759,0.08061075,-0.16824341,-0.13912354,0.1985962,0.12213135,76.0
22461,-0.15599608,0.0022082329,-0.2193451,-0.13912354,0.1985962,0.12213135,76.0
22462,-0.15599608,0.0022082329,-0.2193451,-0.10195313,0.17735596,0.11682129,76.0
22463,-0.26918173,-0.06457853,-0.15188599,-0.10195313,0.17735596,0.11682129,76.0
22464,-0.26918173,-0.06457853,-0.15188599,0.014868164,0.1539917,0.10407715,76.0
22465,-0.31662726,-6.4992905E-4,-0.0415802,0.014868164,0.1539917,0.10407715,76.0
22466,-0.31662726,-6.4992905E-4,-0.0415802,0.0021240234,0.13806152,0.07646485,76.0
22467,-0.2912047,0.14823484,0.0050964355,0.0021240234,0.13806152,0.07646485,76.0
22468,-0.2912047,0.14823484,0.0050964355,-0.12956543,0.10938721,0.033984374,76.0
22469,-0.2542162,0.18308973,0.007293701,-0.12956543,0.10938721,0.033984374,76.0
22470,-0.2542162,0.18308973,0.007293701,-0.16142578,0.087084964,0.007434082,76.0
22471,-0.21247935,0.063378334,7.7819824E-4,-0.16142578,0.087084964,0.007434082,76.0
22472,-0.21247935,0.063378334,7.7819824E-4,-0.08814698,0.06584473,-0.013806152,76.0
22473,-0.14523983,-0.06572819,1.2207031E-4,-0.08814698,0.06584473,-0.013806152,76.0
22474,-0.14523983,-0.06572819,1.2207031E-4,0.03717041,0.053100586,-0.022302246,76.0
22475,-0.059868574,-0.11149359,0.005203247,0.03717041,0.053100586,-0.022302246,76.0
22476,-0.059868574,-0.11149359,0.005203247,0.083898924,0.04141846,-0.03717041,76.0
22477,0.019451141,-0.1451273,0.056884766,0.083898924,0.04141846,-0.03717041,76.0
22478,0.019451141,-0.1451273,0.056884766,0.15505372,0.033984374,-0.03717041,76.0
22479,0.06716013,-0.18764734,0.12226868,0.15505372,0.033984374,-0.03717041,76.0
22480,0.06716013,-0.18764734,0.12226868,0.17841797,0.03717041,-0.035046387,76.0
22481,0.06473875,-0.16155577,0.12971497,0.17841797,0.03717041,-0.035046387,76.0
22482,0.06473875,-0.16155577,0.12971497,0.09239502,0.032922365,-0.05628662,76.0
22483,0.03861952,-0.09027958,0.09611511,0.09239502,0.032922365,-0.05628662,76.0
22484,0.03861952,-0.09027958,0.09611511,-0.02442627,0.023364259,-0.08814698,76.0
22485,0.01514864,-0.0722723,0.09616089,-0.02442627,0.023364259,-0.08814698,76.0
22486,0.01514864,-0.0722723,0.09616089,-0.045666505,0.0021240234,-0.115759276,76.0
22487,0.004147768,-0.13502693,0.14021301,-0.045666505,0.0021240234,-0.115759276,76.0
22488,0.004147768,-0.13502693,0.14021301,0.04141846,-0.019116212,-0.124255374,76.0
22489,0.009165287,-0.15370035,0.15960693,0.04141846,-0.019116212,-0.124255374,76.0
22490,0.009165287,-0.15370035,0.15960693,0.12213135,-0.046728518,-0.13275146,76.0
22491,0.027498245,-0.07103157,0.14222717,0.12213135,-0.046728518,-0.13275146,76.0
22492,0.027498245,-0.07103157,0.14222717,0.1444336,-0.0722168,-0.14868164,76.0
22493,0.05078268,0.05141449,0.12971497,0.1444336,-0.0722168,-0.14868164,76.0
22494,0.05078268,0.05141449,0.12971497,0.13381349,-0.093457036,-0.17735596,76.0
22495,0.09055281,0.10140991,0.12324524,0.13381349,-0.093457036,-0.17735596,76.0
22496,0.09055281,0.10140991,0.12324524,0.1539917,-0.107263185,-0.2081543,76.0
22497,0.15529132,0.059814453,0.10267639,0.1539917,-0.107263185,-0.2081543,76.0
22498,0.15529132,0.059814453,0.10267639,0.20603028,-0.1178833,-0.23789063,76.0
22499,0.20551968,-0.009973049,0.08358765,0.20603028,-0.1178833,-0.23789063,76.0
22500,0.20551968,-0.009973049,0.08358765,0.26125488,-0.13381349,-0.270813,76.0
22501,0.21723557,-0.06961155,0.110061646,0.26125488,-0.13381349,-0.270813,76.0
22502,0.21723557,-0.06961155,0.110061646,0.36533204,-0.14868164,-0.3079834,76.0
22503,0.21751404,-0.13906288,0.16645813,0.36533204,-0.14868164,-0.3079834,76.0
22504,0.21751404,-0.13906288,0.16645813,0.5479981,-0.16992188,-0.33771974,76.0
22505,0.22341299,-0.21413088,0.24519348,0.5479981,-0.16992188,-0.33771974,76.0
22506,0.22341299,-0.21413088,0.24519348,0.725354,-0.19222413,-0.3706421,76.0
22507,0.21461916,-0.19304514,0.35250854,0.725354,-0.19222413,-0.3706421,76.0
22508,0.21461916,-0.19304514,0.35250854,0.68712157,-0.19753419,-0.38869628,76.0
22509,0.21813059,-0.09095955,0.40878296,0.68712157,-0.19753419,-0.38869628,76.0
22510,0.21813059,-0.09095955,0.40878296,0.4991455,-0.2081543,-0.42055663,76.0
22511,0.24027586,-0.108680725,0.38478088,0.4991455,-0.2081543,-0.42055663,76.0
22512,0.24027586,-0.108680725,0.38478088,0.41206056,-0.23045655,-0.4322388,76.0
22513,0.27864647,-0.26786518,0.37402344,0.41206056,-0.23045655,-0.4322388,76.0
22514,0.27864647,-0.26786518,0.37402344,0.4067505,-0.24638672,-0.40993652,76.0
22515,0.3205123,-0.39430904,0.4133911,0.4067505,-0.24638672,-0.40993652,76.0
22516,0.3205123,-0.39430904,0.4133911,0.3451538,-0.24744873,-0.3717041,76.0
22517,0.35371208,-0.4199152,0.40963745,0.3451538,-0.24744873,-0.3717041,76.0
22518,0.35371208,-0.4199152,0.40963745,0.2516968,-0.24213867,-0.32922363,76.0
22519,0.3349471,-0.3653021,0.2933197,0.2516968,-0.24213867,-0.32922363,76.0
22520,0.3349471,-0.3653021,0.2933197,0.07327881,-0.24320069,-0.30479738,76.0
22521,0.25449324,-0.3794241,0.11569214,0.07327881,-0.24320069,-0.30479738,76.0
22522,0.25449324,-0.3794241,0.11569214,0.12531738,-0.27293703,-0.2803711,76.0
22523,0.16847515,-0.4855461,-0.0059814453,0.12531738,-0.27293703,-0.2803711,76.0
22524,0.16847515,-0.4855461,-0.0059814453,0.29311523,-0.3164795,-0.2538208,76.0
22525,0.12523413,-0.5340791,0.02986145,0.29311523,-0.3164795,-0.2538208,76.0
22526,0.12523413,-0.5340791,0.02986145,0.5140137,-0.35577393,-0.2357666,76.0
22527,0.11240673,-0.48572254,0.17764282,0.5140137,-0.35577393,-0.2357666,76.0
22528,0.11240673,-0.48572254,0.17764282,0.6042847,-0.39188233,-0.21027832,76.0
22529,0.118258,-0.38671017,0.2903595,0.6042847,-0.39188233,-0.21027832,76.0
22530,0.118258,-0.38671017,0.2903595,0.59472656,-0.41737062,-0.20390625,76.0
22531,0.08512163,-0.3180108,0.31326294,0.59472656,-0.41737062,-0.20390625,76.0
22532,0.08512163,-0.3180108,0.31326294,0.544812,-0.43861085,-0.23151855,76.0
22533,0.012005806,-0.32008243,0.31414795,0.544812,-0.43861085,-0.23151855,76.0
22534,0.012005806,-0.32008243,0.31414795,0.56605226,-0.4619751,-0.271875,76.0
22535,-0.039455414,-0.437438,0.40730286,0.56605226,-0.4619751,-0.271875,76.0
22536,-0.039455414,-0.437438,0.40730286,0.75509036,-0.5129517,-0.28461915,76.0
22537,-0.0995574,-0.6135247,0.6324005,0.75509036,-0.5129517,-0.28461915,76.0
22538,-0.0995574,-0.6135247,0.6324005,1.0630738,-0.56817627,-0.2803711,76.0
22539,-0.2652049,-0.6318598,0.89042664,1.0630738,-0.56817627,-0.2803711,76.0
22540,-0.2652049,-0.6318598,0.89042664,1.1820191,-0.6159668,-0.2793091,76.0
22541,-0.47590923,-0.48418665,1.0853577,1.1820191,-0.6159668,-0.2793091,76.0
22542,-0.47590923,-0.48418665,1.0853577,1.0906861,-0.6552612,-0.2793091,76.0
22543,-0.60478735,-0.47691226,1.2467194,1.0906861,-0.6552612,-0.2793091,76.0
22544,-0.60478735,-0.47691226,1.2467194,1.2574219,-0.69349366,-0.26550293,76.0
22545,-0.635551,-0.77329016,1.3861542,1.2574219,-0.69349366,-0.26550293,76.0
22546,-0.635551,-0.77329016,1.3861542,1.9381714,-0.72216797,-0.22302246,76.0
22547,-0.57263756,-1.0364542,1.5121613,1.9381714,-0.72216797,-0.22302246,76.0
22548,-0.57263756,-1.0364542,1.5121613,2.5743165,-0.75296634,-0.1731079,76.0
22549,-0.3905077,-0.98512053,1.6786346,2.5743165,-0.75296634,-0.1731079,76.0
22550,-0.3905077,-0.98512053,1.6786346,2.8313234,-0.76464844,-0.08920898,76.0
22551,-0.23951793,-0.7372298,1.9756775,2.8313234,-0.76464844,-0.08920898,76.0
22552,-0.23951793,-0.7372298,1.9756775,2.9428346,-0.77102053,-0.045666505,76.0
22553,-0.23951793,-0.7372298,1.9756775,2.9428346,-0.77102053,-0.045666505,77.0
22554,-0.24360418,-0.4387219,2.412384,2.9428346,-0.77102053,-0.045666505,77.0
22555,-0.24360418,-0.4387219,2.412384,2.904602,-0.7827026,-0.03186035,77.0
22556,-0.26155806,-0.2979989,2.8112488,2.904602,-0.7827026,-0.03186035,77.0
22557,-0.26155806,-0.2979989,2.8112488,2.974695,-0.7582764,-0.021240234,77.0
22558,-0.19175386,-0.38754463,3.0909576,2.974695,-0.7582764,-0.021240234,77.0
22559,-0.19175386,-0.38754463,3.0909576,3.361267,-0.7519043,-0.0031860352,77.0
22560,-0.15242648,-0.34056544,3.3016052,3.361267,-0.7519043,-0.0031860352,77.0
22561,-0.15242648,-0.34056544,3.3016052,3.6915529,-0.7614624,-0.06584473,77.0
22562,-0.21229768,0.08052611,3.4191284,3.6915529,-0.7614624,-0.06584473,77.0
22563,-0.21229768,0.08052611,3.4191284,3.5970337,-0.7848267,-0.18054199,77.0
22564,-0.18676949,0.5005536,3.405838,3.5970337,-0.7848267,-0.18054199,77.0
22565,-0.18676949,0.5005536,3.405838,3.3846314,-0.7349121,-0.33771974,77.0
22566,-0.050599813,0.46837497,3.4128418,3.3846314,-0.7349121,-0.33771974,77.0
22567,-0.050599813,0.46837497,3.4128418,3.6596925,-0.7869507,-0.5097656,77.0
22568,-4.1627884E-4,0.32723904,3.5547638,3.6596925,-0.7869507,-0.5097656,77.0
22569,-4.1627884E-4,0.32723904,3.5547638,3.7478395,-0.91864014,-0.7147339,77.0
22570,0.08144188,0.47161794,3.8039246,3.7478395,-0.91864014,-0.7147339,77.0
22571,0.08144188,0.47161794,3.8039246,3.3740113,-0.91864014,-0.8793457,77.0
22572,0.4205613,0.5750971,4.0911407,3.3740113,-0.91864014,-0.8793457,77.0
22573,0.4205613,0.5750971,4.0911407,3.265686,-0.9143921,-1.0120972,77.0
22574,0.8268542,0.5528877,4.2247314,3.265686,-0.9143921,-1.0120972,77.0
22575,0.8268542,0.5528877,4.2247314,3.437732,-1.0078491,-1.1310425,77.0
22576,1.11235,0.80448055,4.0843964,3.437732,-1.0078491,-1.1310425,77.0
22577,1.11235,0.80448055,4.0843964,3.4685304,-1.0683838,-1.2436157,77.0
22578,1.3993282,1.4003716,3.828308,3.4685304,-1.0683838,-1.2436157,77.0
22579,1.3993282,1.4003716,3.828308,3.6384523,-1.1618408,-1.3625611,77.0
22580,1.7292771,2.0057588,3.6454315,3.6384523,-1.1618408,-1.3625611,77.0
22581,1.7292771,2.0057588,3.6454315,3.8582885,-1.2903442,-1.4655762,77.0
22582,2.156005,2.4149709,3.701706,3.8582885,-1.2903442,-1.4655762,77.0
22583,2.156005,2.4149709,3.701706,3.9347534,-1.3296387,-1.5505371,77.0
22584,2.708434,2.6482244,3.9555511,3.9347534,-1.3296387,-1.5505371,77.0
22585,2.708434,2.6482244,3.9555511,3.882715,-1.2977784,-1.5802735,77.0
22586,3.0971918,2.7825933,4.057785,3.882715,-1.2977784,-1.5802735,77.0
22587,3.0971918,2.7825933,4.057785,3.9644897,-1.3466309,-1.628064,77.0
22588,3.195222,3.0373049,3.9177856,3.9644897,-1.3466309,-1.628064,77.0
22589,3.195222,3.0373049,3.9177856,3.8582885,-1.3880494,-1.6609863,77.0
22590,3.3611822,3.343235,3.6445007,3.8582885,-1.3880494,-1.6609863,77.0
22591,3.3611822,3.343235,3.6445007,3.4239259,-1.3094605,-1.6057618,77.0
22592,3.5688648,3.4995518,3.1334991,3.4239259,-1.3094605,-1.6057618,77.0
22593,3.5688648,3.4995518,3.1334991,3.090454,-1.3073364,-1.5547851,77.0
22594,3.4310198,3.5546951,2.3335876,3.090454,-1.3073364,-1.5547851,77.0
22595,3.4310198,3.5546951,2.3335876,3.0564697,-1.3200806,-1.5675293,77.0
22596,3.0760412,3.719452,1.4590607,3.0564697,-1.3200806,-1.5675293,77.0
22597,3.0760412,3.719452,1.4590607,3.2476318,-1.4369019,-1.5802735,77.0
22598,2.7936935,4.1817875,0.70092773,3.2476318,-1.4369019,-1.5802735,77.0
22599,2.7936935,4.1817875,0.70092773,3.0490358,-1.5462891,-1.4931885,77.0
22600,2.4688416,4.618087,0.10145569,3.0490358,-1.5462891,-1.4931885,77.0
22601,2.4688416,4.618087,0.10145569,2.9322145,-1.7098389,-1.3370727,77.0
22602,2.1508675,4.7159176,-0.14302063,2.9322145,-1.7098389,-1.3370727,77.0
22603,2.1508675,4.7159176,-0.14302063,3.2848022,-1.8829468,-1.2106934,77.0
22604,2.0013704,4.86397,-0.44233704,3.2848022,-1.8829468,-1.2106934,77.0
22605,2.0013704,4.86397,-0.44233704,3.1393068,-2.1388917,-1.0099732,77.0
22606,2.3383636,5.1783466,-0.23129272,3.1393068,-2.1388917,-1.0099732,77.0
22607,2.3383636,5.1783466,-0.23129272,2.4585571,-1.6737305,-1.2468017,77.0
22608,3.1170044,5.104494,0.94859314,2.4585571,-1.6737305,-1.2468017,77.0
22609,3.1170044,5.104494,0.94859314,2.3789062,-1.3126465,-1.0386475,77.0
22610,3.3178349,4.49806,1.3947449,2.3789062,-1.3126465,-1.0386475,77.0
22611,3.3178349,4.49806,1.3947449,1.6046997,-0.9600586,-1.0004151,77.0
22612,2.7433186,3.5900002,0.7251892,1.6046997,-0.9600586,-1.0004151,77.0
22613,2.7433186,3.5900002,0.7251892,0.49277344,-0.57454836,-0.7423462,77.0
22614,1.8568993,2.489994,-0.24414062,0.49277344,-0.57454836,-0.7423462,77.0
22615,1.8568993,2.489994,-0.24414062,0.12000733,-0.36639404,-0.46516114,77.0
22616,0.87470436,1.8079262,-1.1652222,0.12000733,-0.36639404,-0.46516114,77.0
22617,0.87470436,1.8079262,-1.1652222,0.45666504,-0.44710693,-0.29523927,77.0
22618,0.11646271,1.9842682,-1.827713,0.45666504,-0.44710693,-0.29523927,77.0
22619,0.11646271,1.9842682,-1.827713,0.42692873,-0.5161377,-0.4248047,77.0
22620,-0.15838051,2.5111084,-2.114502,0.42692873,-0.5161377,-0.4248047,77.0
22621,-0.15838051,2.5111084,-2.114502,0.070092775,-0.46622315,-0.60322267,77.0
22622,-0.096918106,2.3820305,-2.0688019,0.070092775,-0.46622315,-0.60322267,77.0
22623,-0.096918106,2.3820305,-2.0688019,0.1731079,-0.51826173,-0.55755615,77.0
22624,-0.03330803,1.6139984,-1.6925354,0.1731079,-0.51826173,-0.55755615,77.0
22625,-0.03330803,1.6139984,-1.6925354,0.34833986,-0.61702883,-0.54693604,77.0
22626,-0.17552376,0.69885254,-0.9243164,0.34833986,-0.61702883,-0.54693604,77.0
22627,-0.17552376,0.69885254,-0.9243164,0.33878174,-0.6042847,-0.45135498,77.0
22628,-0.5062752,-0.19722939,-0.22906494,0.33878174,-0.6042847,-0.45135498,77.0
22629,-0.5062752,-0.19722939,-0.22906494,0.5628662,-0.6138428,-0.33240968,77.0
22630,-0.7774677,-0.26002884,0.38049316,0.5628662,-0.6138428,-0.33240968,77.0
22631,-0.7774677,-0.26002884,0.38049316,0.25700685,-0.4885254,-0.41099855,77.0
22632,-0.5255146,0.65586853,0.55384827,0.25700685,-0.4885254,-0.41099855,77.0
22633,-0.5255146,0.65586853,0.55384827,0.0021240234,-0.35577393,-0.5171997,77.0
22634,-0.0019779205,1.2064323,-0.21847534,0.0021240234,-0.35577393,-0.5171997,77.0
22635,-0.0019779205,1.2064323,-0.21847534,0.53950197,-0.51826173,-0.42374268,77.0
22636,0.15055466,0.51521873,-1.2421112,0.53950197,-0.51826173,-0.42374268,77.0
22637,0.15055466,0.51521873,-1.2421112,1.1852051,-0.6042847,-0.14549561,77.0
22638,-0.25169945,-0.4688549,-2.0316315,1.1852051,-0.6042847,-0.14549561,77.0
22639,-0.25169945,-0.4688549,-2.0316315,1.9264892,-0.8591675,-0.032922365,77.0
22640,-0.68019295,-0.09498215,-2.2738495,1.9264892,-0.8591675,-0.032922365,77.0
22641,-0.68019295,-0.09498215,-2.2738495,1.9434814,-0.79969484,-0.19434814,77.0
22642,-0.4239998,1.1899319,-1.876236,1.9434814,-0.79969484,-0.19434814,77.0
22643,-0.4239998,1.1899319,-1.876236,1.9190552,-0.7519043,-0.24320069,77.0
22644,-0.04226303,1.5181675,-1.4309998,1.9190552,-0.7519043,-0.24320069,77.0
22645,-0.04226303,1.5181675,-1.4309998,1.8489624,-0.6616333,-0.24213867,77.0
22646,0.8467064,1.845747,-0.6903229,1.8489624,-0.6616333,-0.24213867,77.0
22647,0.8467064,1.845747,-0.6903229,1.6493043,-0.5012695,-0.0053100586,77.0
22648,0.775095,1.6423454,-0.8143616,1.6493043,-0.5012695,-0.0053100586,77.0
22649,0.775095,1.6423454,-0.8143616,1.7756836,-0.540564,-0.023364259,77.0
22650,0.775095,1.6423454,-0.8143616,1.7756836,-0.540564,-0.023364259,77.0
22651,0.5795975,2.2041473,-1.791336,1.7756836,-0.540564,-0.023364259,77.0
22652,0.5795975,2.2041473,-1.791336,1.8415283,-0.63614506,-0.22727051,77.0
22653,0.46222496,1.945837,-1.6698761,1.8415283,-0.63614506,-0.22727051,77.0
22654,0.46222496,1.945837,-1.6698761,1.5877075,-0.5628662,-0.24320069,77.0
22655,0.46925545,1.2924614,-0.54496765,1.5877075,-0.5628662,-0.24320069,77.0
22656,0.46925545,1.2924614,-0.54496765,1.2807862,-0.36639404,-0.09133301,77.0
22657,0.49614334,1.1148643,0.071380615,1.2807862,-0.36639404,-0.09133301,77.0
22658,0.49614334,1.1148643,0.071380615,0.89421386,-0.16142578,-0.11469727,77.0
22659,1.1735134,2.1796856,0.20709229,0.89421386,-0.16142578,-0.11469727,77.0
22660,1.1735134,2.1796856,0.20709229,0.039294433,-0.070092775,-0.24744873,77.0
22661,1.1076584,1.9849606,-0.59580994,0.039294433,-0.070092775,-0.24744873,77.0
22662,1.1076584,1.9849606,-0.59580994,-0.07115479,-0.11151123,-0.2803711,77.0
22663,0.44817543,-0.22776604,-2.163391,-0.07115479,-0.11151123,-0.2803711,77.0
22664,0.44817543,-0.22776604,-2.163391,0.4428589,-0.26656494,-0.26125488,77.0
22665,0.0011425018,-0.8984604,-1.8173828,0.4428589,-0.26656494,-0.26125488,77.0
22666,0.0011425018,-0.8984604,-1.8173828,0.540564,-0.26019287,-0.3440918,77.0
22667,-0.67080307,-0.87564087,-1.1580353,0.540564,-0.26019287,-0.3440918,77.0
22668,-0.67080307,-0.87564087,-1.1580353,0.48640138,-0.15186767,-0.47790527,77.0
22669,-0.5597496,-0.2802124,-0.93400574,0.48640138,-0.15186767,-0.47790527,77.0
22670,-0.5597496,-0.2802124,-0.93400574,0.37595215,-0.10301514,-0.452417,77.0
22671,-0.12635231,0.9707527,-1.10672,0.37595215,-0.10301514,-0.452417,77.0
22672,-0.12635231,0.9707527,-1.10672,-0.118945315,0.026550293,-0.2793091,77.0
22673,0.028934479,1.0829372,-1.0171204,-0.118945315,0.026550293,-0.2793091,77.0
22674,0.028934479,1.0829372,-1.0171204,-0.13381349,0.05522461,-0.22408448,77.0
22675,0.32082748,1.2603798,-1.0049286,-0.13381349,0.05522461,-0.22408448,77.0
22676,0.32082748,1.2603798,-1.0049286,-0.046728518,0.06796875,-0.1444336,77.0
22677,0.34170914,0.94337463,-0.7308197,-0.046728518,0.06796875,-0.1444336,77.0
22678,0.34170914,0.94337463,-0.7308197,-0.011682129,0.07646485,-0.11363526,77.0
22679,0.36123276,0.46615028,-0.13746643,-0.011682129,0.07646485,-0.11363526,77.0
22680,0.36123276,0.46615028,-0.13746643,-0.09770508,0.06796875,-0.043542482,77.0
22681,0.11543846,0.16129875,0.48173523,-0.09770508,0.06796875,-0.043542482,77.0
22682,0.11543846,0.16129875,0.48173523,-0.20709229,0.05522461,-0.059472658,77.0
22683,-0.18335724,-0.06604195,0.87075806,-0.20709229,0.05522461,-0.059472658,77.0
22684,-0.18335724,-0.06604195,0.87075806,-0.42268068,0.10089111,-0.045666505,77.0
22685,-0.34210777,-0.2660904,0.844162,-0.42268068,0.10089111,-0.045666505,77.0
22686,-0.34210777,-0.2660904,0.844162,-0.4088745,0.04885254,-0.029736329,77.0
22687,-0.5725136,-0.7767143,0.33921814,-0.4088745,0.04885254,-0.029736329,77.0
22688,-0.5725136,-0.7767143,0.33921814,-0.2899292,0.027612304,-0.009558106,77.0
22689,-0.5847206,-0.8878765,0.09324646,-0.2899292,0.027612304,-0.009558106,77.0
22690,-0.5847206,-0.8878765,0.09324646,-0.12319336,-0.022302246,-0.020178223,77.0
22691,-0.4069252,-0.87298584,-0.21095276,-0.12319336,-0.022302246,-0.020178223,77.0
22692,-0.4069252,-0.87298584,-0.21095276,-0.19647217,0.026550293,-0.0010620117,77.0
22693,-0.19177628,-0.43175125,-0.15187073,-0.19647217,0.026550293,-0.0010620117,77.0
22694,-0.19177628,-0.43175125,-0.15187073,-0.22089843,-0.008496094,0.070092775,77.0
22695,0.028915405,0.27526474,-0.025863647,-0.22089843,-0.008496094,0.070092775,77.0
22696,0.028915405,0.27526474,-0.025863647,-0.3355957,0.058410645,0.13062744,77.0
22697,0.18088341,0.5221653,0.15820312,-0.3355957,0.058410645,0.13062744,77.0
22698,0.18088341,0.5221653,0.15820312,-0.3462158,0.021240234,0.17629395,77.0
22699,0.29429245,0.37324905,0.30055237,-0.3462158,0.021240234,0.17629395,77.0
22700,0.29429245,0.37324905,0.30055237,-0.5140137,-0.007434082,0.16354981,77.0
22701,0.28567886,0.0337677,0.49421692,-0.5140137,-0.007434082,0.16354981,77.0
22702,0.28567886,0.0337677,0.49421692,-0.7593384,-0.010620117,0.18160401,77.0
22703,0.29123878,-0.12215614,0.9698334,-0.7593384,-0.010620117,0.18160401,77.0
22704,0.29123878,-0.12215614,0.9698334,-1.0651978,0.09239502,0.19116211,77.0
22705,0.40053368,0.13988495,1.43219,-1.0651978,0.09239502,0.19116211,77.0
22706,0.40053368,0.13988495,1.43219,-1.5027466,0.20496826,0.19116211,77.0
22707,0.42860603,0.33849525,1.3441925,-1.5027466,0.20496826,0.19116211,77.0
22708,0.42860603,0.33849525,1.3441925,-1.9169312,0.31860352,0.24744873,77.0
22709,0.37160873,0.23391914,0.8434143,-1.9169312,0.31860352,0.24744873,77.0
22710,0.37160873,0.23391914,0.8434143,-2.3194337,0.42692873,0.26337892,77.0
22711,0.32310486,0.029676437,0.39126587,-2.3194337,0.42692873,0.26337892,77.0
22712,0.32310486,0.029676437,0.39126587,-2.806897,0.51188964,0.22833252,77.0
22713,0.14681435,-0.5216942,0.41410828,-2.806897,0.51188964,0.22833252,77.0
22714,0.14681435,-0.5216942,0.41410828,-2.8578737,0.50870365,0.29205322,77.0
22715,-0.18371964,-1.2949314,0.7506561,-2.8578737,0.50870365,0.29205322,77.0
22716,-0.18371964,-1.2949314,0.7506561,-2.974695,0.5713623,0.3069214,77.0
22717,-0.35625267,-1.9335289,0.921875,-2.974695,0.5713623,0.3069214,77.0
22718,-0.35625267,-1.9335289,0.921875,-3.1063843,0.7104859,0.32497558,77.0
22719,-0.35564423,-2.376793,0.8467407,-3.1063843,0.7104859,0.32497558,77.0
22720,-0.35564423,-2.376793,0.8467407,-2.89292,0.6956177,0.32603762,77.0
22721,-0.3660221,-2.3769112,1.029541,-2.89292,0.6956177,0.32603762,77.0
22722,-0.3660221,-2.3769112,1.029541,-3.0139892,0.73597413,0.2166504,77.0
22723,-0.37368965,-2.1502953,1.7124176,-3.0139892,0.73597413,0.2166504,77.0
22724,-0.37368965,-2.1502953,1.7124176,-3.3007324,0.8644776,0.21983643,77.0
22725,-0.42230415,-2.2262554,2.1182709,-3.3007324,0.8644776,0.21983643,77.0
22726,-0.42230415,-2.2262554,2.1182709,-3.5949097,0.9855469,0.20390625,77.0
22727,-0.452137,-2.5060425,1.700943,-3.5949097,0.9855469,0.20390625,77.0
22728,-0.452137,-2.5060425,1.700943,-3.8508546,1.1023682,0.16885987,77.0
22729,-1.0307274,-3.2735233,0.39135742,-3.8508546,1.1023682,0.16885987,77.0
22730,-1.0307274,-3.2735233,0.39135742,-2.8408813,0.6064087,0.46516114,77.0
22731,-2.382761,-4.111616,-0.29310608,-2.8408813,0.6064087,0.46516114,77.0
22732,-2.382761,-4.111616,-0.29310608,-1.7693115,0.44816896,0.17735596,77.0
22733,-2.541195,-3.9825802,0.9089508,-1.7693115,0.44816896,0.17735596,77.0
22734,-2.541195,-3.9825802,0.9089508,-1.1841431,0.57454836,0.10407715,77.0
22735,-1.2359219,-3.0522385,2.1166687,-1.1841431,0.57454836,0.10407715,77.0
22736,-1.2359219,-3.0522385,2.1166687,-1.1480347,0.55968016,0.12956543,77.0
22737,-0.26436043,-1.9820747,2.3297272,-1.1480347,0.55968016,0.12956543,77.0
22738,-0.26436043,-1.9820747,2.3297272,-0.9589966,0.53737795,0.16779785,77.0
22739,0.100730896,-1.1446323,2.1934052,-0.9589966,0.53737795,0.16779785,77.0
22740,0.100730896,-1.1446323,2.1934052,-0.83474123,0.5851685,0.18372802,77.0
22741,0.2036314,-0.7477608,2.0422974,-0.83474123,0.5851685,0.18372802,77.0
22742,0.2036314,-0.7477608,2.0422974,-0.87615967,0.6680054,0.23789063,77.0
22743,0.12092495,-0.8521633,1.863739,-0.87615967,0.6680054,0.23789063,77.0
22744,0.12092495,-0.8521633,1.863739,-0.6945557,0.630835,0.36002198,77.0
22745,-0.096009254,-0.9698162,1.6880188,-0.6945557,0.630835,0.36002198,77.0
22746,-0.096009254,-0.9698162,1.6880188,-0.42374268,0.5671143,0.42374268,77.0
22747,-0.3229618,-0.73194504,1.4832306,-0.42374268,0.5671143,0.42374268,77.0
22748,-0.3229618,-0.73194504,1.4832306,-0.40250245,0.53737795,0.43011475,77.0
22749,-0.5706129,-0.42315292,1.1346741,-0.40250245,0.53737795,0.43011475,77.0
22750,-0.5706129,-0.42315292,1.1346741,-0.39082032,0.43967286,0.42905274,77.0
22751,-0.8307457,1.4388332,-4.4949646,-0.39082032,0.43967286,0.42905274,77.0
22752,-0.8307457,1.4388332,-4.4949646,-0.39082032,0.43967286,0.42905274,81.0
22753,-0.8307457,1.4388332,-4.4949646,-0.30479738,0.33878174,0.45454103,81.0
22754,-0.9207125,0.9156666,-3.7567291,-0.30479738,0.33878174,0.45454103,81.0
22755,-0.9207125,0.9156666,-3.7567291,-0.20921631,0.26125488,0.5012695,81.0
22756,-0.85805416,0.33623123,-3.0405579,-0.20921631,0.26125488,0.5012695,81.0
22757,-0.85805416,0.33623123,-3.0405579,-0.032922365,0.15505372,0.5607422,81.0
22758,-0.73768806,-0.1268158,-2.302185,-0.032922365,0.15505372,0.5607422,81.0
22759,-0.73768806,-0.1268158,-2.302185,0.31116945,0.08920898,0.6202149,81.0
22760,-0.4582529,-0.41773605,-1.5583954,0.31116945,0.08920898,0.6202149,81.0
22761,-0.4582529,-0.41773605,-1.5583954,0.4725952,0.06265869,0.68499756,81.0
22762,-0.020801544,-0.45646667,-0.95025635,0.4725952,0.06265869,0.68499756,81.0
22763,-0.020801544,-0.45646667,-0.95025635,0.41206056,0.09239502,0.7104859,81.0
22764,0.35434246,-0.35943604,-0.5549164,0.41206056,0.09239502,0.7104859,81.0
22765,0.35434246,-0.35943604,-0.5549164,0.22302246,0.14655761,0.76358646,81.0
22766,0.41438198,-0.19147873,-0.418396,0.22302246,0.14655761,0.76358646,81.0
22767,0.41438198,-0.19147873,-0.418396,-0.1263794,0.24532472,0.7189819,81.0
22768,0.16372013,-0.065805435,-0.54763794,-0.1263794,0.24532472,0.7189819,81.0
22769,0.16372013,-0.065805435,-0.54763794,-0.31966552,0.27293703,0.7104859,81.0
22770,-0.16189575,-0.17379951,-0.70500183,-0.31966552,0.27293703,0.7104859,81.0
22771,-0.16189575,-0.17379951,-0.70500183,-0.31223145,0.26762697,0.6595093,81.0
22772,10838.578,-14.707509,-127.40834,-0.31223145,0.26762697,0.6595093,81.0
22773,10838.578,-14.707509,-127.40834,-0.28355715,0.24532472,0.6223389,81.0
22774,-2168.37,2.1316242,24.777527,-0.28355715,0.24532472,0.6223389,81.0
22775,-2168.37,2.1316242,24.777527,-0.2516968,0.2166504,0.63933104,81.0
22776,-1734.8899,1.3754168,20.008392,-0.2516968,0.2166504,0.63933104,81.0
22777,-1734.8899,1.3754168,20.008392,-0.1263794,0.16248779,0.6711914,81.0
22778,-1387.9783,0.89437675,16.241943,-0.1263794,0.16248779,0.6711914,81.0
22779,-1387.9783,0.89437675,16.241943,-0.06159668,0.11363526,0.70942384,81.0
22780,-1110.3096,0.69056225,13.162979,-0.06159668,0.11363526,0.70942384,81.0
22781,-1110.3096,0.69056225,13.162979,-0.060534667,0.09239502,0.7189819,81.0
22782,-888.15027,0.64339256,10.5625305,-0.060534667,0.09239502,0.7189819,81.0
22783,-888.15027,0.64339256,10.5625305,-0.08920898,0.07540283,0.71154785,81.0
22784,-710.4794,0.5838299,8.37352,-0.08920898,0.07540283,0.71154785,81.0
22785,-710.4794,0.5838299,8.37352,-0.1263794,0.028674318,0.721106,81.0
22786,-568.3997,0.38127327,6.6111145,-0.1263794,0.028674318,0.721106,81.0
22787,-568.3997,0.38127327,6.6111145,-0.09133301,-0.0021240234,0.69986576,81.0
22788,-454.6559,-0.06667328,5.2352295,-0.09133301,-0.0021240234,0.69986576,81.0
22789,-454.6559,-0.06667328,5.2352295,0.1539917,-0.11682129,0.81243896,81.0
22790,-363.6001,-0.25185013,4.2252045,0.1539917,-0.11682129,0.81243896,81.0
22791,-363.6001,-0.25185013,4.2252045,0.26656494,-0.12850343,0.76464844,81.0
22792,-290.82648,-0.1092186,3.518036,0.26656494,-0.12850343,0.76464844,81.0
22793,-290.82648,-0.1092186,3.518036,0.28674316,-0.14018555,0.8028809,81.0
22794,-232.6761,-0.11393738,2.9374847,0.28674316,-0.14018555,0.8028809,81.0
22795,-232.6761,-0.11393738,2.9374847,0.2899292,-0.16885987,0.815625,81.0
22796,-186.19707,-0.2385006,2.3563385,0.2899292,-0.16885987,0.815625,81.0
22797,-186.19707,-0.2385006,2.3563385,0.21452637,-0.17735596,0.8251831,81.0
22798,-149.0009,-0.3366871,1.8302155,0.21452637,-0.17735596,0.8251831,81.0
22799,-149.0009,-0.3366871,1.8302155,0.18903808,-0.17735596,0.811377,81.0
22800,-119.23363,-0.4138565,1.3932648,0.18903808,-0.17735596,0.811377,81.0
22801,-119.23363,-0.4138565,1.3932648,0.060534667,-0.13806152,0.817749,81.0
22802,-95.45862,-0.51796246,1.0242004,0.060534667,-0.13806152,0.817749,81.0
22803,-95.45862,-0.51796246,1.0242004,-0.07965088,-0.11257324,0.7954468,81.0
22804,-76.49791,-0.63917446,0.70661926,-0.07965088,-0.11257324,0.7954468,81.0
22805,-76.49791,-0.63917446,0.70661926,-0.12850343,-0.1263794,0.7678345,81.0
22806,-61.276268,-0.7161007,0.4699707,-0.12850343,-0.1263794,0.7678345,81.0
22807,-61.276268,-0.7161007,0.4699707,-0.0180542,-0.11469727,0.70305175,81.0
22808,-48.919186,-0.62589645,0.2931366,-0.0180542,-0.11469727,0.70305175,81.0
22809,-48.919186,-0.62589645,0.2931366,-0.06903076,-0.046728518,0.56817627,81.0
22810,-39.129513,-0.51232624,0.0415802,-0.06903076,-0.046728518,0.56817627,81.0
22811,-39.129513,-0.51232624,0.0415802,-0.29736328,-0.020178223,0.47578126,81.0
22812,-31.605122,-0.59035397,-0.0786438,-0.29736328,-0.020178223,0.47578126,81.0
22813,-31.605122,-0.59035397,-0.0786438,-0.07540283,-0.07752686,0.4343628,81.0
22814,-25.537441,-0.6805229,0.08886719,-0.07540283,-0.07752686,0.4343628,81.0
22815,-25.537441,-0.6805229,0.08886719,0.10513916,-0.107263185,0.40144044,81.0
22816,-20.349678,-0.53772926,0.353714,0.10513916,-0.107263185,0.40144044,81.0
22817,-20.349678,-0.53772926,0.353714,0.0063720704,-0.08920898,0.39506838,81.0
22818,-16.024006,-0.26057816,0.50115967,0.0063720704,-0.08920898,0.39506838,81.0
22819,-16.024006,-0.26057816,0.50115967,-0.050976563,-0.07327881,0.4439209,81.0
22820,-12.641909,-0.09157944,0.42456055,-0.050976563,-0.07327881,0.4439209,81.0
22821,-12.641909,-0.09157944,0.42456055,-0.06584473,-0.05628662,0.4980835,81.0
22822,-10.10696,-0.15193748,0.16529846,-0.06584473,-0.05628662,0.4980835,81.0
22823,-10.10696,-0.15193748,0.16529846,0.06796875,-0.08602295,0.5012695,81.0
22824,-8.177292,-0.3243332,-0.06254578,0.06796875,-0.08602295,0.5012695,81.0
22825,-8.177292,-0.3243332,-0.06254578,0.058410645,-0.060534667,0.4439209,81.0
22826,-6.624073,-0.41895103,-0.13613892,0.058410645,-0.060534667,0.4439209,81.0
22827,-6.624073,-0.41895103,-0.13613892,0.043542482,-0.052038576,0.39294434,81.0
22828,-5.347622,-0.42443085,-0.1471405,0.043542482,-0.052038576,0.39294434,81.0
22829,-5.347622,-0.42443085,-0.1471405,-0.016992187,-0.016992187,0.31966552,81.0
22830,-4.277584,-0.38659096,-0.12486267,-0.016992187,-0.016992187,0.31966552,81.0
22831,-4.277584,-0.38659096,-0.12486267,0.04141846,-0.0063720704,0.25806886,81.0
22832,-3.3616924,-0.28085518,-0.05747986,0.04141846,-0.0063720704,0.25806886,81.0
22833,-3.3616924,-0.28085518,-0.05747986,-0.020178223,-0.0021240234,0.19328614,81.0
22834,-2.6224966,-0.2261982,0.009735107,-0.020178223,-0.0021240234,0.19328614,81.0
22835,-2.6224966,-0.2261982,0.009735107,0.025488282,0.0053100586,0.14655761,81.0
22836,-2.1167593,-0.2372942,-0.0023498535,0.025488282,0.0053100586,0.14655761,81.0
22837,-2.1167593,-0.2372942,-0.0023498535,-0.045666505,0.021240234,0.07115479,81.0
22838,-1.7485828,-0.21660519,-0.072906494,-0.045666505,0.021240234,0.07115479,81.0
22839,-1.7485828,-0.21660519,-0.072906494,0.035046387,-0.0053100586,0.021240234,81.0
22840,-1.4020271,-0.16842651,-0.12211609,0.035046387,-0.0053100586,0.021240234,81.0
22841,-1.4020271,-0.16842651,-0.12211609,0.009558106,0.0010620117,-0.04460449,81.0
22842,-1.1066189,-0.09144306,-0.1242218,0.009558106,0.0010620117,-0.04460449,81.0
22843,-1.1066189,-0.09144306,-0.1242218,-0.0021240234,0.0,-0.115759276,81.0
22844,-0.89075184,-0.05650425,-0.07078552,-0.0021240234,0.0,-0.115759276,81.0
22845,-0.89075184,-0.05650425,-0.07078552,0.05628662,0.0021240234,-0.18054199,81.0
22846,-0.6652508,0.0011835098,0.010848999,0.05628662,0.0021240234,-0.18054199,81.0
22847,-0.6652508,0.0011835098,0.010848999,0.04248047,0.032922365,-0.23045655,81.0
22848,-0.48038197,0.11333752,0.015731812,0.04248047,0.032922365,-0.23045655,81.0
22849,-0.48038197,0.11333752,0.015731812,-0.06159668,0.09451904,-0.2814331,81.0
22850,-0.41431046,0.18217468,-0.053253174,-0.06159668,0.09451904,-0.2814331,81.0
22851,-0.41431046,0.18217468,-0.053253174,0.040356446,0.124255374,-0.29948732,81.0
22852,-0.37168312,0.15673828,-0.003829956,0.040356446,0.124255374,-0.29948732,81.0
22853,-0.37168312,0.15673828,-0.003829956,0.2347046,0.13806152,-0.33878174,81.0
22854,-0.2671957,0.0744133,0.23857117,0.2347046,0.13806152,-0.33878174,81.0
22855,-0.2671957,0.0744133,0.23857117,0.16036378,0.16248779,-0.3536499,81.0
22856,-0.2265253,0.11944294,0.4137268,0.16036378,0.16248779,-0.3536499,81.0
22857,-0.2265253,0.11944294,0.4137268,-0.07646485,0.19434814,-0.43011475,81.0
22858,-0.31147003,0.16891861,0.3002777,-0.07646485,0.19434814,-0.43011475,81.0
22859,-0.31147003,0.16891861,0.3002777,-0.02442627,0.19222413,-0.47684327,81.0
22860,-0.2942314,0.13264465,0.10752869,-0.02442627,0.19222413,-0.47684327,81.0
22861,-0.2942314,0.13264465,0.10752869,0.14655761,0.12319336,-0.48321533,81.0
22862,-0.16088581,0.21854305,0.06790161,0.14655761,0.12319336,-0.48321533,81.0
22863,-0.16088581,0.21854305,0.06790161,0.16567384,0.118945315,-0.5246338,81.0
22864,-0.16088581,0.21854305,0.06790161,0.16567384,0.118945315,-0.5246338,89.0
22865,-0.11320591,0.33778572,0.18225098,0.16567384,0.118945315,-0.5246338,89.0
22866,-0.11320591,0.33778572,0.18225098,0.20921631,0.08814698,-0.5511841,89.0
22867,-0.13308144,0.41108513,0.31341553,0.20921631,0.08814698,-0.5511841,89.0
22868,-0.13308144,0.41108513,0.31341553,0.12319336,0.095581055,-0.55543214,89.0
22869,-0.092865944,0.45380688,0.3478546,0.12319336,0.095581055,-0.55543214,89.0
22870,-0.092865944,0.45380688,0.3478546,0.12213135,0.07965088,-0.5384399,89.0
22871,-0.008826256,0.5261564,0.2338562,0.12213135,0.07965088,-0.5384399,89.0
22872,-0.008826256,0.5261564,0.2338562,0.12850343,0.052038576,-0.54375,89.0
22873,0.052143097,0.57404995,0.08004761,0.12850343,0.052038576,-0.54375,89.0
22874,0.052143097,0.57404995,0.08004761,0.21134034,0.010620117,-0.540564,89.0
22875,0.049051285,0.5516224,0.03779602,0.21134034,0.010620117,-0.540564,89.0
22876,0.049051285,0.5516224,0.03779602,0.24957275,-0.0180542,-0.53100586,89.0
22877,0.028925896,0.5568371,0.060455322,0.24957275,-0.0180542,-0.53100586,89.0
22878,0.028925896,0.5568371,0.060455322,0.23895264,-0.046728518,-0.4970215,89.0
22879,0.025814056,0.5602884,0.035507202,0.23895264,-0.046728518,-0.4970215,89.0
22880,0.025814056,0.5602884,0.035507202,0.3090454,-0.08071289,-0.48746338,89.0
22881,0.06745243,0.50413895,0.024124146,0.3090454,-0.08071289,-0.48746338,89.0
22882,0.06745243,0.50413895,0.024124146,0.43967286,-0.11363526,-0.48533937,89.0
22883,0.15414524,0.49209213,0.08753967,0.43967286,-0.11363526,-0.48533937,89.0
22884,0.15414524,0.49209213,0.08753967,0.37595215,-0.098767094,-0.4959595,89.0
22885,0.18029785,0.5573578,0.089019775,0.37595215,-0.098767094,-0.4959595,89.0
22886,0.18029785,0.5573578,0.089019775,0.3525879,-0.12213135,-0.5012695,89.0
22887,0.10777569,0.5763302,-0.009902954,0.3525879,-0.12213135,-0.5012695,89.0
22888,0.10777569,0.5763302,-0.009902954,0.4056885,-0.1529297,-0.5246338,89.0
22889,0.056642532,0.50651073,-0.041244507,0.4056885,-0.1529297,-0.5246338,89.0
22890,0.056642532,0.50651073,-0.041244507,0.4725952,-0.16461182,-0.5628662,89.0
22891,0.092274666,0.474411,0.079940796,0.4725952,-0.16461182,-0.5628662,89.0
22892,0.092274666,0.474411,0.079940796,0.4056885,-0.1444336,-0.58304447,89.0
22893,0.10957432,0.5634899,0.14710999,0.4056885,-0.1444336,-0.58304447,89.0
22894,0.10957432,0.5634899,0.14710999,0.16354981,-0.12213135,-0.61278075,89.0
22895,0.049793243,0.58213997,0.034622192,0.16354981,-0.12213135,-0.61278075,89.0
22896,0.049793243,0.58213997,0.034622192,0.13806152,-0.13381349,-0.63720703,89.0
22897,-0.0042696,0.5091076,-0.1101532,0.13806152,-0.13381349,-0.63720703,89.0
22898,-0.0042696,0.5091076,-0.1101532,0.23364258,-0.1731079,-0.66269535,89.0
22899,0.011537552,0.5456772,-0.18061829,0.23364258,-0.1731079,-0.66269535,89.0
22900,0.011537552,0.5456772,-0.18061829,0.20709229,-0.19541016,-0.6881836,89.0
22901,0.06787205,0.59272957,-0.17599487,0.20709229,-0.19541016,-0.6881836,89.0
22902,0.06787205,0.59272957,-0.17599487,0.20709229,-0.22196046,-0.72854006,89.0
22903,0.11785984,0.556324,-0.10044861,0.20709229,-0.22196046,-0.72854006,89.0
22904,0.11785984,0.556324,-0.10044861,0.22408448,-0.24851075,-0.7423462,89.0
22905,0.12468338,0.6050205,-0.077804565,0.22408448,-0.24851075,-0.7423462,89.0
22906,0.12468338,0.6050205,-0.077804565,0.115759276,-0.27399904,-0.73597413,89.0
22907,0.08087444,0.66837883,-0.17605591,0.115759276,-0.27399904,-0.73597413,89.0
22908,0.08087444,0.66837883,-0.17605591,0.08602295,-0.3090454,-0.7455322,89.0
22909,0.10641098,0.61185074,-0.23738098,0.08602295,-0.3090454,-0.7455322,89.0
22910,0.10641098,0.61185074,-0.23738098,0.26125488,-0.35683593,-0.7827026,89.0
22911,0.27094364,0.5593529,-0.13560486,0.26125488,-0.35683593,-0.7827026,89.0
22912,0.27094364,0.5593529,-0.13560486,0.25913087,-0.33984375,-0.7890747,89.0
22913,0.40503693,0.66098213,-0.031234741,0.25913087,-0.33984375,-0.7890747,89.0
22914,0.40503693,0.66098213,-0.031234741,-0.09451904,-0.32816163,-0.7763306,89.0
22915,0.32116127,0.8273945,-0.14179993,-0.09451904,-0.32816163,-0.7763306,89.0
22916,0.32116127,0.8273945,-0.14179993,-0.38869628,-0.35152587,-0.814563,89.0
22917,0.16430187,0.69779205,-0.37704468,-0.38869628,-0.35152587,-0.814563,89.0
22918,0.16430187,0.69779205,-0.37704468,-0.45135498,-0.41312256,-0.83049315,89.0
22919,0.2011919,0.3471985,-0.43043518,-0.45135498,-0.41312256,-0.83049315,89.0
22920,0.2011919,0.3471985,-0.43043518,-0.33771974,-0.38338622,-0.80181885,89.0
22921,0.39995575,0.19710732,-0.31922913,-0.33771974,-0.38338622,-0.80181885,89.0
22922,0.39995575,0.19710732,-0.31922913,-0.29630128,-0.362146,-0.7306641,89.0
22923,0.47695923,0.4483471,-0.45230103,-0.29630128,-0.362146,-0.7306641,89.0
22924,0.47695923,0.4483471,-0.45230103,-0.60959476,-0.35152587,-0.7412842,89.0
22925,0.33645058,0.5933571,-0.7593231,-0.60959476,-0.35152587,-0.7412842,89.0
22926,0.33645058,0.5933571,-0.7593231,-0.59260255,-0.3717041,-0.7317261,89.0
22927,0.32239532,0.23312187,-0.7315216,-0.59260255,-0.3717041,-0.7317261,89.0
22928,0.32239532,0.23312187,-0.7315216,-0.21877442,-0.35152587,-0.7072998,89.0
22929,0.60523033,-0.02900505,-0.4744568,-0.21877442,-0.35152587,-0.7072998,89.0
22930,0.60523033,-0.02900505,-0.4744568,-0.121069334,-0.26550293,-0.67225343,89.0
22931,0.7693529,0.26045036,-0.5405121,-0.121069334,-0.26550293,-0.67225343,89.0
22932,0.7693529,0.26045036,-0.5405121,-0.47471926,-0.23789063,-0.5936646,89.0
22933,0.5681553,0.5115948,-0.83251953,-0.47471926,-0.23789063,-0.5936646,89.0
22934,0.5681553,0.5115948,-0.83251953,-0.24851075,-0.22196046,-0.5787964,89.0
22935,0.35575676,0.33541107,-0.75042725,-0.24851075,-0.22196046,-0.5787964,89.0
22936,0.35575676,0.33541107,-0.75042725,0.42268068,-0.2347046,-0.5957886,89.0
22937,0.34549427,0.3210888,-0.42521667,0.42268068,-0.2347046,-0.5957886,89.0
22938,0.34549427,0.3210888,-0.42521667,0.37382814,-0.16673584,-0.5384399,89.0
22939,0.26727676,0.475523,-0.24066162,0.37382814,-0.16673584,-0.5384399,89.0
22940,0.26727676,0.475523,-0.24066162,0.12213135,-0.15186767,-0.39294434,89.0
22941,0.109036446,0.63848686,-0.107421875,0.12213135,-0.15186767,-0.39294434,89.0
22942,0.109036446,0.63848686,-0.107421875,0.033984374,-0.17416993,-0.35577393,89.0
22943,0.07737732,1.1311874,0.3924408,0.033984374,-0.17416993,-0.35577393,89.0
22944,0.07737732,1.1311874,0.3924408,-0.020178223,-0.0053100586,-0.3695801,89.0
22945,0.035998344,1.5454655,0.77349854,-0.020178223,-0.0053100586,-0.3695801,89.0
22946,0.035998344,1.5454655,0.77349854,-0.22939454,0.20496826,-0.41418457,89.0
22947,-0.23594666,1.1002045,0.13621521,-0.22939454,0.20496826,-0.41418457,89.0
22948,-0.23594666,1.1002045,0.13621521,-0.10089111,0.107263185,-0.3993164,89.0
22949,-0.4800663,0.03317833,-0.86502075,-0.10089111,0.107263185,-0.3993164,89.0
22950,-0.4800663,0.03317833,-0.86502075,0.24957275,-0.09133301,-0.39082032,89.0
22951,-0.3517046,-0.60614777,-1.1525269,0.24957275,-0.09133301,-0.39082032,89.0
22952,-0.3517046,-0.60614777,-1.1525269,0.6403931,-0.27293703,-0.35683593,89.0
22953,0.043844223,-0.21727943,-0.7470703,0.6403931,-0.27293703,-0.35683593,89.0
22954,0.043844223,-0.21727943,-0.7470703,0.4991455,-0.2166504,-0.39613038,89.0
22955,0.32109833,0.7233448,-0.51130676,0.4991455,-0.2166504,-0.39613038,89.0
22956,0.32109833,0.7233448,-0.51130676,0.1709839,-0.24851075,-0.40993652,89.0
22957,0.3008728,1.2277832,-0.66197205,0.1709839,-0.24851075,-0.40993652,89.0
22958,0.3008728,1.2277832,-0.66197205,0.2166504,-0.2888672,-0.44179687,89.0
22959,0.33598614,0.8992672,-0.5996399,0.2166504,-0.2888672,-0.44179687,89.0
22960,0.33598614,0.8992672,-0.5996399,0.4715332,-0.26868898,-0.3525879,89.0
22961,0.33598614,0.8992672,-0.5996399,0.4715332,-0.26868898,-0.3525879,94.0
22962,0.5330105,0.43107224,-0.24002075,0.4715332,-0.26868898,-0.3525879,94.0
22963,0.5330105,0.43107224,-0.24002075,0.3791382,-0.17841797,-0.19222413,94.0
22964,0.5348797,0.5975914,-0.2077179,0.3791382,-0.17841797,-0.19222413,94.0
22965,0.5348797,0.5975914,-0.2077179,0.10938721,-0.1359375,-0.11151123,94.0
22966,0.23727894,1.0525608,-0.58547974,0.10938721,-0.1359375,-0.11151123,94.0
22967,0.23727894,1.0525608,-0.58547974,0.039294433,-0.17841797,-0.087084964,94.0
22968,0.06857109,0.8867874,-0.59413147,0.039294433,-0.17841797,-0.087084964,94.0
22969,0.06857109,0.8867874,-0.59413147,0.17841797,-0.16567384,-0.0541626,94.0
22970,0.25933647,0.005695343,-0.08503723,0.17841797,-0.16567384,-0.0541626,94.0
22971,0.25933647,0.005695343,-0.08503723,0.3812622,-0.095581055,0.025488282,94.0
22972,0.49196625,-0.5292816,0.18893433,0.3812622,-0.095581055,0.025488282,94.0
22973,0.49196625,-0.5292816,0.18893433,0.16992188,0.012744141,0.039294433,94.0
22974,0.40595055,-0.31069374,-0.18421936,0.16992188,0.012744141,0.039294433,94.0
22975,0.40595055,-0.31069374,-0.18421936,-0.083898924,0.08283692,0.07646485,94.0
22976,-0.048213005,0.04648781,-0.7865143,-0.083898924,0.08283692,0.07646485,94.0
22977,-0.048213005,0.04648781,-0.7865143,0.18903808,-0.07434082,0.078588866,94.0
22978,-0.14060879,0.054670334,-0.6622009,0.18903808,-0.07434082,0.078588866,94.0
22979,-0.14060879,0.054670334,-0.6622009,0.13487549,0.04885254,-0.015930176,94.0
22980,0.24621677,-0.22009468,0.3196869,0.13487549,0.04885254,-0.015930176,94.0
22981,0.24621677,-0.22009468,0.3196869,-0.11469727,0.059472658,0.1709839,94.0
22982,0.28780556,0.037620544,0.9125366,-0.11469727,0.059472658,0.1709839,94.0
22983,0.28780556,0.037620544,0.9125366,-0.15505372,0.12319336,0.24851075,94.0
22984,0.116975784,0.61545944,0.432724,-0.15505372,0.12319336,0.24851075,94.0
22985,0.116975784,0.61545944,0.432724,-0.023364259,0.09239502,0.32072756,94.0
22986,0.24270153,0.6028538,-0.07952881,-0.023364259,0.09239502,0.32072756,94.0
22987,0.24270153,0.6028538,-0.07952881,-0.15717773,0.23151855,0.44816896,94.0
22988,0.43000126,0.015008926,-0.052505493,-0.15717773,0.23151855,0.44816896,94.0
22989,0.43000126,0.015008926,-0.052505493,-0.18585205,0.32072756,0.61278075,94.0
22990,0.41391087,-0.6071701,-0.041778564,-0.18585205,0.32072756,0.61278075,94.0
22991,0.41391087,-0.6071701,-0.041778564,-0.20178223,0.37701416,0.69136965,94.0
22992,0.24100494,-0.88308716,-0.10517883,-0.20178223,0.37701416,0.69136965,94.0
22993,0.24100494,-0.88308716,-0.10517883,-0.34090576,0.42905274,0.75509036,94.0
22994,-0.0476017,-0.40156174,0.070373535,-0.34090576,0.42905274,0.75509036,94.0
22995,-0.0476017,-0.40156174,0.070373535,-0.54375,0.50870365,0.62340087,94.0
22996,-0.29457474,-0.042720795,0.36198425,-0.54375,0.50870365,0.62340087,94.0
22997,-0.29457474,-0.042720795,0.36198425,-0.7699585,0.58304447,0.65844727,94.0
22998,-0.41461563,-0.7107277,0.5493469,-0.7699585,0.58304447,0.65844727,94.0
22999,-0.41461563,-0.7107277,0.5493469,-0.69349366,0.52250975,0.71791995,94.0
23000,-0.41539574,-1.4644318,0.60627747,-0.69349366,0.52250975,0.71791995,94.0
23001,-0.41539574,-1.4644318,0.60627747,-0.72004396,0.54906005,0.88359374,94.0
23002,-0.15276337,-1.2691154,0.5317383,-0.72004396,0.54906005,0.88359374,94.0
23003,-0.15276337,-1.2691154,0.5317383,-0.5533081,0.725354,0.91120607,94.0
23004,0.15437698,-0.37996674,0.38316345,-0.5533081,0.725354,0.91120607,94.0
23005,0.15437698,-0.37996674,0.38316345,-0.79969484,0.9589966,1.0237793,94.0
23006,0.11423683,-0.28779984,0.36947632,-0.79969484,0.9589966,1.0237793,94.0
23007,0.11423683,-0.28779984,0.36947632,-0.5936646,0.90695804,1.3742431,94.0
23008,-0.10094452,-1.0099773,0.9932556,-0.5936646,0.90695804,1.3742431,94.0
23009,-0.10094452,-1.0099773,0.9932556,-0.5564942,0.9133301,1.6493043,94.0
23010,-0.105145454,-1.5701637,1.7652588,-0.5564942,0.9133301,1.6493043,94.0
23011,-0.105145454,-1.5701637,1.7652588,-0.630835,1.09281,1.8022339,94.0
23012,-0.1161356,-1.9457798,1.7096558,-0.630835,1.09281,1.8022339,94.0
23013,-0.1161356,-1.9457798,1.7096558,-0.7784546,1.1204224,2.0082643,94.0
23014,-0.5843506,-2.307026,1.1548767,-0.7784546,1.1204224,2.0082643,94.0
23015,-0.5843506,-2.307026,1.1548767,-0.74871826,0.901648,2.259961,94.0
23016,-1.2231197,-1.9591942,1.1027985,-0.74871826,0.901648,2.259961,94.0
23017,-1.2231197,-1.9591942,1.1027985,-0.66481936,0.76677245,2.340674,94.0
23018,-1.487114,-0.84571266,1.5446625,-0.66481936,0.76677245,2.340674,94.0
23019,-1.487114,-0.84571266,1.5446625,-0.8251831,0.8050049,2.2960694,94.0
23020,-1.3827333,-0.7682209,1.5750732,-0.8251831,0.8050049,2.2960694,94.0
23021,-1.3827333,-0.7682209,1.5750732,-0.58410645,0.5777344,2.7006958,94.0
23022,-1.2413559,-1.5464382,1.0659943,-0.58410645,0.5777344,2.7006958,94.0
23023,-1.2413559,-1.5464382,1.0659943,-0.32285157,0.3706421,3.0723999,94.0
23024,-1.102191,-1.813982,0.55644226,-0.32285157,0.3706421,3.0723999,94.0
23025,-1.102191,-1.813982,0.55644226,-0.3695801,0.21240234,3.4111817,94.0
23026,-0.39684105,-2.3133802,0.55259705,-0.3695801,0.21240234,3.4111817,94.0
23027,-0.39684105,-2.3133802,0.55259705,-0.26656494,0.039294433,3.7573974,94.0
23028,0.8793049,-3.4105682,1.1226959,-0.26656494,0.039294433,3.7573974,94.0
23029,0.8793049,-3.4105682,1.1226959,-0.23258057,-0.014868164,4.079187,94.0
23030,1.6315441,-4.029871,1.6251678,-0.23258057,-0.014868164,4.079187,94.0
23031,1.6315441,-4.029871,1.6251678,-0.3695801,-0.107263185,4.3276978,94.0
23032,1.2435284,-3.0113487,1.5346222,-0.3695801,-0.107263185,4.3276978,94.0
23033,1.2435284,-3.0113487,1.5346222,-0.55755615,-0.26550293,4.370178,94.0
23034,0.14912033,-0.52294636,1.2976074,-0.55755615,-0.26550293,4.370178,94.0
23035,0.14912033,-0.52294636,1.2976074,-1.0779419,-0.39506838,4.166272,94.0
23036,-1.2120876,1.5433502,1.1885986,-1.0779419,-0.39506838,4.166272,94.0
23037,-1.2120876,1.5433502,1.1885986,-2.1240234,-0.52038574,3.6023438,94.0
23038,-2.577385,2.129016,0.6309204,-2.1240234,-0.52038574,3.6023438,94.0
23039,-2.577385,2.129016,0.6309204,-2.617859,-0.71154785,2.7431762,94.0
23040,-3.6061468,2.0975857,-0.3460083,-2.617859,-0.71154785,2.7431762,94.0
23041,-3.6061468,2.0975857,-0.3460083,-3.4026856,-0.9398804,1.6652344,94.0
23042,-4.137432,1.2457323,-1.3710327,-3.4026856,-0.9398804,1.6652344,94.0
23043,-4.137432,1.2457323,-1.3710327,-4.4657593,-0.7051758,0.8973999,94.0
23044,-4.4623747,-1.1013145,-2.4580078,-4.4657593,-0.7051758,0.8973999,94.0
23045,-4.4623747,-1.1013145,-2.4580078,-3.9262574,-0.7338501,0.050976563,94.0
23046,-4.5675926,-3.3552942,-3.5705261,-3.9262574,-0.7338501,0.050976563,94.0
23047,-4.5675926,-3.3552942,-3.5705261,-3.883777,-0.6446411,-0.60322267,94.0
23048,-3.721921,-4.2485914,-4.5082855,-3.883777,-0.6446411,-0.60322267,94.0
23049,-3.721921,-4.2485914,-4.5082855,-3.5949097,-0.41843262,-0.9451904,94.0
23050,-2.7436132,-4.413436,-5.0416107,-3.5949097,-0.41843262,-0.9451904,94.0
23051,-2.7436132,-4.413436,-5.0416107,-1.718335,-0.5787964,-1.2244996,94.0
23052,-2.7510061,-3.8004627,-5.021942,-1.718335,-0.5787964,-1.2244996,94.0
23053,-2.7510061,-3.8004627,-5.021942,-0.17947999,-0.68074954,-1.6248779,94.0
23054,-3.0710564,-2.2831316,-4.4033966,-0.17947999,-0.68074954,-1.6248779,94.0
23055,-3.0710564,-2.2831316,-4.4033966,0.24320069,-0.6616333,-1.8861328,94.0
23056,-2.91716,-1.0544472,-3.3491364,0.24320069,-0.6616333,-1.8861328,94.0
23057,-2.91716,-1.0544472,-3.3491364,-0.25063476,-0.40250245,-1.9551636,94.0
23058,-2.215283,-1.1422758,-2.2042236,-0.25063476,-0.40250245,-1.9551636,94.0
23059,-2.215283,-1.1422758,-2.2042236,-0.79969484,-0.12319336,-1.8319702,94.0
23060,-1.3113866,-2.2416162,-1.4099579,-0.79969484,-0.12319336,-1.8319702,94.0
23061,-1.3113866,-2.2416162,-1.4099579,-0.6754395,0.10620117,-1.4804443,94.0
23062,-0.75859404,-3.0370426,-1.2388763,-0.6754395,0.10620117,-1.4804443,94.0
23063,-0.75859404,-3.0370426,-1.2388763,-0.5065796,0.10407715,-1.1915772,94.0
23064,-0.5577297,-2.7171464,-1.55336,-0.5065796,0.10407715,-1.1915772,94.0
23065,-0.5577297,-2.7171464,-1.55336,-1.1108643,0.19647217,-0.8262451,94.0
23066,-0.5577297,-2.7171464,-1.55336,-1.1108643,0.19647217,-0.8262451,98.0
23067,-0.25500965,-2.0491447,-1.9090729,-1.1108643,0.19647217,-0.8262451,98.0
23068,-0.25500965,-2.0491447,-1.9090729,-0.8230591,0.13275146,-0.42161867,98.0
23069,0.1456995,-1.4152317,-1.9023743,-0.8230591,0.13275146,-0.42161867,98.0
23070,0.1456995,-1.4152317,-1.9023743,-0.46516114,-0.13487549,-0.10620117,98.0
23071,0.502717,-0.6893263,-1.570755,-0.46516114,-0.13487549,-0.10620117,98.0
23072,0.502717,-0.6893263,-1.570755,-0.8995239,-0.30267334,0.31010744,98.0
23073,0.66055965,-0.28660536,-1.253418,-0.8995239,-0.30267334,0.31010744,98.0
23074,0.66055965,-0.28660536,-1.253418,-1.0726318,-0.6000366,0.5511841,98.0
23075,0.6487117,-0.3499751,-1.0766449,-1.0726318,-0.6000366,0.5511841,98.0
23076,0.6487117,-0.3499751,-1.0766449,-1.0184692,-0.8241211,0.7126099,98.0
23077,0.7089839,-0.76483154,-0.87879944,-1.0184692,-0.8241211,0.7126099,98.0
23078,0.7089839,-0.76483154,-0.87879944,-0.48533937,-1.0312134,0.8687256,98.0
23079,0.83892775,-0.9290037,-0.64671326,-0.48533937,-1.0312134,0.8687256,98.0
23080,0.83892775,-0.9290037,-0.64671326,-0.1731079,-1.1469727,0.9855469,98.0
23081,0.9344721,-0.40547085,-0.5184479,-0.1731079,-1.1469727,0.9855469,98.0
23082,0.9344721,-0.40547085,-0.5184479,-0.24213867,-1.2181275,1.0545777,98.0
23083,0.91281176,0.27459812,-0.5084381,-0.24213867,-1.2181275,1.0545777,98.0
23084,0.91281176,0.27459812,-0.5084381,-0.28674316,-1.3222046,1.0705079,98.0
23085,0.8023443,0.4342904,-0.42079163,-0.28674316,-1.3222046,1.0705079,98.0
23086,0.8023443,0.4342904,-0.42079163,-0.2357666,-1.3126465,1.0906861,98.0
23087,0.5934868,0.061372757,-0.1869049,-0.2357666,-1.3126465,1.0906861,98.0
23088,0.5934868,0.061372757,-0.1869049,0.010620117,-1.2372437,1.0821899,98.0
23089,0.3162322,-0.18060112,-0.11265564,0.010620117,-1.2372437,1.0821899,98.0
23090,0.3162322,-0.18060112,-0.11265564,0.04885254,-1.0970582,1.0567017,98.0
23091,0.09398937,0.012513638,-0.37576294,0.04885254,-1.0970582,1.0567017,98.0
23092,0.09398937,0.012513638,-0.37576294,-0.059472658,-1.0407715,1.0290893,98.0
23093,-0.080142975,0.2507577,-0.7368469,-0.059472658,-1.0407715,1.0290893,98.0
23094,-0.080142975,0.2507577,-0.7368469,-0.22408448,-0.9632446,0.9653687,98.0
23095,-0.13370705,0.018940926,-0.9068756,-0.22408448,-0.9632446,0.9653687,98.0
23096,-0.13370705,0.018940926,-0.9068756,0.046728518,-0.9398804,0.9505005,98.0
23097,-0.078071594,-0.4465294,-0.852829,0.046728518,-0.9398804,0.9505005,98.0
23098,-0.078071594,-0.4465294,-0.852829,0.3971924,-0.92926025,0.90270996,98.0
23099,-0.07247925,-0.46239948,-0.7051239,0.3971924,-0.92926025,0.90270996,98.0
23100,-0.07247925,-0.46239948,-0.7051239,0.33984375,-0.82730716,0.7742066,98.0
23101,-0.055615425,-0.15931177,-0.63127136,0.33984375,-0.82730716,0.7742066,98.0
23102,-0.055615425,-0.15931177,-0.63127136,0.14018555,-0.7317261,0.7338501,98.0
23103,0.025880814,-0.10880947,-0.6716461,0.14018555,-0.7317261,0.7338501,98.0
23104,0.025880814,-0.10880947,-0.6716461,0.121069334,-0.7338501,0.7869507,98.0
23105,0.02658844,-0.22706223,-0.81526184,0.121069334,-0.7338501,0.7869507,98.0
23106,0.02658844,-0.22706223,-0.81526184,0.029736329,-0.7763306,0.76464844,98.0
23107,-0.06845093,-0.32228708,-1.0667877,0.029736329,-0.7763306,0.76464844,98.0
23108,-0.06845093,-0.32228708,-1.0667877,-0.07540283,-0.8889038,0.6754395,98.0
23109,-0.20927715,-0.659636,-1.3060455,-0.07540283,-0.8889038,0.6754395,98.0
23110,-0.20927715,-0.659636,-1.3060455,-0.011682129,-1.1490967,0.6180908,98.0
23111,-0.2983055,-1.4058948,-1.2223358,-0.011682129,-1.1490967,0.6180908,98.0
23112,-0.2983055,-1.4058948,-1.2223358,0.20390625,-1.4156617,0.62764895,98.0
23113,-0.27643728,-2.141488,-0.79411316,0.20390625,-1.4156617,0.62764895,98.0
23114,-0.27643728,-2.141488,-0.79411316,0.45454103,-1.6981567,0.7317261,98.0
23115,-0.30832052,-2.2703316,-0.4525299,0.45454103,-1.6981567,0.7317261,98.0
23116,-0.30832052,-2.2703316,-0.4525299,0.5766724,-1.9710938,0.9420044,98.0
23117,-0.532557,-1.7969661,-0.38594055,0.5766724,-1.9710938,0.9420044,98.0
23118,-0.532557,-1.7969661,-0.38594055,0.7784546,-2.2376587,1.179895,98.0
23119,-0.83584785,-1.1212764,-0.3554077,0.7784546,-2.2376587,1.179895,98.0
23120,-0.83584785,-1.1212764,-0.3554077,0.89846194,-2.4203248,1.3668091,98.0
23121,-1.0790544,-0.5308225,-0.15859985,0.89846194,-2.4203248,1.3668091,98.0
23122,-1.0790544,-0.5308225,-0.15859985,0.815625,-2.4766114,1.532483,98.0
23123,-1.399828,-0.13670635,0.13557434,0.815625,-2.4766114,1.532483,98.0
23124,-1.399828,-0.13670635,0.13557434,0.74871826,-2.4766114,1.6684204,98.0
23125,-1.8896866,0.109238386,0.30665588,0.74871826,-2.4766114,1.6684204,98.0
23126,-1.8896866,0.109238386,0.30665588,0.74022216,-2.4872315,1.7268311,98.0
23127,-2.404315,0.32031298,0.32019043,0.74022216,-2.4872315,1.7268311,98.0
23128,-2.404315,0.32031298,0.32019043,0.62977296,-2.541394,1.7735596,98.0
23129,-2.8089256,0.42921185,0.3668518,0.62977296,-2.541394,1.7735596,98.0
23130,-2.8089256,0.42921185,0.3668518,0.71367186,-2.6348512,1.897815,98.0
23131,-3.0917938,0.5481181,0.7032623,0.71367186,-2.6348512,1.897815,98.0
23132,-3.0917938,0.5481181,0.7032623,1.0131592,-2.6826417,2.0029542,98.0
23133,-3.2638037,0.9935484,1.1464691,1.0131592,-2.6826417,2.0029542,98.0
23134,-3.2638037,0.9935484,1.1464691,0.8581055,-2.5891845,2.076233,98.0
23135,-3.2500322,1.4920921,1.264389,0.8581055,-2.5891845,2.076233,98.0
23136,-3.2500322,1.4920921,1.264389,0.20496826,-2.4649293,2.1240234,98.0
23137,-3.0140152,1.3579803,0.9760742,0.20496826,-2.4649293,2.1240234,98.0
23138,-3.0140152,1.3579803,0.9760742,-0.14018555,-2.3820922,2.2068603,98.0
23139,-2.788336,0.5837107,0.59928894,-0.14018555,-2.3820922,2.2068603,98.0
23140,-2.788336,0.5837107,0.59928894,0.43754885,-2.4797974,2.2737672,98.0
23141,-2.6668017,0.21062088,0.40208435,0.43754885,-2.4797974,2.2737672,98.0
23142,-2.6668017,0.21062088,0.40208435,0.7306641,-2.5456421,2.2801392,98.0
23143,-2.4523501,0.59997845,0.42440796,0.7306641,-2.5456421,2.2801392,98.0
23144,-2.4523501,0.59997845,0.42440796,0.5065796,-2.5721924,2.34386,98.0
23145,-2.2191556,0.9660425,0.64811707,0.5065796,-2.5721924,2.34386,98.0
23146,-2.2191556,0.9660425,0.64811707,0.3727661,-2.6454713,2.4128907,98.0
23147,-2.1249094,0.9148016,0.9952698,0.3727661,-2.6454713,2.4128907,98.0
23148,-2.1249094,0.9148016,0.9952698,0.49171144,-2.7389283,2.456433,98.0
23149,-2.1535654,0.76737595,1.3133698,0.49171144,-2.7389283,2.456433,98.0
23150,-2.1535654,0.76737595,1.3133698,0.5798584,-2.805835,2.4723632,98.0
23151,-2.1760383,0.85846853,1.5227661,0.5798584,-2.805835,2.4723632,98.0
23152,-2.1760383,0.85846853,1.5227661,0.59047854,-2.799463,2.4256349,98.0
23153,-2.1619124,1.1635327,1.6721954,0.59047854,-2.799463,2.4256349,98.0
23154,-2.1619124,1.1635327,1.6721954,0.55968016,-2.7750366,2.362976,98.0
23155,-2.164442,1.410245,1.7704315,0.55968016,-2.7750366,2.362976,98.0
23156,-2.164442,1.410245,1.7704315,0.42692873,-2.72406,2.348108,98.0
23157,-2.239378,1.346714,1.8679199,0.42692873,-2.72406,2.348108,98.0
23158,-2.239378,1.346714,1.8679199,0.4704712,-2.7060058,2.3258057,98.0
23159,-2.3656597,1.1237822,2.0669708,0.4704712,-2.7060058,2.3258057,98.0
23160,-2.3656597,1.1237822,2.0669708,0.8782837,-2.7410524,2.3247437,98.0
23161,-2.5073228,1.1058617,2.3407135,0.8782837,-2.7410524,2.3247437,98.0
23162,-2.5073228,1.1058617,2.3407135,1.1947632,-2.717688,2.2355347,98.0
23163,-2.5232658,1.3470793,2.4527435,1.1947632,-2.717688,2.2355347,98.0
23164,-2.5232658,1.3470793,2.4527435,1.2892822,-2.608301,2.077295,98.0
23165,-2.1700773,1.4730492,2.3512115,1.2892822,-2.608301,2.077295,98.0
23166,-2.1700773,1.4730492,2.3512115,1.4570801,-2.4882934,1.8691406,98.0
23167,-1.611721,1.3817225,2.3509827,1.4570801,-2.4882934,1.8691406,98.0
23168,-1.611721,1.3817225,2.3509827,1.6928467,-2.436255,1.6418701,98.0
23169,-1.1929903,1.3438301,2.400406,1.6928467,-2.436255,1.6418701,98.0
23170,-1.1929903,1.3438301,2.400406,1.811792,-2.3852785,1.5176147,98.0
23171,-0.33516598,1.8517246,2.6512604,1.811792,-2.3852785,1.5176147,98.0
23172,-0.33516598,1.8517246,2.6512604,1.811792,-2.3852785,1.5176147,101.0
23173,-0.33516598,1.8517246,2.6512604,2.173938,-2.165442,0.99935305,101.0
23174,0.03244114,1.990572,2.515274,2.173938,-2.165442,0.99935305,101.0
23175,0.03244114,1.990572,2.515274,2.269519,-2.1452637,0.8666016,101.0
23176,0.9610605,1.957655,3.0209503,2.269519,-2.1452637,0.8666016,101.0
23177,0.9610605,1.957655,3.0209503,1.0662597,-1.9827759,0.78164065,101.0
23178,1.1060925,1.3938704,3.1536865,1.0662597,-1.9827759,0.78164065,101.0
23179,1.1060925,1.3938704,3.1536865,1.0524536,-2.0273805,0.7742066,101.0
23180,1.6305895,1.10079,3.5004578,1.0524536,-2.0273805,0.7742066,101.0
23181,1.6305895,1.10079,3.5004578,1.2255615,-2.0464966,0.45666504,101.0
23182,1.6423011,1.7096729,2.9602509,1.2255615,-2.0464966,0.45666504,101.0
23183,1.6423011,1.7096729,2.9602509,0.9505005,-2.0252564,0.31116945,101.0
23184,2.378636,3.8902483,1.8333435,0.9505005,-2.0252564,0.31116945,101.0
23185,2.378636,3.8902483,1.8333435,-0.7625244,-1.6588624,0.007434082,101.0
23186,2.2789583,3.014555,1.5334778,-0.7625244,-1.6588624,0.007434082,101.0
23187,2.2789583,3.014555,1.5334778,-0.6945557,-1.5823975,-0.0541626,101.0
23188,2.423386,0.50712776,1.8485718,-0.6945557,-1.5823975,-0.0541626,101.0
23189,2.423386,0.50712776,1.8485718,0.46622315,-1.4209718,-0.2442627,101.0
23190,2.1132936,0.22913933,2.0983734,0.46622315,-1.4209718,-0.2442627,101.0
23191,2.1132936,0.22913933,2.0983734,0.22727051,-1.1639649,-0.3419678,101.0
23192,2.1270971,1.310607,3.038559,0.22727051,-1.1639649,-0.3419678,101.0
23193,2.1270971,1.310607,3.038559,-1.265918,-0.5320679,-0.36427003,101.0
23194,1.8491511,0.90020657,2.8206024,-1.265918,-0.5320679,-0.36427003,101.0
23195,1.8491511,0.90020657,2.8206024,-1.4645141,-0.30479738,-0.2548828,101.0
23196,1.3147457,-1.5286627,2.2946625,-1.4645141,-0.30479738,-0.2548828,101.0
23197,1.3147457,-1.5286627,2.2946625,-0.38551027,-0.19541016,-0.08496094,101.0
23198,0.831887,-1.9322929,1.525711,-0.38551027,-0.19541016,-0.08496094,101.0
23199,0.831887,-1.9322929,1.525711,0.13487549,-0.27399904,0.08071289,101.0
23200,0.049567223,-1.076169,0.777359,0.13487549,-0.27399904,0.08071289,101.0
23201,0.049567223,-1.076169,0.777359,0.8336792,-0.22727051,0.43861085,101.0
23202,0.03307438,0.030470848,0.8901825,0.8336792,-0.22727051,0.43861085,101.0
23203,0.03307438,0.030470848,0.8901825,0.9154541,-0.07965088,0.47365722,101.0
23204,0.38217258,2.6157455,1.7087097,0.9154541,-0.07965088,0.47365722,101.0
23205,0.38217258,2.6157455,1.7087097,1.1820191,0.0722168,0.3069214,101.0
23206,0.37251043,2.8699036,1.2880249,1.1820191,0.0722168,0.3069214,101.0
23207,0.37251043,2.8699036,1.2880249,0.7784546,0.13275146,0.19753419,101.0
23208,0.22485161,2.9343147,0.41905212,0.7784546,0.13275146,0.19753419,101.0
23209,0.22485161,2.9343147,0.41905212,0.023364259,0.19753419,0.045666505,101.0
23210,-0.14607096,1.8577299,-0.10852051,0.023364259,0.19753419,0.045666505,101.0
23211,-0.14607096,1.8577299,-0.10852051,-0.29099122,0.17947999,-0.043542482,101.0
23212,-0.5314565,0.7204981,-0.402359,-0.29099122,0.17947999,-0.043542482,101.0
23213,-0.5314565,0.7204981,-0.402359,-0.55543214,0.1083252,-0.14337158,101.0
23214,-0.6177435,-0.3030939,-0.83935547,-0.55543214,0.1083252,-0.14337158,101.0
23215,-0.6177435,-0.3030939,-0.83935547,-0.04885254,-0.07646485,-0.16885987,101.0
23216,-0.5307183,-1.0950747,-0.9583435,-0.04885254,-0.07646485,-0.16885987,101.0
23217,-0.5307183,-1.0950747,-0.9583435,0.57454836,-0.23151855,-0.16248779,101.0
23218,-0.46967983,-0.7977152,-0.62506104,0.57454836,-0.23151855,-0.16248779,101.0
23219,-0.46967983,-0.7977152,-0.62506104,0.42055663,-0.16992188,-0.18797608,101.0
23220,-0.5751214,-0.42297363,-0.1251831,0.42055663,-0.16992188,-0.18797608,101.0
23221,-0.5751214,-0.42297363,-0.1251831,0.21452637,-0.095581055,-0.20921631,101.0
23222,-0.5360007,-0.45733643,-0.088531494,0.21452637,-0.095581055,-0.20921631,101.0
23223,-0.5360007,-0.45733643,-0.088531494,0.2803711,-0.10620117,-0.19434814,101.0
23224,-0.57179356,-0.6580076,-0.11897278,0.2803711,-0.10620117,-0.19434814,101.0
23225,-0.57179356,-0.6580076,-0.11897278,0.5883545,-0.14337158,-0.1985962,101.0
23226,-0.44442225,-0.5495148,0.003829956,0.5883545,-0.14337158,-0.1985962,101.0
23227,-0.44442225,-0.5495148,0.003829956,0.8251831,-0.12000733,-0.1985962,101.0
23228,-0.14243984,-0.06538105,0.21420288,0.8251831,-0.12000733,-0.1985962,101.0
23229,-0.14243984,-0.06538105,0.21420288,0.7604004,-0.05522461,-0.1985962,101.0
23230,0.16582108,0.41649342,0.22486877,0.7604004,-0.05522461,-0.1985962,101.0
23231,0.16582108,0.41649342,0.22486877,0.49064943,0.008496094,-0.2516968,101.0
23232,0.29513264,0.5714035,0.064971924,0.49064943,0.008496094,-0.2516968,101.0
23233,0.29513264,0.5714035,0.064971924,0.4980835,0.045666505,-0.32285157,101.0
23234,0.23792505,0.5011053,-0.059143066,0.4980835,0.045666505,-0.32285157,101.0
23235,0.23792505,0.5011053,-0.059143066,0.5915405,0.08071289,-0.3717041,101.0
23236,0.21263027,0.5238457,-0.017837524,0.5915405,0.08071289,-0.3717041,101.0
23237,0.21263027,0.5238457,-0.017837524,0.60109866,0.13168946,-0.43011475,101.0
23238,0.25351477,0.7054405,0.1273346,0.60109866,0.13168946,-0.43011475,101.0
23239,0.25351477,0.7054405,0.1273346,0.44179687,0.17629395,-0.45347902,101.0
23240,0.18219423,0.8292446,0.25828552,0.44179687,0.17629395,-0.45347902,101.0
23241,0.18219423,0.8292446,0.25828552,0.2814331,0.19328614,-0.45029297,101.0
23242,-0.107467175,0.6205368,0.36268616,0.2814331,0.19328614,-0.45029297,101.0
23243,-0.107467175,0.6205368,0.36268616,0.5564942,0.0722168,-0.36320803,101.0
23244,-0.3072629,0.35960007,0.52941895,0.5564942,0.0722168,-0.36320803,101.0
23245,-0.3072629,0.35960007,0.52941895,0.68499756,-0.028674318,-0.3451538,101.0
23246,-0.2131443,0.4872036,0.7414551,0.68499756,-0.028674318,-0.3451538,101.0
23247,-0.2131443,0.4872036,0.7414551,0.32391357,-0.07646485,-0.2824951,101.0
23248,-0.09926319,0.6311331,0.8822937,0.32391357,-0.07646485,-0.2824951,101.0
23249,-0.09926319,0.6311331,0.8822937,0.31010744,-0.16779785,-0.26868898,101.0
23250,-0.11360216,0.56026554,0.9107666,0.31010744,-0.16779785,-0.26868898,101.0
23251,-0.11360216,0.56026554,0.9107666,0.51932377,-0.24957275,-0.28355715,101.0
23252,-0.2111454,0.5617132,0.75006104,0.51932377,-0.24957275,-0.28355715,101.0
23253,-0.2111454,0.5617132,0.75006104,0.6690674,-0.33771974,-0.31116945,101.0
23254,-0.23551798,0.6682062,0.45309448,0.6690674,-0.33771974,-0.31116945,101.0
23255,-0.23551798,0.6682062,0.45309448,0.6403931,-0.38869628,-0.2984253,101.0
23256,-0.051060677,0.7097244,0.19822693,0.6403931,-0.38869628,-0.2984253,101.0
23257,-0.051060677,0.7097244,0.19822693,0.47684327,-0.3802002,-0.2803711,101.0
23258,0.30739355,0.42229652,0.09988403,0.47684327,-0.3802002,-0.2803711,101.0
23259,0.30739355,0.42229652,0.09988403,0.50020754,-0.30054933,-0.2081543,101.0
23260,0.56400585,0.06632805,0.17510986,0.50020754,-0.30054933,-0.2081543,101.0
23261,0.56400585,0.06632805,0.17510986,0.6138428,-0.2984253,-0.05522461,101.0
23262,0.42076015,0.061632156,0.27171326,0.6138428,-0.2984253,-0.05522461,101.0
23263,0.42076015,0.061632156,0.27171326,0.70092773,-0.26656494,0.1444336,101.0
23264,0.04569006,0.46632195,0.34684753,0.70092773,-0.26656494,0.1444336,101.0
23265,0.04569006,0.46632195,0.34684753,0.8230591,-0.24320069,0.2357666,101.0
23266,-0.16713476,1.1530266,0.3612213,0.8230591,-0.24320069,0.2357666,101.0
23267,-0.16713476,1.1530266,0.3612213,0.7317261,-0.1539917,0.18903808,101.0
23268,-0.102286816,1.6258144,0.18132019,0.7317261,-0.1539917,0.18903808,101.0
23269,-0.102286816,1.6258144,0.18132019,0.5968506,-0.15505372,0.14868164,101.0
23270,0.06358051,1.5858574,-0.08544922,0.5968506,-0.15505372,0.14868164,101.0
23271,0.06358051,1.5858574,-0.08544922,0.3812622,-0.20072022,0.16885987,101.0
23272,0.215415,1.1868019,-0.24664307,0.3812622,-0.20072022,0.16885987,101.0
23273,0.215415,1.1868019,-0.24664307,0.012744141,-0.15611573,0.12000733,101.0
23274,0.29970026,0.6964512,-0.28689575,0.012744141,-0.15611573,0.12000733,101.0
23275,0.29970026,0.6964512,-0.28689575,0.083898924,-0.25806886,0.14868164,101.0
23276,0.33353472,0.3870926,-0.38186646,0.083898924,-0.25806886,0.14868164,101.0
23277,0.33353472,0.3870926,-0.38186646,-0.033984374,-0.2538208,0.18160401,101.0
23278,0.398798,0.27301598,-0.5373535,-0.033984374,-0.2538208,0.18160401,101.0
23279,0.398798,0.27301598,-0.5373535,-0.009558106,-0.2984253,0.24957275,101.0
23280,0.398798,0.27301598,-0.5373535,-0.009558106,-0.2984253,0.24957275,95.0
23281,0.4484818,0.019268036,-0.64320374,-0.009558106,-0.2984253,0.24957275,95.0
23282,0.4484818,0.019268036,-0.64320374,0.13062744,-0.32391357,0.3706421,95.0
23283,0.50605106,-0.12356186,-0.5492401,0.13062744,-0.32391357,0.3706421,95.0
23284,0.50605106,-0.12356186,-0.5492401,0.7104859,-0.44179687,0.33771974,95.0
23285,0.49419641,0.39018822,-0.28738403,0.7104859,-0.44179687,0.33771974,95.0
23286,0.49419641,0.39018822,-0.28738403,0.5533081,-0.44923097,0.23364258,95.0
23287,0.36646318,0.9130058,0.17131042,0.5533081,-0.44923097,0.23364258,95.0
23288,0.36646318,0.9130058,0.17131042,0.41418457,-0.4715332,0.22408448,95.0
23289,0.4645939,0.9840908,0.91256714,0.41418457,-0.4715332,0.22408448,95.0
23290,0.4645939,0.9840908,0.91256714,0.5055176,-0.43117675,0.121069334,95.0
23291,1.0613358,1.0949879,1.4589539,0.5055176,-0.43117675,0.121069334,95.0
23292,1.0613358,1.0949879,1.4589539,0.3706421,-0.31223145,0.16673584,95.0
23293,1.750509,1.0073509,1.4174194,0.3706421,-0.31223145,0.16673584,95.0
23294,1.750509,1.0073509,1.4174194,0.023364259,-0.16992188,0.3536499,95.0
23295,1.7255416,0.5958824,1.053009,0.023364259,-0.16992188,0.3536499,95.0
23296,1.7255416,0.5958824,1.053009,0.0180542,-0.1083252,0.4980835,95.0
23297,0.7844615,0.17596054,0.6343994,0.0180542,-0.1083252,0.4980835,95.0
23298,0.7844615,0.17596054,0.6343994,-0.14230958,-0.0063720704,0.46728516,95.0
23299,-0.32803392,-0.32436752,0.30718994,-0.14230958,-0.0063720704,0.46728516,95.0
23300,-0.32803392,-0.32436752,0.30718994,-0.083898924,0.0031860352,0.4333008,95.0
23301,-0.93712187,-0.8315277,0.16116333,-0.083898924,0.0031860352,0.4333008,95.0
23302,-0.93712187,-0.8315277,0.16116333,0.07327881,0.022302246,0.36427003,95.0
23303,-0.9229884,-0.9032097,0.09828186,0.07327881,0.022302246,0.36427003,95.0
23304,-0.9229884,-0.9032097,0.09828186,-0.022302246,0.06159668,0.30161133,95.0
23305,-0.7128658,-0.44923973,0.03363037,-0.022302246,0.06159668,0.30161133,95.0
23306,-0.7128658,-0.44923973,0.03363037,-0.24107666,0.05628662,0.17416993,95.0
23307,-0.5960007,-0.06544685,-0.11515808,-0.24107666,0.05628662,0.17416993,95.0
23308,-0.5960007,-0.06544685,-0.11515808,-0.4258667,0.1444336,0.04991455,95.0
23309,-0.36044312,-0.059913635,-0.3010559,-0.4258667,0.1444336,0.04991455,95.0
23310,-0.36044312,-0.059913635,-0.3010559,-0.4598511,0.14124756,0.08920898,95.0
23311,-0.13521719,0.18977737,-0.50083923,-0.4598511,0.14124756,0.08920898,95.0
23312,-0.13521719,0.18977737,-0.50083923,-0.50445557,0.18266602,-0.0053100586,95.0
23313,-0.047638893,0.41373634,-0.6996918,-0.50445557,0.18266602,-0.0053100586,95.0
23314,-0.047638893,0.41373634,-0.6996918,-0.21452637,0.078588866,-0.015930176,95.0
23315,0.21409845,0.09739494,-0.57289124,-0.21452637,0.078588866,-0.015930176,95.0
23316,0.21409845,0.09739494,-0.57289124,-0.014868164,0.07327881,0.0637207,95.0
23317,0.4991839,-0.24361801,-0.10475159,-0.014868164,0.07327881,0.0637207,95.0
23318,0.4991839,-0.24361801,-0.10475159,-0.11469727,0.1444336,0.12956543,95.0
23319,0.3807559,-0.478611,0.17224121,-0.11469727,0.1444336,0.12956543,95.0
23320,0.3807559,-0.478611,0.17224121,-0.04991455,0.15823975,0.27293703,95.0
23321,-0.14311266,-0.3115387,0.24531555,-0.04991455,0.15823975,0.27293703,95.0
23322,-0.14311266,-0.3115387,0.24531555,0.2262085,0.020178223,0.25913087,95.0
23323,-0.73400927,0.42398643,0.51190186,0.2262085,0.020178223,0.25913087,95.0
23324,-0.73400927,0.42398643,0.51190186,0.107263185,0.1901001,-0.029736329,95.0
23325,-0.8651004,0.5905571,0.52059937,0.107263185,0.1901001,-0.029736329,95.0
23326,-0.8651004,0.5905571,0.52059937,-0.2516968,0.13275146,0.06796875,95.0
23327,-0.8706081,0.41703796,0.16627502,-0.2516968,0.13275146,0.06796875,95.0
23328,-0.8706081,0.41703796,0.16627502,-0.16142578,-0.059472658,0.0637207,95.0
23329,-0.9437766,0.48472786,-0.06266785,-0.16142578,-0.059472658,0.0637207,95.0
23330,-0.9437766,0.48472786,-0.06266785,-0.32497558,0.0010620117,-0.07327881,95.0
23331,-0.49751377,0.21712685,-0.1269989,-0.32497558,0.0010620117,-0.07327881,95.0
23332,-0.49751377,0.21712685,-0.1269989,-0.07540283,-0.045666505,-0.032922365,95.0
23333,0.25840974,-0.22731209,-0.21133423,-0.07540283,-0.045666505,-0.032922365,95.0
23334,0.25840974,-0.22731209,-0.21133423,-0.16036378,-0.0063720704,0.009558106,95.0
23335,0.754091,-0.6484394,-0.6319885,-0.16036378,-0.0063720704,0.009558106,95.0
23336,0.754091,-0.6484394,-0.6319885,-0.04991455,0.012744141,0.015930176,95.0
23337,0.8389783,-0.88505936,-1.0776367,-0.04991455,0.012744141,0.015930176,95.0
23338,0.8389783,-0.88505936,-1.0776367,0.057348635,-0.081774905,0.022302246,95.0
23339,0.61081886,-0.7655678,-0.83799744,0.057348635,-0.081774905,0.022302246,95.0
23340,0.61081886,-0.7655678,-0.83799744,-0.16673584,0.027612304,-0.0010620117,95.0
23341,0.3264115,-0.60139465,-0.07810974,-0.16673584,0.027612304,-0.0010620117,95.0
23342,0.3264115,-0.60139465,-0.07810974,-0.15080567,-0.019116212,0.04991455,95.0
23343,0.19363642,-0.38427734,0.4140625,-0.15080567,-0.019116212,0.04991455,95.0
23344,0.19363642,-0.38427734,0.4140625,-0.25063476,0.011682129,0.06690674,95.0
23345,0.22824907,-0.23279953,0.5032196,-0.25063476,0.011682129,0.06690674,95.0
23346,0.22824907,-0.23279953,0.5032196,-0.23682861,0.0541626,0.1083252,95.0
23347,0.27588534,-0.2837124,0.42486572,-0.23682861,0.0541626,0.1083252,95.0
23348,0.27588534,-0.2837124,0.42486572,0.013806152,0.05522461,0.22514649,95.0
23349,0.13729763,-0.2262249,0.24559021,0.013806152,0.05522461,0.22514649,95.0
23350,0.13729763,-0.2262249,0.24559021,0.08920898,0.098767094,0.20390625,95.0
23351,-0.053321123,0.008449554,0.073150635,0.08920898,0.098767094,0.20390625,95.0
23352,-0.053321123,0.008449554,0.073150635,0.22302246,0.13699952,0.19328614,95.0
23353,-0.07676315,0.13057518,0.0062408447,0.22302246,0.13699952,0.19328614,95.0
23354,-0.07676315,0.13057518,0.0062408447,0.21346436,0.19647217,0.18585205,95.0
23355,-0.09679866,0.07289314,-0.030197144,0.21346436,0.19647217,0.18585205,95.0
23356,-0.09679866,0.07289314,-0.030197144,0.23151855,0.1996582,0.16036378,95.0
23357,-0.25512457,0.019863129,-0.038635254,0.23151855,0.1996582,0.16036378,95.0
23358,-0.25512457,0.019863129,-0.038635254,0.31010744,0.19647217,0.1274414,95.0
23359,-0.36409712,0.12768173,0.010055542,0.31010744,0.19647217,0.1274414,95.0
23360,-0.36409712,0.12768173,0.010055542,0.26444092,0.21346436,0.1178833,95.0
23361,-0.27835035,0.2669525,0.0655365,0.26444092,0.21346436,0.1178833,95.0
23362,-0.27835035,0.2669525,0.0655365,0.17735596,0.26762697,0.11257324,95.0
23363,-0.13342261,0.21407509,0.092559814,0.17735596,0.26762697,0.11257324,95.0
23364,-0.13342261,0.21407509,0.092559814,0.19647217,0.30161133,0.19753419,95.0
23365,-0.1036129,0.11626625,0.061553955,0.19647217,0.30161133,0.19753419,95.0
23366,-0.1036129,0.11626625,0.061553955,0.20921631,0.31860352,0.24001466,95.0
23367,-0.13104725,0.3171463,0.044906616,0.20921631,0.31860352,0.24001466,95.0
23368,-0.13104725,0.3171463,0.044906616,0.039294433,0.3451538,0.2166504,95.0
23369,-0.11029434,0.59994507,0.008285522,0.039294433,0.3451538,0.2166504,95.0
23370,-0.11029434,0.59994507,0.008285522,-0.38444826,0.44179687,0.20709229,95.0
23371,-0.20587444,0.48719406,-0.18052673,-0.38444826,0.44179687,0.20709229,95.0
23372,-0.20587444,0.48719406,-0.18052673,-0.48109132,0.44816896,0.16992188,95.0
23373,-0.42440414,0.029159546,-0.33906555,-0.48109132,0.44816896,0.16992188,95.0
23374,-0.42440414,0.029159546,-0.33906555,-0.38975832,0.44923097,0.20390625,95.0
23375,-0.5658052,-0.36676025,-0.33337402,-0.38975832,0.44923097,0.20390625,95.0
23376,-0.5658052,-0.36676025,-0.33337402,-0.14230958,0.4163086,0.19116211,95.0
