,accx,accy,accz,gyrox,gyroy,gyroz,heart rate
23865,open,open,open,open,open,open,open
23866,-1.0034788,-0.5659914,0.14352417,-1.3668091,0.81881106,0.8931519,184.0
23867,-1.0034788,-0.5659914,0.14352417,-0.9133301,0.15823975,0.3154175,184.0
23868,-0.80009747,-0.45835876,0.12632751,-0.9133301,0.15823975,0.3154175,184.0
23869,-0.80009747,-0.45835876,0.12632751,0.08283692,0.13699952,0.033984374,184.0
23870,-0.6436424,-0.3725834,0.114471436,0.08283692,0.13699952,0.033984374,184.0
23871,-0.6436424,-0.3725834,0.114471436,0.090270996,0.12956543,0.083898924,184.0
23872,-0.6436424,-0.3725834,0.114471436,0.043542482,0.008496094,0.026550293,184.0
23873,2.7369905,-6.4038534,0.14578247,0.043542482,0.008496094,0.026550293,184.0
23874,2.1702442,-5.1782227,0.15582275,0.043542482,0.008496094,0.026550293,184.0
23875,2.1702442,-5.1782227,0.15582275,0.08814698,-0.04460449,-0.010620117,184.0
23876,1.8894058,-4.2471313,0.26654053,0.08814698,-0.04460449,-0.010620117,184.0
23877,1.8894058,-4.2471313,0.26654053,0.12956543,0.0053100586,-0.025488282,184.0
23878,1.6333021,-3.2418337,0.31184387,0.12956543,0.0053100586,-0.025488282,184.0
23879,1.6333021,-3.2418337,0.31184387,0.04141846,0.021240234,-0.007434082,184.0
23880,1.2521617,-2.3986912,0.27009583,0.04141846,0.021240234,-0.007434082,184.0
23881,1.2521617,-2.3986912,0.27009583,-0.014868164,-0.070092775,-0.04141846,184.0
23882,0.9259725,-1.9314165,0.21736145,-0.014868164,-0.070092775,-0.04141846,184.0
23883,0.9259725,-1.9314165,0.21736145,-0.009558106,-0.115759276,-0.10195313,184.0
23884,0.77885175,-1.6180944,0.18894958,-0.009558106,-0.115759276,-0.10195313,184.0
23885,0.77885175,-1.6180944,0.18894958,-0.02442627,-0.052038576,-0.050976563,184.0
23886,0.62830603,-1.2727594,0.17520142,-0.02442627,-0.052038576,-0.050976563,184.0
23887,0.62830603,-1.2727594,0.17520142,-0.07646485,-0.08814698,-0.10620117,184.0
23888,0.39628494,-1.0256786,0.10105896,-0.07646485,-0.08814698,-0.10620117,184.0
23889,0.39628494,-1.0256786,0.10105896,-0.3440918,-0.26868898,0.050976563,184.0
23890,0.39628494,-1.0256786,0.10105896,-0.023364259,-0.13699952,-0.271875,184.0
23891,0.3467399,-1.0814319,-0.013473511,-0.023364259,-0.13699952,-0.271875,184.0
23892,0.40041447,-1.1274991,-0.045822144,-0.023364259,-0.13699952,-0.271875,184.0
23893,0.40041447,-1.1274991,-0.045822144,0.08496094,0.009558106,0.022302246,184.0
23894,0.27434766,-0.884995,0.046722412,0.08496094,0.009558106,0.022302246,184.0
23895,0.27434766,-0.884995,0.046722412,0.087084964,0.025488282,0.020178223,184.0
23896,0.07033253,-0.5097904,0.16838074,0.087084964,0.025488282,0.020178223,184.0
23897,0.07033253,-0.5097904,0.16838074,-0.045666505,-0.057348635,-0.090270996,184.0
23898,0.015909553,-0.20753908,0.1772461,-0.045666505,-0.057348635,-0.090270996,184.0
23899,0.015909553,-0.20753908,0.1772461,-0.1720459,-0.0722168,-0.019116212,184.0
23900,0.0867511,-0.20045519,0.029754639,-0.1720459,-0.0722168,-0.019116212,184.0
23901,0.0867511,-0.20045519,0.029754639,-0.095581055,-0.032922365,-0.007434082,184.0
23902,0.084305644,-0.35650682,-0.100875854,-0.095581055,-0.032922365,-0.007434082,184.0
23903,0.084305644,-0.35650682,-0.100875854,0.029736329,-0.0021240234,-0.0053100586,184.0
23904,-0.0040277243,-0.26647997,-0.06265259,0.029736329,-0.0021240234,-0.0053100586,184.0
23905,-0.0040277243,-0.26647997,-0.06265259,0.0637207,0.009558106,0.04885254,184.0
23906,-0.12222862,0.07932091,0.0440979,0.0637207,0.009558106,0.04885254,184.0
23907,-0.12222862,0.07932091,0.0440979,-0.04991455,0.022302246,0.0541626,184.0
23908,-0.25085902,0.24150848,0.09272766,-0.04991455,0.022302246,0.0541626,184.0
23909,-0.25085902,0.24150848,0.09272766,-0.16673584,-0.08920898,-0.0010620117,184.0
23910,-0.26737428,0.03060913,0.08779907,-0.16673584,-0.08920898,-0.0010620117,184.0
23911,-0.26737428,0.03060913,0.08779907,-0.07327881,-0.09239502,-0.10620117,184.0
23912,-0.16835499,-0.22452402,0.08406067,-0.07327881,-0.09239502,-0.10620117,184.0
23913,-0.16835499,-0.22452402,0.08406067,0.13168946,0.06265869,-0.07965088,184.0
23914,-0.21001363,-0.17972946,0.11582947,0.13168946,0.06265869,-0.07965088,184.0
23915,-0.21001363,-0.17972946,0.11582947,0.19328614,0.118945315,0.10301514,184.0
23916,-0.21001363,-0.17972946,0.11582947,0.25913087,0.07965088,0.087084964,184.0
23917,-0.3623346,0.10166359,0.20028687,0.25913087,0.07965088,0.087084964,184.0
23918,-0.36065626,0.28876495,0.2937622,0.25913087,0.07965088,0.087084964,184.0
23919,-0.36065626,0.28876495,0.2937622,0.29099122,0.10938721,0.039294433,184.0
23920,-0.21793175,0.25059223,0.26235962,0.29099122,0.10938721,0.039294433,184.0
23921,-0.21793175,0.25059223,0.26235962,0.31116945,0.1444336,0.07540283,184.0
23922,-0.11893767,0.28860855,0.012802124,0.31116945,0.1444336,0.07540283,184.0
23923,-0.11893767,0.28860855,0.012802124,0.30267334,0.2814331,0.1178833,184.0
23924,-0.23698366,0.6920686,-0.3334961,0.30267334,0.2814331,0.1178833,184.0
23925,-0.23698366,0.6920686,-0.3334961,0.14761963,0.34090576,0.17947999,184.0
23926,-0.5451289,0.9582572,-0.3059082,0.14761963,0.34090576,0.17947999,184.0
23927,-0.5451289,0.9582572,-0.3059082,0.08496094,0.09451904,0.09770508,184.0
23928,-0.6457345,0.48879814,0.1721344,0.08496094,0.09451904,0.09770508,184.0
23929,-0.6457345,0.48879814,0.1721344,-0.07965088,-0.059472658,-0.0637207,184.0
23930,-0.48881662,-0.11920357,0.48587036,-0.07965088,-0.059472658,-0.0637207,184.0
23931,-0.48881662,-0.11920357,0.48587036,0.0063720704,0.05628662,0.18054199,184.0
23932,-0.520753,0.08697367,0.36161804,0.0063720704,0.05628662,0.18054199,184.0
23933,-0.520753,0.08697367,0.36161804,0.12000733,0.11682129,0.4630371,184.0
23934,-0.96867764,1.0506706,0.1600647,0.12000733,0.11682129,0.4630371,184.0
23935,-0.96867764,1.0506706,0.1600647,0.124255374,0.28461915,0.632959,184.0
23936,-1.7053987,1.5334196,0.20579529,0.124255374,0.28461915,0.632959,184.0
23937,-1.7053987,1.5334196,0.20579529,-0.22514649,0.3982544,0.7688965,184.0
23938,-2.4788454,0.6957178,0.38989258,-0.22514649,0.3982544,0.7688965,184.0
23939,-2.4788454,0.6957178,0.38989258,-0.3536499,-0.023364259,0.6924316,184.0
23940,-2.7513623,-0.41515446,0.61990356,-0.3536499,-0.023364259,0.6924316,184.0
23941,-2.7513623,-0.41515446,0.61990356,0.27399904,-0.85704345,0.26337892,184.0
23942,-1.9877234,-0.5494089,0.82099915,0.27399904,-0.85704345,0.26337892,184.0
23943,-1.9877234,-0.5494089,0.82099915,0.35683593,-1.178833,-0.09664307,184.0
23944,-0.617681,-0.3821659,0.67778015,0.35683593,-1.178833,-0.09664307,184.0
23945,-0.617681,-0.3821659,0.67778015,0.20284425,-1.2956543,-0.13168946,184.0
23946,0.5664022,-0.9047437,0.16993713,0.20284425,-1.2956543,-0.13168946,184.0
23947,0.5664022,-0.9047437,0.16993713,0.86978763,-1.4815063,-0.3069214,184.0
23948,1.4015105,-0.9263344,-0.18405151,0.86978763,-1.4815063,-0.3069214,184.0
23949,1.4015105,-0.9263344,-0.18405151,1.6843506,-1.0662597,-0.5533081,184.0
23950,1.6987964,0.2408781,-0.09666443,1.6843506,-1.0662597,-0.5533081,184.0
23951,1.6987964,0.2408781,-0.09666443,1.3455689,-0.9165161,-0.56817627,184.0
23952,1.5038491,0.7463398,0.091156006,1.3455689,-0.9165161,-0.56817627,184.0
23953,1.5038491,0.7463398,0.091156006,1.4719483,-1.5877075,-0.81243896,184.0
23954,1.8128572,0.23618317,0.16389465,1.4719483,-1.5877075,-0.81243896,184.0
23955,1.8128572,0.23618317,0.16389465,1.814978,-1.7438233,-1.3445069,184.0
23956,2.784673,0.32023287,0.19352722,1.814978,-1.7438233,-1.3445069,184.0
23957,2.784673,0.32023287,0.19352722,1.0630738,-1.6376221,-1.1448487,184.0
23958,3.4006267,0.44960642,-0.12057495,1.0630738,-1.6376221,-1.1448487,184.0
23959,3.4006267,0.44960642,-0.12057495,0.52250975,-2.0571167,-0.4715332,184.0
23960,3.7515683,-0.49684572,-0.7515259,0.52250975,-2.0571167,-0.4715332,184.0
23961,3.7515683,-0.49684572,-0.7515259,1.075818,-1.716211,-0.63826907,184.0
23962,4.0433445,-1.095768,-0.9034729,1.075818,-1.716211,-0.63826907,184.0
23963,4.0433445,-1.095768,-0.9034729,1.9084351,-0.9430664,-0.75615233,184.0
23964,3.7835283,-0.37926292,0.0856781,1.9084351,-0.9430664,-0.75615233,184.0
23965,3.7835283,-0.37926292,0.0856781,1.6131958,-1.2956543,-0.7126099,184.0
23966,3.4364176,0.3376174,1.3356018,1.6131958,-1.2956543,-0.7126099,184.0
23967,3.4364176,0.3376174,1.3356018,1.3784913,-1.5600952,-0.90908206,184.0
23968,3.4608898,0.6031995,1.5947266,1.3784913,-1.5600952,-0.90908206,184.0
23969,3.4608898,0.6031995,1.5947266,1.9222412,-1.178833,-0.8644776,184.0
23970,3.0113387,1.092411,0.98353577,1.9222412,-1.178833,-0.8644776,184.0
23971,3.0113387,1.092411,0.98353577,1.7650635,-0.7784546,-0.2357666,184.0
23972,1.7186413,1.5252838,0.2995453,1.7650635,-0.7784546,-0.2357666,184.0
23973,1.7186413,1.5252838,0.2995453,1.1533448,-0.8262451,0.20284425,184.0
23974,1.062767,0.8321657,0.33676147,1.1533448,-0.8262451,0.20284425,184.0
23975,1.062767,0.8321657,0.33676147,1.1321045,0.023364259,0.5703003,184.0
23976,1.3311462,-0.2958393,1.3514557,1.1321045,0.023364259,0.5703003,184.0
23977,1.3311462,-0.2958393,1.3514557,1.2361816,0.22408448,0.86766356,184.0
23978,0.95721436,-0.44439888,2.0450745,1.2361816,0.22408448,0.86766356,184.0
23979,0.95721436,-0.44439888,2.0450745,1.4177856,0.3058594,0.86766356,184.0
23980,-0.17142296,0.366539,1.4923706,1.4177856,0.3058594,0.86766356,184.0
23981,-0.17142296,0.366539,1.4923706,0.83474123,0.55755615,0.77951664,184.0
23982,-1.1706586,1.2812443,1.0071259,0.83474123,0.55755615,0.77951664,184.0
23983,-1.1706586,1.2812443,1.0071259,-0.42268068,0.1720459,1.273352,184.0
23984,-1.0559115,1.1960039,1.4279785,-0.42268068,0.1720459,1.273352,184.0
23985,-1.0559115,1.1960039,1.4279785,-0.0063720704,0.026550293,1.0736939,184.0
23986,-0.5929222,0.78375626,1.5446472,-0.0063720704,0.026550293,1.0736939,184.0
23987,-0.5929222,0.78375626,1.5446472,0.6552612,0.32391357,0.9600586,184.0
23988,-1.2850676,1.0347929,-0.1762085,0.6552612,0.32391357,0.9600586,184.0
23989,-1.2850676,1.0347929,-0.1762085,0.06159668,0.4078125,1.2160034,184.0
23990,-2.102065,0.5330715,-1.5015717,0.06159668,0.4078125,1.2160034,184.0
23991,-2.102065,0.5330715,-1.5015717,0.2538208,-0.27399904,1.176709,184.0
23992,-2.002697,-1.1889725,0.113220215,0.2538208,-0.27399904,1.176709,184.0
23993,-2.002697,-1.1889725,0.113220215,2.6921997,-0.028674318,1.0195312,184.0
23994,-1.4180636,-1.244525,2.989502,2.6921997,-0.028674318,1.0195312,184.0
23995,-1.4180636,-1.244525,2.989502,2.5647583,0.3971924,-0.12956543,184.0
23996,-1.130044,1.5990944,3.1859589,2.5647583,0.3971924,-0.12956543,184.0
23997,-1.130044,1.5990944,3.1859589,1.088562,-0.21983643,0.20178223,184.0
23998,-1.434907,3.3551302,0.263031,1.088562,-0.21983643,0.20178223,184.0
23999,-1.434907,3.3551302,0.263031,0.5341919,-0.47684327,0.68712157,184.0
24000,-1.4694343,1.3462133,-1.3829956,0.5341919,-0.47684327,0.68712157,184.0
24001,-1.4694343,1.3462133,-1.3829956,1.5781494,-0.6669434,0.44923097,184.0
24002,-0.961668,-0.86808586,-0.91452026,1.5781494,-0.6669434,0.44923097,184.0
24003,-0.961668,-0.86808586,-0.91452026,2.9056642,-0.47896728,-0.1359375,184.0
24004,-0.5282333,0.26184273,0.19667053,2.9056642,-0.47896728,-0.1359375,184.0
24005,-0.5282333,0.26184273,0.19667053,3.347461,-0.32603762,-0.67225343,184.0
24006,-0.2729895,3.151247,1.2506256,3.347461,-0.32603762,-0.67225343,184.0
24007,-0.2729895,3.151247,1.2506256,2.7686646,-0.5692383,-0.32922363,184.0
24008,0.32556581,4.5343647,1.6433563,2.7686646,-0.5692383,-0.32922363,184.0
24009,0.32556581,4.5343647,1.6433563,2.2227905,-0.6265869,-0.18160401,184.0
24010,1.374857,3.566677,1.5245972,2.2227905,-0.6265869,-0.18160401,184.0
24011,1.374857,3.566677,1.5245972,2.0369384,-0.23364258,-0.2081543,184.0
24012,2.583394,1.9642544,2.0585938,2.0369384,-0.23364258,-0.2081543,184.0
24013,2.583394,1.9642544,2.0585938,1.9774659,0.31329346,-0.24744873,184.0
24014,3.4963298,2.0573902,3.262268,1.9774659,0.31329346,-0.24744873,184.0
24015,3.4963298,2.0573902,3.262268,0.22302246,0.6839356,-0.23151855,184.0
24016,1.7987847,3.1874409,2.81633,0.22302246,0.6839356,-0.23151855,184.0
24017,1.7987847,3.1874409,2.81633,-0.14124756,0.42799073,0.58410645,184.0
24018,-1.2430277,1.7576675,1.2816925,-0.14124756,0.42799073,0.58410645,184.0
24019,-1.2430277,1.7576675,1.2816925,-0.1178833,-0.30054933,-0.23895264,184.0
24020,-1.4671273,-0.052960396,0.362854,-0.1178833,-0.30054933,-0.23895264,184.0
24021,-1.4671273,-0.052960396,0.362854,0.45347902,-0.083898924,-0.2782471,184.0
24022,-0.23704433,0.8665552,-0.78196716,0.45347902,-0.083898924,-0.2782471,184.0
24023,-0.23704433,0.8665552,-0.78196716,-0.35471192,-0.026550293,0.4354248,184.0
24024,-0.03207922,1.1015205,-1.7234039,-0.35471192,-0.026550293,0.4354248,184.0
24025,-0.03207922,1.1015205,-1.7234039,-0.5798584,-0.08071289,0.16885987,184.0
24026,-0.17980146,-0.08490944,-1.5879517,-0.5798584,-0.08071289,0.16885987,184.0
24027,-0.17980146,-0.08490944,-1.5879517,0.081774905,0.22727051,0.16036378,184.0
24028,0.18417358,-0.32797432,-0.23085022,0.081774905,0.22727051,0.16036378,184.0
24029,0.18417358,-0.32797432,-0.23085022,-0.5798584,0.36851808,0.13275146,184.0
24030,0.23343468,-0.06572342,0.36053467,-0.5798584,0.36851808,0.13275146,184.0
24031,0.23343468,-0.06572342,0.36053467,-1.2128174,0.5065796,0.54906005,184.0
24032,-0.9434767,-1.0503197,-0.19160461,-1.2128174,0.5065796,0.54906005,184.0
24033,-0.9434767,-1.0503197,-0.19160461,-0.53737795,0.3717041,0.31223145,184.0
24034,-1.6169033,-2.0739355,-0.06736755,-0.53737795,0.3717041,0.31223145,184.0
24035,-1.6169033,-2.0739355,-0.06736755,-0.09451904,0.2177124,-0.010620117,184.0
24036,-0.9572921,-1.0184135,0.34303284,-0.09451904,0.2177124,-0.010620117,184.0
24037,-0.9572921,-1.0184135,0.34303284,-0.3717041,0.14124756,0.23364258,184.0
24038,-0.18556023,0.15305424,0.122787476,-0.3717041,0.14124756,0.23364258,184.0
24039,-0.18556023,0.15305424,0.122787476,-0.7168579,0.16673584,0.22408448,184.0
24040,0.063344,-0.16158962,-0.06718445,-0.7168579,0.16673584,0.22408448,184.0
24041,0.063344,-0.16158962,-0.06718445,-0.38232422,0.1731079,0.1539917,184.0
24042,0.07816553,-0.41866398,-0.13328552,-0.38232422,0.1731079,0.1539917,184.0
24043,0.07816553,-0.41866398,-0.13328552,-0.53100586,0.2793091,0.16248779,184.0
24044,0.25862646,-0.050787926,-0.20594788,-0.53100586,0.2793091,0.16248779,184.0
24045,0.25862646,-0.050787926,-0.20594788,-0.74871826,0.5671143,0.4439209,184.0
24046,0.24382734,-0.031633377,0.28497314,-0.74871826,0.5671143,0.4439209,184.0
24047,0.24382734,-0.031633377,0.28497314,-1.0174073,0.7625244,0.47684327,184.0
24048,-0.18660307,-0.38438797,1.2771912,-1.0174073,0.7625244,0.47684327,184.0
24049,-0.18660307,-0.38438797,1.2771912,-1.4284058,0.59897465,0.45135498,184.0
24050,-0.43170452,-0.48807716,1.0058899,-1.4284058,0.59897465,0.45135498,184.0
24051,-0.43170452,-0.48807716,1.0058899,-2.1983643,0.994043,0.42055663,184.0
24052,-0.78204584,-0.6676836,-0.5786133,-2.1983643,0.994043,0.42055663,184.0
24053,-0.78204584,-0.6676836,-0.5786133,-2.4713013,1.0354614,1.089624,184.0
24054,-1.411623,-1.2739182,-1.523056,-2.4713013,1.0354614,1.089624,184.0
24055,-1.411623,-1.2739182,-1.523056,-1.902063,0.8963379,0.5713623,184.0
24056,-1.5706313,-1.3346739,-1.2700348,-1.902063,0.8963379,0.5713623,184.0
24057,-1.5706313,-1.3346739,-1.2700348,-1.8829468,0.6754395,0.6860596,184.0
24058,-1.1641102,-1.0874414,-0.7154999,-1.8829468,0.6754395,0.6860596,184.0
24059,-1.1641102,-1.0874414,-0.7154999,-2.0146363,0.45454103,0.80394286,184.0
24060,-0.65750885,-1.0237494,-1.5331268,-2.0146363,0.45454103,0.80394286,184.0
24061,-0.65750885,-1.0237494,-1.5331268,-2.1091554,0.90058595,0.8814697,184.0
24062,-0.60070205,-1.1243706,-2.3460236,-2.1091554,0.90058595,0.8814697,184.0
24063,-0.60070205,-1.1243706,-2.3460236,-1.99552,0.8878418,1.183081,184.0
24064,-1.1504102,-1.3627043,-1.6890259,-1.99552,0.8878418,1.183081,184.0
24065,-1.1504102,-1.3627043,-1.6890259,-1.8786987,0.8421753,0.8708496,184.0
24066,-1.9157383,-1.5359154,-0.34996033,-1.8786987,0.8421753,0.8708496,184.0
24067,-1.9157383,-1.5359154,-0.34996033,-2.0549927,0.41312256,1.171399,184.0
24068,-2.245164,-1.9856787,0.34794617,-2.0549927,0.41312256,1.171399,184.0
24069,-2.245164,-1.9856787,0.34794617,-1.5197388,-0.18797608,1.3275146,184.0
24070,-2.409791,-1.495635,-1.4821625,-1.5197388,-0.18797608,1.3275146,184.0
24071,-2.409791,-1.495635,-1.4821625,-1.175647,-1.0673218,1.1374146,184.0
24072,-2.3561897,-0.9295654,-3.9715576,-1.175647,-1.0673218,1.1374146,184.0
24073,-2.3561897,-0.9295654,-3.9715576,-0.14018555,-0.36851808,1.4050416,184.0
24074,-0.9831329,-1.3691158,-3.6395416,-0.14018555,-0.36851808,1.4050416,184.0
24075,-0.9831329,-1.3691158,-3.6395416,-0.64570314,-0.08602295,1.3137085,184.0
24076,0.48475832,-0.79805183,-0.73332214,-0.64570314,-0.08602295,1.3137085,184.0
24077,0.48475832,-0.79805183,-0.73332214,-0.13062744,0.0010620117,2.2100465,184.0
24078,0.9674087,0.57917404,1.8622589,-0.13062744,0.0010620117,2.2100465,184.0
24079,0.9674087,0.57917404,1.8622589,-0.7858887,-0.42905274,1.3455689,184.0
24080,0.9319104,1.710825,1.8116608,-0.7858887,-0.42905274,1.3455689,184.0
24081,0.9319104,1.710825,1.8116608,-0.63826907,-0.09664307,1.893567,184.0
24082,0.47162694,2.1169014,-0.12867737,-0.63826907,-0.09664307,1.893567,184.0
24083,0.47162694,2.1169014,-0.12867737,-0.67437744,0.7083618,2.983191,184.0
24084,-0.27604318,1.4363918,-1.0973663,-0.67437744,0.7083618,2.983191,184.0
24085,-0.27604318,1.4363918,-1.0973663,-0.13062744,1.0418335,2.8642457,184.0
24086,-0.6823336,0.48913956,-0.6793518,-0.13062744,1.0418335,2.8642457,184.0
24087,-0.6823336,0.48913956,-0.6793518,0.08496094,1.3275146,2.7877808,184.0
24088,-0.82456565,0.3061924,-0.28424072,0.08496094,1.3275146,2.7877808,184.0
24089,-0.82456565,0.3061924,-0.28424072,0.31223145,1.6439942,3.0235474,184.0
24090,-1.6560392,0.8796339,-0.12878418,0.31223145,1.6439942,3.0235474,184.0
24091,-1.6560392,0.8796339,-0.12878418,0.4056885,1.8436524,3.432422,184.0
24092,-2.94927,1.7204552,0.41038513,0.4056885,1.8436524,3.432422,184.0
24093,-2.94927,1.7204552,0.41038513,-0.043542482,1.5792115,3.3697631,184.0
24094,-3.9409223,2.5379848,0.96684265,-0.043542482,1.5792115,3.3697631,184.0
24095,-3.9409223,2.5379848,0.96684265,-0.6425171,1.1501588,3.3177247,184.0
24096,-3.9409223,2.5379848,0.96684265,-0.6425171,1.1501588,3.3177247,0.0
24097,-4.7474766,3.1671553,0.7723541,-0.6425171,1.1501588,3.3177247,0.0
24098,-4.7474766,3.1671553,0.7723541,-1.3413209,1.0397094,3.0808961,0.0
24099,-5.4655595,2.9928913,0.19166565,-1.3413209,1.0397094,3.0808961,0.0
24100,-5.4655595,2.9928913,0.19166565,-2.5573242,0.40250245,2.5976808,0.0
24101,-5.548888,1.2997084,-1.0375366,-2.5573242,0.40250245,2.5976808,0.0
24102,-5.548888,1.2997084,-1.0375366,-3.439856,0.32072756,1.808606,0.0
24103,-5.0217276,-1.0047398,-2.8326569,-3.439856,0.32072756,1.808606,0.0
24104,-5.0217276,-1.0047398,-2.8326569,-2.3905885,0.8867798,0.79226077,0.0
24105,-4.539037,-1.347127,-3.7470856,-2.3905885,0.8867798,0.79226077,0.0
24106,-4.539037,-1.347127,-3.7470856,-1.4209718,1.2829102,0.83049315,0.0
24107,-4.373686,0.30741882,-3.2338257,-1.4209718,1.2829102,0.83049315,0.0
24108,-4.373686,0.30741882,-3.2338257,-1.5176147,1.1161743,0.80181885,0.0
24109,-4.249754,1.2854366,-2.1365204,-1.5176147,1.1161743,0.80181885,0.0
24110,-4.249754,1.2854366,-2.1365204,-1.8383423,0.7678345,0.26868898,0.0
24111,-3.7024403,0.5899334,-1.4920502,-1.8383423,0.7678345,0.26868898,0.0
24112,-3.7024403,0.5899334,-1.4920502,-1.632312,0.28568116,-0.2888672,0.0
24113,-2.6731339,-1.0809946,-0.94488525,-1.632312,0.28568116,-0.2888672,0.0
24114,-2.6731339,-1.0809946,-0.94488525,-0.9855469,-0.77526855,-0.39613038,0.0
24115,-1.1315613,-2.9972544,-0.25361633,-0.9855469,-0.77526855,-0.39613038,0.0
24116,-1.1315613,-2.9972544,-0.25361633,-0.6159668,-1.5707153,-0.8602295,0.0
24117,0.50582314,-3.9673347,-0.632843,-0.6159668,-1.5707153,-0.8602295,0.0
24118,0.50582314,-3.9673347,-0.632843,-0.18266602,-1.7353271,-1.170337,0.0
24119,1.1157675,-2.9827309,-1.6813202,-0.18266602,-1.7353271,-1.170337,0.0
24120,1.1157675,-2.9827309,-1.6813202,-0.4895874,-1.5654052,-0.8007569,0.0
24121,0.11298752,-1.0207062,-1.5839386,-0.4895874,-1.5654052,-0.8007569,0.0
24122,0.11298752,-1.0207062,-1.5839386,-1.0067872,-1.4209718,0.82730716,0.0
24123,-1.4389429,-1.014307,-0.33273315,-1.0067872,-1.4209718,0.82730716,0.0
24124,-1.4389429,-1.014307,-0.33273315,-1.0227174,-1.628064,1.9987061,0.0
24125,-1.8955269,-3.3236532,0.8664856,-1.0227174,-1.628064,1.9987061,0.0
24126,-1.8955269,-3.3236532,0.8664856,-0.22302246,-2.3236816,1.5749635,0.0
24127,-0.9997587,-4.6128044,0.7581024,-0.22302246,-2.3236816,1.5749635,0.0
24128,-0.9997587,-4.6128044,0.7581024,1.8563966,-2.4734254,1.1618408,0.0
24129,-0.14425278,-3.1077118,-0.17141724,1.8563966,-2.4734254,1.1618408,0.0
24130,-0.14425278,-3.1077118,-0.17141724,3.0341675,-1.9498535,1.7459472,0.0
24131,-0.12527752,-0.026049614,-0.35057068,3.0341675,-1.9498535,1.7459472,0.0
24132,-0.12527752,-0.026049614,-0.35057068,3.6639404,-2.3672242,1.531421,0.0
24133,0.11771011,2.7243872,0.60310364,3.6639404,-2.3672242,1.531421,0.0
24134,0.11771011,2.7243872,0.60310364,3.3124146,-3.5088868,0.8358032,0.0
24135,1.7704496,3.7493954,2.1885376,3.3124146,-3.5088868,0.8358032,0.0
24136,1.7704496,3.7493954,2.1885376,2.0380006,-4.449829,0.8028809,0.0
24137,4.394705,2.832097,2.9030151,2.0380006,-4.449829,0.8028809,0.0
24138,4.394705,2.832097,2.9030151,2.1558838,-4.603821,1.3699951,0.0
24139,6.150652,1.0702801,1.664505,2.1558838,-4.603821,1.3699951,0.0
24140,6.150652,1.0702801,1.664505,3.5842896,-3.7382812,1.5940796,0.0
24141,6.723976,0.87767124,0.3136139,3.5842896,-3.7382812,1.5940796,0.0
24142,6.723976,0.87767124,0.3136139,4.7408204,-2.6061769,1.7055908,0.0
24143,7.1443424,3.2435923,0.96858215,4.7408204,-2.6061769,1.7055908,0.0
24144,7.1443424,3.2435923,0.96858215,4.1152954,-0.4248047,1.9328613,0.0
24145,6.7725053,5.284095,2.6158142,4.1152954,-0.4248047,1.9328613,0.0
24146,6.7725053,5.284095,2.6158142,3.6798706,1.351941,1.5176147,0.0
24147,4.3978624,5.7791557,4.23674,3.6798706,1.351941,1.5176147,0.0
24148,4.3978624,5.7791557,4.23674,3.1085083,2.0911012,1.9657837,0.0
24149,0.74429107,5.6305885,5.7002563,3.1085083,2.0911012,1.9657837,0.0
24150,0.74429107,5.6305885,5.7002563,2.3799684,0.9547486,1.8808228,0.0
24151,-1.6693621,4.856985,5.21756,2.3799684,0.9547486,1.8808228,0.0
24152,-1.6693621,4.856985,5.21756,1.170337,0.09133301,1.5282348,0.0
24153,-1.6075845,3.671257,2.159256,1.170337,0.09133301,1.5282348,0.0
24154,-1.6075845,3.671257,2.159256,0.26762697,-0.28461915,0.7497803,0.0
24155,-0.6091509,2.9964046,-1.3665771,0.26762697,-0.28461915,0.7497803,0.0
24156,-0.6091509,2.9964046,-1.3665771,0.6988037,0.1709839,1.5728394,0.0
24157,-0.20056534,2.5689259,-2.734558,0.6988037,0.1709839,1.5728394,0.0
24158,-0.20056534,2.5689259,-2.734558,0.2984253,0.26762697,2.2365968,0.0
24159,-0.31805706,2.183218,-1.6184998,0.2984253,0.26762697,2.2365968,0.0
24160,-0.31805706,2.183218,-1.6184998,-0.0541626,0.16992188,2.0326905,0.0
24161,0.017783165,2.0110016,0.28100586,-0.0541626,0.16992188,2.0326905,0.0
24162,0.017783165,2.0110016,0.28100586,-0.31116945,0.14549561,2.0518067,0.0
24163,0.8603201,1.5422134,1.2859344,-0.31116945,0.14549561,2.0518067,0.0
24164,0.8603201,1.5422134,1.2859344,-0.1529297,0.34090576,2.0380006,0.0
24165,1.2444329,0.887434,1.3456726,-0.1529297,0.34090576,2.0380006,0.0
24166,1.2444329,0.887434,1.3456726,-0.010620117,0.24638672,1.8309082,0.0
24167,1.0643818,0.3755226,1.2221222,-0.010620117,0.24638672,1.8309082,0.0
24168,1.0643818,0.3755226,1.2221222,0.29099122,0.12850343,1.9615357,0.0
24169,0.7691326,0.2737198,1.368576,0.29099122,0.12850343,1.9615357,0.0
24170,0.7691326,0.2737198,1.368576,0.35471192,-0.29099122,1.8287842,0.0
24171,0.56379247,0.6715393,1.840271,0.35471192,-0.29099122,1.8287842,0.0
24172,0.56379247,0.6715393,1.840271,0.29523927,-0.76358646,1.722583,0.0
24173,0.36731815,1.0346317,2.0380402,0.29523927,-0.76358646,1.722583,0.0
24174,0.36731815,1.0346317,2.0380402,0.3419678,-0.9759888,1.5303589,0.0
24175,0.19207239,0.9644489,1.3458862,0.3419678,-0.9759888,1.5303589,0.0
24176,0.19207239,0.9644489,1.3458862,0.77102053,-0.7805786,1.6142578,0.0
24177,0.30430508,1.1822395,-0.052368164,0.77102053,-0.7805786,1.6142578,0.0
24178,0.30430508,1.1822395,-0.052368164,0.49383545,-0.5894165,1.8861328,0.0
24179,0.6395502,2.0211945,-1.4928741,0.49383545,-0.5894165,1.8861328,0.0
24180,0.6395502,2.0211945,-1.4928741,-0.06159668,-0.7858887,1.8829468,0.0
24181,1.0111396,2.543251,-2.465744,-0.06159668,-0.7858887,1.8829468,0.0
24182,1.0111396,2.543251,-2.465744,-0.3079834,-0.7986328,1.9456055,0.0
24183,1.36128,2.37105,-2.612854,-0.3079834,-0.7986328,1.9456055,0.0
24184,1.36128,2.37105,-2.612854,0.0010620117,-0.9165161,1.8765748,0.0
24185,1.53065,1.8767109,-2.005066,0.0010620117,-0.9165161,1.8765748,0.0
24186,1.53065,1.8767109,-2.005066,-0.022302246,-0.89421386,1.7066529,0.0
24187,1.386776,1.2683601,-0.8542938,-0.022302246,-0.89421386,1.7066529,0.0
24188,1.386776,1.2683601,-0.8542938,-0.78376466,-0.8750977,1.6556762,0.0
24189,1.2126068,0.5520897,0.52316284,-0.78376466,-0.8750977,1.6556762,0.0
24190,1.2126068,0.5520897,0.52316284,-1.2754761,-0.86978763,1.7024049,0.0
24191,1.3218188,-0.62978745,1.2931213,-1.2754761,-0.86978763,1.7024049,0.0
24192,1.3218188,-0.62978745,1.2931213,-1.358313,-0.7126099,1.6673584,0.0
24193,1.4313321,-1.8863258,1.1351318,-1.358313,-0.7126099,1.6673584,0.0
24194,1.4313321,-1.8863258,1.1351318,-1.4432739,-0.61065674,1.5197388,0.0
24195,1.3855197,-2.4154568,0.42216492,-1.4432739,-0.61065674,1.5197388,0.0
24196,1.3855197,-2.4154568,0.42216492,-0.8028809,-0.81987303,1.540979,0.0
24197,1.444683,-2.1878948,-0.35281372,-0.8028809,-0.81987303,1.540979,0.0
24198,1.444683,-2.1878948,-0.35281372,0.5097656,-0.83049315,1.5569092,0.0
24199,1.7039886,-1.1826782,-0.81954956,0.5097656,-0.83049315,1.5569092,0.0
24200,1.7039886,-1.1826782,-0.81954956,1.4974365,-0.60322267,1.539917,0.0
24201,1.7039886,-1.1826782,-0.81954956,1.4974365,-0.60322267,1.539917,0.0
24202,1.8875318,0.3561268,-0.8347473,1.4974365,-0.60322267,1.539917,0.0
24203,1.8875318,0.3561268,-0.8347473,1.26167,-0.50020754,1.6609863,0.0
24204,1.78317,1.6126842,-0.66082764,1.26167,-0.50020754,1.6609863,0.0
24205,1.78317,1.6126842,-0.66082764,0.77314454,-0.5851685,1.7863038,0.0
24206,1.4900613,1.811924,-0.504303,0.77314454,-0.5851685,1.7863038,0.0
24207,1.4900613,1.811924,-0.504303,0.22514649,-0.7126099,1.8829468,0.0
24208,1.3176107,0.8144188,-0.24501038,0.22514649,-0.7126099,1.8829468,0.0
24209,1.3176107,0.8144188,-0.24501038,0.26975098,-0.7476563,2.0199463,0.0
24210,1.344445,-0.5696068,0.3938141,0.26975098,-0.7476563,2.0199463,0.0
24211,1.344445,-0.5696068,0.3938141,0.38869628,-0.6074707,2.1038454,0.0
24212,1.3476629,-1.1032066,1.0269775,0.38869628,-0.6074707,2.1038454,0.0
24213,1.3476629,-1.1032066,1.0269775,-0.012744141,-0.41312256,2.0911012,0.0
24214,1.2039361,-0.6578331,0.89437866,-0.012744141,-0.41312256,2.0911012,0.0
24215,1.2039361,-0.6578331,0.89437866,-0.7391602,-0.68287355,2.0518067,0.0
24216,1.1264303,-0.84313774,0.045410156,-0.7391602,-0.68287355,2.0518067,0.0
24217,1.1264303,-0.84313774,0.045410156,-0.5097656,-1.1119263,2.170752,0.0
24218,1.3102264,-2.0489483,-0.9663849,-0.5097656,-1.1119263,2.170752,0.0
24219,1.3102264,-2.0489483,-0.9663849,0.66269535,-0.66269535,2.2227905,0.0
24220,1.4564085,-1.8650856,-1.0270844,0.66269535,-0.66269535,2.2227905,0.0
24221,1.4564085,-1.8650856,-1.0270844,0.7126099,-0.271875,1.6970948,0.0
24222,1.1397362,-0.2977085,-0.13391113,0.7126099,-0.271875,1.6970948,0.0
24223,1.1397362,-0.2977085,-0.13391113,0.22939454,-1.0577637,1.4931885,0.0
24224,0.980258,-0.34674835,-0.28961182,0.22939454,-1.0577637,1.4931885,0.0
24225,0.980258,-0.34674835,-0.28961182,1.263794,-1.351941,1.4942505,0.0
24226,1.5932398,-1.002655,-1.7118683,1.263794,-1.351941,1.4942505,0.0
24227,1.5932398,-1.002655,-1.7118683,2.3799684,-0.901648,0.4609131,0.0
24228,2.20268,0.66711426,-2.8709106,2.3799684,-0.901648,0.4609131,0.0
24229,2.20268,0.66711426,-2.8709106,2.7877808,-0.32816163,-0.11363526,0.0
24230,1.8345442,3.1421757,-2.5967255,2.7877808,-0.32816163,-0.11363526,0.0
24231,1.8345442,3.1421757,-2.5967255,1.0099732,-0.057348635,-0.5798584,0.0
24232,1.1767907,4.600605,-1.3324738,1.0099732,-0.057348635,-0.5798584,0.0
24233,1.1767907,4.600605,-1.3324738,-0.008496094,-0.6446411,-0.5161377,0.0
24234,1.5954728,2.6722927,0.4118042,-0.008496094,-0.6446411,-0.5161377,0.0
24235,1.5954728,2.6722927,0.4118042,1.2202514,0.40356445,1.4135376,0.0
24236,1.3311758,-1.6152306,2.9552307,1.2202514,0.40356445,1.4135376,0.0
24237,1.3311758,-1.6152306,2.9552307,-0.68924564,-0.270813,-0.7189819,0.0
24238,0.5104852,-4.821493,3.8971863,-0.68924564,-0.270813,-0.7189819,0.0
24239,0.5104852,-4.821493,3.8971863,-0.27293703,-0.48215333,0.48321533,0.0
24240,0.5779562,-5.204546,2.6691132,-0.27293703,-0.48215333,0.48321533,0.0
24241,0.5779562,-5.204546,2.6691132,-0.14018555,-0.24957275,-0.67225343,0.0
24242,1.0158195,-1.5578747,0.3826294,-0.14018555,-0.24957275,-0.67225343,0.0
24243,1.0158195,-1.5578747,0.3826294,-1.0991821,-0.3419678,-0.71367186,0.0
24244,0.74773836,2.4059582,-1.5764008,-1.0991821,-0.3419678,-0.71367186,0.0
24245,0.74773836,2.4059582,-1.5764008,-1.1958252,-0.39613038,-0.6669434,0.0
24246,0.03273678,3.7762318,-1.7582092,-1.1958252,-0.39613038,-0.6669434,0.0
24247,0.03273678,3.7762318,-1.7582092,0.118945315,-0.2899292,-0.19328614,0.0
24248,0.16669226,2.9570694,-0.8951721,0.118945315,-0.2899292,-0.19328614,0.0
24249,0.16669226,2.9570694,-0.8951721,-0.41099855,-0.22089843,-0.04885254,0.0
24250,0.5968056,0.56346893,-0.879303,-0.41099855,-0.22089843,-0.04885254,0.0
24251,0.5968056,0.56346893,-0.879303,0.07434082,-0.043542482,-0.016992187,0.0
24252,0.23674583,-1.1724548,-0.9588623,0.07434082,-0.043542482,-0.016992187,0.0
24253,0.23674583,-1.1724548,-0.9588623,1.8808228,-0.15186767,0.18797608,0.0
24254,-0.4499836,0.13342285,-0.18899536,1.8808228,-0.15186767,0.18797608,0.0
24255,-0.4499836,0.13342285,-0.18899536,0.904834,-0.34090576,-0.03186035,0.0
24256,-0.35975456,1.551197,-0.016494751,0.904834,-0.34090576,-0.03186035,0.0
24257,-0.35975456,1.551197,-0.016494751,-0.99510497,-0.1539917,0.3090454,0.0
24258,0.28918648,0.046829224,-0.7394104,-0.99510497,-0.1539917,0.3090454,0.0
24259,0.28918648,0.046829224,-0.7394104,0.32922363,-0.052038576,0.07115479,0.0
24260,0.5052872,-1.0569096,-0.88845825,0.32922363,-0.052038576,0.07115479,0.0
24261,0.5052872,-1.0569096,-0.88845825,0.97280276,-0.1263794,0.012744141,0.0
24262,0.1822567,0.21721649,-0.42466736,0.97280276,-0.1263794,0.012744141,0.0
24263,0.1822567,0.21721649,-0.42466736,-0.13062744,-0.10089111,0.09451904,0.0
24264,0.21885204,1.0916805,-0.41545105,-0.13062744,-0.10089111,0.09451904,0.0
24265,0.21885204,1.0916805,-0.41545105,0.015930176,0.06265869,0.22514649,0.0
24266,0.55240154,0.69862556,-0.34812927,0.015930176,0.06265869,0.22514649,0.0
24267,0.55240154,0.69862556,-0.34812927,0.9791748,-0.058410645,0.1709839,0.0
24268,0.3974018,0.74160385,0.30767822,0.9791748,-0.058410645,0.1709839,0.0
24269,0.3974018,0.74160385,0.30767822,0.16354981,-0.24851075,0.14018555,0.0
24270,-0.0025491714,0.97442436,0.46992493,0.16354981,-0.24851075,0.14018555,0.0
24271,-0.0025491714,0.97442436,0.46992493,-0.5607422,-0.3154175,0.45454103,0.0
24272,-0.20520115,0.1037693,-0.522522,-0.5607422,-0.3154175,0.45454103,0.0
24273,-0.20520115,0.1037693,-0.522522,-0.095581055,-0.17735596,0.38657227,0.0
24274,-0.28280067,-1.0770683,-1.4463043,-0.095581055,-0.17735596,0.38657227,0.0
24275,-0.28280067,-1.0770683,-1.4463043,0.634021,-0.0180542,0.22727051,0.0
24276,0.0024461746,-1.0840912,-0.84765625,0.634021,-0.0180542,0.22727051,0.0
24277,0.0024461746,-1.0840912,-0.84765625,0.79226077,0.04248047,0.21558838,0.0
24278,0.59250927,0.022277832,0.48080444,0.79226077,0.04248047,0.21558838,0.0
24279,0.59250927,0.022277832,0.48080444,0.08283692,0.009558106,0.10407715,0.0
24280,0.60429287,0.62176514,0.7743225,0.08283692,0.009558106,0.10407715,0.0
24281,0.60429287,0.62176514,0.7743225,-0.69349366,-0.0541626,0.11682129,0.0
24282,0.08842659,-0.07803917,0.17152405,-0.69349366,-0.0541626,0.11682129,0.0
24283,0.08842659,-0.07803917,0.17152405,-0.43011475,-0.0180542,0.08283692,0.0
24284,-0.13303089,-0.60220146,0.04875183,-0.43011475,-0.0180542,0.08283692,0.0
24285,-0.13303089,-0.60220146,0.04875183,0.028674318,-0.011682129,0.035046387,0.0
24286,-0.008316994,0.1085701,0.380661,0.028674318,-0.011682129,0.035046387,0.0
24287,-0.008316994,0.1085701,0.380661,0.059472658,-0.14018555,-0.1263794,0.0
24288,0.28073597,0.98579407,0.27548218,0.059472658,-0.14018555,-0.1263794,0.0
24289,0.28073597,0.98579407,0.27548218,-0.16248779,-0.2347046,0.087084964,0.0
24290,0.40321445,0.96829987,-0.29737854,-0.16248779,-0.2347046,0.087084964,0.0
24291,0.40321445,0.96829987,-0.29737854,-0.032922365,-0.22196046,0.24957275,0.0
24292,0.28143406,0.26381302,-0.5313263,-0.032922365,-0.22196046,0.24957275,0.0
24293,0.28143406,0.26381302,-0.5313263,0.13062744,-0.20284425,0.26656494,0.0
24294,0.20018387,-0.30176735,-0.022842407,0.13062744,-0.20284425,0.26656494,0.0
24295,0.20018387,-0.30176735,-0.022842407,0.26019287,-0.20921631,0.270813,0.0
24296,0.2657261,-0.23623848,0.57899475,0.26019287,-0.20921631,0.270813,0.0
24297,0.2657261,-0.23623848,0.57899475,-0.019116212,-0.2516968,0.270813,0.0
24298,0.35546398,0.060508728,0.4486084,-0.019116212,-0.2516968,0.270813,0.0
24299,0.35546398,0.060508728,0.4486084,-0.35046387,-0.35683593,0.28355715,0.0
24300,0.31972313,-0.051216125,-0.1678009,-0.35046387,-0.35683593,0.28355715,0.0
24301,0.31972313,-0.051216125,-0.1678009,-0.29948732,-0.41524658,0.39082032,0.0
24302,0.31972313,-0.051216125,-0.1678009,-0.29948732,-0.41524658,0.39082032,0.0
24303,0.0027751923,-0.6315613,-0.49086,-0.29948732,-0.41524658,0.39082032,0.0
24304,0.0027751923,-0.6315613,-0.49086,0.026550293,-0.36427003,0.4333008,0.0
24305,-0.4182024,-1.056324,-0.4007721,0.026550293,-0.36427003,0.4333008,0.0
24306,-0.4182024,-1.056324,-0.4007721,0.0063720704,-0.3451538,0.46622315,0.0
24307,-0.27197647,-0.68489075,-0.17097473,0.0063720704,-0.3451538,0.46622315,0.0
24308,-0.27197647,-0.68489075,-0.17097473,0.07752686,-0.41949463,0.29417726,0.0
24309,0.3825531,0.25806808,-0.044052124,0.07752686,-0.41949463,0.29417726,0.0
24310,0.3825531,0.25806808,-0.044052124,0.26868898,-0.4609131,0.4088745,0.0
24311,0.65620136,0.9339199,-0.15957642,0.26868898,-0.4609131,0.4088745,0.0
24312,0.65620136,0.9339199,-0.15957642,0.30161133,-0.5012695,0.5766724,0.0
24313,0.42012691,0.9776535,-0.37664795,0.30161133,-0.5012695,0.5766724,0.0
24314,0.42012691,0.9776535,-0.37664795,0.08602295,-0.53100586,0.44710693,0.0
24315,0.20594978,0.44791794,-0.4640808,0.08602295,-0.53100586,0.44710693,0.0
24316,0.20594978,0.44791794,-0.4640808,-0.31010744,-0.46409914,0.74022216,0.0
24317,0.14792633,-0.6724148,-0.6464691,-0.31010744,-0.46409914,0.74022216,0.0
24318,0.14792633,-0.6724148,-0.6464691,0.121069334,-0.35895997,0.9685547,0.0
24319,0.22722816,-1.5761642,-0.90644836,0.121069334,-0.35895997,0.9685547,0.0
24320,0.22722816,-1.5761642,-0.90644836,0.97492677,-0.15505372,0.5299439,0.0
24321,0.5723953,-1.165863,-0.7584381,0.97492677,-0.15505372,0.5299439,0.0
24322,0.5723953,-1.165863,-0.7584381,1.3413209,0.03186035,0.5246338,0.0
24323,0.883173,-0.22526932,-0.12599182,1.3413209,0.03186035,0.5246338,0.0
24324,0.883173,-0.22526932,-0.12599182,1.2765381,0.20072022,0.7784546,0.0
24325,0.7813673,0.060798645,0.08432007,1.2765381,0.20072022,0.7784546,0.0
24326,0.7813673,0.060798645,0.08432007,1.2999023,0.2538208,0.7434082,0.0
24327,-0.35373878,0.70918465,0.3085022,1.2999023,0.2538208,0.7434082,0.0
24328,-0.35373878,0.70918465,0.3085022,1.5027466,0.40250245,0.5766724,0.0
24329,-0.5259228,0.690773,0.07173157,1.5027466,0.40250245,0.5766724,0.0
24330,-0.5259228,0.690773,0.07173157,1.4592041,0.42268068,0.5214478,0.0
24331,-0.32857513,0.90682983,-0.17913818,1.4592041,0.42268068,0.5214478,0.0
24332,-0.32857513,0.90682983,-0.17913818,0.9717407,0.32391357,0.44923097,0.0
24333,-0.06398296,0.8174057,-0.29733276,0.9717407,0.32391357,0.44923097,0.0
24334,-0.06398296,0.8174057,-0.29733276,0.8251831,0.33028564,0.4598511,0.0
24335,0.1237278,1.4530563,-0.6486969,0.8251831,0.33028564,0.4598511,0.0
24336,0.1237278,1.4530563,-0.6486969,-0.42905274,0.40993652,0.73809814,0.0
24337,0.29307365,1.3786926,-0.6858673,-0.42905274,0.40993652,0.73809814,0.0
24338,0.29307365,1.3786926,-0.6858673,-1.0227174,0.31116945,0.99510497,0.0
24339,1.1681385,-0.7758064,-1.1321106,-1.0227174,0.31116945,0.99510497,0.0
24340,1.1681385,-0.7758064,-1.1321106,-0.78376466,0.21452637,1.7544434,0.0
24341,1.6355724,-1.8293362,-1.033844,-0.78376466,0.21452637,1.7544434,0.0
24342,1.6355724,-1.8293362,-1.033844,0.0722168,0.5628662,0.67225343,0.0
24343,2.6645126,-1.5131149,0.24893188,0.0722168,0.5628662,0.67225343,0.0
24344,2.6645126,-1.5131149,0.24893188,-0.08814698,0.3993164,1.3243287,0.0
24345,2.0653744,-0.36896324,0.8845825,-0.08814698,0.3993164,1.3243287,0.0
24346,2.0653744,-0.36896324,0.8845825,-0.6595093,0.23789063,1.2712281,0.0
24347,-0.06754875,0.3889103,1.2915802,-0.6595093,0.23789063,1.2712281,0.0
24348,-0.06754875,0.3889103,1.2915802,-0.63933104,0.28780517,1.0301514,0.0
24349,-0.558239,-0.25630188,1.0546265,-0.63933104,0.28780517,1.0301514,0.0
24350,-0.558239,-0.25630188,1.0546265,-0.52675784,0.3175415,1.1066163,0.0
24351,-1.3170986,-1.8814926,1.0891266,-0.52675784,0.3175415,1.1066163,0.0
24352,-1.3170986,-1.8814926,1.0891266,-0.009558106,0.2548828,0.8973999,0.0
24353,-0.91830254,-1.8910217,1.1257172,-0.009558106,0.2548828,0.8973999,0.0
24354,-0.91830254,-1.8910217,1.1257172,0.025488282,0.124255374,0.8092529,0.0
24355,-0.376647,-1.895874,1.2564545,0.025488282,0.124255374,0.8092529,0.0
24356,-0.376647,-1.895874,1.2564545,0.04991455,-0.121069334,0.5883545,0.0
24357,-0.29518986,-1.6191521,0.9039917,0.04991455,-0.121069334,0.5883545,0.0
24358,-0.29518986,-1.6191521,0.9039917,-0.11151123,-0.26550293,0.34833986,0.0
24359,-0.49237728,-1.1341515,0.19836426,-0.11151123,-0.26550293,0.34833986,0.0
24360,-0.49237728,-1.1341515,0.19836426,0.18585205,-0.32816163,0.3791382,0.0
24361,-0.4053154,-0.39311218,-0.5841217,0.18585205,-0.32816163,0.3791382,0.0
24362,-0.4053154,-0.39311218,-0.5841217,0.64782715,-0.20390625,0.4333008,0.0
24363,0.27503967,0.7850704,-1.0329437,0.64782715,-0.20390625,0.4333008,0.0
24364,0.27503967,0.7850704,-1.0329437,0.5809204,-0.09451904,0.5065796,0.0
24365,0.9449587,1.5295467,-0.9915161,0.5809204,-0.09451904,0.5065796,0.0
24366,0.9449587,1.5295467,-0.9915161,0.42268068,-0.0998291,0.64995116,0.0
24367,0.773057,0.70492554,-0.3807068,0.42268068,-0.0998291,0.64995116,0.0
24368,0.773057,0.70492554,-0.3807068,0.62764895,-0.0637207,0.7126099,0.0
24369,0.059900284,-0.7157707,0.41593933,0.62764895,-0.0637207,0.7126099,0.0
24370,0.059900284,-0.7157707,0.41593933,0.32072756,-0.0637207,0.5915405,0.0
24371,-0.41754627,-0.9385948,0.30386353,0.32072756,-0.0637207,0.5915405,0.0
24372,-0.41754627,-0.9385948,0.30386353,0.015930176,-0.053100586,0.5320679,0.0
24373,-0.20840263,-0.58195496,-0.008224487,0.015930176,-0.053100586,0.5320679,0.0
24374,-0.20840263,-0.58195496,-0.008224487,0.13806152,-0.05628662,0.47896728,0.0
24375,0.1301279,-0.20008469,-0.32661438,0.13806152,-0.05628662,0.47896728,0.0
24376,0.1301279,-0.20008469,-0.32661438,0.10407715,-0.06265869,0.4248047,0.0
24377,0.21765232,-0.2682228,-0.265625,0.10407715,-0.06265869,0.4248047,0.0
24378,0.21765232,-0.2682228,-0.265625,0.06903076,-0.06903076,0.3345337,0.0
24379,-0.0027828217,-0.20588684,-0.069122314,0.06903076,-0.06903076,0.3345337,0.0
24380,-0.0027828217,-0.20588684,-0.069122314,0.20709229,0.04248047,0.33028564,0.0
24381,-0.05765915,-0.03946495,0.014587402,0.20709229,0.04248047,0.33028564,0.0
24382,-0.05765915,-0.03946495,0.014587402,-0.32709962,0.1274414,0.28674316,0.0
24383,0.21888733,-0.4443779,-0.2300415,-0.32709962,0.1274414,0.28674316,0.0
24384,0.21888733,-0.4443779,-0.2300415,-0.37489015,0.18160401,0.16248779,0.0
24385,0.29083252,-0.98138237,-0.42497253,-0.37489015,0.18160401,0.16248779,0.0
24386,0.29083252,-0.98138237,-0.42497253,-0.028674318,0.270813,-0.027612304,0.0
24387,0.09398174,-0.84565353,-0.18980408,-0.028674318,0.270813,-0.027612304,0.0
24388,0.09398174,-0.84565353,-0.18980408,-0.17841797,0.2548828,-0.18160401,0.0
24389,-0.14908218,-0.3082981,0.16699219,-0.17841797,0.2548828,-0.18160401,0.0
24390,-0.14908218,-0.3082981,0.16699219,-0.24213867,0.21346436,-0.20178223,0.0
24391,-0.24372864,-0.010494232,0.48971558,-0.24213867,0.21346436,-0.20178223,0.0
24392,-0.24372864,-0.010494232,0.48971558,-0.16248779,0.16142578,-0.28355715,0.0
24393,-0.12957764,0.0201931,0.7993164,-0.16248779,0.16142578,-0.28355715,0.0
24394,-0.12957764,0.0201931,0.7993164,-0.36639404,0.06903076,-0.3451538,0.0
24395,-0.08858585,0.017498016,0.7270813,-0.36639404,0.06903076,-0.3451538,0.0
24396,-0.08858585,0.017498016,0.7270813,-0.5766724,0.013806152,-0.35577393,0.0
24397,-0.17144203,0.13235664,0.23278809,-0.5766724,0.013806152,-0.35577393,0.0
24398,-0.17144203,0.13235664,0.23278809,-0.4428589,-0.007434082,-0.35895997,0.0
24399,-0.10465908,0.10822868,-0.34022522,-0.4428589,-0.007434082,-0.35895997,0.0
24400,-0.10465908,0.10822868,-0.34022522,-0.15611573,-0.015930176,-0.3058594,0.0
24401,0.11325741,-0.37680817,-0.56588745,-0.15611573,-0.015930176,-0.3058594,0.0
24402,0.11325741,-0.37680817,-0.56588745,0.16036378,0.06478272,-0.20390625,0.0
24403,0.13665009,-0.6509228,-0.13301086,0.16036378,0.06478272,-0.20390625,0.0
24404,0.13665009,-0.6509228,-0.13301086,-0.008496094,0.06478272,-0.26868898,0.0
24405,-0.115618706,0.04427719,0.37294006,-0.008496094,0.06478272,-0.26868898,0.0
24406,-0.115618706,0.04427719,0.37294006,-0.22833252,0.016992187,-0.3090454,0.0
24407,-0.16372299,0.8918915,0.36586,-0.22833252,0.016992187,-0.3090454,0.0
24408,-0.16372299,0.8918915,0.36586,-0.4056885,-0.04141846,-0.25063476,0.0
24409,0.053627968,0.72156906,-0.03565979,-0.4056885,-0.04141846,-0.25063476,0.0
24410,0.053627968,0.72156906,-0.03565979,-0.21983643,-0.06265869,-0.16142578,0.0
24411,0.14755249,-0.14054108,-0.44781494,-0.21983643,-0.06265869,-0.16142578,0.0
24412,0.14755249,-0.14054108,-0.44781494,0.1359375,-0.008496094,-0.13912354,0.0
24413,-0.0037117004,-0.3720169,-0.39379883,0.1359375,-0.008496094,-0.13912354,0.0
24414,-0.0037117004,-0.3720169,-0.39379883,0.19541016,0.023364259,-0.098767094,0.0
24415,-0.13812542,0.10569382,0.050308228,0.19541016,0.023364259,-0.098767094,0.0
24416,-0.13812542,0.10569382,0.050308228,-0.07434082,-0.020178223,-0.0541626,0.0
24417,0.049106598,0.20230484,0.3687439,-0.07434082,-0.020178223,-0.0541626,0.0
24418,0.049106598,0.20230484,0.3687439,-0.124255374,-0.08071289,-0.09133301,0.0
24419,0.2969389,-0.28097916,0.3634796,-0.124255374,-0.08071289,-0.09133301,0.0
24420,0.2969389,-0.28097916,0.3634796,0.027612304,-0.098767094,-0.04885254,0.0
24421,0.115273476,-0.4685936,0.2861023,0.027612304,-0.098767094,-0.04885254,0.0
24422,0.115273476,-0.4685936,0.2861023,-0.16142578,-0.021240234,-0.15930176,0.0
24423,-0.44699,0.07535744,0.011581421,-0.16142578,-0.021240234,-0.15930176,0.0
24424,-0.44699,0.07535744,0.011581421,-0.15611573,-0.07327881,-0.3451538,0.0
24425,-0.5266838,0.2524376,-0.5128784,-0.15611573,-0.07327881,-0.3451538,0.0
24426,-0.5266838,0.2524376,-0.5128784,0.09451904,-0.07752686,-0.3079834,0.0
24427,0.010391235,-0.23408508,-0.65353394,0.09451904,-0.07752686,-0.3079834,0.0
24428,0.010391235,-0.23408508,-0.65353394,0.6924316,0.04885254,-0.1529297,0.0
24429,0.1262207,0.04034424,0.036758423,0.6924316,0.04885254,-0.1529297,0.0
24430,0.1262207,0.04034424,0.036758423,0.5957886,0.038232423,-0.060534667,0.0
24431,-0.20781326,1.0920296,0.7663269,0.5957886,0.038232423,-0.060534667,0.0
24432,-0.20781326,1.0920296,0.7663269,0.009558106,-0.07965088,-0.30267334,0.0
24433,0.046310425,1.2249527,0.58862305,0.009558106,-0.07965088,-0.30267334,0.0
24434,0.046310425,1.2249527,0.58862305,-0.15823975,-0.15505372,-0.37595215,0.0
24435,0.53325176,-0.080877304,-0.13186646,-0.15823975,-0.15505372,-0.37595215,0.0
24436,0.53325176,-0.080877304,-0.13186646,0.14230958,0.0637207,0.0063720704,0.0
24437,0.16892338,-1.3143234,-0.6871033,0.14230958,0.0637207,0.0063720704,0.0
24438,0.16892338,-1.3143234,-0.6871033,0.17416993,0.04141846,-0.12000733,0.0
24439,-0.3804989,-0.7643852,-1.0127106,0.17416993,0.04141846,-0.12000733,0.0
24440,-0.3804989,-0.7643852,-1.0127106,0.35471192,0.04141846,-0.5171997,0.0
24441,0.056672096,0.699234,-0.8618622,0.35471192,0.04141846,-0.5171997,0.0
24442,0.056672096,0.699234,-0.8618622,-0.053100586,0.0063720704,-0.36427003,0.0
24443,0.056672096,0.699234,-0.8618622,-0.053100586,0.0063720704,-0.36427003,108.0
24444,0.5454235,1.2057877,-0.24667358,-0.053100586,0.0063720704,-0.36427003,108.0
24445,0.5454235,1.2057877,-0.24667358,-0.10089111,-0.011682129,-0.09239502,108.0
24446,0.12735462,0.7507496,0.26490784,-0.10089111,-0.011682129,-0.09239502,108.0
24447,0.12735462,0.7507496,0.26490784,-0.22196046,-0.08814698,-0.1274414,108.0
24448,-0.11664581,-0.14040375,0.35829163,-0.22196046,-0.08814698,-0.1274414,108.0
24449,-0.11664581,-0.14040375,0.35829163,-0.25594482,-0.13381349,-0.10301514,108.0
24450,0.4397154,-0.7720642,0.3469696,-0.25594482,-0.13381349,-0.10301514,108.0
24451,0.4397154,-0.7720642,0.3469696,-0.12000733,-0.09451904,-0.14124756,108.0
24452,0.6404686,-0.442091,0.22895813,-0.12000733,-0.09451904,-0.14124756,108.0
24453,0.6404686,-0.442091,0.22895813,-0.38444826,-0.0180542,-0.07434082,108.0
24454,-0.03819847,0.11682129,-0.4893036,-0.38444826,-0.0180542,-0.07434082,108.0
24455,-0.03819847,0.11682129,-0.4893036,-0.43117675,0.032922365,0.019116212,108.0
24456,-0.34440136,0.13553429,-1.2429352,-0.43117675,0.032922365,0.019116212,108.0
24457,-0.34440136,0.13553429,-1.2429352,-0.023364259,0.12956543,-0.015930176,108.0
24458,0.37621212,0.3662281,-0.7091217,-0.023364259,0.12956543,-0.015930176,108.0
24459,0.37621212,0.3662281,-0.7091217,0.30161133,0.15823975,-0.05628662,108.0
24460,0.8624573,0.63443756,0.5254059,0.30161133,0.15823975,-0.05628662,108.0
24461,0.8624573,0.63443756,0.5254059,-0.5957886,-0.090270996,0.3154175,108.0
24462,0.36036396,-0.030570984,0.8378601,-0.5957886,-0.090270996,0.3154175,108.0
24463,0.36036396,-0.030570984,0.8378601,-0.52038574,-0.10195313,0.24638672,108.0
24464,-0.2587061,-0.7740536,0.28993225,-0.52038574,-0.10195313,0.24638672,108.0
24465,-0.2587061,-0.7740536,0.28993225,-0.14655761,-0.13381349,0.15505372,108.0
24466,-0.3524971,-0.78671074,-0.13774109,-0.14655761,-0.13381349,0.15505372,108.0
24467,-0.3524971,-0.78671074,-0.13774109,-0.16461182,-0.07434082,0.26656494,108.0
24468,-0.2200718,-0.28738976,0.17700195,-0.16461182,-0.07434082,0.26656494,108.0
24469,-0.2200718,-0.28738976,0.17700195,0.22302246,-0.09664307,0.11363526,108.0
24470,-1.1212969,0.5599804,1.0569,0.22302246,-0.09664307,0.11363526,108.0
24471,-1.1212969,0.5599804,1.0569,0.29417726,0.028674318,0.21558838,108.0
24472,-1.6643591,0.77153015,1.1970978,0.29417726,0.028674318,0.21558838,108.0
24473,-1.6643591,0.77153015,1.1970978,-0.8071289,-0.19541016,-0.45878908,108.0
24474,-1.07973,0.2520256,0.29284668,-0.8071289,-0.19541016,-0.45878908,108.0
24475,-1.07973,0.2520256,0.29284668,0.72641605,0.26762697,0.17735596,108.0
24476,-0.86623764,-0.19026184,-0.030853271,0.72641605,0.26762697,0.17735596,108.0
24477,-0.86623764,-0.19026184,-0.030853271,0.060534667,-0.052038576,-0.12956543,108.0
24478,0.003982544,-0.344532,0.20123291,0.060534667,-0.052038576,-0.12956543,108.0
24479,0.003982544,-0.344532,0.20123291,-0.029736329,-0.029736329,-0.6159668,108.0
24480,1.3877068,-0.25510597,0.02999878,-0.029736329,-0.029736329,-0.6159668,108.0
24481,1.3877068,-0.25510597,0.02999878,0.050976563,-0.15823975,-0.12319336,108.0
24482,1.7108488,-0.22862053,-0.6095581,0.050976563,-0.15823975,-0.12319336,108.0
24483,1.7108488,-0.22862053,-0.6095581,-0.032922365,-0.083898924,-0.09133301,108.0
24484,1.0289812,-0.070884705,-1.1557312,-0.032922365,-0.083898924,-0.09133301,108.0
24485,1.0289812,-0.070884705,-1.1557312,0.1720459,0.09133301,-0.0361084,108.0
24486,0.0553751,0.41270256,-0.9115906,0.1720459,0.09133301,-0.0361084,108.0
24487,0.0553751,0.41270256,-0.9115906,0.15080567,0.18691407,0.093457036,108.0
24488,-0.7150631,0.71287537,0.021499634,0.15080567,0.18691407,0.093457036,108.0
24489,-0.7150631,0.71287537,0.021499634,-0.6053467,-0.081774905,-0.057348635,108.0
24490,-0.88698006,0.44158936,0.5350189,-0.6053467,-0.081774905,-0.057348635,108.0
24491,-0.88698006,0.44158936,0.5350189,-1.0290893,-0.42692873,-0.07115479,108.0
24492,-0.5085468,0.01727295,0.56721497,-1.0290893,-0.42692873,-0.07115479,108.0
24493,-0.5085468,0.01727295,0.56721497,-1.1575928,-0.16036378,-0.045666505,108.0
24494,0.30761528,-0.8692875,1.1535339,-1.1575928,-0.16036378,-0.045666505,108.0
24495,0.30761528,-0.8692875,1.1535339,-0.8517334,-0.118945315,0.18691407,108.0
24496,0.8751812,-1.5229206,2.001007,-0.8517334,-0.118945315,0.18691407,108.0
24497,0.8751812,-1.5229206,2.001007,-0.5915405,-0.24320069,0.124255374,108.0
24498,0.39415073,-1.0413208,1.8318939,-0.5915405,-0.24320069,0.124255374,108.0
24499,0.39415073,-1.0413208,1.8318939,-0.48427734,-0.31860352,-0.15823975,108.0
24500,-0.5973511,-0.27497482,0.13053894,-0.48427734,-0.31860352,-0.15823975,108.0
24501,-0.5973511,-0.27497482,0.13053894,-0.8527954,-0.2984253,-0.22939454,108.0
24502,-1.0198116,0.13748932,-1.9370422,-0.8527954,-0.2984253,-0.22939454,108.0
24503,-1.0198116,0.13748932,-1.9370422,-0.93350834,-0.26656494,-0.23895264,108.0
24504,-0.68103504,0.20227623,-2.8913574,-0.93350834,-0.26656494,-0.23895264,108.0
24505,-0.68103504,0.20227623,-2.8913574,-0.43861085,-0.13168946,-0.55755615,108.0
24506,-0.12903214,0.13513565,-2.6730042,-0.43861085,-0.13168946,-0.55755615,108.0
24507,-0.12903214,0.13513565,-2.6730042,-0.04141846,-0.0541626,-0.43011475,108.0
24508,0.12168884,0.19887924,-2.2205505,-0.04141846,-0.0541626,-0.43011475,108.0
24509,0.12168884,0.19887924,-2.2205505,0.25806886,0.05522461,-0.38657227,108.0
24510,0.22712421,0.38121033,-1.937912,0.25806886,0.05522461,-0.38657227,108.0
24511,0.22712421,0.38121033,-1.937912,0.3090454,0.057348635,-0.4343628,108.0
24512,0.529294,0.49128342,-1.7160492,0.3090454,0.057348635,-0.4343628,108.0
24513,0.529294,0.49128342,-1.7160492,0.3802002,0.31223145,-0.27399904,108.0
24514,0.8554783,0.5677471,-1.339386,0.3802002,0.31223145,-0.27399904,108.0
24515,0.8554783,0.5677471,-1.339386,0.39400634,0.57454836,-0.14868164,108.0
24516,1.3517294,0.42985725,-0.055999756,0.39400634,0.57454836,-0.14868164,108.0
24517,1.3517294,0.42985725,-0.055999756,0.3430298,1.6100098,0.22833252,108.0
24518,1.7859612,-0.42975998,2.1713867,0.3430298,1.6100098,0.22833252,108.0
24519,1.7859612,-0.42975998,2.1713867,0.54693604,1.7448853,0.7083618,108.0
24520,0.9033785,-0.83057594,3.9234924,0.54693604,1.7448853,0.7083618,108.0
24521,0.9033785,-0.83057594,3.9234924,-0.31223145,1.3445069,0.7890747,108.0
24522,-0.7383566,-0.0957489,4.17128,-0.31223145,1.3445069,0.7890747,108.0
24523,-0.7383566,-0.0957489,4.17128,-1.3816773,1.0312134,0.19753419,108.0
24524,-1.9445181,0.34468842,2.6478271,-1.3816773,1.0312134,0.19753419,108.0
24525,-1.9445181,0.34468842,2.6478271,-1.8171021,0.46728516,0.4354248,108.0
24526,-2.5601063,1.0025444,0.09895325,-1.8171021,0.46728516,0.4354248,108.0
24527,-2.5601063,1.0025444,0.09895325,-3.1488647,0.34940186,0.035046387,108.0
24528,-2.1071548,1.1716042,-1.555603,-3.1488647,0.34940186,0.035046387,108.0
24529,-2.1071548,1.1716042,-1.555603,-4.1535277,0.44923097,0.7338501,108.0
24530,-1.2765074,-1.2805405,-1.3061218,-4.1535277,0.44923097,0.7338501,108.0
24531,-1.2765074,-1.2805405,-1.3061218,-3.268872,0.1985962,0.9483765,108.0
24532,-0.99977016,-3.958746,0.37782288,-3.268872,0.1985962,0.9483765,108.0
24533,-0.99977016,-3.958746,0.37782288,-3.2263916,0.22939454,0.03717041,108.0
24534,-0.31547737,-4.82271,2.1369476,-3.2263916,0.22939454,0.03717041,108.0
24535,-0.31547737,-4.82271,2.1369476,-2.8398194,0.5278198,0.39188233,108.0
24536,0.673192,-5.0431786,2.7355957,-2.8398194,0.5278198,0.39188233,108.0
24537,0.673192,-5.0431786,2.7355957,-1.454956,0.74447024,0.15930176,108.0
24538,0.6121254,-3.6555023,2.1533813,-1.454956,0.74447024,0.15930176,108.0
24539,0.6121254,-3.6555023,2.1533813,-1.6493043,0.48109132,0.13168946,108.0
24540,-0.0052337646,-1.1397209,0.97361755,-1.6493043,0.48109132,0.13168946,108.0
24541,-0.0052337646,-1.1397209,0.97361755,-1.901001,0.6701294,0.03717041,108.0
24542,-0.6387453,-0.61624527,-0.04664612,-1.901001,0.6701294,0.03717041,108.0
24543,-0.6387453,-0.61624527,-0.04664612,-2.0316284,0.0021240234,0.1720459,108.0
24544,-1.0153913,-1.3077049,-0.1761322,-2.0316284,0.0021240234,0.1720459,108.0
24545,-1.0153913,-1.3077049,-0.1761322,-2.0369384,0.41206056,0.09133301,108.0
24546,-0.6108608,-2.000204,0.40945435,-2.0369384,0.41206056,0.09133301,108.0
24547,-0.6108608,-2.000204,0.40945435,-1.6939087,0.36002198,0.06478272,108.0
24548,-0.24174023,-2.347086,1.1362,-1.6939087,0.36002198,0.06478272,108.0
24549,-0.24174023,-2.347086,1.1362,-1.263794,0.23258057,-0.022302246,108.0
24550,-0.004719734,-1.8563919,1.3878784,-1.263794,0.23258057,-0.022302246,108.0
24551,-0.004719734,-1.8563919,1.3878784,-1.09281,0.09770508,-0.0361084,108.0
24552,0.62539864,-1.9453678,1.4203796,-1.09281,0.09770508,-0.0361084,108.0
24553,0.62539864,-1.9453678,1.4203796,0.1083252,0.5384399,-0.014868164,108.0
24554,0.5225353,-1.6070385,1.1589203,0.1083252,0.5384399,-0.014868164,108.0
24555,0.5225353,-1.6070385,1.1589203,0.07115479,0.0361084,-0.14337158,108.0
24556,-0.56423473,-0.288023,0.26934814,0.07115479,0.0361084,-0.14337158,108.0
24557,-0.56423473,-0.288023,0.26934814,0.07115479,-0.10513916,-0.11363526,108.0
24558,-1.0812092,0.30202866,-0.44548035,0.07115479,-0.10513916,-0.11363526,108.0
24559,-1.0812092,0.30202866,-0.44548035,0.07115479,-0.10513916,-0.11363526,117.0
24560,-1.0812092,0.30202866,-0.44548035,0.13912354,-0.21027832,-0.16885987,117.0
24561,-0.86965466,0.39624977,-0.5283356,0.13912354,-0.21027832,-0.16885987,117.0
24562,-0.86965466,0.39624977,-0.5283356,0.03186035,-0.28674316,-0.15717773,117.0
24563,-0.4014244,0.26437473,-0.4850464,0.03186035,-0.28674316,-0.15717773,117.0
24564,-0.4014244,0.26437473,-0.4850464,0.13062744,-0.32391357,-0.1539917,117.0
24565,-0.11868572,-0.036132812,-0.58488464,0.13062744,-0.32391357,-0.1539917,117.0
24566,-0.11868572,-0.036132812,-0.58488464,0.29948732,-0.36639404,-0.20496826,117.0
24567,-0.035964012,-0.24283409,-0.799469,0.29948732,-0.36639404,-0.20496826,117.0
24568,-0.035964012,-0.24283409,-0.799469,0.5033936,-0.26762697,-0.31010744,117.0
24569,0.0808239,0.05342579,-0.7999115,0.5033936,-0.26762697,-0.31010744,117.0
24570,0.0808239,0.05342579,-0.7999115,0.39506838,-0.21877442,-0.3345337,117.0
24571,0.18864632,0.55309296,-0.45555115,0.39506838,-0.21877442,-0.3345337,117.0
24572,0.18864632,0.55309296,-0.45555115,0.45029297,-0.23895264,-0.27612305,117.0
24573,0.26948452,0.7321472,-0.025100708,0.45029297,-0.23895264,-0.27612305,117.0
24574,0.26948452,0.7321472,-0.025100708,0.7041138,-0.27506104,-0.2803711,117.0
24575,0.36511135,0.6415043,0.1917572,0.7041138,-0.27506104,-0.2803711,117.0
24576,0.36511135,0.6415043,0.1917572,0.54906005,-0.35577393,-0.28780517,117.0
24577,0.5271721,0.43836212,0.14460754,0.54906005,-0.35577393,-0.28780517,117.0
24578,0.5271721,0.43836212,0.14460754,0.58304447,-0.3355957,-0.29630128,117.0
24579,0.5261326,0.43546772,0.051940918,0.58304447,-0.3355957,-0.29630128,117.0
24580,0.5261326,0.43546772,0.051940918,0.6977417,-0.44923097,-0.2262085,117.0
24581,0.50051975,0.49362564,-0.036468506,0.6977417,-0.44923097,-0.2262085,117.0
24582,0.50051975,0.49362564,-0.036468506,0.8315552,-0.3993164,-0.2347046,117.0
24583,0.7849741,0.2430458,-0.1210022,0.8315552,-0.3993164,-0.2347046,117.0
24584,0.7849741,0.2430458,-0.1210022,1.2584839,-0.2782471,-0.16779785,117.0
24585,0.9610729,0.17479515,0.14131165,1.2584839,-0.2782471,-0.16779785,117.0
24586,0.9610729,0.17479515,0.14131165,1.0715698,-0.41843262,-0.26762697,117.0
24587,0.8344345,0.5548992,0.52874756,1.0715698,-0.41843262,-0.26762697,117.0
24588,0.8344345,0.5548992,0.52874756,1.3848633,-0.48321533,-0.24744873,117.0
24589,0.7742491,0.7521095,0.47224426,1.3848633,-0.48321533,-0.24744873,117.0
24590,0.7742491,0.7521095,0.47224426,1.8489624,-0.39400634,-0.11151123,117.0
24591,0.7615261,0.3131256,-0.02583313,1.8489624,-0.39400634,-0.11151123,117.0
24592,0.7615261,0.3131256,-0.02583313,2.2249146,-0.38975832,-0.1083252,117.0
24593,0.49822235,-0.041858673,-0.39118958,2.2249146,-0.38975832,-0.1083252,117.0
24594,0.49822235,-0.041858673,-0.39118958,2.3385499,-0.3791382,-0.2824951,117.0
24595,0.06848717,0.50364685,-0.4446106,2.3385499,-0.3791382,-0.2824951,117.0
24596,0.06848717,0.50364685,-0.4446106,2.2302246,-0.4800293,-0.32178956,117.0
24597,-0.32327366,1.4427853,-0.7238922,2.2302246,-0.4800293,-0.32178956,117.0
24598,-0.32327366,1.4427853,-0.7238922,2.0072021,-0.5033936,-0.2623169,117.0
24599,-0.3873787,1.8756886,-1.358963,2.0072021,-0.5033936,-0.2623169,117.0
24600,-0.3873787,1.8756886,-1.358963,2.2790773,-0.35152587,-0.17523193,117.0
24601,-0.3415804,1.894947,-1.3919067,2.2790773,-0.35152587,-0.17523193,117.0
24602,-0.3415804,1.894947,-1.3919067,2.4075806,-0.38657227,-0.28674316,117.0
24603,-0.42510796,2.4899807,-0.68270874,2.4075806,-0.38657227,-0.28674316,117.0
24604,-0.42510796,2.4899807,-0.68270874,1.7916138,-0.5607422,-0.5235718,117.0
24605,-0.2603016,2.9634933,-0.42111206,1.7916138,-0.5607422,-0.5235718,117.0
24606,-0.2603016,2.9634933,-0.42111206,0.78164065,-0.7720825,-0.36745605,117.0
24607,0.10667515,2.1085758,-1.1004028,0.78164065,-0.7720825,-0.36745605,117.0
24608,0.10667515,2.1085758,-1.1004028,0.48109132,-0.73703617,-0.48215333,117.0
24609,0.112402916,1.463192,-2.0965424,0.48109132,-0.73703617,-0.48215333,117.0
24610,0.112402916,1.463192,-2.0965424,0.68712157,-0.71791995,-0.75721437,117.0
24611,-0.54621124,3.1693077,-2.74234,0.68712157,-0.71791995,-0.75721437,117.0
24612,-0.54621124,3.1693077,-2.74234,-0.22939454,-0.8889038,-0.41949463,117.0
24613,-0.33209896,4.5973854,-2.4741974,-0.22939454,-0.8889038,-0.41949463,117.0
24614,-0.33209896,4.5973854,-2.4741974,-1.7034668,-0.9345703,-0.19647217,117.0
24615,1.5503244,1.7356224,-2.1480408,-1.7034668,-0.9345703,-0.19647217,117.0
24616,1.5503244,1.7356224,-2.1480408,-1.0322754,-0.3440918,0.1731079,117.0
24617,2.4791641,-2.1521873,-2.271759,-1.0322754,-0.3440918,0.1731079,117.0
24618,2.4791641,-2.1521873,-2.271759,0.7412842,0.55968016,-0.33028564,117.0
24619,1.5708675,-2.0456524,-1.2076721,0.7412842,0.55968016,-0.33028564,117.0
24620,1.5708675,-2.0456524,-1.2076721,1.1098022,0.8666016,-0.42268068,117.0
24621,0.435771,0.3787613,1.0403137,1.1098022,0.8666016,-0.42268068,117.0
24622,0.435771,0.3787613,1.0403137,0.32603762,0.6945557,-0.14337158,117.0
24623,-0.11224747,1.0845032,2.5442047,0.32603762,0.6945557,-0.14337158,117.0
24624,-0.11224747,1.0845032,2.5442047,0.10938721,0.54587406,-0.1709839,117.0
24625,-0.2514677,0.2943344,2.5020294,0.10938721,0.54587406,-0.1709839,117.0
24626,-0.2514677,0.2943344,2.5020294,-0.06159668,0.4800293,-0.22833252,117.0
24627,-0.42314625,0.0023860931,1.742279,-0.06159668,0.4800293,-0.22833252,117.0
24628,-0.42314625,0.0023860931,1.742279,-0.3536499,0.40356445,-0.16673584,117.0
24629,-0.47493076,0.18767548,1.091507,-0.3536499,0.40356445,-0.16673584,117.0
24630,-0.47493076,0.18767548,1.091507,-0.7508423,0.33984375,-0.19328614,117.0
24631,-0.23514557,0.17293167,0.5905762,-0.7508423,0.33984375,-0.19328614,117.0
24632,-0.23514557,0.17293167,0.5905762,-0.9197022,0.3345337,-0.1731079,117.0
24633,-0.006000519,-0.02664566,0.15937805,-0.9197022,0.3345337,-0.1731079,117.0
24634,-0.006000519,-0.02664566,0.15937805,-0.6701294,0.39613038,-0.1263794,117.0
24635,0.039316177,-0.26203918,-0.009902954,-0.6701294,0.39613038,-0.1263794,117.0
24636,0.039316177,-0.26203918,-0.009902954,-0.39082032,0.47684327,-0.12531738,117.0
24637,-0.03804207,-0.4478283,0.14891052,-0.39082032,0.47684327,-0.12531738,117.0
24638,-0.03804207,-0.4478283,0.14891052,-0.271875,0.5214478,-0.14337158,117.0
24639,-0.14854813,-0.43508148,0.34294128,-0.271875,0.5214478,-0.14337158,117.0
24640,-0.14854813,-0.43508148,0.34294128,-0.3090454,0.5246338,-0.14868164,117.0
24641,-0.15832901,-0.34268188,0.34840393,-0.3090454,0.5246338,-0.14868164,117.0
24642,-0.15832901,-0.34268188,0.34840393,-0.09133301,0.5235718,-0.18266602,117.0
24643,0.0036706924,-0.264246,0.3517151,-0.09133301,0.5235718,-0.18266602,117.0
24644,0.0036706924,-0.264246,0.3517151,0.15823975,0.42799073,-0.0541626,117.0
24645,-0.075237274,-0.10194969,0.50567627,0.15823975,0.42799073,-0.0541626,117.0
24646,-0.075237274,-0.10194969,0.50567627,-0.16992188,0.39294434,-0.060534667,117.0
24647,-0.49408913,0.14705276,0.5821533,-0.16992188,0.39294434,-0.060534667,117.0
24648,-0.49408913,0.14705276,0.5821533,-0.33134767,0.3727661,-0.07115479,117.0
24649,-0.65244865,0.194767,0.2794342,-0.33134767,0.3727661,-0.07115479,117.0
24650,-0.65244865,0.194767,0.2794342,-0.1274414,0.40037844,-0.059472658,117.0
24651,-0.4309187,-0.012069702,0.053527832,-0.1274414,0.40037844,-0.059472658,117.0
24652,-0.4309187,-0.012069702,0.053527832,0.3079834,0.43754885,-0.098767094,117.0
24653,-0.3142786,-0.18352127,0.42538452,0.3079834,0.43754885,-0.098767094,117.0
24654,-0.3142786,-0.18352127,0.42538452,0.32922363,0.29523927,-0.033984374,117.0
24655,-0.42619133,-0.1442051,0.7448273,0.32922363,0.29523927,-0.033984374,117.0
24656,-0.42619133,-0.1442051,0.7448273,-0.13699952,0.1529297,-0.2984253,117.0
24657,-0.31157112,-0.18951035,0.5309448,-0.13699952,0.1529297,-0.2984253,117.0
24658,-0.31157112,-0.18951035,0.5309448,-0.06903076,0.027612304,-0.4056885,117.0
24659,-0.07728481,-0.3611908,0.5524292,-0.06903076,0.027612304,-0.4056885,117.0
24660,-0.07728481,-0.3611908,0.5524292,-0.13275146,-0.21027832,-0.63720703,117.0
24661,-0.28507042,-0.24025917,1.0724335,-0.13275146,-0.21027832,-0.63720703,117.0
24662,-0.28507042,-0.24025917,1.0724335,-0.7476563,-0.47896728,-0.77739257,117.0
24663,-0.77220917,0.1059494,1.0428467,-0.7476563,-0.47896728,-0.77739257,117.0
24664,-0.77220917,0.1059494,1.0428467,-1.6142578,-0.630835,-0.9791748,117.0
24665,-0.6008358,0.37275887,-0.07003784,-1.6142578,-0.630835,-0.9791748,117.0
24666,-0.6008358,0.37275887,-0.07003784,-1.4708862,-0.5171997,-0.73597413,117.0
24667,0.2536087,0.2251854,-1.365097,-1.4708862,-0.5171997,-0.73597413,117.0
24668,0.2536087,0.2251854,-1.365097,-0.7742066,-0.29417726,-0.7720825,117.0
24669,0.6192322,-0.029323578,-1.6493073,-0.7742066,-0.29417726,-0.7720825,117.0
24670,0.6192322,-0.029323578,-1.6493073,-0.36533204,-0.15186767,-0.5734863,117.0
24671,0.26293945,0.11466217,-1.0129547,-0.36533204,-0.15186767,-0.5734863,117.0
24672,0.26293945,0.11466217,-1.0129547,-0.48321533,-0.14974366,-0.47578126,117.0
24673,-0.008227348,-0.019550323,-0.29800415,-0.48321533,-0.14974366,-0.47578126,117.0
24674,-0.008227348,-0.019550323,-0.29800415,-0.47896728,-0.047790527,-0.5522461,117.0
24675,-0.008227348,-0.019550323,-0.29800415,-0.47896728,-0.047790527,-0.5522461,116.0
24676,0.28517914,-0.75273705,0.26994324,-0.47896728,-0.047790527,-0.5522461,116.0
24677,0.28517914,-0.75273705,0.26994324,0.11044922,0.05522461,-0.48533937,116.0
24678,0.24592876,-0.96118736,0.85121155,0.11044922,0.05522461,-0.48533937,116.0
24679,0.24592876,-0.96118736,0.85121155,-0.2782471,-0.1731079,-0.63933104,116.0
24680,-0.5378885,-0.40244675,1.2352295,-0.2782471,-0.1731079,-0.63933104,116.0
24681,-0.5378885,-0.40244675,1.2352295,-0.7338501,-0.24851075,-0.91757816,116.0
24682,-0.9830332,-0.12769318,1.339035,-0.7338501,-0.24851075,-0.91757816,116.0
24683,-0.9830332,-0.12769318,1.339035,-1.0354614,-0.27506104,-0.91120607,116.0
24684,-0.82775974,-0.31225014,1.2342377,-1.0354614,-0.27506104,-0.91120607,116.0
24685,-0.82775974,-0.31225014,1.2342377,-1.5526612,-0.21983643,-1.1533448,116.0
24686,-0.59046745,-0.106464386,0.95918274,-1.5526612,-0.21983643,-1.1533448,116.0
24687,-0.59046745,-0.106464386,0.95918274,-2.0263183,-0.09770508,-1.4305298,116.0
24688,-0.3028307,0.8995209,0.65597534,-2.0263183,-0.09770508,-1.4305298,116.0
24689,-0.3028307,0.8995209,0.65597534,-2.9470825,0.08071289,-1.5940796,116.0
24690,0.24351406,1.662878,-0.012512207,-2.9470825,0.08071289,-1.5940796,116.0
24691,0.24351406,1.662878,-0.012512207,-4.4976196,0.0180542,-1.2786621,116.0
24692,0.76130295,1.056633,-1.1153107,-4.4976196,0.0180542,-1.2786621,116.0
24693,0.76130295,1.056633,-1.1153107,-4.3892946,0.18691407,-1.0067872,116.0
24694,0.7844448,-0.699213,-1.6075897,-4.3892946,0.18691407,-1.0067872,116.0
24695,0.7844448,-0.699213,-1.6075897,-3.5874755,0.4067505,-0.7519043,116.0
24696,0.3769579,-2.2278156,-1.0476532,-3.5874755,0.4067505,-0.7519043,116.0
24697,0.3769579,-2.2278156,-1.0476532,-3.160547,0.65419924,-0.724292,116.0
24698,-0.22449589,-2.6866112,-0.39108276,-3.160547,0.65419924,-0.724292,116.0
24699,-0.22449589,-2.6866112,-0.39108276,-3.8083742,0.83898926,-0.51082766,116.0
24700,-0.9390335,-2.5312347,-0.3898468,-3.8083742,0.83898926,-0.51082766,116.0
24701,-0.9390335,-2.5312347,-0.3898468,-3.6650026,1.2924683,-0.5787964,116.0
24702,-1.3200254,-2.4695683,-0.7153168,-3.6650026,1.2924683,-0.5787964,116.0
24703,-1.3200254,-2.4695683,-0.7153168,-3.0957642,1.6747925,-0.40037844,116.0
24704,-1.0230618,-3.197895,-0.6483002,-3.0957642,1.6747925,-0.40037844,116.0
24705,-1.0230618,-3.197895,-0.6483002,-2.1187134,2.2164185,0.014868164,116.0
24706,-0.61728954,-4.2531166,-0.047348022,-2.1187134,2.2164185,0.014868164,116.0
24707,-0.61728954,-4.2531166,-0.047348022,-0.8687256,2.2142944,-0.090270996,116.0
24708,-0.7732258,-3.7262363,0.38031006,-0.8687256,2.2142944,-0.090270996,116.0
24709,-0.7732258,-3.7262363,0.38031006,0.33028564,2.1080933,-0.22727051,116.0
24710,-1.164052,-1.1895466,0.4228058,0.33028564,2.1080933,-0.22727051,116.0
24711,-1.164052,-1.1895466,0.4228058,0.98448485,2.1930542,-0.5012695,116.0
24712,-1.3250284,1.2540264,0.71554565,0.98448485,2.1930542,-0.5012695,116.0
24713,-1.3250284,1.2540264,0.71554565,1.6163819,2.3980224,-0.50020754,116.0
24714,-1.4255991,1.5691261,1.2800598,1.6163819,2.3980224,-0.50020754,116.0
24715,-1.4255991,1.5691261,1.2800598,1.6439942,2.430945,-0.3706421,116.0
24716,-2.0615487,0.72120667,2.2703552,1.6439942,2.430945,-0.3706421,116.0
24717,-2.0615487,0.72120667,2.2703552,1.6747925,2.1314576,-0.9717407,116.0
24718,-2.7584677,-0.07121658,3.594925,1.6747925,2.1314576,-0.9717407,116.0
24719,-2.7584677,-0.07121658,3.594925,1.1214844,1.9041871,-0.8028809,116.0
24720,-3.0390615,0.26071548,3.3734589,1.1214844,1.9041871,-0.8028809,116.0
24721,-3.0390615,0.26071548,3.3734589,0.38975832,1.8011719,-1.4347779,116.0
24722,-2.739233,1.6503944,1.0988312,0.38975832,1.8011719,-1.4347779,116.0
24723,-2.739233,1.6503944,1.0988312,-0.21240234,1.7151489,-1.4188477,116.0
24724,-1.4434495,1.6702538,-0.841156,-0.21240234,1.7151489,-1.4188477,116.0
24725,-1.4434495,1.6702538,-0.841156,0.49171144,1.6185058,-1.2977784,116.0
24726,-0.11960316,0.20654106,-0.7016907,0.49171144,1.6185058,-1.2977784,116.0
24727,-0.11960316,0.20654106,-0.7016907,1.8394043,1.5186768,-1.1204224,116.0
24728,-0.16554356,-0.4358406,0.46342468,1.8394043,1.5186768,-1.1204224,116.0
24729,-0.16554356,-0.4358406,0.46342468,1.9594116,1.2043213,-1.3349488,116.0
24730,-1.2576303,0.66628075,0.99009705,1.9594116,1.2043213,-1.3349488,116.0
24731,-1.2576303,0.66628075,0.99009705,0.9600586,1.0715698,-1.5983276,116.0
24732,-1.926722,1.821001,0.6023102,0.9600586,1.0715698,-1.5983276,116.0
24733,-1.926722,1.821001,0.6023102,0.67331547,0.99298096,-1.4942505,116.0
24734,-1.7087116,1.5715466,0.10899353,0.67331547,0.99298096,-1.4942505,116.0
24735,-1.7087116,1.5715466,0.10899353,0.83686525,0.8209351,-1.6662964,116.0
24736,-1.0520768,1.2665997,-0.33392334,0.83686525,0.8209351,-1.6662964,116.0
24737,-1.0520768,1.2665997,-0.33392334,0.68074954,0.84323734,-2.092163,116.0
24738,-0.43652248,1.4544792,-0.8102875,0.68074954,0.84323734,-2.092163,116.0
24739,-0.43652248,1.4544792,-0.8102875,-0.04991455,0.9515625,-1.7756836,116.0
24740,-0.36165714,0.82172585,-0.9766998,-0.04991455,0.9515625,-1.7756836,116.0
24741,-0.36165714,0.82172585,-0.9766998,0.10513916,1.0089111,-1.3115845,116.0
24742,-1.0169015,-0.11496925,-0.39405823,0.10513916,1.0089111,-1.3115845,116.0
24743,-1.0169015,-0.11496925,-0.39405823,0.46834716,1.0556396,-1.6333741,116.0
24744,-1.3627522,0.29393768,0.6496277,0.46834716,1.0556396,-1.6333741,116.0
24745,-1.3627522,0.29393768,0.6496277,0.4364868,0.903772,-2.1473877,116.0
24746,-0.98323154,1.1180611,0.67396545,0.4364868,0.903772,-2.1473877,116.0
24747,-0.98323154,1.1180611,0.67396545,-0.6042847,0.97280276,-1.9264892,116.0
24748,-0.8330085,0.13144875,-0.39764404,-0.6042847,0.97280276,-1.9264892,116.0
24749,-0.8330085,0.13144875,-0.39764404,-0.631897,1.0970582,-1.4645141,116.0
24750,-1.3622687,-1.1405315,-0.781662,-0.631897,1.0970582,-1.4645141,116.0
24751,-1.3622687,-1.1405315,-0.781662,0.19116211,1.2414917,-2.0826051,116.0
24752,-1.8395709,-0.22977066,0.030563354,0.19116211,1.2414917,-2.0826051,116.0
24753,-1.8395709,-0.22977066,0.030563354,0.10938721,0.9547486,-2.3980224,116.0
24754,-1.6504775,1.1229706,0.21156311,0.10938721,0.9547486,-2.3980224,116.0
24755,-1.6504775,1.1229706,0.21156311,-0.48109132,1.2128174,-2.3077514,116.0
24756,-1.3774743,-0.13211632,-0.3435974,-0.48109132,1.2128174,-2.3077514,116.0
24757,-1.3774743,-0.13211632,-0.3435974,-0.6531372,1.1352905,-2.252527,116.0
24758,-1.7936299,-1.9771652,-0.10777283,-0.6531372,1.1352905,-2.252527,116.0
24759,-1.7936299,-1.9771652,-0.10777283,0.3334717,1.2000732,-2.8695557,116.0
24760,-2.2304606,-1.0583305,0.92837524,0.3334717,1.2000732,-2.8695557,116.0
24761,-2.2304606,-1.0583305,0.92837524,0.60959476,0.7508423,-3.2295778,116.0
24762,-1.7688167,0.79309464,1.3636932,0.60959476,0.7508423,-3.2295778,116.0
24763,-1.7688167,0.79309464,1.3636932,0.4163086,0.50445557,-3.3994997,116.0
24764,-0.89299524,0.3907013,0.5979767,0.4163086,0.50445557,-3.3994997,116.0
24765,-0.89299524,0.3907013,0.5979767,0.07115479,0.541626,-3.5641115,116.0
24766,-0.5868083,-1.6152458,-0.7159271,0.07115479,0.541626,-3.5641115,116.0
24767,-0.5868083,-1.6152458,-0.7159271,0.039294433,0.7476563,-3.2465699,116.0
24768,-0.93783045,-2.537716,-1.7853699,0.039294433,0.7476563,-3.2465699,116.0
24769,-0.93783045,-2.537716,-1.7853699,0.18691407,0.74871826,-2.913098,116.0
24770,-1.3857014,-1.5668545,-1.9553986,0.18691407,0.74871826,-2.913098,116.0
24771,-1.3857014,-1.5668545,-1.9553986,0.5564942,0.64570314,-2.9513307,116.0
24772,-1.8877604,-0.034721375,-1.1676483,0.5564942,0.64570314,-2.9513307,116.0
24773,-1.8877604,-0.034721375,-1.1676483,1.5112427,1.3434448,-3.1042602,116.0
24774,-2.329935,1.3816109,0.21098328,1.5112427,1.3434448,-3.1042602,116.0
24775,-2.329935,1.3816109,0.21098328,0.51932377,0.8995239,-2.8345094,116.0
24776,-2.0188675,1.8838291,1.1940918,0.51932377,0.8995239,-2.8345094,116.0
24777,-2.0188675,1.8838291,1.1940918,-1.0036011,0.29948732,-2.2896974,116.0
24778,-0.9875183,0.8794632,1.0359039,-1.0036011,0.29948732,-2.2896974,116.0
24779,-0.9875183,0.8794632,1.0359039,-0.9122681,-0.14230958,-1.9413575,116.0
24780,-0.3135743,-0.6922054,0.65045166,-0.9122681,-0.14230958,-1.9413575,116.0
24781,-0.3135743,-0.6922054,0.65045166,0.021240234,-0.16779785,-2.0826051,116.0
24782,-0.31903577,-2.5914345,1.3474731,0.021240234,-0.16779785,-2.0826051,116.0
24783,-0.31903577,-2.5914345,1.3474731,-0.27293703,0.44073486,-2.3958986,116.0
24784,-0.15985513,-4.377554,2.13443,-0.27293703,0.44073486,-2.3958986,116.0
24785,-0.15985513,-4.377554,2.13443,-0.40993652,0.12000733,-1.8255981,116.0
24786,1.1671231,-4.233757,0.8026428,-0.40993652,0.12000733,-1.8255981,116.0
24787,1.1671231,-4.233757,0.8026428,-1.1352905,-0.095581055,-1.9477295,116.0
24788,1.1671231,-4.233757,0.8026428,-1.1352905,-0.095581055,-1.9477295,107.0
24789,3.4589794,-1.1437321,-1.8103485,-1.1352905,-0.095581055,-1.9477295,107.0
24790,3.4589794,-1.1437321,-1.8103485,-1.7905518,-0.033984374,-2.5010376,107.0
24791,3.7263875,0.64762306,-2.902954,-1.7905518,-0.033984374,-2.5010376,107.0
24792,3.7263875,0.64762306,-2.902954,-2.6104248,-0.99298096,-1.8882569,107.0
24793,2.336237,-1.4709644,-2.527008,-2.6104248,-0.99298096,-1.8882569,107.0
24794,2.336237,-1.4709644,-2.527008,-1.9806519,-0.5140137,-2.6730835,107.0
24795,1.6773269,-3.8252583,-1.8392029,-1.9806519,-0.5140137,-2.6730835,107.0
24796,1.6773269,-3.8252583,-1.8392029,-1.4432739,-0.42799073,-1.899939,107.0
24797,1.0472326,-4.7799215,-0.9523926,-1.4432739,-0.42799073,-1.899939,107.0
24798,1.0472326,-4.7799215,-0.9523926,-1.6832886,-0.39613038,-1.8871949,107.0
24799,0.061711907,-4.7709465,-0.18164062,-1.6832886,-0.39613038,-1.8871949,107.0
24800,0.061711907,-4.7709465,-0.18164062,-2.0539308,-0.61702883,-2.2546508,107.0
24801,-0.69500303,-4.061081,0.72702026,-2.0539308,-0.61702883,-2.2546508,107.0
24802,-0.69500303,-4.061081,0.72702026,-2.0443726,-1.0269654,-2.2323487,107.0
24803,-0.77135885,-3.0736818,1.5256958,-2.0443726,-1.0269654,-2.2323487,107.0
24804,-0.77135885,-3.0736818,1.5256958,-2.263147,-1.6716064,-2.0411866,107.0
24805,-0.4753635,-2.0954447,1.2892303,-2.263147,-1.6716064,-2.0411866,107.0
24806,-0.4753635,-2.0954447,1.2892303,-2.535022,-2.3820922,-1.5335449,107.0
24807,-0.41658235,-1.4661751,0.22932434,-2.535022,-2.3820922,-1.5335449,107.0
24808,-0.41658235,-1.4661751,0.22932434,-2.795215,-2.803711,-0.3154175,107.0
24809,-0.29528975,-1.564908,-0.42121887,-2.795215,-2.803711,-0.3154175,107.0
24810,-0.29528975,-1.564908,-0.42121887,-3.25188,-3.2168336,1.0651978,107.0
24811,0.25786006,-1.8440409,-0.6100311,-3.25188,-3.2168336,1.0651978,107.0
24812,0.25786006,-1.8440409,-0.6100311,-3.0575318,-2.879114,2.9109743,107.0
24813,0.44340968,-2.1750746,-1.3483429,-3.0575318,-2.879114,2.9109743,107.0
24814,0.44340968,-2.1750746,-1.3483429,-2.1930542,-1.1214844,4.9351687,107.0
24815,-0.83577514,-2.459383,-2.5121918,-2.1930542,-1.1214844,4.9351687,107.0
24816,-0.83577514,-2.459383,-2.5121918,-2.4670532,0.544812,5.2070436,107.0
24817,-3.2377365,-1.6015644,-2.4671936,-2.4670532,0.544812,5.2070436,107.0
24818,-3.2377365,-1.6015644,-2.4671936,-1.8744507,0.814563,4.1259155,107.0
24819,-5.1432652,-0.48161793,-0.7687988,-1.8744507,0.814563,4.1259155,107.0
24820,-5.1432652,-0.48161793,-0.7687988,-0.5150757,0.2166504,4.5889525,107.0
24821,-4.902381,-0.5658488,0.8357086,-0.5150757,0.2166504,4.5889525,107.0
24822,-4.902381,-0.5658488,0.8357086,0.29205322,1.6535523,5.1868653,107.0
24823,-2.6863213,-0.91321373,1.0058594,0.29205322,1.6535523,5.1868653,107.0
24824,-2.6863213,-0.91321373,1.0058594,2.6550293,3.2115235,3.0394776,107.0
24825,-0.8960295,0.533833,-0.6739044,2.6550293,3.2115235,3.0394776,107.0
24826,-0.8960295,0.533833,-0.6739044,3.4175537,4.6537356,1.9848999,107.0
24827,-1.5728784,4.420414,-2.4157867,3.4175537,4.6537356,1.9848999,107.0
24828,-1.5728784,4.420414,-2.4157867,3.6989868,3.893335,1.3052124,107.0
24829,-3.448635,8.412846,-1.9639587,3.6989868,3.893335,1.3052124,107.0
24830,-3.448635,8.412846,-1.9639587,3.5779176,1.8266602,0.29630128,107.0
24831,-3.4348116,8.507547,-0.86898804,3.5779176,1.8266602,0.29630128,107.0
24832,-3.4348116,8.507547,-0.86898804,2.4351928,-0.07752686,-0.7072998,107.0
24833,-1.5086646,4.5489206,-1.2393951,2.4351928,-0.07752686,-0.7072998,107.0
24834,-1.5086646,4.5489206,-1.2393951,2.1484497,-0.77314454,-2.3990846,107.0
24835,0.9642353,1.2271252,-1.1586914,2.1484497,-0.77314454,-2.3990846,107.0
24836,0.9642353,1.2271252,-1.1586914,1.7788696,-1.5133667,-2.72937,107.0
24837,3.1963148,0.25556564,0.14724731,1.7788696,-1.5133667,-2.72937,107.0
24838,3.1963148,0.25556564,0.14724731,0.6669434,-2.0029542,-1.897815,107.0
24839,4.302621,-0.8447418,0.23674011,0.6669434,-2.0029542,-1.897815,107.0
24840,4.302621,-0.8447418,0.23674011,0.44816896,-1.4369019,-2.5615723,107.0
24841,3.9213204,-1.5316648,-0.24391174,0.44816896,-1.4369019,-2.5615723,107.0
24842,3.9213204,-1.5316648,-0.24391174,0.9515625,-0.8814697,-2.9109743,107.0
24843,2.6304522,-0.5894556,-1.5127716,0.9515625,-0.8814697,-2.9109743,107.0
24844,2.6304522,-0.5894556,-1.5127716,1.8372803,-0.5798584,-2.7654786,107.0
24845,2.35319,-0.120978355,-1.0578461,1.8372803,-0.5798584,-2.7654786,107.0
24846,2.35319,-0.120978355,-1.0578461,3.1977174,0.121069334,-2.8440673,107.0
24847,4.2294636,-0.687603,1.0211792,3.1977174,0.121069334,-2.8440673,107.0
24848,4.2294636,-0.687603,1.0211792,4.3691163,0.6180908,-2.3003175,107.0
24849,4.10945,-0.8873997,2.1763153,4.3691163,0.6180908,-2.3003175,107.0
24850,4.10945,-0.8873997,2.1763153,3.8561647,0.79226077,-2.1484497,107.0
24851,3.1069202,1.8622608,6.7407227,3.8561647,0.79226077,-2.1484497,107.0
24852,3.1069202,1.8622608,6.7407227,0.4895874,0.6966797,-1.5834595,107.0
24853,2.0279558,2.3915062,6.440796,0.4895874,0.6966797,-1.5834595,107.0
24854,2.0279558,2.3915062,6.440796,-0.5501221,0.59472656,-1.5792115,107.0
24855,-0.17890495,0.28025818,3.396408,-0.5501221,0.59472656,-1.5792115,107.0
24856,-0.17890495,0.28025818,3.396408,-1.5898316,0.1985962,-0.811377,107.0
24857,-0.79511374,-1.4119263,1.0974121,-1.5898316,0.1985962,-0.811377,107.0
24858,-0.79511374,-1.4119263,1.0974121,-1.1512207,0.25700685,-0.94731444,107.0
24859,-2.3409617,-3.440833,-1.6169128,-1.1512207,0.25700685,-0.94731444,107.0
24860,-2.3409617,-3.440833,-1.6169128,-0.7317261,0.62977296,-1.356189,107.0
24861,-1.8905427,-2.6460495,-1.3220215,-0.7317261,0.62977296,-1.356189,107.0
24862,-1.8905427,-2.6460495,-1.3220215,-0.9388184,0.8209351,-1.2776002,107.0
24863,-1.3274367,-1.0174751,0.4636078,-0.9388184,0.8209351,-1.2776002,107.0
24864,-1.3274367,-1.0174751,0.4636078,-1.364685,0.9855469,-1.354065,107.0
24865,-1.0566638,-0.8252716,0.7709198,-1.364685,0.9855469,-1.354065,107.0
24866,-1.0566638,-0.8252716,0.7709198,-1.364685,0.9324463,-1.3816773,107.0
24867,-1.4932802,-0.34888935,1.0549927,-1.364685,0.9324463,-1.3816773,107.0
24868,-1.4932802,-0.34888935,1.0549927,-1.5006226,0.80819094,-1.5133667,107.0
24869,-2.1191602,0.97740746,-0.24752808,-1.5006226,0.80819094,-1.5133667,107.0
24870,-2.1191602,0.97740746,-0.24752808,-2.5615723,0.5384399,-1.9742798,107.0
24871,-1.1713169,1.6287031,-3.908722,-2.5615723,0.5384399,-1.9742798,107.0
24872,-1.1713169,1.6287031,-3.908722,-2.6401613,0.4439209,-2.1091554,107.0
24873,0.1780467,0.24904442,-4.6274414,-2.6401613,0.4439209,-2.1091554,107.0
24874,0.1780467,0.24904442,-4.6274414,-2.1006591,0.4078125,-1.8394043,107.0
24875,2.2371273,-2.8353224,-5.7219543,-2.1006591,0.4078125,-1.8394043,107.0
24876,2.2371273,-2.8353224,-5.7219543,-1.2117554,0.17735596,-1.0216553,107.0
24877,2.9631758,-4.40162,-5.356659,-1.2117554,0.17735596,-1.0216553,107.0
24878,2.9631758,-4.40162,-5.356659,-0.10513916,0.22727051,-0.92501223,107.0
24879,2.438241,-3.4032173,-3.341217,-0.10513916,0.22727051,-0.92501223,107.0
24880,2.438241,-3.4032173,-3.341217,0.31010744,0.38869628,-1.2117554,107.0
24881,1.495173,-1.1257477,-0.51708984,0.31010744,0.38869628,-1.2117554,107.0
24882,1.495173,-1.1257477,-0.51708984,0.22089843,0.3451538,-1.2425537,107.0
24883,0.653426,0.3395996,1.0718536,0.22089843,0.3451538,-1.2425537,107.0
24884,0.653426,0.3395996,1.0718536,-0.5894165,0.3727661,-1.3965454,107.0
24885,0.653426,0.3395996,1.0718536,-0.5894165,0.3727661,-1.3965454,101.0
24886,0.06417149,0.20860577,1.1279144,-0.5894165,0.3727661,-1.3965454,101.0
24887,0.06417149,0.20860577,1.1279144,-1.0089111,0.29948732,-1.3285767,101.0
24888,0.01570487,-0.80367184,0.8353729,-1.0089111,0.29948732,-1.3285767,101.0
24889,0.01570487,-0.80367184,0.8353729,-0.7763306,0.31116945,-1.3243287,101.0
24890,0.5083281,-1.8462334,0.8973694,-0.7763306,0.31116945,-1.3243287,101.0
24891,0.5083281,-1.8462334,0.8973694,-0.48640138,0.22514649,-1.1501588,101.0
24892,1.0455419,-2.1341767,0.8139496,-0.48640138,0.22514649,-1.1501588,101.0
24893,1.0455419,-2.1341767,0.8139496,-0.5766724,0.1444336,-1.0174073,101.0
24894,1.1448563,-0.99686813,-0.18670654,-0.5766724,0.1444336,-1.0174073,101.0
24895,1.1448563,-0.99686813,-0.18670654,-0.76677245,0.18160401,-0.98129886,101.0
24896,0.9761268,0.7446804,-1.4595642,-0.76677245,0.18160401,-0.98129886,101.0
24897,0.9761268,0.7446804,-1.4595642,-0.56605226,0.26550293,-1.0354614,101.0
24898,0.89678276,1.34373,-1.770874,-0.56605226,0.26550293,-1.0354614,101.0
24899,0.89678276,1.34373,-1.770874,-0.452417,0.28780517,-0.7688965,101.0
24900,0.77520216,0.2166462,-0.9169464,-0.452417,0.28780517,-0.7688965,101.0
24901,0.77520216,0.2166462,-0.9169464,-0.4248047,0.2262085,-0.5798584,101.0
24902,0.2076739,-1.4420762,0.10940552,-0.4248047,0.2262085,-0.5798584,101.0
24903,0.2076739,-1.4420762,0.10940552,-0.4428589,0.21452637,-0.14124756,101.0
24904,-0.12593853,-2.0573354,0.3410492,-0.4428589,0.21452637,-0.14124756,101.0
24905,-0.12593853,-2.0573354,0.3410492,-0.14761963,0.23045655,-0.21134034,101.0
24906,0.28894645,-1.4270205,0.079589844,-0.14761963,0.23045655,-0.21134034,101.0
24907,0.28894645,-1.4270205,0.079589844,-0.07965088,0.1444336,-0.46728516,101.0
24908,0.6529101,-0.3767357,-0.2084198,-0.07965088,0.1444336,-0.46728516,101.0
24909,0.6529101,-0.3767357,-0.2084198,-0.2548828,0.07752686,-0.37382814,101.0
24910,0.59760886,0.47648048,-0.5489197,-0.2548828,0.07752686,-0.37382814,101.0
24911,0.59760886,0.47648048,-0.5489197,-0.32922363,0.2347046,-0.08496094,101.0
24912,0.30860472,0.54555225,-0.50105286,-0.32922363,0.2347046,-0.08496094,101.0
24913,0.30860472,0.54555225,-0.50105286,-0.26868898,0.0361084,-0.12531738,101.0
24914,0.116134286,-0.32165146,-0.04057312,-0.26868898,0.0361084,-0.12531738,101.0
24915,0.116134286,-0.32165146,-0.04057312,-0.028674318,-0.047790527,-0.1083252,101.0
24916,0.12913787,-1.0185637,0.009384155,-0.028674318,-0.047790527,-0.1083252,101.0
24917,0.12913787,-1.0185637,0.009384155,-0.115759276,-0.038232423,-0.09133301,101.0
24918,0.05915749,-0.5673046,-0.52059937,-0.115759276,-0.038232423,-0.09133301,101.0
24919,0.05915749,-0.5673046,-0.52059937,0.047790527,0.035046387,-0.23682861,101.0
24920,0.09540951,0.3190322,-0.69418335,0.047790527,0.035046387,-0.23682861,101.0
24921,0.09540951,0.3190322,-0.69418335,0.13381349,0.050976563,-0.10195313,101.0
24922,0.33525097,0.45904636,0.01512146,0.13381349,0.050976563,-0.10195313,101.0
24923,0.33525097,0.45904636,0.01512146,0.14549561,-0.059472658,-0.07115479,101.0
24924,0.33798838,0.07579422,0.45594788,0.14549561,-0.059472658,-0.07115479,101.0
24925,0.33798838,0.07579422,0.45594788,-0.050976563,-0.12531738,0.004248047,101.0
24926,-0.0062451363,-0.09218407,0.011962891,-0.050976563,-0.12531738,0.004248047,101.0
24927,-0.0062451363,-0.09218407,0.011962891,0.2984253,-0.098767094,-0.026550293,101.0
24928,-0.38308454,-0.13303709,-0.22732544,0.2984253,-0.098767094,-0.026550293,101.0
24929,-0.38308454,-0.13303709,-0.22732544,0.32922363,-0.12319336,0.029736329,101.0
24930,-0.24266148,-0.5351653,0.18858337,0.32922363,-0.12319336,0.029736329,101.0
24931,-0.24266148,-0.5351653,0.18858337,0.18266602,-0.14230958,-0.090270996,101.0
24932,0.031908393,-0.67051506,0.41279602,0.18266602,-0.14230958,-0.090270996,101.0
24933,0.031908393,-0.67051506,0.41279602,0.020178223,-0.19222413,-0.18372802,101.0
24934,0.06056094,0.050209045,-0.25456238,0.020178223,-0.19222413,-0.18372802,101.0
24935,0.06056094,0.050209045,-0.25456238,0.0180542,0.07752686,-0.29311523,101.0
24936,0.43801177,0.82233286,-0.7583008,0.0180542,0.07752686,-0.29311523,101.0
24937,0.43801177,0.82233286,-0.7583008,0.083898924,0.14974366,-0.15823975,101.0
24938,0.6720159,0.71613026,-0.04624939,0.083898924,0.14974366,-0.15823975,101.0
24939,0.6720159,0.71613026,-0.04624939,-0.20603028,0.07327881,-0.050976563,101.0
24940,0.14035928,4.4345856E-4,0.70877075,-0.20603028,0.07327881,-0.050976563,101.0
24941,0.14035928,4.4345856E-4,0.70877075,-0.04460449,-0.06265869,0.028674318,101.0
24942,-0.54204607,-0.13782883,0.53419495,-0.04460449,-0.06265869,0.028674318,101.0
24943,-0.54204607,-0.13782883,0.53419495,0.23364258,0.016992187,-0.06265869,101.0
24944,-0.6941228,0.24075031,0.15213013,0.23364258,0.016992187,-0.06265869,101.0
24945,-0.6941228,0.24075031,0.15213013,0.08283692,0.04885254,-0.06690674,101.0
24946,-0.35463905,-0.052785397,0.34638977,0.08283692,0.04885254,-0.06690674,101.0
24947,-0.35463905,-0.052785397,0.34638977,-0.13275146,0.0053100586,-0.087084964,101.0
24948,-0.15899205,-0.50424004,0.5400543,-0.13275146,0.0053100586,-0.087084964,101.0
24949,-0.15899205,-0.50424004,0.5400543,-0.21134034,-0.05522461,-0.18903808,101.0
24950,0.14752555,-0.4177599,-1.129242,-0.21134034,-0.05522461,-0.18903808,101.0
24951,0.14752555,-0.4177599,-1.129242,-0.24532472,0.11682129,-0.2793091,101.0
24952,1.5115995,0.06878281,-2.2883606,-0.24532472,0.11682129,-0.2793091,101.0
24953,1.5115995,0.06878281,-2.2883606,0.27718505,0.0021240234,0.14018555,101.0
24954,1.5350121,0.5865202,-0.46043396,0.27718505,0.0021240234,0.14018555,101.0
24955,1.5350121,0.5865202,-0.46043396,-0.059472658,0.08920898,-0.2899292,101.0
24956,1.124201,0.10521507,0.7055359,-0.059472658,0.08920898,-0.2899292,101.0
24957,1.124201,0.10521507,0.7055359,-0.043542482,0.18797608,-0.17416993,101.0
24958,1.3955767,-0.24357462,0.29464722,-0.043542482,0.18797608,-0.17416993,101.0
24959,1.3955767,-0.24357462,0.29464722,0.095581055,0.32922363,0.0031860352,101.0
24960,0.6819155,-0.052208424,0.2449646,0.095581055,0.32922363,0.0031860352,101.0
24961,0.6819155,-0.052208424,0.2449646,-0.10938721,0.1274414,0.09133301,101.0
24962,-0.4385376,-0.3734684,0.6735077,-0.10938721,0.1274414,0.09133301,101.0
24963,-0.4385376,-0.3734684,0.6735077,-0.13699952,0.10301514,-0.15080567,101.0
24964,-1.6124024,-0.45094776,0.83709717,-0.13699952,0.10301514,-0.15080567,101.0
24965,-1.6124024,-0.45094776,0.83709717,-0.10089111,-0.016992187,-0.18054199,101.0
24966,-1.6131275,-0.03232813,0.43580627,-0.10089111,-0.016992187,-0.18054199,101.0
24967,-1.6131275,-0.03232813,0.43580627,-0.090270996,0.015930176,-0.4067505,101.0
24968,-0.76292634,0.20641279,0.22218323,-0.090270996,0.015930176,-0.4067505,101.0
24969,-0.76292634,0.20641279,0.22218323,0.12213135,-0.118945315,-0.14018555,101.0
24970,-0.30841243,-0.045392036,0.5871277,0.12213135,-0.118945315,-0.14018555,101.0
24971,-0.30841243,-0.045392036,0.5871277,0.09664307,-0.22302246,-0.41843262,101.0
24972,-0.1874038,-0.34953403,0.7340698,0.09664307,-0.22302246,-0.41843262,101.0
24973,-0.1874038,-0.34953403,0.7340698,0.20921631,-0.37489015,-0.39082032,101.0
24974,0.2011267,-0.24596024,0.33448792,0.20921631,-0.37489015,-0.39082032,101.0
24975,0.2011267,-0.24596024,0.33448792,0.3079834,-0.50233155,-0.46622315,101.0
24976,0.60891163,0.1714201,-0.30204773,0.3079834,-0.50233155,-0.46622315,101.0
24977,0.60891163,0.1714201,-0.30204773,0.5564942,-0.51082766,-0.31966552,101.0
24978,0.6096879,0.44123745,-0.724411,0.5564942,-0.51082766,-0.31966552,101.0
24979,0.6096879,0.44123745,-0.724411,0.48746338,-0.4428589,-0.4439209,101.0
24980,0.56356823,0.3542347,-0.8119049,0.48746338,-0.4428589,-0.4439209,101.0
24981,0.56356823,0.3542347,-0.8119049,0.29523927,-0.42161867,-0.31329346,101.0
24982,0.67213154,0.28535318,-0.6760864,0.29523927,-0.42161867,-0.31329346,101.0
24983,0.67213154,0.28535318,-0.6760864,0.1444336,-0.30479738,-0.15186767,101.0
24984,0.540586,0.54179573,-0.40029907,0.1444336,-0.30479738,-0.15186767,101.0
24985,0.540586,0.54179573,-0.40029907,0.12000733,-0.22939454,-0.08496094,101.0
24986,0.14383364,0.74360466,0.061203003,0.12000733,-0.22939454,-0.08496094,101.0
24987,0.14383364,0.74360466,0.061203003,-0.13699952,-0.17841797,-0.059472658,101.0
24988,-0.05385399,0.6306505,0.47322083,-0.13699952,-0.17841797,-0.059472658,101.0
24989,-0.05385399,0.6306505,0.47322083,-0.23789063,-0.19541016,0.007434082,101.0
24990,0.07558131,0.356205,0.5369568,-0.23789063,-0.19541016,0.007434082,101.0
24991,0.07558131,0.356205,0.5369568,-0.11044922,-0.2166504,0.11257324,101.0
24992,0.2220006,0.17647982,0.3113098,-0.11044922,-0.2166504,0.11257324,101.0
24993,0.2220006,0.17647982,0.3113098,-0.011682129,-0.16992188,0.18160401,101.0
24994,0.13812304,0.06607437,-0.023406982,-0.011682129,-0.16992188,0.18160401,101.0
24995,0.13812304,0.06607437,-0.023406982,-0.06584473,-0.20496826,0.20390625,101.0
24996,0.13812304,0.06607437,-0.023406982,-0.06584473,-0.20496826,0.20390625,95.0
24997,0.011755705,-0.17417908,-0.20632935,-0.06584473,-0.20496826,0.20390625,95.0
24998,0.011755705,-0.17417908,-0.20632935,0.07115479,-0.19222413,0.22196046,95.0
24999,-0.048163652,-0.49816895,0.094696045,0.07115479,-0.19222413,0.22196046,95.0
25000,-0.048163652,-0.49816895,0.094696045,0.25594482,-0.23789063,0.2888672,95.0
25001,-0.060564518,-0.54052734,0.7221985,0.25594482,-0.23789063,0.2888672,95.0
25002,-0.060564518,-0.54052734,0.7221985,0.37701416,-0.22089843,0.32072756,95.0
25003,-0.09015083,-0.121313095,1.0254974,0.37701416,-0.22089843,0.32072756,95.0
25004,-0.09015083,-0.121313095,1.0254974,0.4056885,-0.19222413,0.35471192,95.0
25005,-0.25234532,0.116743565,0.8418274,0.4056885,-0.19222413,0.35471192,95.0
25006,-0.25234532,0.116743565,0.8418274,0.31010744,-0.35046387,0.31223145,95.0
25007,-0.3423791,-0.7532606,0.825058,0.31010744,-0.35046387,0.31223145,95.0
25008,-0.3423791,-0.7532606,0.825058,1.0949341,-0.7168579,0.45560303,95.0
25009,-0.16998482,-2.073556,1.0914154,1.0949341,-0.7168579,0.45560303,95.0
25010,-0.16998482,-2.073556,1.0914154,1.9371094,-0.5161377,0.59472656,95.0
25011,-0.008741856,-1.9015694,0.9385376,1.9371094,-0.5161377,0.59472656,95.0
25012,-0.008741856,-1.9015694,0.9385376,2.35448,-0.121069334,0.96430665,95.0
25013,-0.04875374,0.34438133,-0.024368286,2.35448,-0.121069334,0.96430665,95.0
25014,-0.04875374,0.34438133,-0.024368286,1.9572877,0.40250245,0.9717407,95.0
25015,-0.6451919,2.919011,-1.0,1.9572877,0.40250245,0.9717407,95.0
25016,-0.6451919,2.919011,-1.0,0.9133301,0.47365722,1.4836304,95.0
25017,-1.7152869,3.2153234,-1.0700836,0.9133301,0.47365722,1.4836304,95.0
25018,-1.7152869,3.2153234,-1.0700836,0.0361084,-0.070092775,1.897815,95.0
25019,-2.2906256,1.7818165,-0.4348755,0.0361084,-0.070092775,1.897815,95.0
25020,-2.2906256,1.7818165,-0.4348755,0.46516114,-0.48215333,1.6875366,95.0
25021,-1.8073418,1.146925,0.47673035,0.46516114,-0.48215333,1.6875366,95.0
25022,-1.8073418,1.146925,0.47673035,0.5214478,-0.5787964,1.3838013,95.0
25023,-0.8322016,1.2811995,1.4858246,0.5214478,-0.5787964,1.3838013,95.0
25024,-0.8322016,1.2811995,1.4858246,0.43967286,-0.96643066,1.1023682,95.0
25025,0.217332,1.0915127,2.2323914,0.43967286,-0.96643066,1.1023682,95.0
25026,0.217332,1.0915127,2.2323914,0.79332274,-0.8230591,0.996167,95.0
25027,1.1239877,1.0966845,2.4229584,0.79332274,-0.8230591,0.996167,95.0
25028,1.1239877,1.0966845,2.4229584,0.92501223,-0.18054199,0.903772,95.0
25029,1.3103473,1.2108679,1.8345795,0.92501223,-0.18054199,0.903772,95.0
25030,1.3103473,1.2108679,1.8345795,0.04991455,-0.16673584,0.8464233,95.0
25031,0.60660315,0.6004572,0.65008545,0.04991455,-0.16673584,0.8464233,95.0
25032,0.60660315,0.6004572,0.65008545,-0.16885987,-0.32391357,0.99935305,95.0
25033,-0.32542306,-0.18334293,-0.20864868,-0.16885987,-0.32391357,0.99935305,95.0
25034,-0.32542306,-0.18334293,-0.20864868,0.14230958,-0.26975098,1.3094605,95.0
25035,-0.9992178,-0.31825638,-0.28050232,0.14230958,-0.26975098,1.3094605,95.0
25036,-0.9992178,-0.31825638,-0.28050232,0.53737795,-0.2357666,1.2436157,95.0
25037,-1.3888518,0.2778778,-0.013671875,0.53737795,-0.2357666,1.2436157,95.0
25038,-1.3888518,0.2778778,-0.013671875,0.21240234,-0.10407715,0.98873293,95.0
25039,-1.4796728,0.83029747,0.029693604,0.21240234,-0.10407715,0.98873293,95.0
25040,-1.4796728,0.83029747,0.029693604,-0.3440918,-0.4630371,0.81243896,95.0
25041,-1.1539775,0.12478447,-0.62153625,-0.3440918,-0.4630371,0.81243896,95.0
25042,-1.1539775,0.12478447,-0.62153625,0.040356446,-0.76358646,1.0694458,95.0
25043,-0.37898034,-1.2144547,-1.3477783,0.040356446,-0.76358646,1.0694458,95.0
25044,-0.37898034,-1.2144547,-1.3477783,0.63720703,-0.39613038,1.0779419,95.0
25045,0.22923762,-0.86002827,-0.36219788,0.63720703,-0.39613038,1.0779419,95.0
25046,0.22923762,-0.86002827,-0.36219788,1.2797241,0.08602295,1.075818,95.0
25047,-0.25395122,0.5781765,1.2208405,1.2797241,0.08602295,1.075818,95.0
25048,-0.25395122,0.5781765,1.2208405,0.727478,0.07965088,0.85385746,95.0
25049,-2.1409416,0.7127733,0.30366516,0.727478,0.07965088,0.85385746,95.0
25050,-2.1409416,0.7127733,0.30366516,1.1267945,-0.37489015,1.0312134,95.0
25051,-3.396933,-0.042256355,-1.4864807,1.1267945,-0.37489015,1.0312134,95.0
25052,-3.396933,-0.042256355,-1.4864807,2.6635253,-1.002539,0.49383545,95.0
25053,-1.5866504,0.20089912,-0.9906616,2.6635253,-1.002539,0.49383545,95.0
25054,-1.5866504,0.20089912,-0.9906616,2.0263183,-1.4199097,0.2538208,95.0
25055,0.89562106,0.9878187,-0.3266449,2.0263183,-1.4199097,0.2538208,95.0
25056,0.89562106,0.9878187,-0.3266449,3.1371827,-1.3062744,0.24744873,95.0
25057,1.1593558,0.9013386,-0.41511536,3.1371827,-1.3062744,0.24744873,95.0
25058,1.1593558,0.9013386,-0.41511536,5.2070436,-1.1289185,0.012744141,95.0
25059,0.944721,1.8429699,0.65193176,5.2070436,-1.1289185,0.012744141,95.0
25060,0.944721,1.8429699,0.65193176,5.0732303,-1.8383423,-0.64995116,95.0
25061,1.9263823,4.9071636,2.396408,5.0732303,-1.8383423,-0.64995116,95.0
25062,1.9263823,4.9071636,2.396408,4.1237917,-1.717273,-0.42055663,95.0
25063,3.4261034,5.9862785,3.9489899,4.1237917,-1.717273,-0.42055663,95.0
25064,3.4261034,5.9862785,3.9489899,3.1435547,-1.0280274,-0.09451904,95.0
25065,5.0900774,3.3801975,7.0523834,3.1435547,-1.0280274,-0.09451904,95.0
25066,5.0900774,3.3801975,7.0523834,2.536084,1.2319336,-0.078588866,95.0
25067,4.596781,3.645527,8.527466,2.536084,1.2319336,-0.078588866,95.0
25068,4.596781,3.645527,8.527466,-0.022302246,0.4354248,0.07327881,95.0
25069,0.9803791,5.3933144,4.1404724,-0.022302246,0.4354248,0.07327881,95.0
25070,0.9803791,5.3933144,4.1404724,-2.907788,-0.38551027,-0.24957275,95.0
25071,-1.3894274,1.1052513,-1.9292908,-2.907788,-0.38551027,-0.24957275,95.0
25072,-1.3894274,1.1052513,-1.9292908,-1.2765381,-0.16992188,0.77526855,95.0
25073,-0.99773574,-3.1967926,-3.7391205,-1.2765381,-0.16992188,0.77526855,95.0
25074,-0.99773574,-3.1967926,-3.7391205,1.3264526,0.28568116,-0.36427003,95.0
25075,-0.5550122,-0.71210957,-1.8770294,1.3264526,0.28568116,-0.36427003,95.0
25076,-0.5550122,-0.71210957,-1.8770294,-0.48109132,0.26868898,0.019116212,95.0
25077,-1.5096959,1.6769924,-0.1709137,-0.48109132,0.26868898,0.019116212,95.0
25078,-1.5096959,1.6769924,-0.1709137,-1.2117554,-0.20390625,0.3525879,95.0
25079,-1.3694267,-1.1626778,0.59028625,-1.2117554,-0.20390625,0.3525879,95.0
25080,-1.3694267,-1.1626778,0.59028625,0.1263794,-0.25594482,0.20603028,95.0
25081,0.35210276,-2.3730373,0.34500122,0.1263794,-0.25594482,0.20603028,95.0
25082,0.35210276,-2.3730373,0.34500122,-0.087084964,0.078588866,-0.23045655,95.0
25083,0.84170413,-0.5394821,-0.33755493,-0.087084964,0.078588866,-0.23045655,95.0
25084,0.84170413,-0.5394821,-0.33755493,-0.59897465,0.1985962,0.13806152,95.0
25085,-0.19633889,-0.42025757,-0.7733917,-0.59897465,0.1985962,0.13806152,95.0
25086,-0.19633889,-0.42025757,-0.7733917,-0.24320069,0.15080567,0.03717041,95.0
25087,-0.91926587,-0.8132572,-0.57637024,-0.24320069,0.15080567,0.03717041,95.0
25088,-0.91926587,-0.8132572,-0.57637024,0.2081543,0.053100586,0.107263185,95.0
25089,-0.4617555,0.06305313,-0.25764465,0.2081543,0.053100586,0.107263185,95.0
25090,-0.4617555,0.06305313,-0.25764465,-0.16673584,0.04885254,0.08920898,95.0
25091,0.24860096,0.53418255,-0.18234253,-0.16673584,0.04885254,0.08920898,95.0
25092,0.24860096,0.53418255,-0.18234253,-0.07752686,0.1539917,0.2516968,95.0
25093,0.5592079,0.0962677,0.01373291,-0.07752686,0.1539917,0.2516968,95.0
25094,0.5592079,0.0962677,0.01373291,0.06265869,0.22196046,0.27293703,95.0
25095,0.42503977,0.19281006,0.38887024,0.06265869,0.22196046,0.27293703,95.0
25096,0.42503977,0.19281006,0.38887024,-0.12319336,0.40462646,0.49277344,95.0
25097,-0.080353975,0.41975117,0.61001587,-0.12319336,0.40462646,0.49277344,95.0
25098,-0.080353975,0.41975117,0.61001587,-0.4088745,0.38657227,0.6000366,95.0
25099,-0.6456431,0.009799957,0.06846619,-0.4088745,0.38657227,0.6000366,95.0
25100,-0.6456431,0.009799957,0.06846619,-0.6287109,0.41206056,0.5564942,95.0
25101,-0.92184895,-0.46058083,-0.75616455,-0.6287109,0.41206056,0.5564942,95.0
25102,-0.92184895,-0.46058083,-0.75616455,-0.13062744,0.5129517,0.63826907,95.0
25103,-0.6680944,-0.21730423,-0.62205505,-0.13062744,0.5129517,0.63826907,95.0
25104,-0.6680944,-0.21730423,-0.62205505,0.045666505,0.7051758,0.65207523,95.0
25105,-0.0033231974,0.63846207,0.7188721,0.045666505,0.7051758,0.65207523,95.0
25106,-0.0033231974,0.63846207,0.7188721,-0.059472658,1.264856,0.9154541,95.0
25107,0.12009537,1.350626,2.2561035,-0.059472658,1.264856,0.9154541,95.0
25108,0.12009537,1.350626,2.2561035,-0.059472658,1.264856,0.9154541,91.0
25109,0.12009537,1.350626,2.2561035,-0.64570314,1.6153198,1.0673218,91.0
25110,-0.4733451,1.3029861,2.6335907,-0.64570314,1.6153198,1.0673218,91.0
25111,-0.4733451,1.3029861,2.6335907,-1.5632813,2.3066895,1.1267945,91.0
25112,-0.7288714,0.6347103,1.8149872,-1.5632813,2.3066895,1.1267945,91.0
25113,-0.7288714,0.6347103,1.8149872,-2.4755495,3.0968263,1.1629028,91.0
25114,-0.4070351,0.1818161,0.8866272,-2.4755495,3.0968263,1.1629028,91.0
25115,-0.4070351,0.1818161,0.8866272,-2.9279664,3.169043,1.3158325,91.0
25116,-0.22875309,0.347723,0.0050811768,-2.9279664,3.169043,1.3158325,91.0
25117,-0.22875309,0.347723,0.0050811768,-3.4196777,2.552014,1.4092896,91.0
25118,-1.3855294,1.5738564,-2.58667,-3.4196777,2.552014,1.4092896,91.0
25119,-1.3855294,1.5738564,-2.58667,-5.7837157,-0.9568726,2.0433106,91.0
25120,-2.9342537,2.4664574,-7.189865,-5.7837157,-0.9568726,2.0433106,91.0
25121,-2.9342537,2.4664574,-7.189865,-6.4612794,-2.709192,3.4271119,91.0
25122,-1.8483183,-1.7205486,-8.925751,-6.4612794,-2.709192,3.4271119,91.0
25123,-1.8483183,-1.7205486,-8.925751,0.36533204,-1.8702027,3.265686,91.0
25124,1.5646193,-5.3545523,-6.0864563,0.36533204,-1.8702027,3.265686,91.0
25125,1.5646193,-5.3545523,-6.0864563,2.797339,-0.93350834,2.7835329,91.0
25126,3.755199,-0.50469875,-2.650467,2.797339,-0.93350834,2.7835329,91.0
25127,3.755199,-0.50469875,-2.650467,1.7650635,1.3211426,3.8274903,91.0
25128,1.9331632,5.491663,-0.1960144,1.7650635,1.3211426,3.8274903,91.0
25129,1.9331632,5.491663,-0.1960144,1.2563599,1.9944581,5.904785,91.0
25130,-1.924246,6.2219067,1.4876251,1.2563599,1.9944581,5.904785,91.0
25131,-1.924246,6.2219067,1.4876251,1.2170655,1.9519776,5.3737793,91.0
25132,-3.9862962,5.001684,1.8905487,1.2170655,1.9519776,5.3737793,91.0
25133,-3.9862962,5.001684,1.8905487,0.8814697,2.8408813,4.500806,91.0
25134,-4.575951,4.4943905,0.9721527,0.8814697,2.8408813,4.500806,91.0
25135,-4.575951,4.4943905,0.9721527,0.22196046,3.3145387,3.8179321,91.0
25136,-5.620209,3.4587936,-0.3950348,0.22196046,3.3145387,3.8179321,91.0
25137,-5.620209,3.4587936,-0.3950348,0.42374268,3.1414306,4.393543,91.0
25138,-7.431861,2.1380558,-0.8622894,0.42374268,3.1414306,4.393543,91.0
25139,-7.431861,2.1380558,-0.8622894,0.5256958,2.9460206,2.6592774,91.0
25140,-7.431861,2.1380558,-0.8622894,-0.79969484,2.6104248,0.72960204,91.0
25141,-8.624676,2.374714,-0.54034424,-0.79969484,2.6104248,0.72960204,91.0
25142,-7.8672943,2.9486732,-0.63864136,-0.79969484,2.6104248,0.72960204,91.0
25143,-7.8672943,2.9486732,-0.63864136,-2.2196045,1.9371094,-0.18372802,91.0
25144,-5.848523,2.135891,-1.1862183,-2.2196045,1.9371094,-0.18372802,91.0
25145,-5.848523,2.135891,-1.1862183,-1.7778076,1.1469727,-0.6690674,91.0
25146,-4.1367283,0.7627411,-1.5892639,-1.7778076,1.1469727,-0.6690674,91.0
25147,-4.1367283,0.7627411,-1.5892639,-1.2287476,0.41312256,-1.0482056,91.0
25148,-3.2950878,-0.45212555,-1.8761444,-1.2287476,0.41312256,-1.0482056,91.0
25149,-3.2950878,-0.45212555,-1.8761444,-1.6694825,-0.16461182,-1.4305298,91.0
25150,-2.6925163,-1.8476028,-2.1420593,-1.6694825,-0.16461182,-1.4305298,91.0
25151,-2.6925163,-1.8476028,-2.1420593,-2.3449218,-0.63720703,-1.7640015,91.0
25152,-1.78757,-3.4758835,-2.0499725,-2.3449218,-0.63720703,-1.7640015,91.0
25153,-1.78757,-3.4758835,-2.0499725,-2.0358765,-1.2372437,-1.9562256,91.0
25154,-1.0119648,-4.4737625,-1.191452,-2.0358765,-1.2372437,-1.9562256,91.0
25155,-1.0119648,-4.4737625,-1.191452,-1.0036011,-1.7873658,-1.8574585,91.0
25156,-0.5547743,-4.2125072,0.44352722,-1.0036011,-1.7873658,-1.8574585,91.0
25157,-0.5547743,-4.2125072,0.44352722,-0.70092773,-2.5127199,-1.2361816,91.0
25158,0.11621475,-4.059593,1.9844208,-0.70092773,-2.5127199,-1.2361816,91.0
25159,0.11621475,-4.059593,1.9844208,1.2945923,-3.3994997,-0.7858887,91.0
25160,1.1949368,-4.9874935,2.0800781,1.2945923,-3.3994997,-0.7858887,91.0
25161,1.1949368,-4.9874935,2.0800781,2.9035401,-3.705359,0.046728518,91.0
25162,2.2317677,-5.742008,1.2496185,2.9035401,-3.705359,0.046728518,91.0
25163,2.2317677,-5.742008,1.2496185,1.8479004,-3.439856,0.1263794,91.0
25164,2.785304,-4.481802,0.8638916,1.8479004,-3.439856,0.1263794,91.0
25165,2.785304,-4.481802,0.8638916,2.2302246,-3.1000123,-0.09451904,91.0
25166,3.2296963,-1.7694263,0.9093933,2.2302246,-3.1000123,-0.09451904,91.0
25167,3.2296963,-1.7694263,0.9093933,3.070276,-3.4249878,0.9228882,91.0
25168,3.972271,-0.045692444,1.0896301,3.070276,-3.4249878,0.9228882,91.0
25169,3.972271,-0.045692444,1.0896301,3.0373535,-2.9407105,1.5866455,91.0
25170,4.376999,0.22644615,1.741684,3.0373535,-2.9407105,1.5866455,91.0
25171,4.376999,0.22644615,1.741684,2.897168,-2.1548219,1.6493043,91.0
25172,4.0021725,0.011442184,3.0214233,2.897168,-2.1548219,1.6493043,91.0
25173,4.0021725,0.011442184,3.0214233,2.526526,-2.1973023,1.2999023,91.0
25174,3.8069868,0.5502796,3.9601593,2.526526,-2.1973023,1.2999023,91.0
25175,3.8069868,0.5502796,3.9601593,2.352356,-2.0974731,1.6726685,91.0
25176,3.8069868,0.5502796,3.9601593,2.352356,-2.0974731,1.6726685,91.0
25177,4.8699546,1.5833759,3.8299713,2.352356,-2.0974731,1.6726685,91.0
25178,4.8699546,1.5833759,3.8299713,1.8309082,-0.6265869,2.0135744,91.0
25179,5.9052534,2.5613785,3.0256805,1.8309082,-0.6265869,2.0135744,91.0
25180,5.9052534,2.5613785,3.0256805,1.9827759,0.40144044,2.1431396,91.0
25181,4.7211018,2.951702,1.7025604,1.9827759,0.40144044,2.1431396,91.0
25182,4.7211018,2.951702,1.7025604,2.0125122,-0.23895264,2.1463258,91.0
25183,2.5835712,2.8711033,-0.21783447,2.0125122,-0.23895264,2.1463258,91.0
25184,2.5835712,2.8711033,-0.21783447,1.4645141,-0.542688,2.0645509,91.0
25185,1.7147086,3.5244713,-1.7767181,1.4645141,-0.542688,2.0645509,91.0
25186,1.7147086,3.5244713,-1.7767181,1.4432739,-0.35577393,1.7831177,91.0
25187,1.8109758,4.8152313,-2.0095825,1.4432739,-0.35577393,1.7831177,91.0
25188,1.8109758,4.8152313,-2.0095825,1.2191895,-0.053100586,1.540979,91.0
25189,1.6550672,5.3623657,-1.4278717,1.2191895,-0.053100586,1.540979,91.0
25190,1.6550672,5.3623657,-1.4278717,0.5533081,-0.13275146,1.7109009,91.0
25191,0.80966175,4.639038,-1.0569458,0.5533081,-0.13275146,1.7109009,91.0
25192,0.80966175,4.639038,-1.0569458,-0.26125488,-0.22514649,1.9551636,91.0
25193,0.15596914,3.1807976,-0.95347595,-0.26125488,-0.22514649,1.9551636,91.0
25194,0.15596914,3.1807976,-0.95347595,-0.48321533,-0.2782471,1.7671875,91.0
25195,0.38744628,1.8990707,-0.8113556,-0.48321533,-0.2782471,1.7671875,91.0
25196,0.38744628,1.8990707,-0.8113556,-0.3462158,-0.18479005,1.7863038,91.0
25197,0.7882651,1.1304493,-0.3617401,-0.3462158,-0.18479005,1.7863038,91.0
25198,0.7882651,1.1304493,-0.3617401,-0.16779785,-0.11257324,1.8829468,91.0
25199,0.8607025,0.37206078,0.48106384,-0.16779785,-0.11257324,1.8829468,91.0
25200,0.8607025,0.37206078,0.48106384,-0.16885987,-0.542688,1.9976441,91.0
25201,1.0698731,-0.25967598,1.1795654,-0.16885987,-0.542688,1.9976441,91.0
25202,1.0698731,-0.25967598,1.1795654,0.32603762,-0.1720459,1.8500245,91.0
25203,1.249856,0.04752159,1.3592072,0.32603762,-0.1720459,1.8500245,91.0
25204,1.249856,0.04752159,1.3592072,0.48427734,0.013806152,1.8542725,91.0
25205,1.1139717,0.7384186,0.99263,0.48427734,0.013806152,1.8542725,91.0
25206,1.1139717,0.7384186,0.99263,0.31435546,-0.14974366,1.814978,91.0
25207,1.1689606,0.7260628,0.21063232,0.31435546,-0.14974366,1.814978,91.0
25208,1.1689606,0.7260628,0.21063232,0.48321533,-0.27718505,1.897815,91.0
25209,1.5900636,0.6113548,-0.46842957,0.48321533,-0.27718505,1.897815,91.0
25210,1.5900636,0.6113548,-0.46842957,0.6616333,-0.21558838,1.809668,91.0
25211,1.8749195,1.0436249,-0.41101074,0.6616333,-0.21558838,1.809668,91.0
25212,1.8749195,1.0436249,-0.41101074,0.5649902,-0.24638672,1.6928467,91.0
25213,1.7215787,1.2684193,0.5029602,0.5649902,-0.24638672,1.6928467,91.0
25214,1.7215787,1.2684193,0.5029602,0.4800293,-0.5299439,1.5643433,91.0
25215,1.4041917,1.0352173,1.4035797,0.4800293,-0.5299439,1.5643433,91.0
25216,1.4041917,1.0352173,1.4035797,0.5033936,-0.6435791,1.3954834,91.0
25217,1.0456557,0.90382004,1.2582092,0.5033936,-0.6435791,1.3954834,91.0
25218,1.0456557,0.90382004,1.2582092,0.4067505,-0.814563,1.5048707,91.0
25219,0.72054553,0.72766876,0.18908691,0.4067505,-0.814563,1.5048707,91.0
25220,0.72054553,0.72766876,0.18908691,0.3462158,-0.9855469,1.5069946,91.0
25221,0.8253012,0.19719887,-1.0475159,0.3462158,-0.9855469,1.5069946,91.0
25222,0.8253012,0.19719887,-1.0475159,0.4959595,-0.98129886,1.4379638,91.0
25223,1.2041986,-0.15254402,-1.7943573,0.4959595,-0.98129886,1.4379638,91.0
25224,1.2041986,-0.15254402,-1.7943573,0.53950197,-0.7678345,1.3859253,91.0
25225,1.3949995,0.04537201,-1.7565918,0.53950197,-0.7678345,1.3859253,91.0
25226,1.3949995,0.04537201,-1.7565918,0.37595215,-0.6977417,1.1926392,91.0
25227,1.5159507,-0.073675156,-1.1322784,0.37595215,-0.6977417,1.1926392,91.0
25228,1.5159507,-0.073675156,-1.1322784,0.30267334,-0.7975708,1.1629028,91.0
25229,1.7700114,-0.9248829,-0.55352783,0.30267334,-0.7975708,1.1629028,91.0
25230,1.7700114,-0.9248829,-0.55352783,0.29736328,-0.67437744,1.2319336,91.0
25231,1.7522154,-1.3900661,-0.50497437,0.29736328,-0.67437744,1.2319336,91.0
25232,1.7522154,-1.3900661,-0.50497437,0.3971924,-0.3079834,1.3200806,91.0
25233,1.2761865,-1.0584259,-0.72839355,0.3971924,-0.3079834,1.3200806,91.0
25234,1.2761865,-1.0584259,-0.72839355,0.5703003,-0.2166504,1.2191895,91.0
25235,1.1930804,-0.49991608,-0.6417084,0.5703003,-0.2166504,1.2191895,91.0
25236,1.1930804,-0.49991608,-0.6417084,0.5692383,-0.12850343,1.1639649,91.0
25237,1.5707855,0.261055,-0.27920532,0.5692383,-0.12850343,1.1639649,91.0
25238,1.5707855,0.261055,-0.27920532,0.44073486,0.14655761,1.0567017,91.0
25239,1.3913574,0.95464516,-0.19087219,0.44073486,0.14655761,1.0567017,91.0
25240,1.3913574,0.95464516,-0.19087219,0.33134767,0.1359375,1.0120972,91.0
25241,0.8622556,0.9718704,-0.17816162,0.33134767,0.1359375,1.0120972,91.0
25242,0.8622556,0.9718704,-0.17816162,0.52250975,0.04248047,1.0152832,91.0
25243,0.9262667,0.8406067,0.18911743,0.52250975,0.04248047,1.0152832,91.0
25244,0.9262667,0.8406067,0.18911743,0.83049315,-0.04248047,1.1671509,91.0
25245,1.0899272,1.3126583,0.3399048,0.83049315,-0.04248047,1.1671509,91.0
25246,1.0899272,1.3126583,0.3399048,0.6488892,-0.11469727,1.0333375,91.0
25247,0.69642925,1.4518471,-0.4194336,0.6488892,-0.11469727,1.0333375,91.0
25248,0.69642925,1.4518471,-0.4194336,0.10938721,-0.11151123,1.0535157,91.0
25249,0.18019009,0.21236801,-1.1336823,0.10938721,-0.11151123,1.0535157,91.0
25250,0.18019009,0.21236801,-1.1336823,0.32285157,-0.07646485,1.1724609,91.0
25251,0.5169182,-1.3278484,-0.39424133,0.32285157,-0.07646485,1.1724609,91.0
25252,0.5169182,-1.3278484,-0.39424133,1.1374146,0.020178223,1.454956,91.0
25253,1.1613255,-0.9921608,0.7502594,1.1374146,0.020178223,1.454956,91.0
25254,1.1613255,-0.9921608,0.7502594,0.76358646,-0.14761963,1.0736939,91.0
25255,1.0516067,0.20547867,0.14173889,0.76358646,-0.14761963,1.0736939,91.0
25256,1.0516067,0.20547867,0.14173889,-0.12213135,-0.24107666,0.9345703,91.0
25257,0.6157236,-0.23594666,-1.3803253,-0.12213135,-0.24107666,0.9345703,91.0
25258,0.6157236,-0.23594666,-1.3803253,0.38338622,-0.10938721,1.1958252,91.0
25259,0.5936289,-0.8617439,-1.5157776,0.38338622,-0.10938721,1.1958252,91.0
25260,0.5936289,-0.8617439,-1.5157776,1.1055542,0.23258057,0.9589966,91.0
25261,0.7814951,-0.16095352,-0.39588928,1.1055542,0.23258057,0.9589966,91.0
25262,0.7814951,-0.16095352,-0.39588928,0.4991455,0.02442627,0.95368654,91.0
25263,0.7898569,0.30607605,0.6374817,0.4991455,0.02442627,0.95368654,91.0
25264,0.7898569,0.30607605,0.6374817,0.2357666,-0.0637207,0.8878418,91.0
25265,0.74809647,0.25821495,1.2029266,0.2357666,-0.0637207,0.8878418,91.0
25266,0.74809647,0.25821495,1.2029266,-0.3058594,-0.19222413,0.6680054,91.0
25267,0.4704504,-0.24193954,0.2528839,-0.3058594,-0.19222413,0.6680054,91.0
25268,0.4704504,-0.24193954,0.2528839,-1.0630738,-0.30479738,0.7072998,91.0
25269,0.092718124,-1.533371,-1.8261261,-1.0630738,-0.30479738,0.7072998,91.0
25270,0.092718124,-1.533371,-1.8261261,0.73703617,0.04248047,0.83686525,91.0
25271,-0.019099236,-1.3830814,-1.7530518,0.73703617,0.04248047,0.83686525,91.0
25272,-0.019099236,-1.3830814,-1.7530518,1.4124756,0.1274414,0.43861085,91.0
25273,0.27615166,0.8393345,1.006424,1.4124756,0.1274414,0.43861085,91.0
25274,0.27615166,0.8393345,1.006424,0.26656494,-0.2623169,0.14230958,91.0
25275,0.83506966,1.6898766,2.630783,0.26656494,-0.2623169,0.14230958,91.0
25276,0.83506966,1.6898766,2.630783,-0.83686525,-0.7848267,0.15505372,91.0
25277,1.0661631,-0.22964096,1.2940216,-0.83686525,-0.7848267,0.15505372,91.0
25278,1.0661631,-0.22964096,1.2940216,-0.6988037,-0.74659425,0.22727051,91.0
25279,0.54543495,-1.6266327,-0.6221924,-0.6988037,-0.74659425,0.22727051,91.0
25280,0.54543495,-1.6266327,-0.6221924,-0.41312256,-0.5809204,-0.10620117,91.0
25281,-0.31822968,-0.73272705,-1.4049683,-0.41312256,-0.5809204,-0.10620117,91.0
25282,-0.31822968,-0.73272705,-1.4049683,-0.5703003,-0.4619751,-0.16461182,91.0
25283,-0.6044378,-0.43883133,-2.0956268,-0.5703003,-0.4619751,-0.16461182,91.0
25284,-0.6044378,-0.43883133,-2.0956268,-0.3802002,-0.20072022,0.11044922,91.0
25285,-0.36670494,-1.2787876,-2.3560028,-0.3802002,-0.20072022,0.11044922,91.0
25286,-0.36670494,-1.2787876,-2.3560028,1.5611572,0.12956543,0.04885254,91.0
25287,0.14626026,-0.043121338,-0.57624817,1.5611572,0.12956543,0.04885254,91.0
25288,0.14626026,-0.043121338,-0.57624817,1.6493043,0.06584473,0.13062744,91.0
25289,0.75247,2.372839,1.641571,1.6493043,0.06584473,0.13062744,91.0
25290,0.75247,2.372839,1.641571,0.7327881,-0.2803711,0.06478272,91.0
25291,1.0673695,2.9709167,1.8706207,0.7327881,-0.2803711,0.06478272,91.0
25292,1.0673695,2.9709167,1.8706207,-0.1709839,-0.4163086,0.28568116,91.0
25293,0.97865105,1.8269882,0.40229797,-0.1709839,-0.4163086,0.28568116,91.0
25294,0.97865105,1.8269882,0.40229797,-0.540564,-0.35152587,0.23258057,91.0
25295,0.6863384,0.39269447,-1.1521759,-0.540564,-0.35152587,0.23258057,91.0
25296,0.6863384,0.39269447,-1.1521759,-0.43861085,-0.15930176,0.2527588,91.0
25297,0.29007435,-0.5782032,-1.6925964,-0.43861085,-0.15930176,0.2527588,91.0
25298,0.29007435,-0.5782032,-1.6925964,-0.19328614,-0.0722168,0.18903808,91.0
25299,-0.035762787,-1.5513439,-0.7125244,-0.19328614,-0.0722168,0.18903808,91.0
25300,-0.035762787,-1.5513439,-0.7125244,0.19328614,-0.06584473,-0.07646485,91.0
25301,-0.38019753,-2.050743,1.0337677,0.19328614,-0.06584473,-0.07646485,91.0
25302,-0.38019753,-2.050743,1.0337677,-0.026550293,-0.18691407,-0.1444336,91.0
25303,-0.60752773,-1.2301102,1.5293274,-0.026550293,-0.18691407,-0.1444336,91.0
25304,-0.60752773,-1.2301102,1.5293274,-0.4322388,-0.32072756,-0.18903808,91.0
25305,-0.2882681,0.1353569,0.20617676,-0.4322388,-0.32072756,-0.18903808,91.0
25306,-0.2882681,0.1353569,0.20617676,-0.4715332,-0.2177124,-0.098767094,91.0
25307,0.20937634,0.9081497,-1.4216003,-0.4715332,-0.2177124,-0.098767094,91.0
25308,0.20937634,0.9081497,-1.4216003,-0.25594482,0.04248047,-0.026550293,91.0
25309,0.44735909,0.928339,-1.8498535,-0.25594482,0.04248047,-0.026550293,91.0
25310,0.44735909,0.928339,-1.8498535,0.23045655,0.2527588,-0.0637207,91.0
25311,0.42313385,0.6885452,-0.89356995,0.23045655,0.2527588,-0.0637207,91.0
25312,0.42313385,0.6885452,-0.89356995,0.20178223,0.3430298,-0.010620117,91.0
25313,0.28740883,0.50852776,0.36190796,0.20178223,0.3430298,-0.010620117,91.0
25314,0.28740883,0.50852776,0.36190796,0.14018555,0.36745605,0.06265869,91.0
25315,0.22642326,0.38780212,1.031601,0.14018555,0.36745605,0.06265869,91.0
25316,0.22642326,0.38780212,1.031601,0.08071289,0.24213867,0.118945315,91.0
25317,0.100889206,-9.536743E-4,1.2415924,0.08071289,0.24213867,0.118945315,91.0
25318,0.100889206,-9.536743E-4,1.2415924,-0.19753419,0.14868164,-0.047790527,91.0
25319,-0.21285534,-0.6613693,1.0071869,-0.19753419,0.14868164,-0.047790527,91.0
25320,-0.21285534,-0.6613693,1.0071869,-0.362146,0.118945315,-0.16036378,91.0
25321,-0.36680508,-0.9603329,-0.005508423,-0.362146,0.118945315,-0.16036378,91.0
25322,-0.36680508,-0.9603329,-0.005508423,-0.12213135,0.23045655,-0.10407715,91.0
25323,-0.2150259,-0.63002205,-1.010498,-0.12213135,0.23045655,-0.10407715,91.0
25324,-0.2150259,-0.63002205,-1.010498,0.22302246,0.27293703,-0.17523193,91.0
25325,-0.026683807,0.0048332214,-0.75154114,0.22302246,0.27293703,-0.17523193,91.0
25326,-0.026683807,0.0048332214,-0.75154114,0.7720825,0.28461915,-0.17629395,91.0
25327,-0.06442547,0.5949173,0.5365448,0.7720825,0.28461915,-0.17629395,91.0
25328,-0.06442547,0.5949173,0.5365448,0.7848267,0.090270996,-0.17841797,91.0
25329,-0.22695541,0.9985409,1.204773,0.7848267,0.090270996,-0.17841797,91.0
25330,-0.22695541,0.9985409,1.204773,0.7848267,0.090270996,-0.17841797,88.0
25331,-0.22695541,0.9985409,1.204773,0.43117675,-0.07752686,-0.059472658,88.0
25332,-0.29444218,1.0822182,0.6042633,0.43117675,-0.07752686,-0.059472658,88.0
25333,-0.29444218,1.0822182,0.6042633,0.34833986,-0.26550293,0.20496826,88.0
25334,-0.26403236,0.6959381,-0.1804657,0.34833986,-0.26550293,0.20496826,88.0
25335,-0.26403236,0.6959381,-0.1804657,0.38444826,-0.3717041,0.31329346,88.0
25336,-0.16045666,0.16688347,-0.33181763,0.38444826,-0.3717041,0.31329346,88.0
25337,-0.16045666,0.16688347,-0.33181763,0.21877442,-0.45560303,0.41949463,88.0
25338,0.115641594,-0.098487854,-0.20587158,0.21877442,-0.45560303,0.41949463,88.0
25339,0.115641594,-0.098487854,-0.20587158,0.0053100586,-0.4725952,0.6053467,88.0
25340,0.501461,-0.0942688,-0.39212036,0.0053100586,-0.4725952,0.6053467,88.0
25341,0.501461,-0.0942688,-0.39212036,-0.16992188,-0.3462158,0.72960204,88.0
25342,0.5382538,-0.20133209,-0.7353668,-0.16992188,-0.3462158,0.72960204,88.0
25343,0.5382538,-0.20133209,-0.7353668,-0.14761963,-0.31860352,0.6796875,88.0
25344,0.26783466,-0.60248375,-0.754303,-0.14761963,-0.31860352,0.6796875,88.0
25345,0.26783466,-0.60248375,-0.754303,0.18266602,-0.23258057,0.48640138,88.0
25346,0.105075836,-0.76924324,-0.45422363,0.18266602,-0.23258057,0.48640138,88.0
25347,0.105075836,-0.76924324,-0.45422363,0.29099122,-0.1274414,0.35789797,88.0
25348,0.2595129,-0.44776726,-0.27897644,0.29099122,-0.1274414,0.35789797,88.0
25349,0.2595129,-0.44776726,-0.27897644,0.16461182,-0.033984374,0.32391357,88.0
25350,0.56498337,-0.049217224,-0.42819214,0.16461182,-0.033984374,0.32391357,88.0
25351,0.56498337,-0.049217224,-0.42819214,0.16354981,0.047790527,0.28780517,88.0
25352,0.6127043,0.043987274,-0.47122192,0.16354981,0.047790527,0.28780517,88.0
25353,0.6127043,0.043987274,-0.47122192,0.36108398,0.11257324,0.36108398,88.0
25354,0.29582787,-0.07173157,-0.18835449,0.36108398,0.11257324,0.36108398,88.0
25355,0.29582787,-0.07173157,-0.18835449,0.4163086,0.17735596,0.45560303,88.0
25356,-0.053364754,0.0093250275,0.10369873,0.4163086,0.17735596,0.45560303,88.0
25357,-0.053364754,0.0093250275,0.10369873,0.41949463,0.22514649,0.46516114,88.0
25358,-0.006351471,0.35014725,0.15296936,0.41949463,0.22514649,0.46516114,88.0
25359,-0.006351471,0.35014725,0.15296936,0.4333008,0.23151855,0.49277344,88.0
25360,0.3780365,0.5552635,0.095962524,0.4333008,0.23151855,0.49277344,88.0
25361,0.3780365,0.5552635,0.095962524,0.30373535,0.2516968,0.5628662,88.0
25362,0.5606203,0.44748306,0.061203003,0.30373535,0.2516968,0.5628662,88.0
25363,0.5606203,0.44748306,0.061203003,0.2166504,0.25700685,0.6042847,88.0
25364,0.45003414,0.1725235,-0.085998535,0.2166504,0.25700685,0.6042847,88.0
25365,0.45003414,0.1725235,-0.085998535,-0.027612304,0.33665773,0.68712157,88.0
25366,0.20640182,-0.053705215,-0.1603241,-0.027612304,0.33665773,0.68712157,88.0
25367,0.20640182,-0.053705215,-0.1603241,-0.0063720704,0.39400634,0.72323,88.0
25368,-0.33995628,-0.7047577,-0.12701416,-0.0063720704,0.39400634,0.72323,88.0
25369,-0.33995628,-0.7047577,-0.12701416,0.2814331,0.4609131,0.7072998,88.0
25370,-0.147295,-0.76651573,0.051635742,0.2814331,0.4609131,0.7072998,88.0
25371,-0.147295,-0.76651573,0.051635742,0.270813,0.44816896,0.66269535,88.0
25372,0.03816986,-0.7257366,0.19981384,0.270813,0.44816896,0.66269535,88.0
25373,0.03816986,-0.7257366,0.19981384,0.004248047,0.47471926,0.52675784,88.0
25374,-0.07301617,-0.68209076,0.16929626,0.004248047,0.47471926,0.52675784,88.0
25375,-0.07301617,-0.68209076,0.16929626,0.1731079,0.38444826,0.5511841,88.0
25376,-0.12774849,-0.73640823,0.74383545,0.1731079,0.38444826,0.5511841,88.0
25377,-0.12774849,-0.73640823,0.74383545,0.48321533,0.24001466,0.32497558,88.0
25378,0.17560863,-0.47672462,0.9326172,0.48321533,0.24001466,0.32497558,88.0
25379,0.17560863,-0.47672462,0.9326172,0.3717041,0.12531738,0.2824951,88.0
25380,0.57072353,0.529583,1.2448425,0.3717041,0.12531738,0.2824951,88.0
25381,0.57072353,0.529583,1.2448425,-0.11363526,-0.24001466,0.2442627,88.0
25382,0.41037464,0.5990696,0.83755493,-0.11363526,-0.24001466,0.2442627,88.0
25383,0.41037464,0.5990696,0.83755493,-0.24320069,-0.34940186,0.21877442,88.0
25384,-0.05224228,-0.047319412,-0.088912964,-0.24320069,-0.34940186,0.21877442,88.0
25385,-0.05224228,-0.047319412,-0.088912964,-0.35046387,-0.5883545,0.21134034,88.0
25386,-0.12987995,-0.44527817,-0.22892761,-0.35046387,-0.5883545,0.21134034,88.0
25387,-0.12987995,-0.44527817,-0.22892761,-0.2984253,-0.6287109,0.2357666,88.0
25388,-0.22631645,-0.9671593,-0.50598145,-0.2984253,-0.6287109,0.2357666,88.0
25389,-0.22631645,-0.9671593,-0.50598145,-0.25594482,-0.62552494,0.27293703,88.0
25390,-0.14301586,-0.7208233,-0.6942444,-0.25594482,-0.62552494,0.27293703,88.0
25391,-0.14301586,-0.7208233,-0.6942444,-0.2442627,-0.5607422,0.25913087,88.0
25392,-0.020918846,-0.4866562,-1.5318604,-0.2442627,-0.5607422,0.25913087,88.0
25393,-0.020918846,-0.4866562,-1.5318604,0.14124756,-0.3419678,0.24851075,88.0
25394,0.06629753,-0.54950523,-1.3761597,0.14124756,-0.3419678,0.24851075,88.0
25395,0.06629753,-0.54950523,-1.3761597,0.29523927,-0.26550293,0.23895264,88.0
25396,0.52422905,-0.5252857,-0.7064667,0.29523927,-0.26550293,0.23895264,88.0
25397,0.52422905,-0.5252857,-0.7064667,0.4800293,-0.022302246,0.22302246,88.0
25398,0.5243759,-0.23167801,-0.3634796,0.4800293,-0.022302246,0.22302246,88.0
25399,0.5243759,-0.23167801,-0.3634796,0.3791382,0.008496094,0.12213135,88.0
25400,0.4546566,0.25009537,0.36286926,0.3791382,0.008496094,0.12213135,88.0
25401,0.4546566,0.25009537,0.36286926,0.08814698,0.020178223,0.046728518,88.0
25402,0.3885908,0.19430351,0.38293457,0.08814698,0.020178223,0.046728518,88.0
25403,0.3885908,0.19430351,0.38293457,0.05628662,0.010620117,0.03186035,88.0
25404,0.3957243,-0.016040802,0.14105225,0.05628662,0.010620117,0.03186035,88.0
25405,0.3957243,-0.016040802,0.14105225,-0.07540283,0.07327881,-0.05522461,88.0
25406,0.35952377,0.0051231384,-0.019851685,-0.07540283,0.07327881,-0.05522461,88.0
25407,0.35952377,0.0051231384,-0.019851685,-0.07646485,0.12850343,-0.06265869,88.0
25408,0.24699402,0.43976784,-0.24621582,-0.07646485,0.12850343,-0.06265869,88.0
25409,0.24699402,0.43976784,-0.24621582,-0.16354981,0.22514649,-0.14549561,88.0
25410,0.12524414,0.44186592,-0.119628906,-0.16354981,0.22514649,-0.14549561,88.0
25411,0.12524414,0.44186592,-0.119628906,-0.21346436,0.2262085,-0.1444336,88.0
25412,-0.17670918,0.04543495,0.30262756,-0.21346436,0.2262085,-0.1444336,88.0
25413,-0.17670918,0.04543495,0.30262756,-0.28355715,0.18266602,-0.17947999,88.0
25414,-0.21989441,-0.10530281,0.38554382,-0.28355715,0.18266602,-0.17947999,88.0
25415,-0.21989441,-0.10530281,0.38554382,-0.3355957,0.19541016,-0.18372802,88.0
25416,-0.25504112,-0.40538406,0.38284302,-0.3355957,0.19541016,-0.18372802,88.0
25417,-0.25504112,-0.40538406,0.38284302,-0.40462646,0.22302246,-0.24320069,88.0
25418,-0.25754833,-0.3261261,0.39074707,-0.40462646,0.22302246,-0.24320069,88.0
25419,-0.25754833,-0.3261261,0.39074707,-0.39082032,0.2262085,-0.28780517,88.0
25420,-0.38085556,0.18757248,0.38363647,-0.39082032,0.2262085,-0.28780517,88.0
25421,-0.38085556,0.18757248,0.38363647,-0.41524658,0.23364258,-0.26868898,88.0
