,accx,accy,accz,gyrox,gyroy,gyroz,heart rate
23341,open,open,open,open,open,open,open
23342,1.8262129,0.22156525,-7.701599,-0.09664307,0.0722168,-0.070092775,146.0
23343,1.4514494,0.17641449,-6.135414,-0.09664307,0.0722168,-0.070092775,146.0
23344,1.4514494,0.17641449,-6.135414,0.19541016,0.022302246,0.07540283,146.0
23345,1.4514494,0.17641449,-6.135414,0.115759276,-0.04141846,0.06796875,146.0
23346,1.1486835,0.1431961,-4.8871765,0.115759276,-0.04141846,0.06796875,146.0
23347,-0.7800884,-1.7475281,3.3115234,0.115759276,-0.04141846,0.06796875,146.0
23348,-0.7800884,-1.7475281,3.3115234,0.07965088,-0.039294433,0.009558106,146.0
23349,-0.5132675,-1.4355621,2.743431,0.07965088,-0.039294433,0.009558106,146.0
23350,-0.5132675,-1.4355621,2.743431,0.098767094,-0.0031860352,-0.009558106,146.0
23351,-0.41906166,-1.2924194,2.3729324,0.098767094,-0.0031860352,-0.009558106,146.0
23352,-0.41906166,-1.2924194,2.3729324,0.16885987,0.0063720704,0.03079834,146.0
23353,-0.41906166,-1.2924194,2.3729324,0.19541016,-0.0063720704,0.04248047,146.0
23354,-0.39295197,-1.1238556,2.0411568,0.19541016,-0.0063720704,0.04248047,146.0
23355,-0.3150816,-0.8013458,1.6988907,0.19541016,-0.0063720704,0.04248047,146.0
23356,-0.3150816,-0.8013458,1.6988907,0.11682129,0.0021240234,0.023364259,146.0
23357,-0.2451191,-0.49041748,1.3690033,0.11682129,0.0021240234,0.023364259,146.0
23358,-0.2451191,-0.49041748,1.3690033,0.032922365,0.028674318,0.027612304,146.0
23359,-0.25238228,-0.39929962,1.0951881,0.032922365,0.028674318,0.027612304,146.0
23360,-0.25238228,-0.39929962,1.0951881,0.032922365,0.008496094,0.0063720704,146.0
23361,-0.2543354,-0.4373932,0.84848785,0.032922365,0.008496094,0.0063720704,146.0
23362,-0.2543354,-0.4373932,0.84848785,0.070092775,-0.03079834,-0.039294433,146.0
23363,-0.1815939,-0.38143158,0.628109,0.070092775,-0.03079834,-0.039294433,146.0
23364,-0.1815939,-0.38143158,0.628109,0.07965088,-0.0361084,-0.03717041,146.0
23365,-0.09757042,-0.21714783,0.48161316,0.07965088,-0.0361084,-0.03717041,146.0
23366,-0.09757042,-0.21714783,0.48161316,0.095581055,0.015930176,-0.014868164,146.0
23367,-0.10028553,-0.11319733,0.393322,0.095581055,0.015930176,-0.014868164,146.0
23368,-0.10028553,-0.11319733,0.393322,0.0998291,0.021240234,0.016992187,146.0
23369,-0.13648987,-0.13127899,0.29878616,0.0998291,0.021240234,0.016992187,146.0
23370,-0.13648987,-0.13127899,0.29878616,0.13381349,-0.012744141,0.004248047,146.0
23371,-0.09718037,-0.09346771,0.2019577,0.13381349,-0.012744141,0.004248047,146.0
23372,-0.09718037,-0.09346771,0.2019577,0.06903076,-0.047790527,-0.035046387,146.0
23373,0.022987366,-0.025245667,0.15240097,0.06903076,-0.047790527,-0.035046387,146.0
23374,0.022987366,-0.025245667,0.15240097,0.0031860352,-0.032922365,-0.06265869,146.0
23375,0.1177063,-0.06334686,0.17092133,0.0031860352,-0.032922365,-0.06265869,146.0
23376,0.1177063,-0.06334686,0.17092133,0.027612304,-0.011682129,-0.07115479,146.0
23377,0.11748028,-0.1693039,0.20493698,0.027612304,-0.011682129,-0.07115479,146.0
23378,0.11748028,-0.1693039,0.20493698,0.13168946,0.021240234,-0.06584473,146.0
23379,0.11748028,-0.1693039,0.20493698,0.18797608,0.046728518,-0.03079834,146.0
23380,0.057338715,-0.2080841,0.18577576,0.18797608,0.046728518,-0.03079834,146.0
23381,-0.0065336227,-0.19730377,0.13165283,0.18797608,0.046728518,-0.03079834,146.0
23382,-0.0065336227,-0.19730377,0.13165283,0.22302246,0.08071289,-0.045666505,146.0
23383,-0.059963226,-0.07589722,0.15722656,0.22302246,0.08071289,-0.045666505,146.0
23384,-0.059963226,-0.07589722,0.15722656,0.1985962,0.11257324,-0.07752686,146.0
23385,-0.050045967,0.11307526,0.26735687,0.1985962,0.11257324,-0.07752686,146.0
23386,-0.050045967,0.11307526,0.26735687,0.1178833,0.098767094,-0.17523193,146.0
23387,0.04229927,0.12784576,0.31550598,0.1178833,0.098767094,-0.17523193,146.0
23388,0.04229927,0.12784576,0.31550598,0.23151855,0.14868164,-0.3525879,146.0
23389,0.04229927,0.12784576,0.31550598,0.33984375,0.0637207,-0.6956177,146.0
23390,0.03424263,0.1507721,0.06188965,0.33984375,0.0637207,-0.6956177,146.0
23391,-0.24313831,0.20037842,-0.030323029,0.33984375,0.0637207,-0.6956177,146.0
23392,-0.24313831,0.20037842,-0.030323029,0.2442627,-0.06159668,0.5671143,146.0
23393,-0.5020304,-0.025169373,0.35578537,0.2442627,-0.06159668,0.5671143,146.0
23394,-0.5020304,-0.025169373,0.35578537,0.32709962,-0.18691407,-0.6202149,146.0
23395,-0.55241776,-0.061447144,0.7390976,0.32709962,-0.18691407,-0.6202149,146.0
23396,-0.55241776,-0.061447144,0.7390976,0.29311523,-0.4439209,0.67225343,146.0
23397,0.10268307,0.23423767,0.82514954,0.29311523,-0.4439209,0.67225343,146.0
23398,0.10268307,0.23423767,0.82514954,0.0180542,-0.29630128,-0.007434082,146.0
23399,0.6123953,0.39081573,0.57652664,0.0180542,-0.29630128,-0.007434082,146.0
23400,0.6123953,0.39081573,0.57652664,-0.02442627,-0.1985962,0.15823975,146.0
23401,0.43808556,-0.05796814,0.20821762,-0.02442627,-0.1985962,0.15823975,146.0
23402,0.43808556,-0.05796814,0.20821762,0.2442627,-0.16036378,-0.30479738,146.0
23403,0.091495514,-0.26717377,-0.0076446533,0.2442627,-0.16036378,-0.30479738,146.0
23404,0.091495514,-0.26717377,-0.0076446533,0.3802002,-0.24532472,-0.41524658,146.0
23405,0.091495514,-0.26717377,-0.0076446533,0.2548828,-0.17629395,-0.33984375,146.0
23406,0.042227745,0.051963806,0.08616638,0.2548828,-0.17629395,-0.33984375,146.0
23407,0.16338348,0.1744461,0.266407,0.2548828,-0.17629395,-0.33984375,146.0
23408,0.16338348,0.1744461,0.266407,0.32285157,-0.26762697,-0.033984374,146.0
23409,0.25043392,0.12223816,0.15155411,0.32285157,-0.26762697,-0.033984374,146.0
23410,0.25043392,0.12223816,0.15155411,0.5628662,-0.06159668,-0.10407715,146.0
23411,0.09330368,0.13409424,-0.084495544,0.5628662,-0.06159668,-0.10407715,146.0
23412,0.09330368,0.13409424,-0.084495544,0.9876709,-0.24107666,-0.17629395,146.0
23413,0.008114815,0.22388458,0.005683899,0.9876709,-0.24107666,-0.17629395,146.0
23414,0.008114815,0.22388458,0.005683899,0.9388184,-0.13912354,-0.016992187,146.0
23415,0.10120678,0.8119812,0.5711365,0.9388184,-0.13912354,-0.016992187,146.0
23416,0.10120678,0.8119812,0.5711365,0.58304447,-0.19753419,-0.06903076,146.0
23417,0.09027958,0.5906601,0.9295273,0.58304447,-0.19753419,-0.06903076,146.0
23418,0.09027958,0.5906601,0.9295273,0.6435791,-0.2081543,-0.027612304,146.0
23419,0.14513683,0.31645203,1.012188,0.6435791,-0.2081543,-0.027612304,146.0
23420,0.14513683,0.31645203,1.012188,0.60216063,-0.16779785,-0.015930176,146.0
23421,0.121089935,0.24741364,0.9297333,0.60216063,-0.16779785,-0.015930176,146.0
23422,0.121089935,0.24741364,0.9297333,0.59047854,-0.18372802,-0.022302246,146.0
23423,-0.039711952,0.31024933,0.8035507,0.59047854,-0.18372802,-0.022302246,146.0
23424,-0.039711952,0.31024933,0.8035507,0.5246338,-0.32603762,-0.057348635,146.0
23425,0.018047333,0.2687683,0.7376404,0.5246338,-0.32603762,-0.057348635,146.0
23426,0.018047333,0.2687683,0.7376404,0.54587406,-0.37489015,-0.060534667,146.0
23427,0.17072487,0.23964691,0.78009033,0.54587406,-0.37489015,-0.060534667,146.0
23428,0.17072487,0.23964691,0.78009033,0.57454836,-0.40037844,-0.07965088,146.0
23429,0.19461155,0.23643494,0.80820465,0.57454836,-0.40037844,-0.07965088,146.0
23430,0.19461155,0.23643494,0.80820465,0.542688,-0.4258667,-0.078588866,146.0
23431,0.1959486,0.40885162,0.9258957,0.542688,-0.4258667,-0.078588866,146.0
23432,0.1959486,0.40885162,0.9258957,0.44498292,-0.5522461,-0.10407715,146.0
23433,0.17686367,0.40488434,0.8441849,0.44498292,-0.5522461,-0.10407715,146.0
23434,0.17686367,0.40488434,0.8441849,0.4163086,-0.5692383,-0.11257324,146.0
23435,0.20152569,0.3868332,0.7454529,0.4163086,-0.5692383,-0.11257324,146.0
23436,0.20152569,0.3868332,0.7454529,0.35895997,-0.6488892,-0.16354981,146.0
23437,0.3384905,0.2470169,0.76404953,0.35895997,-0.6488892,-0.16354981,146.0
23438,0.3384905,0.2470169,0.76404953,0.36639404,-0.721106,-0.2177124,146.0
23439,0.5319252,0.18286896,0.82621765,0.36639404,-0.721106,-0.2177124,146.0
23440,0.5319252,0.18286896,0.82621765,0.32816163,-0.77102053,-0.2527588,146.0
23441,0.6245384,0.2848587,0.7170143,0.32816163,-0.77102053,-0.2527588,146.0
23442,0.6245384,0.2848587,0.7170143,0.271875,-0.8708496,-0.24957275,146.0
23443,0.79522324,0.3087921,0.4820366,0.271875,-0.8708496,-0.24957275,146.0
23444,0.79522324,0.3087921,0.4820366,0.32709962,-0.96643066,-0.2824951,146.0
23445,1.1085052,0.22381592,0.32739258,0.32709962,-0.96643066,-0.2824951,146.0
23446,1.1085052,0.22381592,0.32739258,0.41312256,-0.8963379,-0.2814331,146.0
23447,1.2181396,0.27223206,0.31126785,0.41312256,-0.8963379,-0.2814331,146.0
23448,1.2181396,0.27223206,0.31126785,0.39294434,-0.901648,-0.270813,146.0
23449,1.0109978,0.41977692,0.29608154,0.39294434,-0.901648,-0.270813,146.0
23450,1.0109978,0.41977692,0.29608154,0.32603762,-0.97280276,-0.29736328,146.0
23451,0.8528414,0.46647644,0.14941406,0.32603762,-0.97280276,-0.29736328,146.0
23452,0.8528414,0.46647644,0.14941406,0.3451538,-1.0046631,-0.30161133,146.0
23453,0.9450531,0.40932465,-0.02028656,0.3451538,-1.0046631,-0.30161133,146.0
23454,0.9450531,0.40932465,-0.02028656,0.4088745,-0.9611206,-0.270813,146.0
23455,1.404871,0.44477844,-0.16207886,0.4088745,-0.9611206,-0.270813,146.0
23456,1.404871,0.44477844,-0.16207886,0.3971924,-0.89208984,-0.1901001,146.0
23457,1.341402,0.41178894,-0.0758934,0.3971924,-0.89208984,-0.1901001,146.0
23458,1.341402,0.41178894,-0.0758934,0.41312256,-0.82730716,-0.1720459,146.0
23459,1.2062883,0.4109497,-0.052696228,0.41312256,-0.82730716,-0.1720459,146.0
23460,1.2062883,0.4109497,-0.052696228,0.4078125,-0.7720825,-0.13699952,146.0
23461,0.99964905,0.39347076,-0.09526062,0.4078125,-0.7720825,-0.13699952,146.0
23462,0.99964905,0.39347076,-0.09526062,0.3079834,-0.7890747,-0.11257324,146.0
23463,1.0967283,0.4164276,-0.26057053,0.3079834,-0.7890747,-0.11257324,146.0
23464,1.0967283,0.4164276,-0.26057053,0.29099122,-0.6467652,-0.04460449,146.0
23465,1.1517477,0.39662933,-0.38270187,0.29099122,-0.6467652,-0.04460449,146.0
23466,1.1517477,0.39662933,-0.38270187,0.30373535,-0.4959595,-0.013806152,146.0
23467,0.79207706,0.2765808,-0.24603271,0.30373535,-0.4959595,-0.013806152,146.0
23468,0.79207706,0.2765808,-0.24603271,0.3440918,-0.42161867,0.021240234,146.0
23469,0.38020706,0.14670563,0.11003494,0.3440918,-0.42161867,0.021240234,146.0
23470,0.38020706,0.14670563,0.11003494,0.3090454,-0.4630371,0.0361084,146.0
23471,0.43479347,0.08248901,0.43149567,0.3090454,-0.4630371,0.0361084,146.0
23472,0.43479347,0.08248901,0.43149567,0.271875,-0.41099855,0.10195313,146.0
23473,0.6556225,0.05480957,0.5307808,0.271875,-0.41099855,0.10195313,146.0
23474,0.6556225,0.05480957,0.5307808,0.27506104,-0.29523927,0.16354981,146.0
23475,0.5555897,0.031600952,0.4746132,0.27506104,-0.29523927,0.16354981,146.0
23476,0.5555897,0.031600952,0.4746132,0.23151855,-0.30479738,0.17523193,146.0
23477,0.37512398,0.055648804,0.4556694,0.23151855,-0.30479738,0.17523193,146.0
23478,0.37512398,0.055648804,0.4556694,0.22833252,-0.2782471,0.17735596,146.0
23479,0.41045094,0.114990234,0.52560806,0.22833252,-0.2782471,0.17735596,146.0
23480,0.41045094,0.114990234,0.52560806,0.19434814,-0.24107666,0.16779785,146.0
23481,0.5528965,0.1591568,0.546669,0.19434814,-0.24107666,0.16779785,146.0
23482,0.5528965,0.1591568,0.546669,0.17841797,-0.20709229,0.1985962,146.0
23483,0.5446243,0.14256287,0.46011353,0.17841797,-0.20709229,0.1985962,146.0
23484,0.5446243,0.14256287,0.46011353,0.22196046,-0.1539917,0.19647217,146.0
23485,0.33375835,0.07889557,0.39301682,0.22196046,-0.1539917,0.19647217,146.0
23486,0.33375835,0.07889557,0.39301682,0.2888672,-0.16567384,0.1731079,146.0
23487,0.18996811,0.08094025,0.39971542,0.2888672,-0.16567384,0.1731079,146.0
23488,0.18996811,0.08094025,0.39971542,0.2824951,-0.19328614,0.14230958,146.0
23489,0.29135418,0.22254944,0.3671837,0.2824951,-0.19328614,0.14230958,146.0
23490,0.29135418,0.22254944,0.3671837,0.2347046,-0.14761963,0.16779785,146.0
23491,0.35650826,0.34633636,0.26074982,0.2347046,-0.14761963,0.16779785,146.0
23492,0.35650826,0.34633636,0.26074982,0.20603028,-0.10513916,0.16354981,146.0
23493,0.17652702,0.32670593,0.11531448,0.20603028,-0.10513916,0.16354981,146.0
23494,0.17652702,0.32670593,0.11531448,0.22514649,-0.11044922,0.15823975,146.0
23495,0.011240959,0.25582123,-0.0064430237,0.22514649,-0.11044922,0.15823975,146.0
23496,0.011240959,0.25582123,-0.0064430237,0.2782471,-0.107263185,0.14018555,146.0
23497,0.112044334,0.27359772,-0.09391022,0.2782471,-0.107263185,0.14018555,146.0
23498,0.112044334,0.27359772,-0.09391022,0.29736328,-0.0637207,0.14337158,146.0
23499,0.30223274,0.43327332,-0.20447159,0.29736328,-0.0637207,0.14337158,146.0
23500,0.30223274,0.43327332,-0.20447159,0.24744873,0.03717041,0.17416993,146.0
23501,0.2790537,0.69433594,-0.42419815,0.24744873,0.03717041,0.17416993,146.0
23502,0.2790537,0.69433594,-0.42419815,0.19541016,0.11682129,0.22196046,146.0
23503,0.04146862,0.8489151,-0.58644104,0.19541016,0.11682129,0.22196046,146.0
23504,0.04146862,0.8489151,-0.58644104,0.2262085,0.2347046,0.26125488,146.0
23505,-0.40527725,0.5807648,-0.19742584,0.2262085,0.2347046,0.26125488,146.0
23506,-0.40527725,0.5807648,-0.19742584,0.270813,0.3079834,0.30267334,146.0
23507,-0.4914341,0.40232086,0.06499481,0.270813,0.3079834,0.30267334,146.0
23508,-0.4914341,0.40232086,0.06499481,0.2623169,0.3175415,0.32285157,146.0
23509,-0.6211872,0.30194855,0.38129044,0.2623169,0.3175415,0.32285157,146.0
23510,-0.6211872,0.30194855,0.38129044,0.20390625,0.3706421,0.3695801,146.0
23511,-0.7642231,0.28411102,0.43424225,0.20390625,0.3706421,0.3695801,146.0
23512,-0.7642231,0.28411102,0.43424225,0.15505372,0.36639404,0.35895997,146.0
23513,-0.92729664,0.001045227,0.5052681,0.15505372,0.36639404,0.35895997,146.0
23514,-0.92729664,0.001045227,0.5052681,0.121069334,0.3090454,0.31860352,146.0
23515,-0.79919815,-0.06902313,0.49987793,0.121069334,0.3090454,0.31860352,146.0
23516,-0.79919815,-0.06902313,0.49987793,0.11469727,0.29630128,0.31966552,146.0
23517,-0.6128454,-0.10484314,0.5952301,0.11469727,0.29630128,0.31966552,146.0
23518,-0.6128454,-0.10484314,0.5952301,0.02442627,0.28355715,0.33134767,146.0
23519,-0.49025154,0.013961792,0.5167694,0.02442627,0.28355715,0.33134767,146.0
23520,-0.49025154,0.013961792,0.5167694,-0.08071289,0.24957275,0.3419678,146.0
23521,-0.46726227,0.0688324,0.20928955,-0.08071289,0.24957275,0.3419678,146.0
23522,-0.46726227,0.0688324,0.20928955,-0.12956543,0.23364258,0.3090454,146.0
23523,-0.4635687,0.055091858,0.046497345,-0.12956543,0.23364258,0.3090454,146.0
23524,-0.4635687,0.055091858,0.046497345,-0.13275146,0.23895264,0.3090454,146.0
23525,-0.55682945,0.069755554,-0.16866302,-0.13275146,0.23895264,0.3090454,146.0
23526,-0.55682945,0.069755554,-0.16866302,-0.17416993,0.25063476,0.3090454,146.0
23527,-0.68486786,0.14796448,-0.3206482,-0.17416993,0.25063476,0.3090454,146.0
23528,-0.68486786,0.14796448,-0.3206482,-0.22196046,0.2548828,0.31435546,146.0
23529,-0.6865053,0.25196838,-0.37306976,-0.22196046,0.2548828,0.31435546,146.0
23530,-0.6865053,0.25196838,-0.37306976,-0.35471192,0.24532472,0.33878174,146.0
23531,-0.5243149,0.20053864,-0.34518433,-0.35471192,0.24532472,0.33878174,146.0
23532,-0.5243149,0.20053864,-0.34518433,-0.39188233,0.2824951,0.362146,146.0
23533,-0.3134222,0.09812927,-0.29769135,-0.39188233,0.2824951,0.362146,146.0
23534,-0.3134222,0.09812927,-0.29769135,-0.4694092,0.37489015,0.3971924,146.0
23535,-0.39498806,-0.021339417,-0.29304504,-0.4694092,0.37489015,0.3971924,146.0
23536,-0.39498806,-0.021339417,-0.29304504,-0.51082766,0.3993164,0.4258667,146.0
23537,-0.6463127,-0.10975647,-0.3741455,-0.51082766,0.3993164,0.4258667,146.0
23538,-0.6463127,-0.10975647,-0.3741455,-0.53737795,0.3982544,0.40250245,146.0
23539,-0.7311983,-0.085876465,-0.50398254,-0.53737795,0.3982544,0.40250245,146.0
23540,-0.7311983,-0.085876465,-0.50398254,-0.53950197,0.4248047,0.42799073,146.0
23541,-0.58947563,0.021110535,-0.5526962,-0.53950197,0.4248047,0.42799073,146.0
23542,-0.58947563,0.021110535,-0.5526962,-0.5564942,0.49277344,0.4704712,146.0
23543,-0.4691019,0.04584503,-0.4781456,-0.5564942,0.49277344,0.4704712,146.0
23544,-0.4691019,0.04584503,-0.4781456,-0.57454836,0.55968016,0.5564942,146.0
23545,-0.4572153,-0.12265015,-0.33628845,-0.57454836,0.55968016,0.5564942,146.0
23546,-0.4572153,-0.12265015,-0.33628845,-0.53737795,0.53100586,0.59472656,146.0
23547,-0.3825693,-0.36667633,-0.16829681,-0.53737795,0.53100586,0.59472656,146.0
23548,-0.3825693,-0.36667633,-0.16829681,-0.4067505,0.5968506,0.6403931,146.0
23549,-0.38857555,-0.44361877,0.009101868,-0.4067505,0.5968506,0.6403931,146.0
23550,-0.38857555,-0.44361877,0.009101868,-0.4067505,0.5968506,0.6403931,0.0
23551,-0.38857555,-0.44361877,0.009101868,-0.38444826,0.6637573,0.63933104,0.0
23552,-0.6555748,-0.27895355,0.12734985,-0.38444826,0.6637573,0.63933104,0.0
23553,-0.6555748,-0.27895355,0.12734985,-0.4630371,0.5968506,0.7051758,0.0
23554,-0.92251873,-0.13524628,0.09631348,-0.4630371,0.5968506,0.7051758,0.0
23555,-0.92251873,-0.13524628,0.09631348,-0.48215333,0.52250975,0.7189819,0.0
23556,-0.9010401,-0.21613312,-0.027297974,-0.48215333,0.52250975,0.7189819,0.0
23557,-0.9010401,-0.21613312,-0.027297974,-0.44710693,0.45347902,0.7168579,0.0
23558,-0.6113224,-0.28507996,-0.14918137,-0.44710693,0.45347902,0.7168579,0.0
23559,-0.6113224,-0.28507996,-0.14918137,-0.44816896,0.46728516,0.72960204,0.0
23560,-0.39728546,-0.14186859,-0.19693375,-0.44816896,0.46728516,0.72960204,0.0
23561,-0.39728546,-0.14186859,-0.19693375,-0.5979126,0.4715332,0.721106,0.0
23562,-0.4990902,0.029899597,-0.23431778,-0.5979126,0.4715332,0.721106,0.0
23563,-0.4990902,0.029899597,-0.23431778,-0.724292,0.3791382,0.7412842,0.0
23564,-0.70688915,-0.04735565,-0.3387375,-0.724292,0.3791382,0.7412842,0.0
23565,-0.70688915,-0.04735565,-0.3387375,-0.6467652,0.33984375,0.76358646,0.0
23566,-0.71020126,-0.23074341,-0.44448853,-0.6467652,0.33984375,0.76358646,0.0
23567,-0.71020126,-0.23074341,-0.44448853,-0.57242435,0.26762697,0.7678345,0.0
23568,-0.40874863,-0.25457764,-0.47141266,-0.57242435,0.26762697,0.7678345,0.0
23569,-0.40874863,-0.25457764,-0.47141266,-0.5734863,0.2527588,0.7858887,0.0
23570,-0.06718445,-0.08187103,-0.5162201,-0.5734863,0.2527588,0.7858887,0.0
23571,-0.06718445,-0.08187103,-0.5162201,-0.75296634,0.29099122,0.72960204,0.0
23572,-0.02737999,0.036201477,-0.5793724,-0.75296634,0.29099122,0.72960204,0.0
23573,-0.02737999,0.036201477,-0.5793724,-0.811377,0.25700685,0.6945557,0.0
23574,-0.21907234,-0.21147919,-0.4849205,-0.811377,0.25700685,0.6945557,0.0
23575,-0.21907234,-0.21147919,-0.4849205,-0.71791995,0.21134034,0.5851685,0.0
23576,-0.32456207,-0.7245407,-0.23085403,-0.71791995,0.21134034,0.5851685,0.0
23577,-0.32456207,-0.7245407,-0.23085403,-0.5511841,0.14018555,0.49489745,0.0
23578,-0.23797035,-0.8665085,-0.16802979,-0.5511841,0.14018555,0.49489745,0.0
23579,-0.23797035,-0.8665085,-0.16802979,-0.50020754,0.13699952,0.44816896,0.0
23580,-0.11771965,-0.32572937,-0.4916153,-0.50020754,0.13699952,0.44816896,0.0
23581,-0.11771965,-0.32572937,-0.4916153,-0.6064087,0.1263794,0.41949463,0.0
23582,-0.114622116,0.16766357,-0.8406334,-0.6064087,0.1263794,0.41949463,0.0
23583,-0.114622116,0.16766357,-0.8406334,-0.44498292,0.15080567,0.38763428,0.0
23584,-0.30204964,-0.051063538,-0.7581177,-0.44498292,0.15080567,0.38763428,0.0
23585,-0.30204964,-0.051063538,-0.7581177,-0.14974366,0.24320069,0.2782471,0.0
23586,-0.63119125,-0.345932,-0.42090988,-0.14974366,0.24320069,0.2782471,0.0
23587,-0.63119125,-0.345932,-0.42090988,-0.121069334,0.23789063,0.22196046,0.0
23588,-0.7834568,0.008430481,-0.34801865,-0.121069334,0.23789063,0.22196046,0.0
23589,-0.7834568,0.008430481,-0.34801865,-0.33028564,0.18479005,0.2357666,0.0
23590,-0.57663155,0.5262604,-0.58714294,-0.33028564,0.18479005,0.2357666,0.0
23591,-0.57663155,0.5262604,-0.58714294,-0.40250245,0.19328614,0.1985962,0.0
23592,-0.36242867,0.44411469,-0.7147713,-0.40250245,0.19328614,0.1985962,0.0
23593,-0.36242867,0.44411469,-0.7147713,-0.18372802,0.30054933,0.17523193,0.0
23594,-0.44167614,0.013458252,-0.5276985,-0.18372802,0.30054933,0.17523193,0.0
23595,-0.44167614,0.013458252,-0.5276985,0.1359375,0.33028564,0.21983643,0.0
23596,-0.56697655,4.7302246E-4,-0.33135223,0.1359375,0.33028564,0.21983643,0.0
23597,-0.56697655,4.7302246E-4,-0.33135223,0.16248779,0.34727785,0.24744873,0.0
23598,-0.47768974,0.48256683,-0.40604782,0.16248779,0.34727785,0.24744873,0.0
23599,-0.47768974,0.48256683,-0.40604782,0.027612304,0.40993652,0.23045655,0.0
23600,-0.2971182,0.7891159,-0.43341827,0.027612304,0.40993652,0.23045655,0.0
23601,-0.2971182,0.7891159,-0.43341827,0.0722168,0.45666504,0.16248779,0.0
23602,-0.24885178,0.3510666,-0.061172485,0.0722168,0.45666504,0.16248779,0.0
23603,-0.24885178,0.3510666,-0.061172485,0.4088745,0.5055176,0.1083252,0.0
23604,-0.40509987,0.013381958,0.2958374,0.4088745,0.5055176,0.1083252,0.0
23605,-0.40509987,0.013381958,0.2958374,0.6244629,0.62340087,0.2347046,0.0
23606,-0.5866661,0.4812851,0.20059586,0.6244629,0.62340087,0.2347046,0.0
23607,-0.5866661,0.4812851,0.20059586,0.56180423,0.60959476,0.3154175,0.0
23608,-0.727438,0.7314911,0.019657135,0.56180423,0.60959476,0.3154175,0.0
23609,-0.727438,0.7314911,0.019657135,0.60216063,0.6287109,0.23789063,0.0
23610,-0.98020554,0.41874695,0.039367676,0.60216063,0.6287109,0.23789063,0.0
23611,-0.98020554,0.41874695,0.039367676,0.4343628,0.634021,0.1709839,0.0
23612,-1.2545376,0.27025604,0.04200363,0.4343628,0.634021,0.1709839,0.0
23613,-1.2545376,0.27025604,0.04200363,0.3334717,0.5140137,0.26762697,0.0
23614,-1.1538124,0.24089813,-0.10897446,0.3334717,0.5140137,0.26762697,0.0
23615,-1.1538124,0.24089813,-0.10897446,0.540564,0.44710693,0.26975098,0.0
23616,-0.7222204,0.19849396,-0.23585892,0.540564,0.44710693,0.26975098,0.0
23617,-0.7222204,0.19849396,-0.23585892,0.7083618,0.48321533,0.40037844,0.0
23618,-0.47764206,0.28858185,-0.32862854,0.7083618,0.48321533,0.40037844,0.0
23619,-0.47764206,0.28858185,-0.32862854,0.6860596,0.50233155,0.48215333,0.0
23620,-0.58158875,0.41339874,-0.46450043,0.6860596,0.50233155,0.48215333,0.0
23621,-0.58158875,0.41339874,-0.46450043,0.60322267,0.5341919,0.4725952,0.0
23622,-0.80799484,0.3573532,-0.39556503,0.60322267,0.5341919,0.4725952,0.0
23623,-0.80799484,0.3573532,-0.39556503,0.4088745,0.54587406,0.41312256,0.0
23624,-1.0581264,0.122673035,-0.16698837,0.4088745,0.54587406,0.41312256,0.0
23625,-1.0581264,0.122673035,-0.16698837,0.33878174,0.49064943,0.4428589,0.0
23626,-1.1888485,0.015220642,-0.18927765,0.33878174,0.49064943,0.4428589,0.0
23627,-1.1888485,0.015220642,-0.18927765,0.42374268,0.4619751,0.42268068,0.0
23628,-1.0229664,0.23342896,-0.5027046,0.42374268,0.4619751,0.42268068,0.0
23629,-1.0229664,0.23342896,-0.5027046,0.42374268,0.5012695,0.41737062,0.0
23630,-0.7465954,0.5511093,-0.9228897,0.42374268,0.5012695,0.41737062,0.0
23631,-0.7465954,0.5511093,-0.9228897,0.40037844,0.57454836,0.46622315,0.0
23632,-0.6562004,0.6478958,-1.3595276,0.40037844,0.57454836,0.46622315,0.0
23633,-0.6562004,0.6478958,-1.3595276,0.46409914,0.6988037,0.4885254,0.0
23634,-0.8016701,0.6646576,-1.5841789,0.46409914,0.6988037,0.4885254,0.0
23635,-0.8016701,0.6646576,-1.5841789,0.5979126,0.8336792,0.58198243,0.0
23636,-1.140873,0.6110153,-1.1793442,0.5979126,0.8336792,0.58198243,0.0
23637,-1.140873,0.6110153,-1.1793442,0.815625,0.9324463,0.6605713,0.0
23638,-1.6819248,0.37117004,-0.24016571,0.815625,0.9324463,0.6605713,0.0
23639,-1.6819248,0.37117004,-0.24016571,0.60322267,0.91757816,0.57561034,0.0
23640,-2.1784248,0.044387817,0.36706161,0.60322267,0.91757816,0.57561034,0.0
23641,-2.1784248,0.044387817,0.36706161,0.3440918,0.7168579,0.4364868,0.0
23642,-2.0731964,-0.17082214,0.08543396,0.3440918,0.7168579,0.4364868,0.0
23643,-2.0731964,-0.17082214,0.08543396,0.34090576,0.6531372,0.16779785,0.0
23644,-1.4098873,0.08974457,-0.5650406,0.34090576,0.6531372,0.16779785,0.0
23645,-1.4098873,0.08974457,-0.5650406,0.41206056,0.74022216,0.08283692,0.0
23646,-0.8890915,0.5735626,-0.7763634,0.41206056,0.74022216,0.08283692,0.0
23647,-0.8890915,0.5735626,-0.7763634,0.44710693,0.7508423,0.038232423,0.0
23648,-0.72836304,0.712204,-0.43091583,0.44710693,0.7508423,0.038232423,0.0
23649,-0.72836304,0.712204,-0.43091583,0.3802002,0.71367186,-0.026550293,0.0
23650,-0.7024536,0.515625,-0.096271515,0.3802002,0.71367186,-0.026550293,0.0
23651,-0.7024536,0.515625,-0.096271515,0.2347046,0.65419924,-0.14868164,0.0
23652,-0.9220333,-0.55068207,-0.03126526,0.2347046,0.65419924,-0.14868164,0.0
23653,-0.9220333,-0.55068207,-0.03126526,0.38975832,0.5055176,-0.52250975,0.0
23654,-1.1639938,-1.9921799,-0.026489258,0.38975832,0.5055176,-0.52250975,0.0
23655,-1.1639938,-1.9921799,-0.026489258,1.081128,0.42268068,-0.7954468,0.0
23656,-1.0240288,-2.1001663,0.087402344,1.081128,0.42268068,-0.7954468,0.0
23657,-1.0240288,-2.1001663,0.087402344,0.5649902,0.36320803,-1.3402588,0.0
23658,-0.9588947,-0.8860779,0.65538025,0.5649902,0.36320803,-1.3402588,0.0
23659,-0.9588947,-0.8860779,0.65538025,0.3727661,0.121069334,-1.2850342,0.0
23660,-0.5719738,1.6527328,1.6447296,0.3727661,0.121069334,-1.2850342,0.0
23661,-0.5719738,1.6527328,1.6447296,0.29948732,-0.24320069,-1.1979493,0.0
23662,0.842165,3.9708786,1.9664154,0.29948732,-0.24320069,-1.1979493,0.0
23663,0.842165,3.9708786,1.9664154,0.09664307,-0.3164795,-0.89846194,0.0
23664,2.353798,3.794777,0.9596214,0.09664307,-0.3164795,-0.89846194,0.0
23665,2.353798,3.794777,0.9596214,0.26656494,-0.15823975,-0.48215333,0.0
23666,2.6623363,1.6015472,0.04346466,0.26656494,-0.15823975,-0.48215333,0.0
23667,2.6623363,1.6015472,0.04346466,0.37701416,-0.1083252,-0.58198243,0.0
23668,1.5555286,-1.2358246,0.34906387,0.37701416,-0.1083252,-0.58198243,0.0
23669,1.5555286,-1.2358246,0.34906387,0.5957886,-0.15611573,-0.721106,0.0
23670,0.24582672,-2.7668,0.69706345,0.5957886,-0.15611573,-0.721106,0.0
23671,0.24582672,-2.7668,0.69706345,0.5957886,-0.15611573,-0.721106,0.0
23672,0.24582672,-2.7668,0.69706345,0.41737062,-0.24957275,-0.80181885,0.0
23673,-0.16174889,-2.1669922,0.36629486,0.41737062,-0.24957275,-0.80181885,0.0
23674,-0.16174889,-2.1669922,0.36629486,0.14974366,-0.26868898,-0.90058595,0.0
23675,0.7508259,-0.08807373,0.13363647,0.14974366,-0.26868898,-0.90058595,0.0
23676,0.7508259,-0.08807373,0.13363647,0.16885987,-0.20178223,-0.7072998,0.0
23677,2.0231705,1.1157608,-0.023654938,0.16885987,-0.20178223,-0.7072998,0.0
23678,2.0231705,1.1157608,-0.023654938,0.14230958,0.0063720704,-0.4630371,0.0
23679,1.9898739,0.6802292,0.036273956,0.14230958,0.0063720704,-0.4630371,0.0
23680,1.9898739,0.6802292,0.036273956,0.1178833,-0.09239502,-0.4619751,0.0
23681,1.2300701,0.18171692,0.25070953,0.1178833,-0.09239502,-0.4619751,0.0
23682,1.2300701,0.18171692,0.25070953,-0.06796875,-0.21027832,-0.3058594,0.0
23683,0.85438156,-0.4228363,-0.09711456,-0.06796875,-0.21027832,-0.3058594,0.0
23684,0.85438156,-0.4228363,-0.09711456,-0.32603762,-0.24957275,-0.23151855,0.0
23685,0.4456749,-1.0417023,-0.6139984,-0.32603762,-0.24957275,-0.23151855,0.0
23686,0.4456749,-1.0417023,-0.6139984,-0.41949463,-0.25700685,-0.16354981,0.0
23687,-0.27978897,-1.2891693,-1.2112656,-0.41949463,-0.25700685,-0.16354981,0.0
23688,-0.27978897,-1.2891693,-1.2112656,-0.6903076,-0.29736328,-0.11044922,0.0
23689,-0.7475014,-1.3039932,-1.7242126,-0.6903076,-0.29736328,-0.11044922,0.0
23690,-0.7475014,-1.3039932,-1.7242126,-0.75721437,-0.39188233,-0.18585205,0.0
23691,-0.6102333,-0.9269562,-1.6017952,-0.75721437,-0.39188233,-0.18585205,0.0
23692,-0.6102333,-0.9269562,-1.6017952,-0.6425171,-0.28674316,-0.1359375,0.0
23693,-0.30852318,-0.27777863,-0.9186554,-0.6425171,-0.28674316,-0.1359375,0.0
23694,-0.30852318,-0.27777863,-0.9186554,-0.6265869,-0.36108398,0.0010620117,0.0
23695,-0.065727234,-0.018928528,-0.25374603,-0.6265869,-0.36108398,0.0010620117,0.0
23696,-0.065727234,-0.018928528,-0.25374603,-0.77314454,-0.40250245,0.052038576,0.0
23697,0.24320602,-0.06969452,0.060798645,-0.77314454,-0.40250245,0.052038576,0.0
23698,0.24320602,-0.06969452,0.060798645,-0.9165161,-0.4248047,0.20709229,0.0
23699,0.45430565,-0.11066437,0.19515991,-0.9165161,-0.4248047,0.20709229,0.0
23700,0.45430565,-0.11066437,0.19515991,-1.1512207,-0.4078125,0.36851808,0.0
23701,0.42482185,-0.08002472,0.24369049,-1.1512207,-0.4078125,0.36851808,0.0
23702,0.42482185,-0.08002472,0.24369049,-1.3126465,-0.3971924,0.57242435,0.0
23703,0.25595856,-0.41664124,0.13576126,-1.3126465,-0.3971924,0.57242435,0.0
23704,0.25595856,-0.41664124,0.13576126,-1.3954834,-0.41206056,0.6595093,0.0
23705,0.09788132,-1.1232681,-0.19605255,-1.3954834,-0.41206056,0.6595093,0.0
23706,0.09788132,-1.1232681,-0.19605255,-1.265918,-0.38975832,0.6669434,0.0
23707,0.18967056,-1.3937149,-0.63544464,-1.265918,-0.38975832,0.6669434,0.0
23708,0.18967056,-1.3937149,-0.63544464,-0.9281983,-0.33665773,0.51826173,0.0
23709,0.3449974,-0.6897888,-0.80430603,-0.9281983,-0.33665773,0.51826173,0.0
23710,0.3449974,-0.6897888,-0.80430603,-0.6180908,-0.18585205,0.45454103,0.0
23711,0.21883202,0.21118164,-0.43271637,-0.6180908,-0.18585205,0.45454103,0.0
23712,0.21883202,0.21118164,-0.43271637,-0.6881836,-0.14974366,0.44073486,0.0
23713,-0.02474022,0.18820953,0.09659958,-0.6881836,-0.14974366,0.44073486,0.0
23714,-0.02474022,0.18820953,0.09659958,-0.51826173,-0.15080567,0.4364868,0.0
23715,-0.021402359,-0.28209686,0.33228302,-0.51826173,-0.15080567,0.4364868,0.0
23716,-0.021402359,-0.28209686,0.33228302,-0.27399904,-0.045666505,0.37807617,0.0
23717,0.06263924,-0.32174683,0.2689972,-0.27399904,-0.045666505,0.37807617,0.0
23718,0.06263924,-0.32174683,0.2689972,-0.13699952,0.10407715,0.3802002,0.0
23719,-0.12273979,-0.088394165,0.09887695,-0.13699952,0.10407715,0.3802002,0.0
23720,-0.12273979,-0.088394165,0.09887695,-0.14018555,0.13381349,0.37595215,0.0
23721,-0.31082535,0.012718201,-0.055740356,-0.14018555,0.13381349,0.37595215,0.0
23722,-0.31082535,0.012718201,-0.055740356,-0.09770508,0.1901001,0.32709962,0.0
23723,-0.3583641,0.15013123,0.03377533,-0.09770508,0.1901001,0.32709962,0.0
23724,-0.3583641,0.15013123,0.03377533,-0.020178223,0.24638672,0.3175415,0.0
23725,-0.48998642,0.3580551,0.37211227,-0.020178223,0.24638672,0.3175415,0.0
23726,-0.48998642,0.3580551,0.37211227,-0.06265869,0.18585205,0.30479738,0.0
23727,-0.5735569,0.4137802,0.5721626,-0.06265869,0.18585205,0.30479738,0.0
23728,-0.5735569,0.4137802,0.5721626,-0.11682129,0.11044922,0.31116945,0.0
23729,-0.5372753,0.33629608,0.5729904,-0.11682129,0.11044922,0.31116945,0.0
23730,-0.5372753,0.33629608,0.5729904,-0.17947999,0.04991455,0.28461915,0.0
23731,-0.515501,0.017707825,0.31238556,-0.17947999,0.04991455,0.28461915,0.0
23732,-0.515501,0.017707825,0.31238556,-0.19328614,-0.06903076,0.24001466,0.0
23733,-0.33990288,-0.25338745,-0.37869263,-0.19328614,-0.06903076,0.24001466,0.0
23734,-0.33990288,-0.25338745,-0.37869263,-0.07965088,-0.093457036,0.16248779,0.0
23735,-0.024972916,-0.060668945,-0.9421768,-0.07965088,-0.093457036,0.16248779,0.0
23736,-0.024972916,-0.060668945,-0.9421768,-0.0010620117,0.04885254,0.083898924,0.0
23737,0.025943756,0.45072174,-0.82992554,-0.0010620117,0.04885254,0.083898924,0.0
23738,0.025943756,0.45072174,-0.82992554,0.0063720704,0.015930176,0.11044922,0.0
23739,-0.11834526,0.72423553,-0.43375015,0.0063720704,0.015930176,0.11044922,0.0
23740,-0.11834526,0.72423553,-0.43375015,-0.093457036,-0.052038576,0.11469727,0.0
23741,-0.07968521,0.19050598,-0.20767212,-0.093457036,-0.052038576,0.11469727,0.0
23742,-0.07968521,0.19050598,-0.20767212,-0.22196046,-0.004248047,0.058410645,0.0
23743,0.12900162,-1.149353,-0.09509277,-0.22196046,-0.004248047,0.058410645,0.0
23744,0.12900162,-1.149353,-0.09509277,-0.012744141,-0.06265869,-0.124255374,0.0
23745,0.40990257,-1.7214203,-0.096263885,-0.012744141,-0.06265869,-0.124255374,0.0
23746,0.40990257,-1.7214203,-0.096263885,0.30373535,0.0637207,-0.025488282,0.0
23747,0.58286667,-0.5871353,-0.24711609,0.30373535,0.0637207,-0.025488282,0.0
23748,0.58286667,-0.5871353,-0.24711609,0.13168946,0.04885254,-0.016992187,0.0
23749,0.4277439,1.1613312,-0.019580841,0.13168946,0.04885254,-0.016992187,0.0
23750,0.4277439,1.1613312,-0.019580841,-0.08071289,-0.04141846,0.07115479,0.0
23751,-0.12683487,1.873085,0.7976532,-0.08071289,-0.04141846,0.07115479,0.0
23752,-0.12683487,1.873085,0.7976532,-0.5543701,-0.14974366,0.13487549,0.0
23753,-0.68671036,0.61400604,0.87948227,-0.5543701,-0.14974366,0.13487549,0.0
23754,-0.68671036,0.61400604,0.87948227,-0.5766724,-0.41524658,0.20284425,0.0
23755,-0.45952415,-0.89619446,-0.284523,-0.5766724,-0.41524658,0.20284425,0.0
23756,-0.45952415,-0.89619446,-0.284523,-0.31329346,-0.21558838,0.08814698,0.0
23757,0.17307854,-0.5571518,-1.4579887,-0.31329346,-0.21558838,0.08814698,0.0
23758,0.17307854,-0.5571518,-1.4579887,-0.04885254,0.047790527,0.12000733,0.0
23759,0.56487846,1.3655701,-2.0893402,-0.04885254,0.047790527,0.12000733,0.0
23760,0.56487846,1.3655701,-2.0893402,-0.09664307,0.16992188,0.3993164,0.0
23761,1.1436882,2.7861557,-2.529335,-0.09664307,0.16992188,0.3993164,0.0
23762,1.1436882,2.7861557,-2.529335,-0.24638672,0.6138428,0.45666504,0.0
23763,1.7268658,2.078537,-2.9273834,-0.24638672,0.6138428,0.45666504,0.0
23764,1.7268658,2.078537,-2.9273834,0.21240234,1.1161743,0.544812,0.0
23765,1.527647,0.09098053,-2.6769028,0.21240234,1.1161743,0.544812,0.0
23766,1.527647,0.09098053,-2.6769028,1.2170655,1.7109009,0.3802002,0.0
23767,0.13674164,-0.91493225,-1.2292786,1.2170655,1.7109009,0.3802002,0.0
23768,0.13674164,-0.91493225,-1.2292786,1.7491333,1.9041871,0.5278198,0.0
23769,-1.8767891,-0.20457458,0.6353493,1.7491333,1.9041871,0.5278198,0.0
23770,-1.8767891,-0.20457458,0.6353493,1.6248779,1.6535523,0.53950197,0.0
23771,-3.367447,0.7213516,2.0878792,1.6248779,1.6535523,0.53950197,0.0
23772,-3.367447,0.7213516,2.0878792,1.6248779,1.6535523,0.53950197,0.0
23773,-3.367447,0.7213516,2.0878792,1.3466309,1.3243287,0.10938721,0.0
23774,-4.1698,1.3945618,2.7063522,1.3466309,1.3243287,0.10938721,0.0
23775,-4.1698,1.3945618,2.7063522,0.7582764,0.8442993,0.058410645,0.0
23776,-3.9500256,1.9040298,2.224762,0.7582764,0.8442993,0.058410645,0.0
23777,-3.9500256,1.9040298,2.224762,0.21027832,0.44923097,-0.09451904,0.0
23778,-2.0450668,1.842659,0.8247566,0.21027832,0.44923097,-0.09451904,0.0
23779,-2.0450668,1.842659,0.8247566,0.6488892,0.48427734,0.29205322,0.0
23780,0.5343075,0.98700714,-0.094760895,0.6488892,0.48427734,0.29205322,0.0
23781,0.5343075,0.98700714,-0.094760895,0.89846194,0.5363159,0.023364259,0.0
23782,1.777008,-0.34300995,0.7472763,0.89846194,0.5363159,0.023364259,0.0
23783,1.777008,-0.34300995,0.7472763,1.1182984,0.41737062,0.06796875,0.0
23784,1.6425781,-1.525322,2.0618095,1.1182984,0.41737062,0.06796875,0.0
23785,1.6425781,-1.525322,2.0618095,0.6711914,0.26975098,0.07327881,0.0
23786,1.2320557,-1.7811356,1.8017807,0.6711914,0.26975098,0.07327881,0.0
23787,1.2320557,-1.7811356,1.8017807,0.33240968,0.16248779,0.06903076,0.0
23788,0.5873165,-0.6011658,-0.27532578,0.33240968,0.16248779,0.06903076,0.0
23789,0.5873165,-0.6011658,-0.27532578,0.28674316,0.1529297,0.14868164,0.0
23790,-0.23404121,1.0607071,-1.9431725,0.28674316,0.1529297,0.14868164,0.0
23791,-0.23404121,1.0607071,-1.9431725,0.35577393,0.13912354,0.21983643,0.0
23792,-0.7129173,1.4995804,-1.7306976,0.35577393,0.13912354,0.21983643,0.0
23793,-0.7129173,1.4995804,-1.7306976,0.13912354,0.08071289,0.23789063,0.0
23794,-0.41332626,0.70764923,-0.57099915,0.13912354,0.08071289,0.23789063,0.0
23795,-0.41332626,0.70764923,-0.57099915,0.14549561,0.107263185,0.21877442,0.0
23796,0.18789291,0.21581268,0.26805115,0.14549561,0.107263185,0.21877442,0.0
23797,0.18789291,0.21581268,0.26805115,0.07965088,0.053100586,0.1996582,0.0
23798,0.3426857,0.450325,0.11497879,0.07965088,0.053100586,0.1996582,0.0
23799,0.3426857,0.450325,0.11497879,0.078588866,0.083898924,0.21134034,0.0
23800,0.13795471,0.6670685,-0.41292572,0.078588866,0.083898924,0.21134034,0.0
23801,0.13795471,0.6670685,-0.41292572,0.10301514,0.08602295,0.20284425,0.0
23802,-0.06381798,0.40592957,-0.38469696,0.10301514,0.08602295,0.20284425,0.0
23803,-0.06381798,0.40592957,-0.38469696,0.081774905,0.06159668,0.20390625,0.0
23804,-0.010723114,0.04626465,-0.12741089,0.081774905,0.06159668,0.20390625,0.0
23805,-0.010723114,0.04626465,-0.12741089,-0.040356446,0.04460449,0.22939454,0.0
23806,0.13237572,-0.033218384,-0.046058655,-0.040356446,0.04460449,0.22939454,0.0
23807,0.13237572,-0.033218384,-0.046058655,-0.012744141,0.026550293,0.22408448,0.0
23808,0.10400772,0.23942566,4.0642166,-0.012744141,0.026550293,0.22408448,0.0
23809,0.10400772,0.23942566,4.0642166,-0.070092775,-0.025488282,0.2516968,0.0
23810,0.057937622,0.46204376,-1.0531311,-0.070092775,-0.025488282,0.2516968,0.0
23811,0.057937622,0.46204376,-1.0531311,-0.10195313,-0.040356446,0.24001466,0.0
23812,0.07470703,0.23870087,-1.1837273,-0.10195313,-0.040356446,0.24001466,0.0
23813,0.07470703,0.23870087,-1.1837273,-0.014868164,-0.016992187,0.19541016,0.0
23814,0.039318085,0.013702393,-1.0115585,-0.014868164,-0.016992187,0.19541016,0.0
23815,0.039318085,0.013702393,-1.0115585,0.033984374,-0.016992187,0.20284425,0.0
23816,-0.06336975,0.12504578,-0.68224335,0.033984374,-0.016992187,0.20284425,0.0
23817,-0.06336975,0.12504578,-0.68224335,0.022302246,-0.020178223,0.15505372,0.0
23818,-0.11895752,0.3257904,-0.4515686,0.022302246,-0.020178223,0.15505372,0.0
23819,-0.11895752,0.3257904,-0.4515686,0.07752686,0.009558106,0.124255374,0.0
23820,-0.15029335,0.11228943,-0.14358139,0.07752686,0.009558106,0.124255374,0.0
23821,-0.15029335,0.11228943,-0.14358139,0.039294433,0.040356446,0.13699952,0.0
23822,-0.19823837,-0.4173584,0.109573364,0.039294433,0.040356446,0.13699952,0.0
23823,-0.19823837,-0.4173584,0.109573364,-0.0998291,0.03717041,0.13699952,0.0
23824,-0.1714325,-0.45461273,0.05155182,-0.0998291,0.03717041,0.13699952,0.0
23825,-0.1714325,-0.45461273,0.05155182,-0.22089843,0.058410645,0.1444336,0.0
23826,-0.118494034,0.019340515,-0.30851746,-0.22089843,0.058410645,0.1444336,0.0
23827,-0.118494034,0.019340515,-0.30851746,-0.36851808,0.057348635,0.13487549,0.0
23828,-0.11079788,0.5567703,-0.7178116,-0.36851808,0.057348635,0.13487549,0.0
23829,-0.11079788,0.5567703,-0.7178116,-0.41524658,0.06584473,0.1444336,0.0
23830,-0.16234398,0.5187073,-0.7463684,-0.41524658,0.06584473,0.1444336,0.0
23831,-0.16234398,0.5187073,-0.7463684,-0.31966552,0.070092775,0.08283692,0.0
23832,-0.28466034,0.26103973,-0.1482048,-0.31966552,0.070092775,0.08283692,0.0
23833,-0.28466034,0.26103973,-0.1482048,-0.33984375,0.09664307,0.0,0.0
23834,-0.5619812,1.0888824,0.65221405,-0.33984375,0.09664307,0.0,0.0
23835,-0.5619812,1.0888824,0.65221405,-0.4598511,0.009558106,0.1709839,0.0
23836,-0.87438965,1.0515976,0.38610458,-0.4598511,0.009558106,0.1709839,0.0
23837,-0.87438965,1.0515976,0.38610458,-0.9165161,-0.33240968,0.13487549,0.0
23838,-0.7224369,-1.0115204,-0.4685707,-0.9165161,-0.33240968,0.13487549,0.0
23839,-0.7224369,-1.0115204,-0.4685707,-0.5586182,-0.14018555,-0.3164795,0.0
23840,-0.24292755,-1.7042465,-0.16207504,-0.5586182,-0.14018555,-0.3164795,0.0
23841,-0.24292755,-1.7042465,-0.16207504,-0.72323,-0.17735596,-0.26868898,0.0
23842,-0.016534805,-0.8398361,0.5344734,-0.72323,-0.17735596,-0.26868898,0.0
23843,-0.016534805,-0.8398361,0.5344734,-1.0354614,-0.12213135,-0.25913087,0.0
23844,-0.03378296,-0.510025,0.48479462,-1.0354614,-0.12213135,-0.25913087,0.0
23845,-0.03378296,-0.510025,0.48479462,-1.2106934,0.0,-0.24001466,0.0
23846,0.08623123,-0.9050064,0.17765427,-1.2106934,0.0,-0.24001466,0.0
23847,0.08623123,-0.9050064,0.17765427,-1.0726318,0.14655761,-0.37807617,0.0
23848,0.11604309,-1.0210876,0.011276245,-1.0726318,0.14655761,-0.37807617,0.0
23849,0.11604309,-1.0210876,0.011276245,-0.7763306,0.18372802,-0.3812622,0.0
23850,-0.09675217,-0.070007324,-0.40455627,-0.7763306,0.18372802,-0.3812622,0.0
23851,-0.09675217,-0.070007324,-0.40455627,-0.80606693,0.04991455,-0.41524658,0.0
23852,0.07634735,0.34920502,-1.2408066,-0.80606693,0.04991455,-0.41524658,0.0
23853,0.07634735,0.34920502,-1.2408066,-0.98448485,-0.08496094,-0.5150757,0.0
23854,0.7784729,-0.66672516,-1.7403526,-0.98448485,-0.08496094,-0.5150757,0.0
23855,0.7784729,-0.66672516,-1.7403526,-0.7338501,0.10195313,-0.67650145,0.0
23856,0.9431267,-1.5973434,-1.1946869,-0.7338501,0.10195313,-0.67650145,0.0
23857,0.9431267,-1.5973434,-1.1946869,-0.45560303,0.19222413,-0.47896728,0.0
23858,0.28660583,-1.7035217,-0.57073975,-0.45560303,0.19222413,-0.47896728,0.0
23859,0.28660583,-1.7035217,-0.57073975,-0.49489745,0.05628662,-0.3334717,0.0
23860,-0.08952713,-1.4742279,-0.7749481,-0.49489745,0.05628662,-0.3334717,0.0
23861,-0.08952713,-1.4742279,-0.7749481,-0.56392825,0.1178833,-0.452417,0.0
23862,-0.054971695,-1.1520767,-0.91487885,-0.56392825,0.1178833,-0.452417,0.0
23863,-0.054971695,-1.1520767,-0.91487885,-0.37489015,0.24638672,-0.33134767,0.0
23864,-0.10839462,-0.73322296,-0.365036,-0.37489015,0.24638672,-0.33134767,0.0
23865,-0.10839462,-0.73322296,-0.365036,-0.2814331,0.22302246,-0.3462158,0.0
23866,-0.091646194,-0.21009064,-0.08069992,-0.2814331,0.22302246,-0.3462158,0.0
23867,-0.091646194,-0.21009064,-0.08069992,-0.17841797,0.13912354,-0.40144044,0.0
23868,0.24196625,0.3301239,-0.44664,-0.17841797,0.13912354,-0.40144044,0.0
23869,0.24196625,0.3301239,-0.44664,0.13699952,0.23895264,-0.42161867,0.0
23870,0.30376625,0.24298859,-0.48566818,0.13699952,0.23895264,-0.42161867,0.0
23871,0.30376625,0.24298859,-0.48566818,0.4715332,0.2888672,-0.27506104,0.0
23872,-0.24897957,-0.3668518,-0.19036865,0.4715332,0.2888672,-0.27506104,0.0
23873,-0.24897957,-0.3668518,-0.19036865,0.3154175,0.10301514,-0.46622315,0.0
23874,-0.59067535,-0.7110443,-0.18045807,0.3154175,0.10301514,-0.46622315,0.0
23875,-0.59067535,-0.7110443,-0.18045807,0.038232423,-0.011682129,-0.61915284,0.0
23876,-0.49022865,-0.80612946,-0.1024704,0.038232423,-0.011682129,-0.61915284,0.0
23877,-0.49022865,-0.80612946,-0.1024704,0.1539917,-0.035046387,-0.7147339,0.0
23878,-0.42929268,-0.5746918,0.37461472,0.1539917,-0.035046387,-0.7147339,0.0
23879,-0.42929268,-0.5746918,0.37461472,0.1539917,-0.24320069,-0.8729736,0.0
23880,-0.43535233,-0.3497467,0.8110199,0.1539917,-0.24320069,-0.8729736,0.0
23881,-0.43535233,-0.3497467,0.8110199,0.08496094,-0.4439209,-1.0120972,0.0
23882,-0.4909935,-0.46594238,0.86146164,0.08496094,-0.4439209,-1.0120972,0.0
23883,-0.4909935,-0.46594238,0.86146164,-0.046728518,-0.62764895,-1.1926392,0.0
23884,-0.57305527,-0.51992035,0.5883026,-0.046728518,-0.62764895,-1.1926392,0.0
23885,-0.57305527,-0.51992035,0.5883026,-0.31223145,-0.8612915,-1.359375,0.0
23886,-0.3355198,-0.5067215,-0.29367447,-0.31223145,-0.8612915,-1.359375,0.0
23887,-0.3355198,-0.5067215,-0.29367447,-0.5161377,-0.998291,-1.4974365,0.0
23888,0.76490974,-0.29528046,-2.2511292,-0.5161377,-0.998291,-1.4974365,0.0
23889,0.76490974,-0.29528046,-2.2511292,0.23258057,-0.544812,-1.1692749,0.0
23890,2.3925323,-0.32156372,-2.8996735,0.23258057,-0.544812,-1.1692749,0.0
23891,2.3925323,-0.32156372,-2.8996735,0.9505005,-0.26762697,-1.4114136,0.0
23892,3.1307735,-1.3897324,-0.54335785,0.9505005,-0.26762697,-1.4114136,0.0
23893,3.1307735,-1.3897324,-0.54335785,1.2021973,-0.039294433,-1.5728394,0.0
23894,2.446598,-2.514656,2.3691216,1.2021973,-0.039294433,-1.5728394,0.0
23895,2.446598,-2.514656,2.3691216,1.4857544,0.012744141,-1.544165,0.0
23896,0.9962425,-2.2028732,3.4568596,1.4857544,0.012744141,-1.544165,0.0
23897,0.9962425,-2.2028732,3.4568596,0.96218264,-0.07752686,-1.5112427,0.0
23898,-0.24872208,-1.0254059,2.3653755,0.96218264,-0.07752686,-1.5112427,0.0
23899,-0.24872208,-1.0254059,2.3653755,0.5607422,-0.20390625,-1.5739014,0.0
23900,-0.55454445,-0.25099945,0.36053848,0.5607422,-0.20390625,-1.5739014,0.0
23901,-0.55454445,-0.25099945,0.36053848,0.5564942,-0.028674318,-1.5823975,0.0
23902,-0.08223534,-0.14964294,-0.6079445,0.5564942,-0.028674318,-1.5823975,0.0
23903,-0.08223534,-0.14964294,-0.6079445,0.5734863,0.12213135,-1.5739014,0.0
23904,0.6153641,-0.5484772,0.05937195,0.5734863,0.12213135,-1.5739014,0.0
23905,0.6153641,-0.5484772,0.05937195,0.4991455,0.08602295,-1.6068238,0.0
23906,1.4542179,-0.9227524,1.0714836,0.4991455,0.08602295,-1.6068238,0.0
23907,1.4542179,-0.9227524,1.0714836,0.3993164,0.0180542,-1.4677002,0.0
23908,1.4542179,-0.9227524,1.0714836,0.3993164,0.0180542,-1.4677002,97.0
23909,2.1502876,-1.1122742,1.0033531,0.3993164,0.0180542,-1.4677002,97.0
23910,2.1502876,-1.1122742,1.0033531,0.20178223,0.20921631,-1.3423828,97.0
23911,1.8149929,-1.6574478,0.07475281,0.20178223,0.20921631,-1.3423828,97.0
23912,1.8149929,-1.6574478,0.07475281,0.38869628,0.4980835,-1.4209718,97.0
23913,0.42516327,-2.2109451,-0.42098618,0.38869628,0.4980835,-1.4209718,97.0
23914,0.42516327,-2.2109451,-0.42098618,0.6552612,0.5140137,-1.5930176,97.0
23915,-0.66895103,-1.9228821,-0.03135681,0.6552612,0.5140137,-1.5930176,97.0
23916,-0.66895103,-1.9228821,-0.03135681,0.5692383,0.15823975,-1.7098389,97.0
23917,-0.47545624,-1.2026215,0.3594017,0.5692383,0.15823975,-1.7098389,97.0
23918,-0.47545624,-1.2026215,0.3594017,0.28355715,-0.107263185,-1.7480713,97.0
23919,0.30426598,-0.7630997,0.3432579,0.28355715,-0.107263185,-1.7480713,97.0
23920,0.30426598,-0.7630997,0.3432579,-0.008496094,-0.020178223,-1.812854,97.0
23921,0.76745987,-0.43219757,0.195858,-0.008496094,-0.020178223,-1.812854,97.0
23922,0.76745987,-0.43219757,0.195858,-0.61702883,-0.21134034,-1.7703736,97.0
23923,1.5704498,-0.22059631,-0.38452148,-0.61702883,-0.21134034,-1.7703736,97.0
23924,1.5704498,-0.22059631,-0.38452148,-0.61278075,-0.35789797,-1.7406372,97.0
23925,2.6386604,-0.6592865,-1.1166039,-0.61278075,-0.35789797,-1.7406372,97.0
23926,2.6386604,-0.6592865,-1.1166039,-0.14761963,0.37807617,-2.0040162,97.0
23927,2.0566444,-0.9508438,-0.8830414,-0.14761963,0.37807617,-2.0040162,97.0
23928,2.0566444,-0.9508438,-0.8830414,-0.19647217,0.6180908,-2.069861,97.0
23929,0.38574505,-0.12517548,-0.034301758,-0.19647217,0.6180908,-2.069861,97.0
23930,0.38574505,-0.12517548,-0.034301758,-0.632959,0.16461182,-2.16969,97.0
23931,0.20411587,0.66508484,-0.0015640259,-0.632959,0.16461182,-2.16969,97.0
23932,0.20411587,0.66508484,-0.0015640259,-0.8857178,0.035046387,-2.2960694,97.0
23933,1.4815912,0.2375946,-0.60087204,-0.8857178,0.035046387,-2.2960694,97.0
23934,1.4815912,0.2375946,-0.60087204,-0.7975708,0.49489745,-2.4744873,97.0
23935,2.4694166,-0.8015518,-0.65307236,-0.7975708,0.49489745,-2.4744873,97.0
23936,2.4694166,-0.8015518,-0.65307236,-0.58198243,0.50020754,-2.5074098,97.0
23937,2.8803673,-1.3943481,-0.22726822,-0.58198243,0.50020754,-2.5074098,97.0
23938,2.8803673,-1.3943481,-0.22726822,-0.5703003,0.49383545,-2.613611,97.0
23939,3.1082726,-1.4496613,-0.0496521,-0.5703003,0.49383545,-2.613611,97.0
23940,3.1082726,-1.4496613,-0.0496521,-0.38975832,0.7317261,-2.6858277,97.0
23941,2.9581642,-1.1933594,-0.040267944,-0.38975832,0.7317261,-2.6858277,97.0
23942,2.9581642,-1.1933594,-0.040267944,0.012744141,0.83898926,-2.7442384,97.0
23943,2.4137726,-0.63090515,0.22092438,0.012744141,0.83898926,-2.7442384,97.0
23944,2.4137726,-0.63090515,0.22092438,0.0998291,0.7742066,-2.6911378,97.0
23945,1.93396,-0.24703217,0.376091,0.0998291,0.7742066,-2.6911378,97.0
23946,1.93396,-0.24703217,0.376091,-0.025488282,0.81881106,-2.6921997,97.0
23947,1.8878784,-0.7311859,0.21704865,-0.025488282,0.81881106,-2.6921997,97.0
23948,1.8878784,-0.7311859,0.21704865,0.04248047,0.95581055,-2.8568115,97.0
23949,1.9723024,-0.95002747,0.14645386,0.04248047,0.95581055,-2.8568115,97.0
23950,1.9723024,-0.95002747,0.14645386,-0.013806152,0.9897949,-2.9184082,97.0
23951,2.4231176,-0.9175415,0.10779953,-0.013806152,0.9897949,-2.9184082,97.0
23952,2.4231176,-0.9175415,0.10779953,-0.07434082,1.0280274,-2.9205322,97.0
23953,2.735589,-0.06929779,0.13076782,-0.07434082,1.0280274,-2.9205322,97.0
23954,2.735589,-0.06929779,0.13076782,-0.16142578,1.1151123,-2.8345094,97.0
23955,3.361164,1.7829666,0.099803925,-0.16142578,1.1151123,-2.8345094,97.0
23956,3.361164,1.7829666,0.099803925,-0.6839356,1.3445069,-2.8599975,97.0
23957,3.0715485,2.04908,0.07084656,-0.6839356,1.3445069,-2.8599975,97.0
23958,3.0715485,2.04908,0.07084656,-1.1161743,1.3784913,-2.7537963,97.0
23959,2.308545,1.2039108,0.084373474,-1.1161743,1.3784913,-2.7537963,97.0
23960,2.308545,1.2039108,0.084373474,-1.5728394,1.447522,-2.3820922,97.0
23961,2.131052,0.43629456,0.14465714,-1.5728394,1.447522,-2.3820922,97.0
23962,2.131052,0.43629456,0.14465714,-0.9388184,1.3742431,-2.1463258,97.0
23963,2.995882,-1.2951508,0.3155899,-0.9388184,1.3742431,-2.1463258,97.0
23964,2.995882,-1.2951508,0.3155899,-0.7189819,1.4740723,-1.8744507,97.0
23965,2.8369155,-1.0413208,0.36647415,-0.7189819,1.4740723,-1.8744507,97.0
23966,2.8369155,-1.0413208,0.36647415,-0.4970215,1.5069946,-1.6747925,97.0
23967,1.2936535,0.20876312,-0.04586029,-0.4970215,1.5069946,-1.6747925,97.0
23968,1.2936535,0.20876312,-0.04586029,-1.2191895,1.1044922,-1.3944215,97.0
23969,0.7065902,0.8726654,-0.3695259,-1.2191895,1.1044922,-1.3944215,97.0
23970,0.7065902,0.8726654,-0.3695259,-1.6418701,1.0821899,-1.3211426,97.0
23971,0.6131482,1.2990875,-1.4174728,-1.6418701,1.0821899,-1.3211426,97.0
23972,0.6131482,1.2990875,-1.4174728,-1.7055908,1.1894531,-1.4358399,97.0
23973,1.5539951,1.4401093,-2.3275948,-1.7055908,1.1894531,-1.4358399,97.0
23974,1.5539951,1.4401093,-2.3275948,-1.7055908,1.6153198,-1.1299804,97.0
23975,2.1004958,0.95433044,-1.9287033,-1.7055908,1.6153198,-1.1299804,97.0
23976,2.1004958,0.95433044,-1.9287033,-0.46516114,1.7278931,-0.9430664,97.0
23977,1.7284801,0.12453461,-0.2922287,-0.46516114,1.7278931,-0.9430664,97.0
23978,1.7284801,0.12453461,-0.2922287,0.61278075,1.5250489,-0.4970215,97.0
23979,1.113143,0.8813019,1.114254,0.61278075,1.5250489,-0.4970215,97.0
23980,1.113143,0.8813019,1.114254,0.85491943,1.355127,0.081774905,97.0
23981,0.9503045,2.3958359,1.4998474,0.85491943,1.355127,0.081774905,97.0
23982,0.9503045,2.3958359,1.4998474,1.4846925,1.2574219,0.73597413,97.0
23983,1.370998,2.9398499,1.5164299,1.4846925,1.2574219,0.73597413,97.0
23984,1.370998,2.9398499,1.5164299,2.0103881,1.1321045,1.0620117,97.0
23985,1.9548917,2.1927948,1.8845673,2.0103881,1.1321045,1.0620117,97.0
23986,1.9548917,2.1927948,1.8845673,1.8171021,0.99935305,1.3806152,97.0
23987,2.4828587,0.6724243,2.5903435,1.8171021,0.99935305,1.3806152,97.0
23988,2.4828587,0.6724243,2.5903435,1.5420411,0.6138428,1.6418701,97.0
23989,2.8608842,-1.5782852,3.3247147,1.5420411,0.6138428,1.6418701,97.0
23990,2.8608842,-1.5782852,3.3247147,3.6830566,0.55543214,2.3141236,97.0
23991,2.9352527,-3.432457,4.046257,3.6830566,0.55543214,2.3141236,97.0
23992,2.9352527,-3.432457,4.046257,5.0222535,0.8071289,2.2004883,97.0
23993,2.3245206,-3.3276901,4.82259,5.0222535,0.8071289,2.2004883,97.0
23994,2.3245206,-3.3276901,4.82259,4.617627,0.9388184,1.721521,97.0
23995,0.7244847,-2.669609,5.0261536,4.617627,0.9388184,1.721521,97.0
23996,0.7244847,-2.669609,5.0261536,3.2731202,0.45772704,1.1342286,97.0
23997,-1.0280416,-2.9364548,4.5112915,3.2731202,0.45772704,1.1342286,97.0
23998,-1.0280416,-2.9364548,4.5112915,2.6911378,0.0010620117,0.632959,97.0
23999,-1.7913176,-2.6428986,3.6963158,2.6911378,0.0010620117,0.632959,97.0
24000,-1.7913176,-2.6428986,3.6963158,2.7527344,-0.34940186,0.26868898,97.0
24001,-1.6124609,-1.1645279,2.74609,2.7527344,-0.34940186,0.26868898,97.0
24002,-1.6124609,-1.1645279,2.74609,3.062842,-0.6138428,0.015930176,97.0
24003,-1.2351592,0.7112961,1.5972862,3.062842,-0.6138428,0.015930176,97.0
24004,-1.2351592,0.7112961,1.5972862,3.2901123,-0.4364868,-0.035046387,97.0
24005,-1.3460252,2.2670517,0.63588333,3.2901123,-0.4364868,-0.035046387,97.0
24006,-1.3460252,2.2670517,0.63588333,3.6076539,-0.3345337,0.014868164,97.0
24007,-2.032887,2.8034134,0.18893051,3.6076539,-0.3345337,0.014868164,97.0
24008,-2.032887,2.8034134,0.18893051,3.8402345,-0.18479005,-0.1083252,97.0
24009,-2.6885657,3.0193024,0.1771698,3.8402345,-0.18479005,-0.1083252,97.0
24010,-2.6885657,3.0193024,0.1771698,4.084497,0.081774905,-0.30161133,97.0
24011,-2.966392,3.456894,0.2786255,4.084497,0.081774905,-0.30161133,97.0
24012,-2.966392,3.456894,0.2786255,4.442395,0.32072756,-0.26762697,97.0
24013,-2.8402767,3.7190094,0.16814041,4.442395,0.32072756,-0.26762697,97.0
24014,-2.8402767,3.7190094,0.16814041,4.36062,0.47578126,-0.49064943,97.0
24015,-2.707695,3.7265396,-0.17315292,4.36062,0.47578126,-0.49064943,97.0
24016,-2.707695,3.7265396,-0.17315292,3.7011108,0.6085327,-0.77526855,97.0
24017,-2.707695,3.7265396,-0.17315292,3.7011108,0.6085327,-0.77526855,97.0
24018,-3.013605,3.731186,-0.21027374,3.7011108,0.6085327,-0.77526855,97.0
24019,-3.013605,3.731186,-0.21027374,2.8504395,0.53737795,-1.0259033,97.0
24020,-3.7474074,4.1467743,0.14192581,2.8504395,0.53737795,-1.0259033,97.0
24021,-3.7474074,4.1467743,0.14192581,1.8202881,0.45560303,-1.0259033,97.0
24022,-4.8126597,5.421753,0.2389183,1.8202881,0.45560303,-1.0259033,97.0
24023,-4.8126597,5.421753,0.2389183,2.6847656,-0.20178223,-0.66481936,97.0
24024,-4.4694757,5.557846,-0.6952057,2.6847656,-0.20178223,-0.66481936,97.0
24025,-4.4694757,5.557846,-0.6952057,1.9583496,-0.38338622,-1.4018555,97.0
24026,-2.1729803,3.1867294,-1.5285416,1.9583496,-0.38338622,-1.4018555,97.0
24027,-2.1729803,3.1867294,-1.5285416,1.5866455,0.32497558,-1.6631104,97.0
24028,-0.38805485,2.1161041,-0.42210007,1.5866455,0.32497558,-1.6631104,97.0
24029,-0.38805485,2.1161041,-0.42210007,0.70198977,0.1263794,-1.3965454,97.0
24030,0.8357105,3.0619278,1.1587677,0.70198977,0.1263794,-1.3965454,97.0
24031,0.8357105,3.0619278,1.1587677,0.36745605,-0.26125488,-1.2712281,97.0
24032,2.3821182,3.5384445,1.4880371,0.36745605,-0.26125488,-1.2712281,97.0
24033,2.3821182,3.5384445,1.4880371,0.20921631,-0.046728518,-0.98129886,97.0
24034,3.175641,3.7032928,0.7407074,0.20921631,-0.046728518,-0.98129886,97.0
24035,3.175641,3.7032928,0.7407074,0.057348635,0.050976563,-0.4959595,97.0
24036,2.3226538,2.904686,-0.091796875,0.057348635,0.050976563,-0.4959595,97.0
24037,2.3226538,2.904686,-0.091796875,-0.14655761,0.1709839,-0.26868898,97.0
24038,0.71165085,1.2912674,-0.31318283,-0.14655761,0.1709839,-0.26868898,97.0
24039,0.71165085,1.2912674,-0.31318283,-0.45135498,0.15505372,-0.3164795,97.0
24040,-0.32483196,0.24424744,0.033668518,-0.45135498,0.15505372,-0.3164795,97.0
24041,-0.32483196,0.24424744,0.033668518,-0.7189819,0.059472658,-0.4343628,97.0
24042,-0.25945044,0.24367523,0.54927063,-0.7189819,0.059472658,-0.4343628,97.0
24043,-0.25945044,0.24367523,0.54927063,-0.73703617,-0.02442627,-0.35152587,97.0
24044,0.38859463,0.62272644,0.7850342,-0.73703617,-0.02442627,-0.35152587,97.0
24045,0.38859463,0.62272644,0.7850342,-0.9133301,-0.059472658,-0.24107666,97.0
24046,0.8153682,0.2795639,0.6222534,-0.9133301,-0.059472658,-0.24107666,97.0
24047,0.8153682,0.2795639,0.6222534,-1.0630738,-0.090270996,-0.23258057,97.0
24048,0.97642803,-0.41671753,0.20339203,-1.0630738,-0.090270996,-0.23258057,97.0
24049,0.97642803,-0.41671753,0.20339203,-1.0726318,-0.09770508,-0.2888672,97.0
24050,0.817019,-0.3456421,-0.19638062,-1.0726318,-0.09770508,-0.2888672,97.0
24051,0.817019,-0.3456421,-0.19638062,-0.9696167,-0.009558106,-0.19753419,97.0
24052,0.31605387,0.015182495,-0.183815,-0.9696167,-0.009558106,-0.19753419,97.0
24053,0.31605387,0.015182495,-0.183815,-1.0067872,-0.07752686,-0.15611573,97.0
24054,0.037218094,-0.14219666,0.3869171,-1.0067872,-0.07752686,-0.15611573,97.0
24055,0.037218094,-0.14219666,0.3869171,-0.8889038,-0.057348635,-0.21027832,97.0
24056,0.06134224,-0.42126465,0.8631973,-0.8889038,-0.057348635,-0.21027832,97.0
24057,0.06134224,-0.42126465,0.8631973,-1.1862671,-0.118945315,-0.14974366,97.0
24058,0.106153965,-0.6544571,0.42373657,-1.1862671,-0.118945315,-0.14974366,97.0
24059,0.106153965,-0.6544571,0.42373657,-1.2011353,-0.15717773,-0.22089843,97.0
24060,0.082054615,-0.70345306,-0.14213943,-1.2011353,-0.15717773,-0.22089843,97.0
24061,0.082054615,-0.70345306,-0.14213943,-0.74447024,-0.011682129,-0.20496826,97.0
24062,-0.13251305,-0.42321014,0.20787048,-0.74447024,-0.011682129,-0.20496826,97.0
24063,-0.13251305,-0.42321014,0.20787048,-1.1650269,-0.09239502,-0.19434814,97.0
24064,-0.23289013,-0.4743576,0.47434998,-1.1650269,-0.09239502,-0.19434814,97.0
24065,-0.23289013,-0.4743576,0.47434998,-1.8553345,-0.16779785,-0.30054933,97.0
24066,0.053665638,-1.2769241,0.045360565,-1.8553345,-0.16779785,-0.30054933,97.0
24067,0.053665638,-1.2769241,0.045360565,-1.3423828,-0.035046387,-0.34090576,97.0
24068,0.116577625,-1.4207306,0.053318024,-1.3423828,-0.035046387,-0.34090576,97.0
24069,0.116577625,-1.4207306,0.053318024,-1.0577637,0.0541626,-0.33771974,97.0
24070,-0.2513299,-0.64964294,0.5950699,-1.0577637,0.0541626,-0.33771974,97.0
24071,-0.2513299,-0.64964294,0.5950699,-1.5165528,-0.12000733,-0.3334717,97.0
24072,-0.27319527,-0.9657364,0.41339493,-1.5165528,-0.12000733,-0.3334717,97.0
24073,-0.27319527,-0.9657364,0.41339493,-1.2521118,-0.16142578,-0.33240968,97.0
24074,-0.06378317,-2.0276642,-0.13062286,-1.2521118,-0.16142578,-0.33240968,97.0
24075,-0.06378317,-2.0276642,-0.13062286,-0.29311523,-0.04248047,-0.37701416,97.0
24076,-0.025916576,-1.558754,-0.01158905,-0.29311523,-0.04248047,-0.37701416,97.0
24077,-0.025916576,-1.558754,-0.01158905,-0.31966552,-0.10089111,-0.39294434,97.0
24078,0.15181303,-0.2713089,0.015411377,-0.31966552,-0.10089111,-0.39294434,97.0
24079,0.15181303,-0.2713089,0.015411377,-0.8857178,-0.24107666,-0.31860352,97.0
24080,0.5287013,-0.3406067,-0.8595085,-0.8857178,-0.24107666,-0.31860352,97.0
24081,0.5287013,-0.3406067,-0.8595085,-1.9753418,-0.18479005,-0.37489015,97.0
24082,0.7781005,-1.3011627,-1.5409393,-1.9753418,-0.18479005,-0.37489015,97.0
24083,0.7781005,-1.3011627,-1.5409393,-2.2408447,-0.11469727,-0.46516114,97.0
24084,0.5134959,-1.541832,-0.8235626,-2.2408447,-0.11469727,-0.46516114,97.0
24085,0.5134959,-1.541832,-0.8235626,-1.7236451,-0.047790527,-0.27399904,97.0
24086,-0.1055851,-1.1842575,0.28533936,-1.7236451,-0.047790527,-0.27399904,97.0
24087,-0.1055851,-1.1842575,0.28533936,-1.6248779,-0.2081543,-0.22408448,97.0
24088,-0.5222492,-1.4394455,0.33790207,-1.6248779,-0.2081543,-0.22408448,97.0
24089,-0.5222492,-1.4394455,0.33790207,-1.7374512,-0.31966552,-0.26125488,97.0
24090,-0.13639069,-2.066986,-0.5468674,-1.7374512,-0.31966552,-0.26125488,97.0
24091,-0.13639069,-2.066986,-0.5468674,-1.5282348,-0.33134767,-0.21027832,97.0
24092,0.52853394,-1.6964569,-0.9698181,-1.5282348,-0.33134767,-0.21027832,97.0
24093,0.52853394,-1.6964569,-0.9698181,-1.3073364,0.045666505,-0.2824951,97.0
24094,0.4914918,-0.889328,-0.47190857,-1.3073364,0.045666505,-0.2824951,97.0
24095,0.4914918,-0.889328,-0.47190857,-1.4655762,-0.11682129,-0.22089843,97.0
24096,0.02163601,-1.2024689,-0.15278244,-1.4655762,-0.11682129,-0.22089843,97.0
24097,0.02163601,-1.2024689,-0.15278244,-1.1522827,-0.26868898,-0.20709229,97.0
24098,-0.18637753,-1.8984604,-0.7830658,-1.1522827,-0.26868898,-0.20709229,97.0
24099,-0.18637753,-1.8984604,-0.7830658,-1.0556396,-0.26975098,-0.15505372,97.0
24100,0.11167669,-1.8072357,-1.2507439,-1.0556396,-0.26975098,-0.15505372,97.0
24101,0.11167669,-1.8072357,-1.2507439,-0.8326172,-0.16992188,-0.15611573,97.0
24102,0.40629673,-1.114357,-0.6161232,-0.8326172,-0.16992188,-0.15611573,97.0
24103,0.40629673,-1.114357,-0.6161232,-0.8612915,-0.08496094,-0.13062744,97.0
24104,0.23973465,-0.5981903,-0.09761047,-0.8612915,-0.08496094,-0.13062744,97.0
24105,0.23973465,-0.5981903,-0.09761047,-1.26167,-0.22302246,-0.15930176,97.0
24106,0.038723946,-0.6772003,-0.66441727,-1.26167,-0.22302246,-0.15930176,97.0
24107,0.038723946,-0.6772003,-0.66441727,-1.3413209,-0.25594482,-0.06903076,97.0
24108,0.09572554,-1.2200546,-1.3672409,-1.3413209,-0.25594482,-0.06903076,97.0
24109,0.09572554,-1.2200546,-1.3672409,-1.1267945,-0.14124756,-0.13699952,97.0
24110,0.123369694,-1.5473557,-1.1574631,-1.1267945,-0.14124756,-0.13699952,97.0
24111,0.123369694,-1.5473557,-1.1574631,-0.9451904,-0.09239502,-0.16354981,97.0
24112,0.048244,-1.2567596,-0.47865677,-0.9451904,-0.09239502,-0.16354981,97.0
24113,0.048244,-1.2567596,-0.47865677,-0.96218264,-0.11044922,-0.13275146,97.0
24114,0.027291298,-0.90397644,-0.17947006,-0.96218264,-0.11044922,-0.13275146,97.0
24115,0.027291298,-0.90397644,-0.17947006,-0.9685547,-0.11363526,-0.12850343,97.0
24116,0.012604237,-1.008194,-0.398571,-0.9685547,-0.11363526,-0.12850343,97.0
24117,0.012604237,-1.008194,-0.398571,-0.86553955,-0.045666505,-0.09664307,97.0
24118,0.02039814,-1.208725,-0.6159897,-0.86553955,-0.045666505,-0.09664307,97.0
24119,0.02039814,-1.208725,-0.6159897,-0.5649902,-0.029736329,-0.15930176,97.0
24120,0.02039814,-1.208725,-0.6159897,-0.5649902,-0.029736329,-0.15930176,98.0
24121,0.1291604,-1.0016632,-0.49752808,-0.5649902,-0.029736329,-0.15930176,98.0
24122,0.1291604,-1.0016632,-0.49752808,-0.5331299,-0.0010620117,-0.14337158,98.0
24123,0.23474932,-0.60767365,-0.21983719,-0.5331299,-0.0010620117,-0.14337158,98.0
24124,0.23474932,-0.60767365,-0.21983719,-0.6064087,0.0180542,-0.16142578,98.0
24125,0.20861244,-0.44607544,-0.11074448,-0.6064087,0.0180542,-0.16142578,98.0
24126,0.20861244,-0.44607544,-0.11074448,-0.5798584,0.0,-0.16354981,98.0
24127,0.20771027,-0.44213867,-0.32779312,-0.5798584,0.0,-0.16354981,98.0
24128,0.20771027,-0.44213867,-0.32779312,-0.68924564,0.0021240234,-0.14761963,98.0
24129,0.28372192,-0.68182373,-0.630043,-0.68924564,0.0021240234,-0.14761963,98.0
24130,0.28372192,-0.68182373,-0.630043,-0.60959476,0.06159668,-0.16142578,98.0
24131,0.21437979,-0.8107071,-0.6768837,-0.60959476,0.06159668,-0.16142578,98.0
24132,0.21437979,-0.8107071,-0.6768837,-0.42905274,0.08496094,-0.17947999,98.0
24133,-0.0127978325,-0.405365,-0.6189003,-0.42905274,0.08496094,-0.17947999,98.0
24134,-0.0127978325,-0.405365,-0.6189003,-0.634021,0.04248047,-0.16567384,98.0
24135,-0.10237694,-0.13240814,-0.71014786,-0.634021,0.04248047,-0.16567384,98.0
24136,-0.10237694,-0.13240814,-0.71014786,-0.64570314,0.004248047,-0.18797608,98.0
24137,0.040986538,-0.31204224,-0.81425095,-0.64570314,0.004248047,-0.18797608,98.0
24138,0.040986538,-0.31204224,-0.81425095,-0.5915405,0.053100586,-0.14974366,98.0
24139,0.15660524,-0.5815277,-0.637825,-0.5915405,0.053100586,-0.14974366,98.0
24140,0.15660524,-0.5815277,-0.637825,-0.5586182,0.087084964,-0.15080567,98.0
24141,0.15531349,-0.48669434,-0.31066132,-0.5586182,0.087084964,-0.15080567,98.0
24142,0.15531349,-0.48669434,-0.31066132,-0.6552612,0.03717041,-0.08071289,98.0
24143,0.15297413,-0.14399719,-0.35363007,-0.6552612,0.03717041,-0.08071289,98.0
24144,0.15297413,-0.14399719,-0.35363007,-1.1023682,0.060534667,-0.10513916,98.0
24145,0.04138565,-0.40641022,-0.734745,-1.1023682,0.060534667,-0.10513916,98.0
24146,0.04138565,-0.40641022,-0.734745,-0.7657105,0.08814698,-0.11151123,98.0
24147,-0.12767029,-0.99502563,-0.93371964,-0.7657105,0.08814698,-0.11151123,98.0
24148,-0.12767029,-0.99502563,-0.93371964,-0.34090576,0.070092775,-0.06796875,98.0
24149,-0.09941387,-0.9437485,-0.6810188,-0.34090576,0.070092775,-0.06796875,98.0
24150,-0.09941387,-0.9437485,-0.6810188,-0.3791382,0.10513916,-0.06584473,98.0
24151,0.013779163,-0.467659,-0.1937561,-0.3791382,0.10513916,-0.06584473,98.0
24152,0.013779163,-0.467659,-0.1937561,-0.52038574,0.090270996,-0.11363526,98.0
24153,0.029016495,-0.28232574,-0.016929626,-0.52038574,0.090270996,-0.11363526,98.0
24154,0.029016495,-0.28232574,-0.016929626,-0.44498292,0.05628662,-0.09451904,98.0
24155,0.07809591,-0.41168976,-0.2195015,-0.44498292,0.05628662,-0.09451904,98.0
24156,0.07809591,-0.41168976,-0.2195015,-0.43967286,0.08283692,-0.06903076,98.0
24157,0.1297741,-0.5679779,-0.28899384,-0.43967286,0.08283692,-0.06903076,98.0
24158,0.1297741,-0.5679779,-0.28899384,-0.3069214,0.07646485,-0.040356446,98.0
24159,0.10217142,-0.5580673,-0.25325394,-0.3069214,0.07646485,-0.040356446,98.0
24160,0.10217142,-0.5580673,-0.25325394,-0.36745605,0.04460449,-0.021240234,98.0
24161,0.058214188,-0.40475464,-0.39453125,-0.36745605,0.04460449,-0.021240234,98.0
24162,0.058214188,-0.40475464,-0.39453125,-0.51082766,0.050976563,-0.053100586,98.0
24163,0.014784336,-0.35707855,-0.56145096,-0.51082766,0.050976563,-0.053100586,98.0
24164,0.014784336,-0.35707855,-0.56145096,-0.38444826,0.06265869,-0.033984374,98.0
24165,-0.0055189133,-0.35972595,-0.48407364,-0.38444826,0.06265869,-0.033984374,98.0
24166,-0.0055189133,-0.35972595,-0.48407364,-0.20284425,0.06584473,-0.025488282,98.0
24167,-0.0032553673,-0.27858734,-0.3129921,-0.20284425,0.06584473,-0.025488282,98.0
24168,-0.0032553673,-0.27858734,-0.3129921,-0.35152587,0.053100586,-0.022302246,98.0
24169,-0.029191017,-0.18334198,-0.29366684,-0.35152587,0.053100586,-0.022302246,98.0
24170,-0.029191017,-0.18334198,-0.29366684,-0.40356445,0.012744141,-0.023364259,98.0
24171,0.008312225,-0.19635773,-0.3774376,-0.40356445,0.012744141,-0.023364259,98.0
24172,0.008312225,-0.19635773,-0.3774376,-0.20390625,0.019116212,0.009558106,98.0
24173,0.056246758,-0.32347107,-0.3652916,-0.20390625,0.019116212,0.009558106,98.0
24174,0.056246758,-0.32347107,-0.3652916,-0.10620117,0.050976563,-0.047790527,98.0
24175,5.636215E-4,-0.37823486,-0.27404404,-0.10620117,0.050976563,-0.047790527,98.0
24176,5.636215E-4,-0.37823486,-0.27404404,-0.12319336,0.03717041,-0.021240234,98.0
24177,-0.044727325,-0.1328125,-0.26424026,-0.12319336,0.03717041,-0.021240234,98.0
24178,-0.044727325,-0.1328125,-0.26424026,-0.3525879,0.020178223,-0.0361084,98.0
24179,-0.03072834,0.025917053,-0.2765541,-0.3525879,0.020178223,-0.0361084,98.0
24180,-0.03072834,0.025917053,-0.2765541,-0.44498292,0.019116212,-0.039294433,98.0
24181,0.010744572,-0.26602173,-0.18523407,-0.44498292,0.019116212,-0.039294433,98.0
24182,0.010744572,-0.26602173,-0.18523407,-0.17416993,0.027612304,-0.046728518,98.0
24183,0.055104733,-0.42049408,-0.0920372,-0.17416993,0.027612304,-0.046728518,98.0
24184,0.055104733,-0.42049408,-0.0920372,-0.23789063,0.032922365,-0.046728518,98.0
24185,0.067729,-0.20431519,-0.15881348,-0.23789063,0.032922365,-0.046728518,98.0
24186,0.067729,-0.20431519,-0.15881348,-0.4067505,0.040356446,-0.023364259,98.0
24187,0.046968937,-0.16434479,-0.2900772,-0.4067505,0.040356446,-0.023364259,98.0
24188,0.046968937,-0.16434479,-0.2900772,-0.25806886,0.029736329,-0.011682129,98.0
24189,-0.022532463,-0.36180878,-0.32424927,-0.25806886,0.029736329,-0.011682129,98.0
24190,-0.022532463,-0.36180878,-0.32424927,-0.08283692,0.038232423,-0.038232423,98.0
24191,-0.06156826,-0.44302368,-0.26755524,-0.08283692,0.038232423,-0.038232423,98.0
24192,-0.06156826,-0.44302368,-0.26755524,-0.02442627,0.028674318,-0.0053100586,98.0
24193,-0.0497427,-0.25528717,-0.21218872,-0.02442627,0.028674318,-0.0053100586,98.0
24194,-0.0497427,-0.25528717,-0.21218872,-0.124255374,0.0063720704,-0.020178223,98.0
24195,-0.046727657,-0.08686066,-0.1958847,-0.124255374,0.0063720704,-0.020178223,98.0
24196,-0.046727657,-0.08686066,-0.1958847,-0.14655761,-0.013806152,-0.010620117,98.0
24197,0.0053792,-0.033477783,-0.1534729,-0.14655761,-0.013806152,-0.010620117,98.0
24198,0.0053792,-0.033477783,-0.1534729,-0.16248779,-0.004248047,-0.027612304,98.0
24199,0.08290434,0.015281677,-0.048080444,-0.16248779,-0.004248047,-0.027612304,98.0
24200,0.08290434,0.015281677,-0.048080444,-0.090270996,0.0180542,-0.053100586,98.0
24201,0.08983421,-0.015029907,-0.026538849,-0.090270996,0.0180542,-0.053100586,98.0
24202,0.08983421,-0.015029907,-0.026538849,0.032922365,0.027612304,-0.026550293,98.0
24203,0.07532191,-0.1270752,-0.08024216,0.032922365,0.027612304,-0.026550293,98.0
24204,0.07532191,-0.1270752,-0.08024216,0.11151123,0.0361084,-0.04460449,98.0
24205,0.06444454,-0.14160156,-0.058956146,0.11151123,0.0361084,-0.04460449,98.0
24206,0.06444454,-0.14160156,-0.058956146,-0.028674318,0.04991455,-0.050976563,98.0
24207,0.024065495,-0.050209045,-0.06783295,-0.028674318,0.04991455,-0.050976563,98.0
24208,0.024065495,-0.050209045,-0.06783295,-0.07646485,0.020178223,-0.011682129,98.0
24209,0.020546198,-0.17337036,-0.12232208,-0.07646485,0.020178223,-0.011682129,98.0
24210,0.020546198,-0.17337036,-0.12232208,0.083898924,0.035046387,-0.0021240234,98.0
24211,0.045550585,-0.16137695,-0.08037567,0.083898924,0.035046387,-0.0021240234,98.0
24212,0.045550585,-0.16137695,-0.08037567,0.14337158,0.06478272,-0.012744141,98.0
24213,-0.01708746,0.020996094,0.06690979,0.14337158,0.06478272,-0.012744141,98.0
24214,-0.01708746,0.020996094,0.06690979,0.18903808,0.058410645,-0.0031860352,98.0
24215,-0.023142576,-0.05633545,0.15314865,0.18903808,0.058410645,-0.0031860352,98.0
24216,-0.023142576,-0.05633545,0.15314865,0.20284425,0.046728518,-0.026550293,98.0
24217,0.054581642,-0.0071868896,0.104904175,0.20284425,0.046728518,-0.026550293,98.0
24218,0.054581642,-0.0071868896,0.104904175,0.10938721,0.053100586,-0.04248047,98.0
24219,-0.050304413,0.1694107,0.04240799,0.10938721,0.053100586,-0.04248047,98.0
24220,-0.050304413,0.1694107,0.04240799,0.11469727,0.04885254,-0.010620117,98.0
24221,-0.124753,0.11663818,-0.025421143,0.11469727,0.04885254,-0.010620117,98.0
24222,-0.124753,0.11663818,-0.025421143,0.17947999,0.023364259,0.02442627,98.0
24223,0.037673235,-0.060684204,-0.03806305,0.17947999,0.023364259,0.02442627,98.0
24224,0.037673235,-0.060684204,-0.03806305,0.4800293,0.081774905,-0.012744141,98.0
24225,0.14794874,0.094818115,0.18746948,0.4800293,0.081774905,-0.012744141,98.0
24226,0.14794874,0.094818115,0.18746948,0.3695801,0.0998291,-0.070092775,98.0
24227,0.14794874,0.094818115,0.18746948,0.3695801,0.0998291,-0.070092775,98.0
24228,0.046557426,0.40808105,0.38160706,0.3695801,0.0998291,-0.070092775,98.0
24229,0.046557426,0.40808105,0.38160706,-0.0031860352,0.06796875,-0.016992187,98.0
24230,-0.056577206,0.21350098,0.33013916,-0.0031860352,0.06796875,-0.016992187,98.0
24231,-0.056577206,0.21350098,0.33013916,0.093457036,0.08814698,-0.053100586,98.0
24232,-0.013669968,-0.09025574,0.20438004,0.093457036,0.08814698,-0.053100586,98.0
24233,-0.013669968,-0.09025574,0.20438004,0.4078125,0.11469727,-0.04460449,98.0
24234,0.045179844,-0.19659424,0.14049149,0.4078125,0.11469727,-0.04460449,98.0
24235,0.045179844,-0.19659424,0.14049149,0.4364868,0.10301514,-0.11257324,98.0
24236,-0.03811145,-0.21527863,0.26888657,0.4364868,0.10301514,-0.11257324,98.0
24237,-0.03811145,-0.21527863,0.26888657,0.88040775,0.10407715,-0.15930176,98.0
24238,-0.14661479,0.15759277,0.4557686,0.88040775,0.10407715,-0.15930176,98.0
24239,-0.14661479,0.15759277,0.4557686,0.8591675,0.10195313,-0.12319336,98.0
24240,-0.18012142,0.92655945,0.3250618,0.8591675,0.10195313,-0.12319336,98.0
24241,-0.18012142,0.92655945,0.3250618,0.9420044,0.10513916,-0.045666505,98.0
24242,-0.4759817,1.4195938,0.12210846,0.9420044,0.10513916,-0.045666505,98.0
24243,-0.4759817,1.4195938,0.12210846,0.43861085,0.08920898,-0.08602295,98.0
24244,-0.57220364,1.1444244,0.15236282,0.43861085,0.08920898,-0.08602295,98.0
24245,-0.57220364,1.1444244,0.15236282,-0.078588866,0.0063720704,-0.016992187,98.0
24246,0.06632137,0.2778778,0.3027382,-0.078588866,0.0063720704,-0.016992187,98.0
24247,0.06632137,0.2778778,0.3027382,0.115759276,0.023364259,-0.09664307,98.0
24248,0.44998074,-0.39003754,0.45246887,0.115759276,0.023364259,-0.09664307,98.0
24249,0.44998074,-0.39003754,0.45246887,0.76358646,0.0722168,-0.15717773,98.0
24250,0.058947086,-0.22563934,0.66459656,0.76358646,0.0722168,-0.15717773,98.0
24251,0.058947086,-0.22563934,0.66459656,1.2138795,0.06903076,-0.020178223,98.0
24252,-0.2111187,0.35746765,0.8246956,1.2138795,0.06903076,-0.020178223,98.0
24253,-0.2111187,0.35746765,0.8246956,1.2914063,0.0361084,-0.050976563,98.0
24254,-0.026390076,0.7778168,0.7897377,1.2914063,0.0361084,-0.050976563,98.0
24255,-0.026390076,0.7778168,0.7897377,1.3243287,0.060534667,-0.083898924,98.0
24256,0.16166401,0.8329315,0.6999893,1.3243287,0.060534667,-0.083898924,98.0
24257,0.16166401,0.8329315,0.6999893,1.5993897,0.06159668,-0.046728518,98.0
24258,0.18605709,0.498024,0.7435608,1.5993897,0.06159668,-0.046728518,98.0
24259,0.18605709,0.498024,0.7435608,2.083667,-0.016992187,-0.0053100586,98.0
24260,0.11583805,0.2976761,0.8634987,2.083667,-0.016992187,-0.0053100586,98.0
24261,0.11583805,0.2976761,0.8634987,2.52334,-0.09770508,-0.015930176,98.0
24262,0.040033817,1.0685501,1.0060806,2.52334,-0.09770508,-0.015930176,98.0
24263,0.040033817,1.0685501,1.0060806,2.6932619,-0.08496094,0.023364259,98.0
24264,-0.009244919,2.5747757,1.1539726,2.6932619,-0.08496094,0.023364259,98.0
24265,-0.009244919,2.5747757,1.1539726,2.2812011,-0.06690674,0.13168946,98.0
24266,-0.04485941,3.2969131,1.2543678,2.2812011,-0.06690674,0.13168946,98.0
24267,-0.04485941,3.2969131,1.2543678,1.8510865,-0.070092775,0.16779785,98.0
24268,-0.04066038,2.393753,1.3175583,1.8510865,-0.070092775,0.16779785,98.0
24269,-0.04066038,2.393753,1.3175583,1.725769,-0.18372802,0.17523193,98.0
24270,-0.0408535,1.1510162,1.3141022,1.725769,-0.18372802,0.17523193,98.0
24271,-0.0408535,1.1510162,1.3141022,2.3162477,-0.12319336,0.23151855,98.0
24272,-0.11772919,1.2494507,1.455101,2.3162477,-0.12319336,0.23151855,98.0
24273,-0.11772919,1.2494507,1.455101,1.3922974,-0.06478272,-0.21027832,98.0
24274,-0.39066792,1.8460312,1.6346245,1.3922974,-0.06478272,-0.21027832,98.0
24275,-0.39066792,1.8460312,1.6346245,0.62977296,-0.21452637,-1.075818,98.0
24276,-0.43305445,1.3418655,1.1942596,0.62977296,-0.21452637,-1.075818,98.0
24277,-0.43305445,1.3418655,1.1942596,1.5165528,-0.33134767,-0.3419678,98.0
24278,-0.069588184,0.9518585,0.53757477,1.5165528,-0.33134767,-0.3419678,98.0
24279,-0.069588184,0.9518585,0.53757477,1.5027466,-0.22833252,-0.68712157,98.0
24280,0.15299654,1.633461,0.2883377,1.5027466,-0.22833252,-0.68712157,98.0
24281,0.15299654,1.633461,0.2883377,0.95368654,-0.4258667,-0.5511841,98.0
24282,0.31581783,2.2307053,0.2796669,0.95368654,-0.4258667,-0.5511841,98.0
24283,0.31581783,2.2307053,0.2796669,1.0683838,-0.7147339,-0.5097656,98.0
24284,0.5777397,1.8276443,0.2751732,1.0683838,-0.7147339,-0.5097656,98.0
24285,0.5777397,1.8276443,0.2751732,1.4039795,-0.58410645,-0.3706421,98.0
24286,0.7692473,1.1754227,0.2673912,1.4039795,-0.58410645,-0.3706421,98.0
24287,0.7692473,1.1754227,0.2673912,1.1522827,-0.5936646,-0.3345337,98.0
24288,0.92548084,0.8887634,0.17173767,1.1522827,-0.5936646,-0.3345337,98.0
24289,0.92548084,0.8887634,0.17173767,0.9802368,-0.5883545,-0.2824951,98.0
24290,1.2709267,0.9255371,0.1784668,0.9802368,-0.5883545,-0.2824951,98.0
24291,1.2709267,0.9255371,0.1784668,0.90695804,-0.4694092,-0.25806886,98.0
24292,1.547442,1.1496964,0.41038895,0.90695804,-0.4694092,-0.25806886,98.0
24293,1.547442,1.1496964,0.41038895,0.98873293,-0.4800293,-0.053100586,98.0
24294,1.6980977,1.3434753,0.3894577,0.98873293,-0.4800293,-0.053100586,98.0
24295,1.6980977,1.3434753,0.3894577,0.724292,-0.3982544,0.08283692,98.0
24296,1.9570866,1.4360733,0.19454956,0.724292,-0.3982544,0.08283692,98.0
24297,1.9570866,1.4360733,0.19454956,0.47471926,-0.24851075,0.07434082,98.0
24298,1.9543655,1.2550735,0.1576271,0.47471926,-0.24851075,0.07434082,98.0
24299,1.9543655,1.2550735,0.1576271,0.31435546,-0.022302246,0.047790527,98.0
24300,1.3809607,1.0605316,0.15966034,0.31435546,-0.022302246,0.047790527,98.0
24301,1.3809607,1.0605316,0.15966034,0.047790527,0.23045655,0.21346436,98.0
24302,0.66277635,1.1070175,-0.080718994,0.047790527,0.23045655,0.21346436,98.0
24303,0.66277635,1.1070175,-0.080718994,-0.5894165,0.24532472,0.3079834,98.0
24304,0.14800668,0.853302,-0.46990967,-0.5894165,0.24532472,0.3079834,98.0
24305,0.14800668,0.853302,-0.46990967,-0.45347902,0.4364868,0.33134767,98.0
24306,-0.4686674,0.44290924,-0.48786545,-0.45347902,0.4364868,0.33134767,98.0
24307,-0.4686674,0.44290924,-0.48786545,-0.26656494,0.65632325,0.4078125,98.0
24308,-1.1013012,0.44680786,-0.11758804,-0.26656494,0.65632325,0.4078125,98.0
24309,-1.1013012,0.44680786,-0.11758804,-0.70092773,0.66588134,0.38763428,98.0
24310,-1.2354233,0.7994385,-0.07858276,-0.70092773,0.66588134,0.38763428,98.0
24311,-1.2354233,0.7994385,-0.07858276,-1.6503662,0.8442993,0.35152587,98.0
24312,-1.3524499,0.48238373,0.05008316,-1.6503662,0.8442993,0.35152587,98.0
24313,-1.3524499,0.48238373,0.05008316,-2.4245727,0.33665773,0.2357666,98.0
24314,-1.6494527,-0.85582733,0.708622,-2.4245727,0.33665773,0.2357666,98.0
24315,-1.6494527,-0.85582733,0.708622,-1.6631104,0.19328614,0.452417,98.0
24316,-1.220258,-1.876503,0.834671,-1.6631104,0.19328614,0.452417,98.0
24317,-1.220258,-1.876503,0.834671,-2.4574952,0.19753419,0.23045655,98.0
24318,-0.66598916,-1.950203,0.35079193,-2.4574952,0.19753419,0.23045655,98.0
24319,-0.66598916,-1.950203,0.35079193,-2.5562623,0.21027832,0.18585205,98.0
24320,-0.6732943,-1.5892487,-0.17349243,-2.5562623,0.21027832,0.18585205,98.0
24321,-0.6732943,-1.5892487,-0.17349243,-3.1849732,-0.012744141,0.23895264,98.0
24322,-0.7035279,-1.8298798,-0.6456566,-3.1849732,-0.012744141,0.23895264,98.0
24323,-0.7035279,-1.8298798,-0.6456566,-2.805835,-0.18160401,0.1996582,98.0
24324,-0.69912624,-3.1311264,-0.88705444,-2.805835,-0.18160401,0.1996582,98.0
24325,-0.69912624,-3.1311264,-0.88705444,-1.0673218,-0.0637207,0.3175415,98.0
24326,-0.46025324,-3.8114471,-0.83472824,-1.0673218,-0.0637207,0.3175415,98.0
24327,-0.46025324,-3.8114471,-0.83472824,-0.58304447,0.040356446,0.13806152,98.0
24328,-0.46025324,-3.8114471,-0.83472824,-0.58304447,0.040356446,0.13806152,98.0
24329,-0.14279985,-2.9037018,-0.25945663,-0.58304447,0.040356446,0.13806152,98.0
24330,-0.14279985,-2.9037018,-0.25945663,-0.9791748,-0.04885254,-0.035046387,98.0
24331,-0.0051944256,-0.8490982,0.4531021,-0.9791748,-0.04885254,-0.035046387,98.0
24332,-0.0051944256,-0.8490982,0.4531021,-1.9041871,-0.07752686,0.07434082,98.0
24333,0.084015846,0.3752594,0.14922333,-1.9041871,-0.07752686,0.07434082,98.0
24334,0.084015846,0.3752594,0.14922333,-2.7389283,-0.3440918,-0.033984374,98.0
24335,0.125489,-0.23166656,-1.0412903,-2.7389283,-0.3440918,-0.033984374,98.0
24336,0.125489,-0.23166656,-1.0412903,-3.1594849,-0.14337158,0.13062744,98.0
24337,0.10885072,-0.34158325,-1.8165283,-3.1594849,-0.14337158,0.13062744,98.0
24338,0.10885072,-0.34158325,-1.8165283,-4.0929933,-0.2538208,0.28674316,98.0
24339,-0.079581976,-0.08795166,-2.1650162,-4.0929933,-0.2538208,0.28674316,98.0
24340,-0.079581976,-0.08795166,-2.1650162,-4.7291384,-0.39400634,0.2516968,98.0
24341,-0.19735694,-1.0349731,-3.0039825,-4.7291384,-0.39400634,0.2516968,98.0
24342,-0.19735694,-1.0349731,-3.0039825,-5.0976562,-0.6064087,0.4715332,98.0
24343,-0.013720512,-2.8399658,-4.370617,-5.0976562,-0.6064087,0.4715332,98.0
24344,-0.013720512,-2.8399658,-4.370617,-5.037122,-0.63933104,0.49383545,98.0
24345,-0.007302046,-4.6846695,-5.6582108,-5.037122,-0.63933104,0.49383545,98.0
24346,-0.007302046,-4.6846695,-5.6582108,-3.8657227,-0.44179687,0.3154175,98.0
24347,-0.45957708,-6.0659485,-6.277336,-3.8657227,-0.44179687,0.3154175,98.0
24348,-0.45957708,-6.0659485,-6.277336,-2.2121704,-0.3058594,0.10620117,98.0
24349,-0.91496396,-6.765625,-5.432953,-2.2121704,-0.3058594,0.10620117,98.0
24350,-0.91496396,-6.765625,-5.432953,0.28780517,-0.03717041,-0.21983643,98.0
24351,-1.0392957,-4.5972214,-2.953701,0.28780517,-0.03717041,-0.21983643,98.0
24352,-1.0392957,-4.5972214,-2.953701,1.6758546,0.24107666,-0.17735596,98.0
24353,-0.83060646,-0.30114746,-0.4748268,1.6758546,0.24107666,-0.17735596,98.0
24354,-0.83060646,-0.30114746,-0.4748268,0.59472656,0.12956543,-0.24851075,98.0
24355,-0.4957962,1.4631119,0.6812439,0.59472656,0.12956543,-0.24851075,98.0
24356,-0.4957962,1.4631119,0.6812439,0.21452637,0.17841797,-0.49064943,98.0
24357,-0.12793589,0.47854614,1.0239525,0.21452637,0.17841797,-0.49064943,98.0
24358,-0.12793589,0.47854614,1.0239525,1.0142212,0.07646485,-0.5065796,98.0
24359,0.36044407,-0.38639832,1.141037,1.0142212,0.07646485,-0.5065796,98.0
24360,0.36044407,-0.38639832,1.141037,1.7937378,0.11682129,-0.3334717,98.0
24361,0.8099618,0.026695251,1.033226,1.7937378,0.11682129,-0.3334717,98.0
24362,0.8099618,0.026695251,1.033226,1.1512207,0.032922365,-0.38657227,98.0
24363,0.75701475,1.214798,0.9888725,1.1512207,0.032922365,-0.38657227,98.0
24364,0.75701475,1.214798,0.9888725,0.07327881,0.043542482,-0.4439209,98.0
24365,0.2755947,1.4454117,1.0086288,0.07327881,0.043542482,-0.4439209,98.0
24366,0.2755947,1.4454117,1.0086288,0.44073486,-0.010620117,-0.4056885,98.0
24367,-0.05709982,0.22631073,0.73970413,0.44073486,-0.010620117,-0.4056885,98.0
24368,-0.05709982,0.22631073,0.73970413,1.3158325,0.046728518,-0.3695801,98.0
24369,-0.10916853,-0.27846527,0.4636116,1.3158325,0.046728518,-0.3695801,98.0
24370,-0.10916853,-0.27846527,0.4636116,0.75509036,-0.06796875,-0.47790527,98.0
24371,0.06533861,0.6463928,0.5604019,0.75509036,-0.06796875,-0.47790527,98.0
24372,0.06533861,0.6463928,0.5604019,-0.24638672,-0.14655761,-0.37807617,98.0
24373,0.4100833,1.0118866,0.7419739,-0.24638672,-0.14655761,-0.37807617,98.0
24374,0.4100833,1.0118866,0.7419739,-0.14549561,-0.25594482,-0.40993652,98.0
24375,0.71841097,0.29267883,0.4546051,-0.14549561,-0.25594482,-0.40993652,98.0
24376,0.71841097,0.29267883,0.4546051,0.29311523,-0.18797608,-0.21983643,98.0
24377,0.80202365,-0.516098,-0.10839844,0.29311523,-0.18797608,-0.21983643,98.0
24378,0.80202365,-0.516098,-0.10839844,0.998291,-0.15186767,-0.15505372,98.0
24379,0.58822536,-0.90206146,-0.09490967,0.998291,-0.15186767,-0.15505372,98.0
24380,0.58822536,-0.90206146,-0.09490967,1.2563599,-0.22408448,-0.093457036,98.0
24381,0.17496276,-1.0484161,0.6058693,1.2563599,-0.22408448,-0.093457036,98.0
24382,0.17496276,-1.0484161,0.6058693,1.9116211,-0.22833252,-0.12850343,98.0
24383,-0.11870909,-1.013588,1.26231,1.9116211,-0.22833252,-0.12850343,98.0
24384,-0.11870909,-1.013588,1.26231,3.2858644,-0.44923097,-0.014868164,98.0
24385,0.16647077,-0.52905273,1.4307823,3.2858644,-0.44923097,-0.014868164,98.0
24386,0.16647077,-0.52905273,1.4307823,4.791797,-0.54375,0.24107666,98.0
24387,0.71519566,0.2111969,1.2903023,4.791797,-0.54375,0.24107666,98.0
24388,0.71519566,0.2111969,1.2903023,5.9876223,-0.41843262,0.29948732,98.0
24389,0.7740853,1.3165512,1.2060814,5.9876223,-0.41843262,0.29948732,98.0
24390,0.7740853,1.3165512,1.2060814,6.2286987,-0.33028564,0.42799073,98.0
24391,0.3240533,2.9142227,1.2727737,6.2286987,-0.33028564,0.42799073,98.0
24392,0.3240533,2.9142227,1.2727737,5.4502444,-0.3090454,0.53737795,98.0
24393,0.10842466,4.7198944,1.3455391,5.4502444,-0.3090454,0.53737795,98.0
24394,0.10842466,4.7198944,1.3455391,3.8179321,-0.4088745,0.72960204,98.0
24395,0.9013517,7.4396286,1.1237221,3.8179321,-0.4088745,0.72960204,98.0
24396,0.9013517,7.4396286,1.1237221,0.18160401,-0.14018555,1.0322754,98.0
24397,2.2963622,8.798782,1.0358047,0.18160401,-0.14018555,1.0322754,98.0
24398,2.2963622,8.798782,1.0358047,-0.7083618,-0.2516968,1.1172364,98.0
24399,2.2396288,4.832924,1.4801064,-0.7083618,-0.2516968,1.1172364,98.0
24400,2.2396288,4.832924,1.4801064,-0.046728518,0.30161133,1.4167236,98.0
24401,0.2862953,-0.52350616,2.0303383,-0.046728518,0.30161133,1.4167236,98.0
24402,0.2862953,-0.52350616,2.0303383,0.60109866,0.5033936,1.26698,98.0
24403,-1.3407881,-2.449295,2.2226715,0.60109866,0.5033936,1.26698,98.0
24404,-1.3407881,-2.449295,2.2226715,0.32391357,0.24851075,1.3997315,98.0
24405,-1.3676257,-1.7553711,1.9151764,0.32391357,0.24851075,1.3997315,98.0
24406,-1.3676257,-1.7553711,1.9151764,0.17841797,0.26444092,1.3338867,98.0
24407,-0.754086,-0.30249023,1.4266357,0.17841797,0.26444092,1.3338867,98.0
24408,-0.754086,-0.30249023,1.4266357,0.2166504,0.28461915,1.4783204,98.0
24409,-0.5530369,0.656517,1.079052,0.2166504,0.28461915,1.4783204,98.0
24410,-0.5530369,0.656517,1.079052,0.095581055,0.23045655,1.5611572,98.0
24411,-0.7340555,0.5014572,0.8575897,0.095581055,0.23045655,1.5611572,98.0
24412,-0.7340555,0.5014572,0.8575897,-0.022302246,0.22089843,1.6822265,98.0
24413,-0.90631175,-0.39983368,0.68771744,-0.022302246,0.22089843,1.6822265,98.0
24414,-0.90631175,-0.39983368,0.68771744,-0.14761963,0.19541016,1.6769165,98.0
24415,-0.8679204,-1.328598,0.5192261,-0.14761963,0.19541016,1.6769165,98.0
24416,-0.8679204,-1.328598,0.5192261,-0.19541016,0.16354981,1.6514282,98.0
24417,-0.7672124,-1.6912994,0.22449875,-0.19541016,0.16354981,1.6514282,98.0
24418,-0.7672124,-1.6912994,0.22449875,-0.32497558,0.36427003,1.5993897,98.0
24419,-1.0424078,-1.3899765,0.07461929,-0.32497558,0.36427003,1.5993897,98.0
24420,-1.0424078,-1.3899765,0.07461929,-0.5703003,0.36320803,1.5654052,98.0
24421,-1.4183745,-1.040535,0.010341644,-0.5703003,0.36320803,1.5654052,98.0
24422,-1.4183745,-1.040535,0.010341644,-0.7625244,0.20603028,1.5515991,98.0
24423,-1.3221021,-0.8497391,-0.792923,-0.7625244,0.20603028,1.5515991,98.0
24424,-1.3221021,-0.8497391,-0.792923,-1.0715698,0.32391357,1.531421,98.0
24425,-1.3598547,-0.76677704,-1.9930191,-1.0715698,0.32391357,1.531421,98.0
24426,-1.3598547,-0.76677704,-1.9930191,-1.6163819,0.7147339,1.4315919,98.0
24427,-1.8921075,-0.9382477,-2.1483917,-1.6163819,0.7147339,1.4315919,98.0
24428,-1.8921075,-0.9382477,-2.1483917,-3.1361206,0.4056885,1.2404298,98.0
24429,-2.120925,-1.3177948,-1.1741943,-3.1361206,0.4056885,1.2404298,98.0
24430,-2.120925,-1.3177948,-1.1741943,-4.0367064,0.03079834,1.448584,98.0
24431,-1.6059928,-1.8555145,-0.60839844,-4.0367064,0.03079834,1.448584,98.0
24432,-1.6059928,-1.8555145,-0.60839844,-4.827905,-0.118945315,1.5038086,98.0
24433,-0.8050213,-1.953659,-1.2181282,-4.827905,-0.118945315,1.5038086,98.0
24434,-0.8050213,-1.953659,-1.2181282,-5.508655,-0.25913087,1.9827759,98.0
24435,-0.8050213,-1.953659,-1.2181282,-5.508655,-0.25913087,1.9827759,98.0
24436,-0.35825014,-1.8047867,-2.4475975,-5.508655,-0.25913087,1.9827759,98.0
24437,-0.35825014,-1.8047867,-2.4475975,-6.2860475,-0.52675784,1.8479004,98.0
24438,-0.45859718,-2.3441849,-3.6265106,-6.2860475,-0.52675784,1.8479004,98.0
24439,-0.45859718,-2.3441849,-3.6265106,-6.7554564,-0.7805786,1.8606446,98.0
24440,-0.6225538,-3.0190582,-4.489807,-6.7554564,-0.7805786,1.8606446,98.0
24441,-0.6225538,-3.0190582,-4.489807,-7.3703613,-1.0343994,1.6864747,98.0
24442,-0.6931362,-2.9218903,-5.026268,-7.3703613,-1.0343994,1.6864747,98.0
24443,-0.6931362,-2.9218903,-5.026268,-8.234839,-1.354065,1.5643433,98.0
24444,-0.68903065,-2.3561707,-5.5946503,-8.234839,-1.354065,1.5643433,98.0
24445,-0.68903065,-2.3561707,-5.5946503,-8.365466,-1.5813354,1.6004517,98.0
24446,-0.63169336,-1.8094177,-6.5092926,-8.365466,-1.5813354,1.6004517,98.0
24447,-0.63169336,-1.8094177,-6.5092926,-7.325757,-1.6779785,1.4528321,98.0
24448,-0.8314409,-1.1061783,-7.5822754,-7.325757,-1.6779785,1.4528321,98.0
24449,-0.8314409,-1.1061783,-7.5822754,-6.621643,-1.531421,1.1395386,98.0
24450,-1.3273354,-1.2940063,-7.926113,-6.621643,-1.531421,1.1395386,98.0
24451,-1.3273354,-1.2940063,-7.926113,-4.9893312,-1.5972656,0.9611206,98.0
24452,-1.6232328,-2.442871,-6.9752884,-4.9893312,-1.5972656,0.9611206,98.0
24453,-1.6232328,-2.442871,-6.9752884,-2.9226563,-1.6174439,0.5097656,98.0
24454,-1.4225483,-2.4645233,-5.3876877,-2.9226563,-1.6174439,0.5097656,98.0
24455,-1.4225483,-2.4645233,-5.3876877,-1.7480713,-1.6514282,0.41843262,98.0
24456,-1.0741472,-0.8394165,-4.07642,-1.7480713,-1.6514282,0.41843262,98.0
24457,-1.0741472,-0.8394165,-4.07642,-1.4793824,-1.6057618,0.26444092,98.0
24458,-1.0643835,0.8655548,-3.214653,-1.4793824,-1.6057618,0.26444092,98.0
24459,-1.0643835,0.8655548,-3.214653,-1.7884277,-1.5600952,0.2538208,98.0
24460,-1.4586353,2.087181,-2.6125908,-1.7884277,-1.5600952,0.2538208,98.0
24461,-1.4586353,2.087181,-2.6125908,-2.6359131,-1.8829468,0.053100586,98.0
24462,-2.0074358,2.81456,-1.8819656,-2.6359131,-1.8829468,0.053100586,98.0
24463,-2.0074358,2.81456,-1.8819656,-3.5513673,-2.241907,-0.09133301,98.0
24464,-2.4802408,2.4868927,-1.0980034,-3.5513673,-2.241907,-0.09133301,98.0
24465,-2.4802408,2.4868927,-1.0980034,-2.6348512,-2.4139526,-0.124255374,98.0
24466,-2.590186,1.5791397,-1.3597755,-2.6348512,-2.4139526,-0.124255374,98.0
24467,-2.590186,1.5791397,-1.3597755,-1.2627319,-2.3258057,-0.029736329,98.0
24468,-2.1699142,1.3030472,-2.5790176,-1.2627319,-2.3258057,-0.029736329,98.0
24469,-2.1699142,1.3030472,-2.5790176,-0.63933104,-2.3109376,0.33878174,98.0
24470,-1.4233704,1.1463318,-3.4130936,-0.63933104,-2.3109376,0.33878174,98.0
24471,-1.4233704,1.1463318,-3.4130936,-0.98873293,-2.083667,0.124255374,98.0
24472,-1.1029911,0.4804001,-3.2633133,-0.98873293,-2.083667,0.124255374,98.0
24473,-1.1029911,0.4804001,-3.2633133,-1.3901733,-2.0072021,0.04248047,98.0
24474,-0.9962597,-0.57038116,-2.4839172,-1.3901733,-2.0072021,0.04248047,98.0
24475,-0.9962597,-0.57038116,-2.4839172,-1.6185058,-2.263147,0.19541016,98.0
24476,-0.24422455,-1.213211,-1.4798584,-1.6185058,-2.263147,0.19541016,98.0
24477,-0.24422455,-1.213211,-1.4798584,-1.450708,-2.2057984,-0.040356446,98.0
24478,-0.017511368,-0.7171631,-0.7069454,-1.450708,-2.2057984,-0.040356446,98.0
24479,-0.017511368,-0.7171631,-0.7069454,-1.1119263,-2.1006591,-0.14549561,98.0
24480,-0.5553179,1.8010254,1.5207596,-1.1119263,-2.1006591,-0.14549561,98.0
24481,-0.5553179,1.8010254,1.5207596,-0.38869628,-2.0974731,0.09239502,98.0
24482,-1.3471594,2.4816895,2.1960144,-0.38869628,-2.0974731,0.09239502,98.0
24483,-1.3471594,2.4816895,2.1960144,-0.63933104,-2.1951783,0.090270996,98.0
24484,-3.404766,3.7262955,3.4208126,-0.63933104,-2.1951783,0.090270996,98.0
24485,-3.404766,3.7262955,3.4208126,-1.3445069,-2.1155274,0.1274414,98.0
24486,-3.6576385,2.8922043,2.6646042,-1.3445069,-2.1155274,0.1274414,98.0
24487,-3.6576385,2.8922043,2.6646042,-1.5091187,-2.0369384,0.04248047,98.0
24488,-4.5633307,0.58490753,1.4779243,-1.5091187,-2.0369384,0.04248047,98.0
24489,-4.5633307,0.58490753,1.4779243,-0.9345703,-1.9434814,0.31223145,98.0
24490,-3.934124,0.40107727,1.4619675,-0.9345703,-1.9434814,0.31223145,98.0
24491,-3.934124,0.40107727,1.4619675,-0.66588134,-1.9296753,0.4885254,98.0
24492,-2.0512657,1.1173477,1.8980904,-0.66588134,-1.9296753,0.4885254,98.0
24493,-2.0512657,1.1173477,1.8980904,-0.0031860352,-1.6652344,0.6425171,98.0
24494,-1.3200893,1.2925491,1.5421295,-0.0031860352,-1.6652344,0.6425171,98.0
24495,-1.3200893,1.2925491,1.5421295,0.2548828,-1.4623902,0.7051758,98.0
24496,-1.4276543,1.9091263,0.61751556,0.2548828,-1.4623902,0.7051758,98.0
24497,-1.4276543,1.9091263,0.61751556,0.3440918,-0.97386473,0.5140137,98.0
24498,-1.9332981,1.6891327,0.42673874,0.3440918,-0.97386473,0.5140137,98.0
24499,-1.9332981,1.6891327,0.42673874,0.34090576,-1.0195312,0.48533937,98.0
24500,-3.0010586,1.9558487,-0.30421448,0.34090576,-1.0195312,0.48533937,98.0
24501,-3.0010586,1.9558487,-0.30421448,0.26125488,-1.3434448,0.7327881,98.0
24502,-2.3352947,1.9047546,-0.48963547,0.26125488,-1.3434448,0.7327881,98.0
24503,-2.3352947,1.9047546,-0.48963547,0.095581055,-1.3763672,0.7391602,98.0
24504,-0.9056263,2.1565323,-0.9208603,0.095581055,-1.3763672,0.7391602,98.0
24505,-0.9056263,2.1565323,-0.9208603,-0.7349121,-1.1905152,0.35577393,98.0
24506,-0.8649559,1.8469086,-0.46224976,-0.7349121,-1.1905152,0.35577393,98.0
24507,-0.8649559,1.8469086,-0.46224976,-0.9834229,-1.2882203,0.42799073,98.0
24508,-1.2154884,0.96541595,0.8101311,-0.9834229,-1.2882203,0.42799073,98.0
24509,-1.2154884,0.96541595,0.8101311,-1.2414917,-1.4793824,0.45560303,98.0
24510,-1.1093521,0.66426086,1.1142311,-1.2414917,-1.4793824,0.45560303,98.0
24511,-1.1093521,0.66426086,1.1142311,-1.269104,-1.4772583,0.45772704,98.0
24512,-0.89741707,0.23569489,1.2818756,-1.269104,-1.4772583,0.45772704,98.0
24513,-0.89741707,0.23569489,1.2818756,-1.3243287,-1.4931885,0.40356445,98.0
24514,-0.7417259,0.073532104,1.175415,-1.3243287,-1.4931885,0.40356445,98.0
24515,-0.7417259,0.073532104,1.175415,-1.3710572,-1.538855,0.4715332,98.0
24516,-0.7111912,0.074897766,1.2131348,-1.3710572,-1.538855,0.4715332,98.0
24517,-0.7111912,0.074897766,1.2131348,-1.4974365,-1.5526612,0.41524658,98.0
24518,-0.69413567,0.073150635,1.3699722,-1.4974365,-1.5526612,0.41524658,98.0
24519,-0.69413567,0.073150635,1.3699722,-1.3976074,-1.6928467,0.51932377,98.0
24520,-0.37503433,0.012161255,1.1376762,-1.3976074,-1.6928467,0.51932377,98.0
24521,-0.37503433,0.012161255,1.1376762,-1.359375,-1.6779785,0.40144044,98.0
24522,-0.419693,0.18029785,0.9862747,-1.359375,-1.6779785,0.40144044,98.0
24523,-0.419693,0.18029785,0.9862747,-1.5346069,-1.6068238,0.3451538,98.0
24524,-1.2391472,0.22833252,0.9857712,-1.5346069,-1.6068238,0.3451538,98.0
24525,-1.2391472,0.22833252,0.9857712,-1.4815063,-1.7034668,0.21877442,98.0
24526,-1.2391472,0.22833252,0.9857712,-1.4815063,-1.7034668,0.21877442,98.0
24527,-1.4575272,0.3760376,1.1293755,-1.4815063,-1.7034668,0.21877442,98.0
24528,-1.4575272,0.3760376,1.1293755,-1.2128174,-1.8425903,0.23045655,98.0
24529,-1.5699768,0.80049896,0.62408066,-1.2128174,-1.8425903,0.23045655,98.0
24530,-1.5699768,0.80049896,0.62408066,-1.3859253,-1.7491333,0.118945315,98.0
24531,-1.4854374,0.8462372,-0.021549225,-1.3859253,-1.7491333,0.118945315,98.0
24532,-1.4854374,0.8462372,-0.021549225,-1.4315919,-1.6057618,-0.32178956,98.0
24533,-1.9277306,0.51503754,0.081588745,-1.4315919,-1.6057618,-0.32178956,98.0
24534,-1.9277306,0.51503754,0.081588745,-0.34727785,-1.628064,-0.3812622,98.0
24535,-1.3113499,0.40894318,-0.6768074,-0.34727785,-1.628064,-0.3812622,98.0
24536,-1.3113499,0.40894318,-0.6768074,-0.8251831,-1.3922974,-0.31435546,98.0
24537,0.68719864,-0.38456726,-1.7684975,-0.8251831,-1.3922974,-0.31435546,98.0
24538,0.68719864,-0.38456726,-1.7684975,0.011682129,-0.63614506,-0.58198243,98.0
24539,1.6971359,-1.3276138,-1.2029572,0.011682129,-0.63614506,-0.58198243,98.0
24540,1.6971359,-1.3276138,-1.2029572,1.2935303,-0.24638672,-0.727478,98.0
24541,0.5513611,-0.92754364,0.29857254,1.2935303,-0.24638672,-0.727478,98.0
24542,0.5513611,-0.92754364,0.29857254,2.714502,-0.06796875,-0.8687256,98.0
24543,-0.8196411,0.0525589,0.83818436,2.714502,-0.06796875,-0.8687256,98.0
24544,-0.8196411,0.0525589,0.83818436,4.070691,-0.2888672,-0.5065796,98.0
24545,-0.22630692,0.49368286,0.12857819,4.070691,-0.2888672,-0.5065796,98.0
24546,-0.22630692,0.49368286,0.12857819,4.783301,-0.1529297,-0.019116212,98.0
24547,1.5663433,-0.46302795,-0.1674881,4.783301,-0.1529297,-0.019116212,98.0
24548,1.5663433,-0.46302795,-0.1674881,6.35614,0.32285157,-0.18054199,98.0
24549,3.1438103,-0.41077423,1.1339073,6.35614,0.32285157,-0.18054199,98.0
24550,3.1438103,-0.41077423,1.1339073,6.32959,0.5543701,0.14868164,98.0
24551,4.308506,0.651474,3.1097755,6.32959,0.5543701,0.14868164,98.0
24552,4.308506,0.651474,3.1097755,5.244214,0.42161867,0.0361084,98.0
24553,4.9553986,0.54992676,5.0495987,5.244214,0.42161867,0.0361084,98.0
24554,4.9553986,0.54992676,5.0495987,6.0545287,0.37595215,-0.14124756,98.0
24555,4.409912,0.9459686,6.6566086,6.0545287,0.37595215,-0.14124756,98.0
24556,4.409912,0.9459686,6.6566086,5.306873,0.12956543,-0.011682129,98.0
24557,3.4184818,0.7483063,6.925812,5.306873,0.12956543,-0.011682129,98.0
24558,3.4184818,0.7483063,6.925812,6.608899,0.4333008,-0.2357666,98.0
24559,2.9027672,-0.11993408,5.36615,6.608899,0.4333008,-0.2357666,98.0
24560,2.9027672,-0.11993408,5.36615,7.444702,0.8241211,-0.2803711,98.0
24561,2.1616783,0.19792175,2.9977417,7.444702,0.8241211,-0.2803711,98.0
24562,2.1616783,0.19792175,2.9977417,6.4708376,1.0630738,-0.19222413,98.0
24563,1.1601048,0.89525604,1.0031624,6.4708376,1.0630738,-0.19222413,98.0
24564,1.1601048,0.89525604,1.0031624,4.7185183,1.4039795,-0.16036378,98.0
24565,-0.035966873,1.6916733,0.2471199,4.7185183,1.4039795,-0.16036378,98.0
24566,-0.035966873,1.6916733,0.2471199,2.8249512,1.1501588,-0.093457036,98.0
24567,-1.3534927,2.4081573,0.4630661,2.8249512,1.1501588,-0.093457036,98.0
24568,-1.3534927,2.4081573,0.4630661,2.427759,1.2584839,0.21346436,98.0
24569,-2.5962334,2.3344116,0.86914825,2.427759,1.2584839,0.21346436,98.0
24570,-2.5962334,2.3344116,0.86914825,1.2765381,0.6414551,0.17947999,98.0
24571,-3.31246,1.7620087,1.2118607,1.2765381,0.6414551,0.17947999,98.0
24572,-3.31246,1.7620087,1.2118607,0.61915284,0.2442627,0.1529297,98.0
24573,-2.8387127,1.2805939,1.0749435,0.61915284,0.2442627,0.1529297,98.0
24574,-2.8387127,1.2805939,1.0749435,0.025488282,0.046728518,0.19434814,98.0
24575,-1.9370842,0.9719925,0.6411934,0.025488282,0.046728518,0.19434814,98.0
24576,-1.9370842,0.9719925,0.6411934,-0.5214478,-0.14868164,0.19753419,98.0
24577,-1.4067478,0.4300995,0.54228973,-0.5214478,-0.14868164,0.19753419,98.0
24578,-1.4067478,0.4300995,0.54228973,-0.65844727,-0.5671143,0.039294433,98.0
24579,-0.794281,-0.5215454,0.54849243,-0.65844727,-0.5671143,0.039294433,98.0
24580,-0.794281,-0.5215454,0.54849243,-0.42268068,-0.7519043,-0.20921631,98.0
24581,-0.06691933,-1.1731796,0.58623123,-0.42268068,-0.7519043,-0.20921631,98.0
24582,-0.06691933,-1.1731796,0.58623123,-0.15505372,-0.903772,-0.4078125,98.0
24583,0.43058395,-0.8668747,0.7451706,-0.15505372,-0.903772,-0.4078125,98.0
24584,0.43058395,-0.8668747,0.7451706,-0.3154175,-1.1108643,-0.3812622,98.0
24585,0.76387596,-0.088645935,0.62426376,-0.3154175,-1.1108643,-0.3812622,98.0
24586,0.76387596,-0.088645935,0.62426376,-0.541626,-1.1129884,-0.2824951,98.0
24587,0.75520515,0.5407791,0.086299896,-0.541626,-1.1129884,-0.2824951,98.0
24588,0.75520515,0.5407791,0.086299896,-0.56180423,-1.0736939,-0.07434082,98.0
24589,0.2706566,0.8153,-0.08275604,-0.56180423,-1.0736939,-0.07434082,98.0
24590,0.2706566,0.8153,-0.08275604,-0.34940186,-0.9653687,0.24957275,98.0
24591,-0.31096458,0.66981506,0.07852173,-0.34940186,-0.9653687,0.24957275,98.0
24592,-0.31096458,0.66981506,0.07852173,-0.45878908,-0.83474123,0.5065796,98.0
24593,-0.85612106,0.47415924,0.1583023,-0.45878908,-0.83474123,0.5065796,98.0
24594,-0.85612106,0.47415924,0.1583023,-0.20603028,-0.7349121,0.5968506,98.0
24595,-1.336544,0.5452347,0.1884079,-0.20603028,-0.7349121,0.5968506,98.0
24596,-1.336544,0.5452347,0.1884079,-0.14230958,-0.6775635,0.6669434,98.0
24597,-1.5716267,0.64616394,-0.41182327,-0.14230958,-0.6775635,0.6669434,98.0
24598,-1.5716267,0.64616394,-0.41182327,0.32178956,-0.4333008,0.63614506,98.0
24599,-1.3848782,0.6624756,-1.2767143,0.32178956,-0.4333008,0.63614506,98.0
24600,-1.3848782,0.6624756,-1.2767143,0.4630371,-0.3440918,0.48533937,98.0
24601,-0.85063934,0.44968414,-1.6109009,0.4630371,-0.3440918,0.48533937,98.0
24602,-0.85063934,0.44968414,-1.6109009,0.37382814,-0.16142578,0.13062744,98.0
24603,-0.43450165,6.4849854E-4,-1.2847786,0.37382814,-0.16142578,0.13062744,98.0
24604,-0.43450165,6.4849854E-4,-1.2847786,0.18691407,-0.16142578,-0.02442627,98.0
24605,-0.33104897,-0.97393036,-0.353508,0.18691407,-0.16142578,-0.02442627,98.0
24606,-0.33104897,-0.97393036,-0.353508,0.7168579,-0.03186035,-0.31966552,98.0
24607,-0.2536087,-1.6780701,0.23322296,0.7168579,-0.03186035,-0.31966552,98.0
24608,-0.2536087,-1.6780701,0.23322296,0.6711914,0.11257324,-0.41206056,98.0
24609,0.13511276,-0.60611725,-0.1857338,0.6711914,0.11257324,-0.41206056,98.0
24610,0.13511276,-0.60611725,-0.1857338,0.38975832,0.21877442,-0.2527588,98.0
24611,0.65538025,0.7720032,-0.69194794,0.38975832,0.21877442,-0.2527588,98.0
24612,0.65538025,0.7720032,-0.69194794,0.26975098,0.2814331,-0.18266602,98.0
24613,0.861145,0.45015717,-0.3882141,0.26975098,0.2814331,-0.18266602,98.0
24614,0.861145,0.45015717,-0.3882141,0.34727785,0.44923097,-0.3440918,98.0
24615,0.6000366,-1.2918777,0.64289474,0.34727785,0.44923097,-0.3440918,98.0
24616,0.6000366,-1.2918777,0.64289474,0.48427734,0.540564,-0.5214478,98.0
24617,0.5405636,-2.8321,2.200447,0.48427734,0.540564,-0.5214478,98.0
24618,0.5405636,-2.8321,2.200447,0.24957275,-0.026550293,-0.815625,98.0
24619,1.229948,-3.1569061,3.5028992,0.24957275,-0.026550293,-0.815625,98.0
24620,1.229948,-3.1569061,3.5028992,0.10407715,-0.19328614,-0.67650145,98.0
24621,1.8459206,-2.265335,2.9841805,0.10407715,-0.19328614,-0.67650145,98.0
24622,1.8459206,-2.265335,2.9841805,-0.0998291,-0.271875,-0.9154541,98.0
24623,1.4239902,-0.40592957,0.69516754,-0.0998291,-0.271875,-0.9154541,98.0
24624,1.4239902,-0.40592957,0.69516754,0.20178223,-0.14761963,-0.72216797,98.0
24625,0.29693222,1.3601227,-1.8536186,0.20178223,-0.14761963,-0.72216797,98.0
24626,0.29693222,1.3601227,-1.8536186,0.3717041,0.08602295,-0.6042847,98.0
24627,-0.55431175,2.25708,-3.3685265,0.3717041,0.08602295,-0.6042847,98.0
24628,-0.55431175,2.25708,-3.3685265,0.32922363,0.22408448,-0.41418457,98.0
24629,-0.822649,1.8685989,-2.8327484,0.32922363,0.22408448,-0.41418457,98.0
24630,-0.822649,1.8685989,-2.8327484,0.28780517,0.19541016,-0.59472656,98.0
24631,-0.7730484,0.70978546,-0.70931244,0.28780517,0.19541016,-0.59472656,98.0
24632,-0.7730484,0.70978546,-0.70931244,0.50870365,0.10620117,-0.47896728,98.0
24633,-0.7730484,0.70978546,-0.70931244,0.50870365,0.10620117,-0.47896728,89.0
24634,-0.4817314,-0.18830872,1.0684738,0.50870365,0.10620117,-0.47896728,89.0
24635,-0.4817314,-0.18830872,1.0684738,0.4088745,-0.07327881,-0.52250975,89.0
24636,0.04266548,-0.896225,1.5951691,0.4088745,-0.07327881,-0.52250975,89.0
24637,0.04266548,-0.896225,1.5951691,0.6552612,-0.087084964,-0.5543701,89.0
24638,0.6661148,-1.2508316,1.3040428,0.6552612,-0.087084964,-0.5543701,89.0
24639,0.6661148,-1.2508316,1.3040428,0.64995116,0.022302246,-0.7763306,89.0
24640,1.0343933,-0.24042511,0.8076744,0.64995116,0.022302246,-0.7763306,89.0
24641,1.0343933,-0.24042511,0.8076744,0.8485474,0.08814698,-0.62552494,89.0
24642,1.0884514,0.7984314,0.33755493,0.8485474,0.08814698,-0.62552494,89.0
24643,1.0884514,0.7984314,0.33755493,0.7540283,0.09239502,-0.51188964,89.0
24644,0.83363914,0.18334198,-0.115234375,0.7540283,0.09239502,-0.51188964,89.0
24645,0.83363914,0.18334198,-0.115234375,0.7625244,0.19753419,-0.5097656,89.0
24646,0.25507164,-0.9136658,-0.38314438,0.7625244,0.19753419,-0.5097656,89.0
24647,0.25507164,-0.9136658,-0.38314438,0.88040775,0.39188233,-0.630835,89.0
24648,-0.66166687,-0.8672104,0.119155884,0.88040775,0.39188233,-0.630835,89.0
24649,-0.66166687,-0.8672104,0.119155884,0.51932377,0.271875,-0.5256958,89.0
24650,-1.7659435,-0.30317688,1.1130486,0.51932377,0.271875,-0.5256958,89.0
24651,-1.7659435,-0.30317688,1.1130486,0.6223389,0.08920898,-0.46728516,89.0
24652,-1.8578243,-0.46461487,1.1848335,0.6223389,0.08920898,-0.46728516,89.0
24653,-1.8578243,-0.46461487,1.1848335,0.6977417,0.04885254,-0.5012695,89.0
24654,-0.911211,-1.2886734,0.20177078,0.6977417,0.04885254,-0.5012695,89.0
24655,-0.911211,-1.2886734,0.20177078,0.8326172,0.11469727,-0.5533081,89.0
24656,-0.030128479,-1.5529327,-0.7227516,0.8326172,0.11469727,-0.5533081,89.0
24657,-0.030128479,-1.5529327,-0.7227516,1.0004151,0.14868164,-0.6085327,89.0
24658,0.55340004,-0.45859528,-0.8653221,1.0004151,0.14868164,-0.6085327,89.0
24659,0.55340004,-0.45859528,-0.8653221,0.8814697,0.06159668,-0.5150757,89.0
24660,0.90558624,0.461174,-0.1183815,0.8814697,0.06159668,-0.5150757,89.0
24661,0.90558624,0.461174,-0.1183815,0.73703617,0.081774905,-0.5012695,89.0
24662,0.7440376,0.39421844,0.5895958,0.73703617,0.081774905,-0.5012695,89.0
24663,0.7440376,0.39421844,0.5895958,0.7975708,0.13487549,-0.46728516,89.0
24664,0.47899437,0.07106018,0.26013947,0.7975708,0.13487549,-0.46728516,89.0
24665,0.47899437,0.07106018,0.26013947,0.725354,0.045666505,-0.37489015,89.0
24666,0.5482464,-0.23352814,-0.35152054,0.725354,0.045666505,-0.37489015,89.0
24667,0.5482464,-0.23352814,-0.35152054,0.8687256,0.20178223,-0.44498292,89.0
24668,0.3711052,-0.21056366,-0.17004776,0.8687256,0.20178223,-0.44498292,89.0
24669,0.3711052,-0.21056366,-0.17004776,0.95581055,0.24638672,-0.45772704,89.0
24670,0.06231308,-0.12947845,0.18093109,0.95581055,0.24638672,-0.45772704,89.0
24671,0.06231308,-0.12947845,0.18093109,0.8952759,0.059472658,-0.48109132,89.0
24672,0.29208565,-0.24419403,0.06902313,0.8952759,0.059472658,-0.48109132,89.0
24673,0.29208565,-0.24419403,0.06902313,1.2287476,0.35152587,-0.544812,89.0
24674,0.49552155,0.41338348,-0.25762558,1.2287476,0.35152587,-0.544812,89.0
24675,0.49552155,0.41338348,-0.25762558,1.0694458,0.3812622,-0.5033936,89.0
24676,0.17240524,1.4464645,-0.4176941,1.0694458,0.3812622,-0.5033936,89.0
24677,0.17240524,1.4464645,-0.4176941,0.8496094,0.34090576,-0.39294434,89.0
24678,-0.33586693,1.189003,-0.1379242,0.8496094,0.34090576,-0.39294434,89.0
24679,-0.33586693,1.189003,-0.1379242,0.7306641,0.2824951,-0.4078125,89.0
24680,-0.54636765,0.047431946,0.14730453,0.7306641,0.2824951,-0.4078125,89.0
24681,-0.54636765,0.047431946,0.14730453,0.72323,0.19116211,-0.41524658,89.0
24682,-0.28023338,-0.41118622,0.051071167,0.72323,0.19116211,-0.41524658,89.0
24683,-0.28023338,-0.41118622,0.051071167,0.6637573,0.2623169,-0.24851075,89.0
24684,0.019758224,-0.18750763,-0.17071533,0.6637573,0.2623169,-0.24851075,89.0
24685,0.019758224,-0.18750763,-0.17071533,0.53737795,0.2166504,-0.2527588,89.0
24686,-0.046804428,0.136055,-0.21024323,0.53737795,0.2166504,-0.2527588,89.0
24687,-0.046804428,0.136055,-0.21024323,0.39506838,0.21877442,-0.23364258,89.0
24688,-0.3644085,0.3863449,-0.21814728,0.39506838,0.21877442,-0.23364258,89.0
24689,-0.3644085,0.3863449,-0.21814728,0.2347046,0.12956543,-0.17947999,89.0
24690,-0.6404762,0.5172577,-0.22305298,0.2347046,0.12956543,-0.17947999,89.0
24691,-0.6404762,0.5172577,-0.22305298,0.20178223,0.13168946,-0.20603028,89.0
24692,-0.6451683,0.43310547,-0.1091156,0.20178223,0.13168946,-0.20603028,89.0
24693,-0.6451683,0.43310547,-0.1091156,0.10513916,0.019116212,-0.18479005,89.0
24694,-0.29314804,-0.013671875,-0.032691956,0.10513916,0.019116212,-0.18479005,89.0
24695,-0.29314804,-0.013671875,-0.032691956,0.12319336,0.0021240234,-0.2442627,89.0
24696,0.07053566,-0.38450623,-0.09486771,0.12319336,0.0021240234,-0.2442627,89.0
24697,0.07053566,-0.38450623,-0.09486771,0.16354981,0.04460449,-0.2357666,89.0
24698,0.15091133,-0.3510971,-0.20090866,0.16354981,0.04460449,-0.2357666,89.0
24699,0.15091133,-0.3510971,-0.20090866,0.14868164,0.035046387,-0.2442627,89.0
24700,0.12301254,-0.18187714,-0.13759613,0.14868164,0.035046387,-0.2442627,89.0
24701,0.12301254,-0.18187714,-0.13759613,0.15930176,0.06690674,-0.21346436,89.0
24702,0.13444519,-0.11394501,0.043891907,0.15930176,0.06690674,-0.21346436,89.0
24703,0.13444519,-0.11394501,0.043891907,0.08920898,0.028674318,-0.1901001,89.0
24704,0.15190506,-0.06985474,0.044231415,0.08920898,0.028674318,-0.1901001,89.0
24705,0.15190506,-0.06985474,0.044231415,-0.009558106,0.059472658,-0.1444336,89.0
24706,0.11695862,-0.10308838,-0.12450409,-0.009558106,0.059472658,-0.1444336,89.0
24707,0.11695862,-0.10308838,-0.12450409,-0.035046387,0.050976563,-0.093457036,89.0
24708,0.071619034,-0.31241608,-0.10778046,-0.035046387,0.050976563,-0.093457036,89.0
24709,0.071619034,-0.31241608,-0.10778046,0.046728518,0.08920898,-0.11151123,89.0
24710,-0.002702713,-0.32593536,0.1715622,0.046728518,0.08920898,-0.11151123,89.0
24711,-0.002702713,-0.32593536,0.1715622,-0.06478272,0.0722168,-0.060534667,89.0
24712,-0.0154800415,-0.19032288,0.2854538,-0.06478272,0.0722168,-0.060534667,89.0
24713,-0.0154800415,-0.19032288,0.2854538,-0.19116211,0.0010620117,-0.026550293,89.0
24714,0.0671463,-0.08607483,0.0979805,-0.19116211,0.0010620117,-0.026550293,89.0
24715,0.0671463,-0.08607483,0.0979805,-0.19116211,0.03079834,0.013806152,89.0
24716,0.0146923065,-0.02242279,-0.02273941,-0.19116211,0.03079834,0.013806152,89.0
24717,0.0146923065,-0.02242279,-0.02273941,-0.16036378,0.008496094,0.033984374,89.0
24718,-0.0701313,-0.0024871826,-0.0901413,-0.16036378,0.008496094,0.033984374,89.0
24719,-0.0701313,-0.0024871826,-0.0901413,-0.1731079,-0.0361084,0.033984374,89.0
24720,-0.018226624,-0.010154724,-0.19578552,-0.1731079,-0.0361084,0.033984374,89.0
24721,-0.018226624,-0.010154724,-0.19578552,-0.14124756,0.004248047,0.053100586,89.0
24722,0.006511688,-0.1010437,-0.10827637,-0.14124756,0.004248047,0.053100586,89.0
24723,0.006511688,-0.1010437,-0.10827637,-0.019116212,0.016992187,0.0,89.0
24724,-0.029678345,-0.06349182,0.12284851,-0.019116212,0.016992187,0.0,89.0
24725,-0.029678345,-0.06349182,0.12284851,-0.107263185,0.009558106,0.045666505,89.0
24726,0.013050079,-0.127182,0.1574707,-0.107263185,0.009558106,0.045666505,89.0
24727,0.013050079,-0.127182,0.1574707,-0.11044922,-0.008496094,0.022302246,89.0
24728,0.066604614,-0.17165375,0.014221191,-0.11044922,-0.008496094,0.022302246,89.0
24729,0.066604614,-0.17165375,0.014221191,-0.081774905,0.02442627,0.016992187,89.0
24730,-0.010009766,-0.044265747,-0.092041016,-0.081774905,0.02442627,0.016992187,89.0
24731,-0.010009766,-0.044265747,-0.092041016,-0.11469727,0.015930176,0.04460449,89.0
24732,-0.12242317,-0.018203735,-0.07822037,-0.11469727,0.015930176,0.04460449,89.0
24733,-0.12242317,-0.018203735,-0.07822037,-0.11151123,0.013806152,0.02442627,89.0
24734,-0.11253929,-0.027023315,-0.057510376,-0.11151123,0.013806152,0.02442627,89.0
24735,-0.11253929,-0.027023315,-0.057510376,-0.19434814,-0.022302246,0.052038576,89.0
24736,-0.08060837,-0.1415863,-0.06351471,-0.19434814,-0.022302246,0.052038576,89.0
24737,-0.08060837,-0.1415863,-0.06351471,-0.11257324,0.10407715,0.10620117,89.0
24738,-0.14274597,-0.20713043,0.045135498,-0.11257324,0.10407715,0.10620117,89.0
24739,-0.14274597,-0.20713043,0.045135498,-0.1359375,0.019116212,0.16142578,89.0
24740,-0.112537384,-0.0032043457,0.08325195,-0.1359375,0.019116212,0.16142578,89.0
24741,-0.112537384,-0.0032043457,0.08325195,-0.16036378,-0.015930176,0.1529297,89.0
24742,-0.01996231,0.21230316,-0.10158539,-0.16036378,-0.015930176,0.1529297,89.0
24743,-0.01996231,0.21230316,-0.10158539,-0.26444092,-0.046728518,0.14230958,89.0
24744,0.017734528,0.097221375,-0.24691772,-0.26444092,-0.046728518,0.14230958,89.0
24745,0.017734528,0.097221375,-0.24691772,-0.17841797,-0.08283692,0.11363526,89.0
24746,-0.0024375916,0.04853058,-0.24678802,-0.17841797,-0.08283692,0.11363526,89.0
24747,-0.0024375916,0.04853058,-0.24678802,-0.23364258,-0.06159668,0.13275146,89.0
24748,-0.12002945,0.22863007,-0.18447876,-0.23364258,-0.06159668,0.13275146,89.0
24749,-0.12002945,0.22863007,-0.18447876,-0.362146,-0.0998291,0.1444336,89.0
24750,-0.09900093,0.23395538,-0.16778564,-0.362146,-0.0998291,0.1444336,89.0
24751,-0.09900093,0.23395538,-0.16778564,-0.13487549,-0.15080567,0.115759276,89.0
24752,0.16285324,0.58651733,0.1833992,-0.13487549,-0.15080567,0.115759276,89.0
24753,0.16285324,0.58651733,0.1833992,-0.043542482,-0.15717773,0.15611573,89.0
24754,0.12829208,0.85435486,0.80802536,-0.043542482,-0.15717773,0.15611573,89.0
24755,0.12829208,0.85435486,0.80802536,-0.4343628,-0.20496826,0.19222413,89.0
24756,-0.26965714,0.371315,0.8896332,-0.4343628,-0.20496826,0.19222413,89.0
24757,-0.26965714,0.371315,0.8896332,-0.64570314,-0.31860352,0.14230958,89.0
24758,-0.48308372,-0.14323425,0.17163086,-0.64570314,-0.31860352,0.14230958,89.0
24759,-0.48308372,-0.14323425,0.17163086,-0.6711914,-0.40462646,0.0998291,89.0
24760,-0.20747375,-0.16110992,-0.6351433,-0.6711914,-0.40462646,0.0998291,89.0
24761,-0.20747375,-0.16110992,-0.6351433,-0.56392825,-0.35471192,0.15505372,89.0
24762,0.20278358,-0.049552917,-0.7340164,-0.56392825,-0.35471192,0.15505372,89.0
24763,0.20278358,-0.049552917,-0.7340164,-0.6680054,-0.30054933,0.1996582,89.0
24764,0.20278358,-0.049552917,-0.7340164,-0.6680054,-0.30054933,0.1996582,92.0
24765,0.33330917,-0.37397766,-0.19844055,-0.6680054,-0.30054933,0.1996582,92.0
24766,0.33330917,-0.37397766,-0.19844055,-0.6881836,-0.33134767,0.19647217,92.0
24767,0.32027245,-0.5050659,0.15743256,-0.6881836,-0.33134767,0.19647217,92.0
24768,0.32027245,-0.5050659,0.15743256,-0.76677245,-0.28674316,0.2793091,92.0
24769,0.23496628,-0.21559906,-0.020771027,-0.76677245,-0.28674316,0.2793091,92.0
24770,0.23496628,-0.21559906,-0.020771027,-0.8326172,-0.2442627,0.3419678,92.0
24771,0.09522438,-0.546463,-0.31842422,-0.8326172,-0.2442627,0.3419678,92.0
24772,0.09522438,-0.546463,-0.31842422,-0.9239502,-0.35789797,0.23258057,92.0
24773,-0.053422928,-1.0707016,-0.27808,-0.9239502,-0.35789797,0.23258057,92.0
24774,-0.053422928,-1.0707016,-0.27808,-0.62552494,-0.29523927,0.0998291,92.0
24775,-0.30069733,-0.32218933,0.2242279,-0.62552494,-0.29523927,0.0998291,92.0
24776,-0.30069733,-0.32218933,0.2242279,-0.79013675,-0.31860352,0.16461182,92.0
24777,-0.49518585,0.9108505,0.7387085,-0.79013675,-0.31860352,0.16461182,92.0
24778,-0.49518585,0.9108505,0.7387085,-1.4167236,-0.50020754,0.32816163,92.0
24779,-0.34840584,0.4412918,0.5560684,-1.4167236,-0.50020754,0.32816163,92.0
24780,-0.34840584,0.4412918,0.5560684,-1.6493043,-0.6754395,0.15611573,92.0
24781,0.16617203,-1.033844,-0.104644775,-1.6493043,-0.6754395,0.15611573,92.0
24782,0.16617203,-1.033844,-0.104644775,-1.2744141,-0.68924564,-0.06265869,92.0
24783,0.57466125,-0.96569824,-0.383152,-1.2744141,-0.68924564,-0.06265869,92.0
24784,0.57466125,-0.96569824,-0.383152,-1.0120972,-0.38338622,0.13168946,92.0
24785,0.4315796,0.13947296,0.16535187,-1.0120972,-0.38338622,0.13168946,92.0
24786,0.4315796,0.13947296,0.16535187,-1.1246704,-0.5214478,0.35471192,92.0
24787,0.49704552,0.15381622,0.41890335,-1.1246704,-0.5214478,0.35471192,92.0
24788,0.49704552,0.15381622,0.41890335,-0.75296634,-0.57242435,0.4364868,92.0
24789,1.1743202,-0.7825012,-0.06072998,-0.75296634,-0.57242435,0.4364868,92.0
24790,1.1743202,-0.7825012,-0.06072998,-0.85598147,-0.56605226,0.36427003,92.0
24791,1.0451946,-1.026123,-0.15781021,-0.85598147,-0.56605226,0.36427003,92.0
24792,1.0451946,-1.026123,-0.15781021,-0.7412842,-0.32285157,0.37807617,92.0
24793,-0.31378365,-0.18406677,0.45516205,-0.7412842,-0.32285157,0.37807617,92.0
24794,-0.31378365,-0.18406677,0.45516205,-1.0046631,-0.55543214,0.452417,92.0
24795,-1.5231476,0.58353424,0.94259644,-1.0046631,-0.55543214,0.452417,92.0
24796,-1.5231476,0.58353424,0.94259644,-1.2850342,-0.813501,0.6074707,92.0
24797,-1.6606941,0.23766327,0.42655182,-1.2850342,-0.813501,0.6074707,92.0
24798,-1.6606941,0.23766327,0.42655182,-1.4273437,-0.904834,0.5649902,92.0
24799,-1.2774429,-0.82388306,-0.6550369,-1.4273437,-0.904834,0.5649902,92.0
24800,-1.2774429,-0.82388306,-0.6550369,-1.6174439,-0.7890747,0.48215333,92.0
24801,-1.3681221,-2.0341034,-0.8102226,-1.6174439,-0.7890747,0.48215333,92.0
24802,-1.3681221,-2.0341034,-0.8102226,-1.5505371,-1.0779419,0.2081543,92.0
24803,-1.4273338,-2.4406586,0.016910553,-1.5505371,-1.0779419,0.2081543,92.0
24804,-1.4273338,-2.4406586,0.016910553,-1.9827759,-1.2181275,0.025488282,92.0
24805,-0.7160969,-1.05233,0.2183876,-1.9827759,-1.2181275,0.025488282,92.0
24806,-0.7160969,-1.05233,0.2183876,-2.3799684,-1.3349488,0.32603762,92.0
24807,0.14388275,0.5610275,-0.4461403,-2.3799684,-1.3349488,0.32603762,92.0
24808,0.14388275,0.5610275,-0.4461403,-2.8621216,-1.3338867,0.0180542,92.0
24809,0.8429737,0.061935425,-0.508831,-2.8621216,-1.3338867,0.0180542,92.0
24810,0.8429737,0.061935425,-0.508831,-2.4171388,-1.4135376,-0.22833252,92.0
24811,1.618166,-0.9756317,0.25075912,-2.4171388,-1.4135376,-0.22833252,92.0
24812,1.618166,-0.9756317,0.25075912,-2.3672242,-1.1926392,0.022302246,92.0
24813,2.2801533,-0.45567322,0.7266083,-2.3672242,-1.1926392,0.022302246,92.0
24814,2.2801533,-0.45567322,0.7266083,-2.9035401,-0.9600586,0.12213135,92.0
24815,2.7400532,0.5046234,0.46723557,-2.9035401,-0.9600586,0.12213135,92.0
24816,2.7400532,0.5046234,0.46723557,-2.8504395,-0.6860596,0.21983643,92.0
24817,3.2176037,0.7968826,-0.18244934,-2.8504395,-0.6860596,0.21983643,92.0
24818,3.2176037,0.7968826,-0.18244934,-2.1994264,-0.37807617,0.32497558,92.0
24819,3.5214958,0.5521164,-0.557251,-2.1994264,-0.37807617,0.32497558,92.0
24820,3.5214958,0.5521164,-0.557251,-1.4783204,-0.14974366,0.3791382,92.0
24821,3.28298,0.15652466,-0.26210785,-1.4783204,-0.14974366,0.3791382,92.0
24822,3.28298,0.15652466,-0.26210785,-1.0046631,-0.0053100586,0.3462158,92.0
24823,2.5912285,-0.14006042,0.31206512,-1.0046631,-0.0053100586,0.3462158,92.0
24824,2.5912285,-0.14006042,0.31206512,-0.61278075,0.0021240234,0.28461915,92.0
24825,1.8896818,-0.42031097,0.6640053,-0.61278075,0.0021240234,0.28461915,92.0
24826,1.8896818,-0.42031097,0.6640053,0.009558106,0.045666505,0.20709229,92.0
24827,1.2429104,-0.67481995,0.8613205,0.009558106,0.045666505,0.20709229,92.0
24828,1.2429104,-0.67481995,0.8613205,0.5235718,0.046728518,0.10938721,92.0
24829,0.47480965,-0.8111191,1.0791321,0.5235718,0.046728518,0.10938721,92.0
24830,0.47480965,-0.8111191,1.0791321,0.75296634,-0.0031860352,0.028674318,92.0
24831,-0.20491791,-0.77864075,1.0542984,0.75296634,-0.0031860352,0.028674318,92.0
24832,-0.20491791,-0.77864075,1.0542984,0.7412842,-0.10089111,-0.039294433,92.0
24833,-0.4982853,-0.6325836,0.56913376,0.7412842,-0.10089111,-0.039294433,92.0
24834,-0.4982853,-0.6325836,0.56913376,0.7805786,-0.15186767,-0.121069334,92.0
24835,-0.4439888,-0.35178375,-0.108428955,0.7805786,-0.15186767,-0.121069334,92.0
24836,-0.4439888,-0.35178375,-0.108428955,1.0651978,-0.13275146,-0.1274414,92.0
24837,-0.40359116,-0.12323761,-0.3618927,1.0651978,-0.13275146,-0.1274414,92.0
24838,-0.40359116,-0.12323761,-0.3618927,1.4326538,-0.02442627,-0.1529297,92.0
24839,-0.64938545,0.11595154,-0.12023926,1.4326538,-0.02442627,-0.1529297,92.0
24840,-0.64938545,0.11595154,-0.12023926,1.5229248,0.059472658,-0.07327881,92.0
24841,-0.97657585,0.5382538,-0.036582947,1.5229248,0.059472658,-0.07327881,92.0
24842,-0.97657585,0.5382538,-0.036582947,1.4007934,0.107263185,0.0180542,92.0
24843,-1.11273,0.72104645,-0.29567337,1.4007934,0.107263185,0.0180542,92.0
24844,-1.11273,0.72104645,-0.29567337,1.3721192,0.21452637,0.08496094,92.0
24845,-1.20504,0.40268707,-0.42601776,1.3721192,0.21452637,0.08496094,92.0
24846,-1.20504,0.40268707,-0.42601776,1.4092896,0.34833986,0.12531738,92.0
24847,-1.4471989,0.12322235,-0.23277283,1.4092896,0.34833986,0.12531738,92.0
24848,-1.4471989,0.12322235,-0.23277283,1.1586548,0.44710693,0.18797608,92.0
24849,-1.6596642,0.37527466,-0.069984436,1.1586548,0.44710693,0.18797608,92.0
24850,-1.6596642,0.37527466,-0.069984436,0.60322267,0.45135498,0.26656494,92.0
24851,-1.6008034,0.4872055,-0.0019493103,0.60322267,0.45135498,0.26656494,92.0
24852,-1.6008034,0.4872055,-0.0019493103,0.49489745,0.43861085,0.2548828,92.0
24853,-1.4382114,0.08489227,0.24129868,0.49489745,0.43861085,0.2548828,92.0
24854,-1.4382114,0.08489227,0.24129868,0.5713623,0.4619751,0.27612305,92.0
24855,-1.3423538,-0.21234894,0.47833252,0.5713623,0.4619751,0.27612305,92.0
24856,-1.3423538,-0.21234894,0.47833252,0.37382814,0.3791382,0.3175415,92.0
24857,-1.0852242,-0.13316345,0.29697418,0.37382814,0.3791382,0.3175415,92.0
24858,-1.0852242,-0.13316345,0.29697418,0.012744141,0.3345337,0.2538208,92.0
24859,-0.5844631,0.07817078,-0.18173218,0.012744141,0.3345337,0.2538208,92.0
24860,-0.5844631,0.07817078,-0.18173218,-0.098767094,0.33240968,0.2814331,92.0
24861,-0.17701912,0.11740875,-0.56134033,-0.098767094,0.33240968,0.2814331,92.0
24862,-0.17701912,0.11740875,-0.56134033,0.046728518,0.3717041,0.33028564,92.0
24863,-0.09774399,-0.0027618408,-0.8269768,0.046728518,0.3717041,0.33028564,92.0
24864,-0.09774399,-0.0027618408,-0.8269768,0.2166504,0.3706421,0.28674316,92.0
24865,-0.09774399,-0.0027618408,-0.8269768,0.2166504,0.3706421,0.28674316,94.0
24866,-0.04194069,-0.0419693,-1.4659767,0.2166504,0.3706421,0.28674316,94.0
24867,-0.04194069,-0.0419693,-1.4659767,0.41949463,0.53100586,0.31116945,94.0
24868,0.24257088,-0.23373413,-2.2101822,0.41949463,0.53100586,0.31116945,94.0
24869,0.24257088,-0.23373413,-2.2101822,0.7784546,0.81031495,0.052038576,94.0
24870,0.034975052,-0.34370422,-1.602375,0.7784546,0.81031495,0.052038576,94.0
24871,0.034975052,-0.34370422,-1.602375,1.3912354,0.9239502,-0.16354981,94.0
24872,-0.83364105,0.8758316,0.20993423,1.3912354,0.9239502,-0.16354981,94.0
24873,-0.83364105,0.8758316,0.20993423,1.0694458,0.7497803,-0.16248779,94.0
24874,-1.4635448,2.5190277,1.8791046,1.0694458,0.7497803,-0.16248779,94.0
24875,-1.4635448,2.5190277,1.8791046,0.8464233,0.5787964,-0.0010620117,94.0
24876,-1.5377426,2.0546417,3.0588264,0.8464233,0.5787964,-0.0010620117,94.0
24877,-1.5377426,2.0546417,3.0588264,1.3976074,0.36108398,-0.010620117,94.0
24878,-1.0690002,-0.40834045,3.1529236,1.3976074,0.36108398,-0.010620117,94.0
24879,-1.0690002,-0.40834045,3.1529236,2.2461548,0.18585205,-0.62764895,94.0
24880,0.402771,-1.4824982,0.6635361,2.2461548,0.18585205,-0.62764895,94.0
24881,0.402771,-1.4824982,0.6635361,2.6518433,0.5129517,-0.41524658,94.0
24882,2.0794926,-0.00793457,-2.2125053,2.6518433,0.5129517,-0.41524658,94.0
24883,2.0794926,-0.00793457,-2.2125053,2.624231,0.88040775,-0.56817627,94.0
24884,1.6599445,1.661087,-2.3823318,2.624231,0.88040775,-0.56817627,94.0
24885,1.6599445,1.661087,-2.3823318,2.2111084,1.0195312,-0.54587406,94.0
24886,0.17555046,2.161522,-1.5914841,2.2111084,1.0195312,-0.54587406,94.0
