,accx,accy,accz,gyrox,gyroy,gyroz,heart rate
22947,open,open,open,open,open,open,open
22948,0.118450165,-0.04901886,0.039402008,-0.57242435,0.14974366,-0.22089843,169.0
22949,0.075107574,0.027542114,0.013320923,-0.57242435,0.14974366,-0.22089843,169.0
22950,0.075107574,0.027542114,0.013320923,-0.14549561,0.045666505,0.4056885,169.0
22951,1.2240143,-0.55036926,-0.514328,-0.14549561,0.045666505,0.4056885,169.0
22952,1.2240143,-0.55036926,-0.514328,-0.059472658,-0.04885254,0.46409914,169.0
22953,1.0437622,-0.5187149,-0.34715652,-0.059472658,-0.04885254,0.46409914,169.0
22954,1.0437622,-0.5187149,-0.34715652,0.010620117,-0.115759276,0.64995116,169.0
22955,0.7598505,-0.33718872,-0.23471832,0.010620117,-0.115759276,0.64995116,169.0
22956,0.7598505,-0.33718872,-0.23471832,-0.2262085,0.019116212,0.44073486,169.0
22957,0.7598505,-0.33718872,-0.23471832,-0.21877442,0.016992187,0.47896728,169.0
22958,0.497859,-0.13289642,-0.19273376,-0.21877442,0.016992187,0.47896728,169.0
22959,0.36005497,-0.017913818,-0.19110107,-0.21877442,0.016992187,0.47896728,169.0
22960,0.36005497,-0.017913818,-0.19110107,-0.16885987,-0.015930176,0.4991455,169.0
22961,0.23794651,0.10965729,-0.20007324,-0.16885987,-0.015930176,0.4991455,169.0
22962,0.23794651,0.10965729,-0.20007324,-0.1985962,0.012744141,0.43754885,169.0
22963,0.17310905,0.12710571,-0.18901443,-0.1985962,0.012744141,0.43754885,169.0
22964,0.17310905,0.12710571,-0.18901443,-0.18585205,0.011682129,0.4088745,169.0
22965,0.099803925,0.0969162,-0.12332916,-0.18585205,0.011682129,0.4088745,169.0
22966,0.099803925,0.0969162,-0.12332916,-0.10301514,-0.02442627,0.362146,169.0
22967,0.053756714,0.17003632,-0.05921173,-0.10301514,-0.02442627,0.362146,169.0
22968,0.053756714,0.17003632,-0.05921173,-0.118945315,-0.004248047,0.35895997,169.0
22969,0.07469559,0.19062805,-0.022918701,-0.118945315,-0.004248047,0.35895997,169.0
22970,0.07469559,0.19062805,-0.022918701,-0.08920898,-0.014868164,0.35577393,169.0
22971,0.12037659,0.06587219,-0.031772614,-0.08920898,-0.014868164,0.35577393,169.0
22972,0.12037659,0.06587219,-0.031772614,-0.10301514,-0.010620117,0.30161133,169.0
22973,0.12854004,-0.05934143,-0.09803772,-0.10301514,-0.010620117,0.30161133,169.0
22974,0.12854004,-0.05934143,-0.09803772,-0.115759276,-0.007434082,0.25700685,169.0
22975,0.04635048,-0.12703705,-0.14548492,-0.115759276,-0.007434082,0.25700685,169.0
22976,0.04635048,-0.12703705,-0.14548492,-0.05522461,-0.04460449,0.26762697,169.0
22977,-0.103422165,-0.10309601,-0.08861923,-0.05522461,-0.04460449,0.26762697,169.0
22978,-0.103422165,-0.10309601,-0.08861923,0.033984374,-0.11363526,0.30161133,169.0
22979,-0.18525219,0.05696106,0.02619934,0.033984374,-0.11363526,0.30161133,169.0
22980,-0.18525219,0.05696106,0.02619934,-0.043542482,-0.08071289,0.34833986,169.0
22981,-0.15863895,0.12778473,0.1836052,-0.043542482,-0.08071289,0.34833986,169.0
22982,-0.15863895,0.12778473,0.1836052,0.03186035,-0.13168946,0.2623169,169.0
22983,-0.15863895,0.12778473,0.1836052,-0.028674318,-0.078588866,0.28568116,169.0
22984,-0.06968498,0.06336975,0.27062607,-0.028674318,-0.078588866,0.28568116,169.0
22985,0.12002087,-0.0949707,0.1798935,-0.028674318,-0.078588866,0.28568116,169.0
22986,0.12002087,-0.0949707,0.1798935,-0.121069334,-0.045666505,-0.0021240234,169.0
22987,0.21711063,-0.28094482,0.06224823,-0.121069334,-0.045666505,-0.0021240234,169.0
22988,0.21711063,-0.28094482,0.06224823,-0.12213135,0.019116212,-0.0063720704,169.0
22989,0.07052708,-0.18650055,0.021282196,-0.12213135,0.019116212,-0.0063720704,169.0
22990,0.07052708,-0.18650055,0.021282196,-0.008496094,-0.022302246,-0.07965088,169.0
22991,0.07052708,-0.18650055,0.021282196,-0.08283692,0.03717041,-0.098767094,169.0
22992,-0.035949707,0.07282257,-0.014259338,-0.08283692,0.03717041,-0.098767094,169.0
22993,-0.010473251,0.19611359,-0.088127136,-0.08283692,0.03717041,-0.098767094,169.0
22994,-0.010473251,0.19611359,-0.088127136,-0.118945315,0.08602295,-0.14974366,169.0
22995,-0.004081726,0.08506775,-0.16211319,-0.118945315,0.08602295,-0.14974366,169.0
22996,-0.004081726,0.08506775,-0.16211319,-0.06903076,0.08283692,-0.18585205,169.0
22997,-0.01651001,-0.08081055,-0.20895004,-0.06903076,0.08283692,-0.18585205,169.0
22998,-0.01651001,-0.08081055,-0.20895004,-0.020178223,0.08814698,-0.22196046,169.0
22999,-0.01651001,-0.08081055,-0.20895004,0.047790527,0.06690674,-0.26762697,169.0
23000,0.004968643,-0.18650818,-0.21169281,0.047790527,0.06690674,-0.26762697,169.0
23001,0.074165344,-0.17752838,-0.19039917,0.047790527,0.06690674,-0.26762697,169.0
23002,0.074165344,-0.17752838,-0.19039917,0.0637207,0.052038576,-0.35895997,169.0
23003,0.19074059,-0.10033417,-0.15058517,0.0637207,0.052038576,-0.35895997,169.0
23004,0.19074059,-0.10033417,-0.15058517,0.027612304,0.045666505,-0.4630371,169.0
23005,0.3258953,-0.09831238,-0.06348419,0.027612304,0.045666505,-0.4630371,169.0
23006,0.3258953,-0.09831238,-0.06348419,0.03186035,0.035046387,-0.55543214,169.0
23007,0.43019867,-0.1980133,0.057746887,0.03186035,0.035046387,-0.55543214,169.0
23008,0.43019867,-0.1980133,0.057746887,-0.004248047,0.053100586,-0.61915284,169.0
23009,0.43019867,-0.1980133,0.057746887,-0.10195313,0.095581055,-0.69136965,169.0
23010,0.4538021,-0.29585266,0.11096573,-0.10195313,0.095581055,-0.69136965,169.0
23011,0.37061024,-0.30870056,0.04735565,-0.10195313,0.095581055,-0.69136965,169.0
23012,0.37061024,-0.30870056,0.04735565,-0.18797608,0.10513916,-0.76464844,169.0
23013,0.27013302,-0.28914642,-0.07738495,-0.18797608,0.10513916,-0.76464844,169.0
23014,0.27013302,-0.28914642,-0.07738495,-0.22939454,0.1263794,-0.8050049,169.0
23015,0.19194794,-0.33263397,-0.1763382,-0.22939454,0.1263794,-0.8050049,169.0
23016,0.19194794,-0.33263397,-0.1763382,-0.21027832,0.1083252,-0.813501,169.0
23017,0.12298012,-0.3411789,-0.2060852,-0.21027832,0.1083252,-0.813501,169.0
23018,0.12298012,-0.3411789,-0.2060852,-0.1901001,0.093457036,-0.815625,169.0
23019,0.07646084,-0.23080444,-0.21773529,-0.1901001,0.093457036,-0.815625,169.0
23020,0.07646084,-0.23080444,-0.21773529,-0.23045655,0.07646485,-0.81031495,169.0
23021,0.07026291,-0.14234924,-0.23815155,-0.23045655,0.07646485,-0.81031495,169.0
23022,0.07026291,-0.14234924,-0.23815155,-0.26975098,0.052038576,-0.8007569,169.0
23023,0.0542202,-0.2295456,-0.2482605,-0.26975098,0.052038576,-0.8007569,169.0
23024,0.0542202,-0.2295456,-0.2482605,-0.2442627,0.0053100586,-0.81881106,169.0
23025,0.054533005,-0.46240997,-0.18429184,-0.2442627,0.0053100586,-0.81881106,169.0
23026,0.054533005,-0.46240997,-0.18429184,-0.10513916,-0.06690674,-0.8687256,169.0
23027,0.14043999,-0.61221313,0.010025024,-0.10513916,-0.06690674,-0.8687256,169.0
23028,0.14043999,-0.61221313,0.010025024,0.0031860352,-0.1263794,-0.8952759,169.0
23029,0.261034,-0.50975037,0.24359131,0.0031860352,-0.1263794,-0.8952759,169.0
23030,0.261034,-0.50975037,0.24359131,-0.022302246,-0.12213135,-0.8931519,169.0
23031,0.36986256,-0.33277893,0.3563118,-0.022302246,-0.12213135,-0.8931519,169.0
23032,0.36986256,-0.33277893,0.3563118,-0.05522461,-0.10407715,-0.8485474,169.0
23033,0.43822384,-0.2398758,0.29455566,-0.05522461,-0.10407715,-0.8485474,169.0
23034,0.43822384,-0.2398758,0.29455566,0.027612304,-0.12850343,-0.7763306,169.0
23035,0.44589233,-0.14806366,0.15646744,0.027612304,-0.12850343,-0.7763306,169.0
23036,0.44589233,-0.14806366,0.15646744,0.107263185,-0.1263794,-0.74871826,169.0
23037,0.34953594,-0.045921326,0.05022049,0.107263185,-0.1263794,-0.74871826,169.0
23038,0.34953594,-0.045921326,0.05022049,0.16567384,-0.09133301,-0.725354,169.0
23039,0.19364262,-0.09597778,0.06536102,0.16567384,-0.09133301,-0.725354,169.0
23040,0.19364262,-0.09597778,0.06536102,0.2888672,-0.0722168,-0.7104859,169.0
23041,0.06112671,-0.19248962,0.16409302,0.2888672,-0.0722168,-0.7104859,169.0
23042,0.06112671,-0.19248962,0.16409302,0.36639404,-0.050976563,-0.6839356,169.0
23043,0.014074326,-0.06517029,0.18634033,0.36639404,-0.050976563,-0.6839356,169.0
23044,0.014074326,-0.06517029,0.18634033,0.24213867,0.035046387,-0.71154785,169.0
23045,0.02157402,0.19451904,0.051403046,0.24213867,0.035046387,-0.71154785,169.0
23046,0.02157402,0.19451904,0.051403046,0.11682129,0.07965088,-0.75721437,169.0
23047,0.015636444,0.401268,-0.17864227,0.11682129,0.07965088,-0.75721437,169.0
23048,0.015636444,0.401268,-0.17864227,0.028674318,0.07752686,-0.8336792,169.0
23049,-0.1018219,0.6423416,-0.3917656,0.028674318,0.07752686,-0.8336792,169.0
23050,-0.1018219,0.6423416,-0.3917656,-0.11682129,0.026550293,-0.9600586,169.0
23051,-0.2860222,0.76921844,-0.3994484,-0.11682129,0.026550293,-0.9600586,169.0
23052,-0.2860222,0.76921844,-0.3994484,-0.23682861,0.0021240234,-1.1108643,169.0
23053,-0.3055992,0.59336853,-0.15124893,-0.23682861,0.0021240234,-1.1108643,169.0
23054,-0.3055992,0.59336853,-0.15124893,-0.24957275,-0.06265869,-1.2383057,169.0
23055,-0.14461422,0.3532257,0.06347275,-0.24957275,-0.06265869,-1.2383057,169.0
23056,-0.14461422,0.3532257,0.06347275,-0.39506838,-0.06159668,-1.3880494,169.0
23057,-0.027312279,0.154068,-0.02583313,-0.39506838,-0.06159668,-1.3880494,169.0
23058,-0.027312279,0.154068,-0.02583313,-0.54906005,-0.0541626,-1.4825684,169.0
23059,-0.05294037,-0.115249634,-0.26656723,-0.54906005,-0.0541626,-1.4825684,169.0
23060,-0.05294037,-0.115249634,-0.26656723,-0.49383545,-0.14124756,-1.5813354,169.0
23061,-0.08529663,-0.35842133,-0.32576752,-0.49383545,-0.14124756,-1.5813354,169.0
23062,-0.08529663,-0.35842133,-0.32576752,-0.4704712,-0.25063476,-1.6801026,169.0
23063,0.12878418,-0.6506424,-0.11499405,-0.4704712,-0.25063476,-1.6801026,169.0
23064,0.12878418,-0.6506424,-0.11499405,-0.5533081,-0.22727051,-1.7671875,169.0
23065,0.59093094,-1.110527,0.11414337,-0.5533081,-0.22727051,-1.7671875,169.0
23066,0.59093094,-1.110527,0.11414337,-0.6467652,-0.16885987,-1.7650635,169.0
23067,0.9661894,-1.5010757,0.056339264,-0.6467652,-0.16885987,-1.7650635,169.0
23068,0.9661894,-1.5010757,0.056339264,-0.7508423,-0.15823975,-1.7735596,169.0
23069,1.041275,-1.5707626,-0.29936218,-0.7508423,-0.15823975,-1.7735596,169.0
23070,1.041275,-1.5707626,-0.29936218,-0.8517334,-0.16673584,-1.8054199,169.0
23071,0.9645748,-1.4287567,-0.66433334,-0.8517334,-0.16673584,-1.8054199,169.0
23072,0.9645748,-1.4287567,-0.66433334,-0.89846194,-0.20603028,-1.8192261,169.0
23073,1.0370407,-1.4554062,-0.75011826,-0.89846194,-0.20603028,-1.8192261,169.0
23074,1.0370407,-1.4554062,-0.75011826,-0.7827026,-0.32285157,-1.7969239,169.0
23075,1.3035097,-1.7183533,-0.68891144,-0.7827026,-0.32285157,-1.7969239,169.0
23076,1.3035097,-1.7183533,-0.68891144,-0.5522461,-0.4630371,-1.7395753,169.0
23077,1.5620708,-1.8414078,-0.6859665,-0.5522461,-0.4630371,-1.7395753,169.0
23078,1.5620708,-1.8414078,-0.6859665,-0.34727785,-0.6435791,-1.6960328,169.0
23079,1.7028303,-1.601532,-0.82040405,-0.34727785,-0.6435791,-1.6960328,169.0
23080,1.7028303,-1.601532,-0.82040405,-0.2538208,-0.8358032,-1.6439942,169.0
23081,1.7908411,-1.2955093,-0.97488785,-0.2538208,-0.8358032,-1.6439942,169.0
23082,1.7908411,-1.2955093,-0.97488785,-0.1444336,-1.0683838,-1.6110718,169.0
23083,1.9724188,-1.1893997,-0.8602104,-0.1444336,-1.0683838,-1.6110718,169.0
23084,1.9724188,-1.1893997,-0.8602104,0.026550293,-1.2871583,-1.5229248,169.0
23085,2.3087215,-1.3278046,-0.430439,0.026550293,-1.2871583,-1.5229248,169.0
23086,2.3087215,-1.3278046,-0.430439,0.10620117,-1.3880494,-1.3402588,169.0
23087,2.6161175,-1.4454193,-0.026599884,0.10620117,-1.3880494,-1.3402588,169.0
23088,2.6161175,-1.4454193,-0.026599884,-0.0010620117,-1.3922974,-1.2266235,169.0
23089,2.51964,-1.4309311,0.12702179,-0.0010620117,-1.3922974,-1.2266235,169.0
23090,2.51964,-1.4309311,0.12702179,0.090270996,-1.3954834,-1.0492676,169.0
23091,2.1021986,-1.3523483,0.27573776,0.090270996,-1.3954834,-1.0492676,169.0
23092,2.1021986,-1.3523483,0.27573776,0.38338622,-1.3838013,-0.9218262,169.0
23093,1.8594933,-1.1112518,0.60110855,0.38338622,-1.3838013,-0.9218262,169.0
23094,1.8594933,-1.1112518,0.60110855,0.63826907,-1.355127,-0.7763306,169.0
23095,1.961935,-0.9514847,0.8814125,0.63826907,-1.355127,-0.7763306,169.0
23096,1.961935,-0.9514847,0.8814125,0.74659425,-1.1915772,-0.5979126,169.0
23097,2.1315842,-1.1347122,0.92290497,0.74659425,-1.1915772,-0.5979126,169.0
23098,2.1315842,-1.1347122,0.92290497,0.90802,-1.0099732,-0.2357666,169.0
23099,2.1626282,-1.6300735,0.4622345,0.90802,-1.0099732,-0.2357666,169.0
23100,2.1626282,-1.6300735,0.4622345,1.2032593,-0.81031495,0.20603028,169.0
23101,2.366394,-1.6588211,0.5864258,1.2032593,-0.81031495,0.20603028,169.0
23102,2.366394,-1.6588211,0.5864258,1.6333741,-0.68074954,0.5501221,169.0
23103,2.312317,-0.3438034,1.3757439,1.6333741,-0.68074954,0.5501221,169.0
23104,2.312317,-0.3438034,1.3757439,0.85704345,-0.48640138,1.1565307,169.0
23105,1.5151734,1.2635574,1.4304657,0.85704345,-0.48640138,1.1565307,169.0
23106,1.5151734,1.2635574,1.4304657,0.34727785,-0.28355715,1.1066163,169.0
23107,0.8240285,2.1107254,0.9745712,0.34727785,-0.28355715,1.1066163,169.0
23108,0.8240285,2.1107254,0.9745712,0.60322267,-0.34727785,0.8219971,169.0
23109,0.44872475,2.3888397,0.3319626,0.60322267,-0.34727785,0.8219971,169.0
23110,0.44872475,2.3888397,0.3319626,2.1505737,-0.77526855,0.9420044,169.0
23111,-0.16318846,2.2759247,-0.24247742,2.1505737,-0.77526855,0.9420044,169.0
23112,-0.16318846,2.2759247,-0.24247742,3.335779,-1.2000732,0.6244629,169.0
23113,-1.0191736,1.9062119,-0.36081696,3.335779,-1.2000732,0.6244629,169.0
23114,-1.0191736,1.9062119,-0.36081696,3.5715454,-1.3030884,0.71791995,169.0
23115,-1.4548774,0.92180634,0.1257019,3.5715454,-1.3030884,0.71791995,169.0
23116,-1.4548774,0.92180634,0.1257019,3.5173829,-1.1352905,0.4088745,169.0
23117,-1.023704,-0.17302704,1.3603668,3.5173829,-1.1352905,0.4088745,169.0
23118,-1.023704,-0.17302704,1.3603668,3.3803833,-1.1905152,0.48640138,169.0
23119,-0.014202595,0.059028625,2.6842766,3.3803833,-1.1905152,0.48640138,169.0
23120,-0.014202595,0.059028625,2.6842766,1.9572877,-0.8358032,0.28568116,169.0
23121,0.77604055,1.1612473,3.1761665,1.9572877,-0.8358032,0.28568116,169.0
23122,0.77604055,1.1612473,3.1761665,0.5564942,-0.29205322,0.10938721,169.0
23123,0.9087839,1.859932,2.7587662,0.5564942,-0.29205322,0.10938721,169.0
23124,0.9087839,1.859932,2.7587662,0.10195313,-0.1539917,0.118945315,169.0
23125,0.6211796,2.1512375,1.4151535,0.10195313,-0.1539917,0.118945315,169.0
23126,0.6211796,2.1512375,1.4151535,0.45347902,-0.23258057,0.08496094,169.0
23127,0.33800793,2.457405,-0.0990181,0.45347902,-0.23258057,0.08496094,169.0
23128,0.33800793,2.457405,-0.0990181,1.3774292,-0.29736328,0.098767094,169.0
23129,0.20214462,3.245987,-0.18226624,1.3774292,-0.29736328,0.098767094,169.0
23130,0.20214462,3.245987,-0.18226624,1.6493043,-0.6425171,-0.014868164,169.0
23131,0.2950163,3.7711334,0.43730545,1.6493043,-0.6425171,-0.014868164,169.0
23132,0.2950163,3.7711334,0.43730545,0.5979126,-0.22833252,-0.26125488,169.0
23133,0.63293695,2.1969223,0.42160797,0.5979126,-0.22833252,-0.26125488,169.0
23134,0.63293695,2.1969223,0.42160797,0.362146,0.004248047,-0.23682861,169.0
23135,0.7484274,-0.38196564,0.054740906,0.362146,0.004248047,-0.23682861,169.0
23136,0.7484274,-0.38196564,0.054740906,1.2064453,-0.52038574,-0.09239502,169.0
23137,0.26132727,-0.9632263,-0.18287659,1.2064453,-0.52038574,-0.09239502,169.0
23138,0.26132727,-0.9632263,-0.18287659,0.7423462,-0.26550293,-0.13275146,169.0
23139,-0.44401455,-0.20294952,-0.047912598,0.7423462,-0.26550293,-0.13275146,169.0
23140,-0.44401455,-0.20294952,-0.047912598,-0.19753419,0.18266602,-0.107263185,169.0
23141,-0.7921624,-0.25756073,0.080833435,-0.19753419,0.18266602,-0.107263185,169.0
23142,-0.7921624,-0.25756073,0.080833435,0.20603028,0.06265869,-0.028674318,169.0
23143,-0.44818306,-1.0745773,-0.040641785,0.20603028,0.06265869,-0.028674318,169.0
23144,-0.44818306,-1.0745773,-0.040641785,0.37701416,-0.0010620117,0.06265869,169.0
23145,0.10834789,-1.0679855,0.07545471,0.37701416,-0.0010620117,0.06265869,169.0
23146,0.10834789,-1.0679855,0.07545471,0.26444092,0.008496094,0.2177124,169.0
23147,0.12488651,0.083244324,0.55693054,0.26444092,0.008496094,0.2177124,169.0
23148,0.12488651,0.083244324,0.55693054,0.26444092,0.008496094,0.2177124,0.0
23149,0.12488651,0.083244324,0.55693054,-0.33028564,0.27506104,0.20178223,0.0
23150,-0.061919212,0.612236,0.8294411,-0.33028564,0.27506104,0.20178223,0.0
23151,-0.061919212,0.612236,0.8294411,-0.60109866,0.3175415,0.31435546,0.0
23152,-0.027489185,0.09471893,0.4326439,-0.60109866,0.3175415,0.31435546,0.0
23153,-0.027489185,0.09471893,0.4326439,-0.630835,0.35046387,0.4704712,0.0
23154,0.024297714,-0.53260803,-0.34726715,-0.630835,0.35046387,0.4704712,0.0
23155,0.024297714,-0.53260803,-0.34726715,-0.5851685,0.39506838,0.60109866,0.0
23156,-0.106916904,-0.75494385,-0.7893753,-0.5851685,0.39506838,0.60109866,0.0
23157,-0.106916904,-0.75494385,-0.7893753,-0.7582764,0.5055176,0.68074954,0.0
23158,-0.37598753,-1.0629425,-0.38131714,-0.7582764,0.5055176,0.68074954,0.0
23159,-0.37598753,-1.0629425,-0.38131714,-0.7508423,0.77739257,0.85704345,0.0
23160,-0.61573124,-1.0732803,0.18933105,-0.7508423,0.77739257,0.85704345,0.0
23161,-0.61573124,-1.0732803,0.18933105,-0.6701294,0.51188964,0.84111327,0.0
23162,-0.8469186,-0.47275543,0.11336517,-0.6701294,0.51188964,0.84111327,0.0
23163,-0.8469186,-0.47275543,0.11336517,-1.0567017,0.8336792,0.9133301,0.0
23164,-0.9613242,-0.2703781,-0.3134842,-1.0567017,0.8336792,0.9133301,0.0
23165,-0.9613242,-0.2703781,-0.3134842,-1.0779419,0.8241211,0.9303223,0.0
23166,-0.9974041,-0.47496796,-0.505497,-1.0779419,0.8241211,0.9303223,0.0
23167,-0.9974041,-0.47496796,-0.505497,-0.727478,0.8857178,1.0428956,0.0
23168,-1.2463121,-0.45724487,0.059799194,-0.727478,0.8857178,1.0428956,0.0
23169,-1.2463121,-0.45724487,0.059799194,-0.49383545,0.7880127,1.0407715,0.0
23170,-1.5932288,-0.045921326,0.60980225,-0.49383545,0.7880127,1.0407715,0.0
23171,-1.5932288,-0.045921326,0.60980225,-0.68074954,0.905896,1.1883911,0.0
23172,-1.6493754,0.2690277,0.33808517,-0.68074954,0.905896,1.1883911,0.0
23173,-1.6493754,0.2690277,0.33808517,-0.7593384,0.9632446,1.2287476,0.0
23174,-1.3411555,0.36120605,-0.27168274,-0.7593384,0.9632446,1.2287476,0.0
23175,-1.3411555,0.36120605,-0.27168274,-0.7497803,0.98448485,1.2446778,0.0
23176,-0.9983635,0.36499786,-0.47210693,-0.7497803,0.98448485,1.2446778,0.0
23177,-0.9983635,0.36499786,-0.47210693,-0.60109866,1.1002442,1.3731812,0.0
23178,-0.86792946,0.54286194,-0.0785141,-0.60109866,1.1002442,1.3731812,0.0
23179,-0.86792946,0.54286194,-0.0785141,-0.61702883,1.2744141,1.5123047,0.0
23180,-0.7378249,1.1662216,0.6815262,-0.61702883,1.2744141,1.5123047,0.0
23181,-0.7378249,1.1662216,0.6815262,-1.1066163,1.5983276,1.6790406,0.0
23182,-0.34266472,1.7631989,1.151947,-1.1066163,1.5983276,1.6790406,0.0
23183,-0.34266472,1.7631989,1.151947,-2.1346436,2.0964112,1.6068238,0.0
23184,-0.33438587,1.5324936,0.4358368,-2.1346436,2.0964112,1.6068238,0.0
23185,-0.33438587,1.5324936,0.4358368,-2.7527344,2.250403,1.5484132,0.0
23186,-1.4875526,0.9250641,-1.5664902,-2.7527344,2.250403,1.5484132,0.0
23187,-1.4875526,0.9250641,-1.5664902,-2.806897,1.7332032,1.454956,0.0
23188,-3.3081207,0.6879654,-4.868744,-2.806897,1.7332032,1.454956,0.0
23189,-3.3081207,0.6879654,-4.868744,-3.2242677,1.0439576,1.4369019,0.0
23190,-4.4777956,-1.1199646,-7.18396,-3.2242677,1.0439576,1.4369019,0.0
23191,-4.4777956,-1.1199646,-7.18396,-0.60216063,0.20178223,1.811792,0.0
23192,-3.5600815,-3.1511688,-5.5625,-0.60216063,0.20178223,1.811792,0.0
23193,-3.5600815,-3.1511688,-5.5625,2.7654786,-1.1979493,1.7703736,0.0
23194,-1.0519218,-1.0445023,-1.6023178,2.7654786,-1.1979493,1.7703736,0.0
23195,-1.0519218,-1.0445023,-1.6023178,2.8207033,-0.79226077,1.6864747,0.0
23196,0.16061115,2.2534256,2.4064522,2.8207033,-0.79226077,1.6864747,0.0
23197,0.16061115,2.2534256,2.4064522,2.3289917,-0.270813,1.5515991,0.0
23198,-0.78154564,2.635872,5.1397247,2.3289917,-0.270813,1.5515991,0.0
23199,-0.78154564,2.635872,5.1397247,1.4645141,-0.057348635,1.6429322,0.0
23200,-1.4401407,1.0302582,5.3009415,1.4645141,-0.057348635,1.6429322,0.0
23201,-1.4401407,1.0302582,5.3009415,0.15186767,0.32922363,1.725769,0.0
23202,-3.7828503,-1.8445892,3.445572,0.15186767,0.32922363,1.725769,0.0
23203,-3.7828503,-1.8445892,3.445572,2.7378662,-1.4740723,6.2733035,0.0
23204,-3.9919662,-3.2176971,0.46240234,2.7378662,-1.4740723,6.2733035,0.0
23205,-3.9919662,-3.2176971,0.46240234,4.1121097,-3.1414306,3.2794921,0.0
23206,6.535199,-0.47138977,-3.6687012,4.1121097,-3.1414306,3.2794921,0.0
23207,6.535199,-0.47138977,-3.6687012,0.66588134,0.31010744,-4.269287,0.0
23208,9.786033,6.746872,-3.8950806,0.66588134,0.31010744,-4.269287,0.0
23209,9.786033,6.746872,-3.8950806,-3.259314,2.8345094,4.9489746,0.0
23210,-2.0168037,5.825783,1.8744278,-3.259314,2.8345094,4.9489746,0.0
23211,-2.0168037,5.825783,1.8744278,1.6567383,0.29099122,2.241907,0.0
23212,-6.8975124,-1.4910812,4.5108795,1.6567383,0.29099122,2.241907,0.0
23213,-6.8975124,-1.4910812,4.5108795,1.2021973,-0.14018555,2.893982,0.0
23214,-1.1658983,0.27609253,2.0109138,1.2021973,-0.14018555,2.893982,0.0
23215,-1.1658983,0.27609253,2.0109138,-1.1374146,1.3158325,3.153113,0.0
23216,3.627182,3.4414673,-1.2908287,-1.1374146,1.3158325,3.153113,0.0
23217,3.627182,3.4414673,-1.2908287,-0.97492677,1.081128,3.611902,0.0
23218,4.1173706,3.1190186,-2.8541718,-0.97492677,1.081128,3.611902,0.0
23219,4.1173706,3.1190186,-2.8541718,0.16779785,0.59897465,3.9177613,0.0
23220,2.9517574,3.1592026,-2.6768303,0.16779785,0.59897465,3.9177613,0.0
23221,2.9517574,3.1592026,-2.6768303,0.2793091,0.5065796,3.804126,0.0
23222,1.9043627,3.7222824,-1.44664,0.2793091,0.5065796,3.804126,0.0
23223,1.9043627,3.7222824,-1.44664,-0.33984375,0.29948732,3.7765138,0.0
23224,1.4854288,4.368454,-0.17264557,-0.33984375,0.29948732,3.7765138,0.0
23225,1.4854288,4.368454,-0.17264557,-0.52675784,0.32285157,3.1977174,0.0
23226,1.0007448,4.772072,0.5605545,-0.52675784,0.32285157,3.1977174,0.0
23227,1.0007448,4.772072,0.5605545,-0.6881836,0.20921631,3.0182374,0.0
23228,-0.091311455,3.7329178,0.20294952,-0.6881836,0.20921631,3.0182374,0.0
23229,-0.091311455,3.7329178,0.20294952,-1.5675293,0.07327881,2.8376954,0.0
23230,-1.0347433,1.5304489,-0.82678986,-1.5675293,0.07327881,2.8376954,0.0
23231,-1.0347433,1.5304489,-0.82678986,-1.6694825,-0.14868164,2.1930542,0.0
23232,-1.3685169,0.27654266,-1.0854416,-1.6694825,-0.14868164,2.1930542,0.0
23233,-1.3685169,0.27654266,-1.0854416,-1.5239868,-0.67331547,1.4857544,0.0
23234,-1.1915054,1.2584038,0.07559204,-1.5239868,-0.67331547,1.4857544,0.0
23235,-1.1915054,1.2584038,0.07559204,-1.6928467,-0.6202149,0.67225343,0.0
23236,-0.7666073,3.3290863,1.933033,-1.6928467,-0.6202149,0.67225343,0.0
23237,-0.7666073,3.3290863,1.933033,-2.2546508,-0.41206056,0.33028564,0.0
23238,-0.6219168,3.8467026,3.0903473,-2.2546508,-0.41206056,0.33028564,0.0
23239,-0.6219168,3.8467026,3.0903473,-2.6773317,-0.115759276,-0.4163086,0.0
23240,-0.95490646,1.6385918,2.9080925,-2.6773317,-0.115759276,-0.4163086,0.0
23241,-0.95490646,1.6385918,2.9080925,-2.717688,0.095581055,-1.3275146,0.0
23242,-1.411252,-1.7187309,1.6899261,-2.717688,0.095581055,-1.3275146,0.0
23243,-1.411252,-1.7187309,1.6899261,-2.3735962,-0.020178223,-1.8139161,0.0
23244,-1.5795746,-4.3732376,0.05374527,-2.3735962,-0.020178223,-1.8139161,0.0
23245,-1.5795746,-4.3732376,0.05374527,-2.0380006,-0.23364258,-2.1962402,0.0
23246,-1.1747322,-5.7287674,-1.5501328,-2.0380006,-0.23364258,-2.1962402,0.0
23247,-1.1747322,-5.7287674,-1.5501328,-1.4262818,-0.17735596,-2.531836,0.0
23248,-0.65260315,-5.9319,-2.4664497,-1.4262818,-0.17735596,-2.531836,0.0
23249,-0.65260315,-5.9319,-2.4664497,-0.32285157,-0.20921631,-2.9184082,0.0
23250,-0.75560284,-4.9278564,-2.279251,-0.32285157,-0.20921631,-2.9184082,0.0
23251,-0.75560284,-4.9278564,-2.279251,0.68712157,-0.6117188,-3.0607178,0.0
23252,-1.0172634,-3.2515106,-1.5004425,0.68712157,-0.6117188,-3.0607178,0.0
23253,-1.0172634,-3.2515106,-1.5004425,1.0609497,-0.79013675,-3.254004,0.0
23254,-1.0172634,-3.2515106,-1.5004425,1.0609497,-0.79013675,-3.254004,0.0
23255,-0.6440239,-2.0099716,-0.7148323,1.0609497,-0.79013675,-3.254004,0.0
23256,-0.6440239,-2.0099716,-0.7148323,0.8358032,-0.94731444,-3.4993286,0.0
23257,0.102371216,-1.7347946,-0.12611389,0.8358032,-0.94731444,-3.4993286,0.0
23258,0.102371216,-1.7347946,-0.12611389,0.009558106,-0.9589966,-3.8391724,0.0
23259,0.6989012,-2.123993,0.28295898,0.009558106,-0.9589966,-3.8391724,0.0
23260,0.6989012,-2.123993,0.28295898,-1.0981201,-0.9409424,-4.1885743,0.0
23261,1.2463398,-2.8471527,0.59843445,-1.0981201,-0.9409424,-4.1885743,0.0
23262,1.2463398,-2.8471527,0.59843445,-1.9402955,-0.8336792,-4.3276978,0.0
23263,1.952919,-3.5795746,0.6442375,-1.9402955,-0.8336792,-4.3276978,0.0
23264,1.952919,-3.5795746,0.6442375,-2.7261841,-0.8241211,-4.370178,0.0
23265,2.587078,-3.8075562,0.1327095,-2.7261841,-0.8241211,-4.370178,0.0
23266,2.587078,-3.8075562,0.1327095,-3.7807617,-0.5703003,-4.501868,0.0
23267,2.9691133,-3.7673721,-0.8435402,-3.7807617,-0.5703003,-4.501868,0.0
23268,2.9691133,-3.7673721,-0.8435402,-4.9160523,-0.19116211,-4.499744,0.0
23269,3.1799784,-4.0195007,-1.9508057,-4.9160523,-0.19116211,-4.499744,0.0
23270,3.1799784,-4.0195007,-1.9508057,-5.623352,0.0722168,-4.331946,0.0
23271,3.259632,-4.485634,-2.8861313,-5.623352,0.0722168,-4.331946,0.0
23272,3.259632,-4.485634,-2.8861313,-5.865491,0.3079834,-4.12273,0.0
23273,3.177176,-4.770706,-3.504448,-5.865491,0.3079834,-4.12273,0.0
23274,3.177176,-4.770706,-3.504448,-5.790088,0.41206056,-3.8497925,0.0
23275,3.0143118,-4.7235947,-3.7574387,-5.790088,0.41206056,-3.8497925,0.0
23276,3.0143118,-4.7235947,-3.7574387,-5.408826,0.43117675,-3.4738405,0.0
23277,2.8710198,-4.512726,-3.5762634,-5.408826,0.43117675,-3.4738405,0.0
23278,2.8710198,-4.512726,-3.5762634,-4.5783324,0.42161867,-3.074524,0.0
23279,2.6442037,-4.0565643,-3.2292213,-4.5783324,0.42161867,-3.074524,0.0
23280,2.6442037,-4.0565643,-3.2292213,-4.0016603,0.41206056,-2.8451295,0.0
23281,1.841608,-3.7335587,-2.2778854,-4.0016603,0.41206056,-2.8451295,0.0
23282,1.841608,-3.7335587,-2.2778854,-2.0380006,0.23151855,-2.1505737,0.0
23283,1.3289871,-3.0015335,-1.8721504,-2.0380006,0.23151855,-2.1505737,0.0
23284,1.3289871,-3.0015335,-1.8721504,-1.3954834,0.11363526,-1.893567,0.0
23285,0.20106792,-1.4166946,-1.5364914,-1.3954834,0.11363526,-1.893567,0.0
23286,0.20106792,-1.4166946,-1.5364914,0.1539917,-0.31329346,-1.183081,0.0
23287,0.17793179,-0.76340485,-1.2021179,0.1539917,-0.31329346,-1.183081,0.0
23288,0.17793179,-0.76340485,-1.2021179,0.5129517,-0.42055663,-0.994043,0.0
23289,0.66356134,0.25442505,-0.7713394,0.5129517,-0.42055663,-0.994043,0.0
23290,0.66356134,0.25442505,-0.7713394,1.26167,-0.5501221,-0.61065674,0.0
23291,0.8360491,0.24428558,-0.3193283,1.26167,-0.5501221,-0.61065674,0.0
23292,0.8360491,0.24428558,-0.3193283,1.4029175,-0.59047854,-0.544812,0.0
23293,1.1673136,0.37218475,0.18374634,1.4029175,-0.59047854,-0.544812,0.0
23294,1.1673136,0.37218475,0.18374634,1.2446778,-0.65632325,-0.47896728,0.0
23295,1.0355353,0.3677292,0.4162979,1.2446778,-0.65632325,-0.47896728,0.0
23296,1.0355353,0.3677292,0.4162979,1.0152832,-0.62764895,-0.4959595,0.0
23297,1.0377789,0.55055237,0.7353821,1.0152832,-0.62764895,-0.4959595,0.0
23298,1.0377789,0.55055237,0.7353821,0.18585205,-0.6117188,-0.65207523,0.0
23299,1.0824571,0.42808533,0.7756119,0.18585205,-0.6117188,-0.65207523,0.0
23300,1.0824571,0.42808533,0.7756119,-0.07540283,-0.61278075,-0.72854006,0.0
23301,1.6671498,0.07312012,1.1533508,-0.07540283,-0.61278075,-0.72854006,0.0
23302,1.6671498,0.07312012,1.1533508,-0.55543214,-0.4258667,-0.90908206,0.0
23303,1.5064005,-0.17242432,1.1081314,-0.55543214,-0.4258667,-0.90908206,0.0
23304,1.5064005,-0.17242432,1.1081314,-0.57454836,-0.32072756,-0.93138427,0.0
23305,0.07253981,-0.51623535,1.4592094,-0.57454836,-0.32072756,-0.93138427,0.0
23306,0.07253981,-0.51623535,1.4592094,-0.40250245,-0.16885987,-0.7688965,0.0
23307,-0.6056645,-0.40261078,1.2040634,-0.40250245,-0.16885987,-0.7688965,0.0
23308,-0.6056645,-0.40261078,1.2040634,-0.3164795,-0.16567384,-0.634021,0.0
23309,-1.8067851,-0.10446167,0.87428284,-0.3164795,-0.16567384,-0.634021,0.0
23310,-1.8067851,-0.10446167,0.87428284,-0.04248047,-0.22939454,-0.3154175,0.0
23311,-2.0422666,0.12536621,0.56513596,-0.04248047,-0.22939454,-0.3154175,0.0
23312,-2.0422666,0.12536621,0.56513596,0.4619751,-0.36851808,0.0180542,0.0
23313,-1.3806396,0.18209076,0.417099,0.4619751,-0.36851808,0.0180542,0.0
23314,-1.3806396,0.18209076,0.417099,1.0662597,-0.44816896,0.32072756,0.0
23315,-0.44390392,0.12854767,0.335289,1.0662597,-0.44816896,0.32072756,0.0
23316,-0.44390392,0.12854767,0.335289,1.5664673,-0.44816896,0.541626,0.0
23317,0.54115367,0.14043427,0.05878067,1.5664673,-0.44816896,0.541626,0.0
23318,0.54115367,0.14043427,0.05878067,1.807544,-0.3175415,0.6924316,0.0
23319,0.5926275,0.22317505,0.18280411,1.807544,-0.3175415,0.6924316,0.0
23320,0.5926275,0.22317505,0.18280411,1.7555054,-0.21134034,0.6977417,0.0
23321,0.81254196,0.5764618,0.3314247,1.7555054,-0.21134034,0.6977417,0.0
23322,0.81254196,0.5764618,0.3314247,1.445398,0.121069334,0.72960204,0.0
23323,0.49306345,0.69073486,0.52414703,1.445398,0.121069334,0.72960204,0.0
23324,0.49306345,0.69073486,0.52414703,1.3190186,0.19753419,0.77314454,0.0
23325,-0.1780591,0.87257385,0.7229805,1.3190186,0.19753419,0.77314454,0.0
23326,-0.1780591,0.87257385,0.7229805,1.1172364,0.24957275,0.904834,0.0
23327,-0.94204426,0.81755066,0.7259903,1.1172364,0.24957275,0.904834,0.0
23328,-0.94204426,0.81755066,0.7259903,1.1023682,0.19541016,1.0397094,0.0
23329,-1.4045019,0.61087036,0.6088333,1.1023682,0.19541016,1.0397094,0.0
23330,-1.4045019,0.61087036,0.6088333,1.2754761,0.09770508,1.1650269,0.0
23331,-1.4163384,0.4368286,0.5349808,1.2754761,0.09770508,1.1650269,0.0
23332,-1.4163384,0.4368286,0.5349808,1.5632813,-0.010620117,1.26167,0.0
23333,-1.0653343,0.30265045,0.54143524,1.5632813,-0.010620117,1.26167,0.0
23334,-1.0653343,0.30265045,0.54143524,1.901001,-0.06903076,1.3232666,0.0
23335,-0.60917664,0.17048645,0.5555954,1.901001,-0.06903076,1.3232666,0.0
23336,-0.60917664,0.17048645,0.5555954,2.3767822,-0.083898924,1.3083985,0.0
23337,-0.2977419,0.11516571,0.46170044,2.3767822,-0.083898924,1.3083985,0.0
23338,-0.2977419,0.11516571,0.46170044,3.068152,-0.19222413,1.3041505,0.0
23339,-0.06946802,0.33875275,0.3838272,3.068152,-0.19222413,1.3041505,0.0
23340,-0.06946802,0.33875275,0.3838272,3.5025146,-0.28355715,1.3168945,0.0
23341,0.24924755,0.78980255,0.40576935,3.5025146,-0.28355715,1.3168945,0.0
23342,0.24924755,0.78980255,0.40576935,3.4526002,-0.24107666,1.3285767,0.0
23343,0.5762658,1.0445862,0.5404587,3.4526002,-0.24107666,1.3285767,0.0
23344,0.5762658,1.0445862,0.5404587,3.245508,-0.08496094,1.4804443,0.0
23345,0.6873312,0.79771423,0.6524124,3.245508,-0.08496094,1.4804443,0.0
23346,0.6873312,0.79771423,0.6524124,3.2232056,-0.007434082,1.717273,0.0
23347,0.5183952,0.5882797,0.4674492,3.2232056,-0.007434082,1.717273,0.0
23348,0.5183952,0.5882797,0.4674492,3.525879,-0.098767094,1.9615357,0.0
23349,0.12931585,0.9978256,-0.024662018,3.525879,-0.098767094,1.9615357,0.0
23350,0.12931585,0.9978256,-0.024662018,3.5173829,-0.15080567,2.3289917,0.0
23351,-0.34095645,1.7474899,-0.43585587,3.5173829,-0.15080567,2.3289917,0.0
23352,-0.34095645,1.7474899,-0.43585587,3.348523,-0.16036378,2.5573242,0.0
23353,-0.79824114,2.219284,-0.46588516,3.348523,-0.16036378,2.5573242,0.0
23354,-0.79824114,2.219284,-0.46588516,3.2614381,-0.2166504,2.7718506,0.0
23355,-1.1383123,2.15493,-0.1817894,3.2614381,-0.2166504,2.7718506,0.0
23356,-1.1383123,2.15493,-0.1817894,3.087268,-0.38551027,2.9194703,0.0
23357,-1.229815,1.4783249,0.31720352,3.087268,-0.38551027,2.9194703,0.0
23358,-1.229815,1.4783249,0.31720352,2.3884645,-0.47790527,2.9417725,0.0
23359,-1.229815,1.4783249,0.31720352,2.3884645,-0.47790527,2.9417725,0.0
23360,-0.9699359,1.405632,0.43304825,2.3884645,-0.47790527,2.9417725,0.0
23361,-0.9699359,1.405632,0.43304825,2.2185426,-0.4609131,2.9300904,0.0
23362,-0.8589444,0.7236252,0.58638,2.2185426,-0.4609131,2.9300904,0.0
23363,-0.8589444,0.7236252,0.58638,2.255713,-0.5076416,2.9364624,0.0
23364,-0.995554,-0.069122314,0.7251587,2.255713,-0.5076416,2.9364624,0.0
23365,-0.995554,-0.069122314,0.7251587,2.4978516,-0.67225343,2.9651368,0.0
23366,-0.9940872,-0.5314331,0.83193207,2.4978516,-0.67225343,2.9651368,0.0
23367,-0.9940872,-0.5314331,0.83193207,2.7060058,-0.82730716,3.09364,0.0
23368,-0.52489614,-0.41579437,0.72888947,2.7060058,-0.82730716,3.09364,0.0
23369,-0.52489614,-0.41579437,0.72888947,2.9821289,-0.9388184,3.2306397,0.0
23370,0.20953894,0.13502502,0.4491501,2.9821289,-0.9388184,3.2306397,0.0
23371,0.20953894,0.13502502,0.4491501,3.2327638,-0.93138427,3.364453,0.0
23372,0.7859907,0.7052002,0.29906464,3.2327638,-0.93138427,3.364453,0.0
23373,0.7859907,0.7052002,0.29906464,3.2731202,-0.8400513,3.6044679,0.0
23374,0.910409,1.1933975,0.47590637,3.2731202,-0.8400513,3.6044679,0.0
23375,0.910409,1.1933975,0.47590637,3.0925782,-0.6924316,3.8614748,0.0
23376,0.58987474,1.7998734,0.7695656,3.0925782,-0.6924316,3.8614748,0.0
23377,0.58987474,1.7998734,0.7695656,2.7845948,-0.5384399,3.9687378,0.0
23378,0.19915771,2.4823914,0.99185944,2.7845948,-0.5384399,3.9687378,0.0
23379,0.19915771,2.4823914,0.99185944,2.436255,-0.45135498,4.1014895,0.0
23380,0.045007706,3.0870132,1.143486,2.436255,-0.45135498,4.1014895,0.0
23381,0.045007706,3.0870132,1.143486,2.0241945,-0.3971924,4.0802493,0.0
23382,0.12753439,3.2358246,1.1209793,2.0241945,-0.3971924,4.0802493,0.0
23383,0.12753439,3.2358246,1.1209793,1.5632813,-0.27399904,4.0186524,0.0
23384,0.3724985,2.61483,0.8730774,1.5632813,-0.27399904,4.0186524,0.0
23385,0.3724985,2.61483,0.8730774,1.6588624,-0.24957275,3.9262574,0.0
23386,0.72966385,2.0217743,0.58937836,1.6588624,-0.24957275,3.9262574,0.0
23387,0.72966385,2.0217743,0.58937836,2.0358765,-0.3440918,3.6798706,0.0
23388,1.1732087,2.2904205,0.40402222,2.0358765,-0.3440918,3.6798706,0.0
23389,1.1732087,2.2904205,0.40402222,2.0040162,-0.3525879,3.4557862,0.0
23390,1.5797167,3.0155487,0.1895256,2.0040162,-0.3525879,3.4557862,0.0
23391,1.5797167,3.0155487,0.1895256,1.807544,-0.26337892,3.2019653,0.0
23392,1.6440713,3.5668259,-0.13505173,1.807544,-0.26337892,3.2019653,0.0
23393,1.6440713,3.5668259,-0.13505173,1.4029175,-0.27293703,2.8823,0.0
23394,1.3141952,3.7241516,-0.43600845,1.4029175,-0.27293703,2.8823,0.0
23395,1.3141952,3.7241516,-0.43600845,0.9526245,-0.31329346,2.5594482,0.0
23396,0.7784071,3.4423752,-0.40328598,0.9526245,-0.31329346,2.5594482,0.0
23397,0.7784071,3.4423752,-0.40328598,0.83686525,-0.5543701,2.2089844,0.0
23398,0.45279145,3.0583801,-0.19490433,0.83686525,-0.5543701,2.2089844,0.0
23399,0.45279145,3.0583801,-0.19490433,0.8315552,-0.8092529,1.7555054,0.0
23400,0.617995,2.883461,-0.42756653,0.8315552,-0.8092529,1.7555054,0.0
23401,0.617995,2.883461,-0.42756653,0.5384399,-0.90058595,1.3083985,0.0
23402,0.95471096,2.4478302,-0.943943,0.5384399,-0.90058595,1.3083985,0.0
23403,0.95471096,2.4478302,-0.943943,0.7327881,-0.8687256,0.9759888,0.0
23404,1.0777824,1.7424774,-1.1599159,0.7327881,-0.8687256,0.9759888,0.0
23405,1.0777824,1.7424774,-1.1599159,1.5431031,-1.081128,0.5968506,0.0
23406,0.9192083,1.7527695,-1.2521133,1.5431031,-1.081128,0.5968506,0.0
23407,0.9192083,1.7527695,-1.2521133,1.8808228,-1.2478638,0.30054933,0.0
23408,0.81313765,2.2509995,-1.4763489,1.8808228,-1.2478638,0.30054933,0.0
23409,0.81313765,2.2509995,-1.4763489,1.7013428,-1.2627319,0.011682129,0.0
23410,1.1907201,2.0794296,-1.5494766,1.7013428,-1.2627319,0.011682129,0.0
23411,1.1907201,2.0794296,-1.5494766,1.7501954,-1.2287476,-0.2782471,0.0
23412,1.7786869,1.5054245,-1.2589302,1.7501954,-1.2287476,-0.2782471,0.0
23413,1.7786869,1.5054245,-1.2589302,1.6811646,-1.2064453,-0.2899292,0.0
23414,2.019031,1.5109711,-0.9480629,1.6811646,-1.2064453,-0.2899292,0.0
23415,2.019031,1.5109711,-0.9480629,1.2935303,-1.173523,-0.37382814,0.0
23416,1.8893826,1.77705,-0.9601097,1.2935303,-1.173523,-0.37382814,0.0
23417,1.8893826,1.77705,-0.9601097,0.83474123,-1.0959961,-0.3971924,0.0
23418,1.7258981,1.437336,-0.98399353,0.83474123,-1.0959961,-0.3971924,0.0
23419,1.7258981,1.437336,-0.98399353,0.58198243,-1.0821899,-0.47896728,0.0
23420,1.6406307,0.7357445,-0.6304817,0.58198243,-1.0821899,-0.47896728,0.0
23421,1.6406307,0.7357445,-0.6304817,0.23258057,-0.97386473,-0.452417,0.0
23422,1.4923385,0.24534607,-0.04009247,0.23258057,-0.97386473,-0.452417,0.0
23423,1.4923385,0.24534607,-0.04009247,-0.20178223,-0.77526855,-0.3536499,0.0
23424,1.3221912,0.18797302,0.3083191,-0.20178223,-0.77526855,-0.3536499,0.0
23425,1.3221912,0.18797302,0.3083191,-0.42905274,-0.6467652,-0.12213135,0.0
23426,1.1410904,0.59635925,0.37365723,-0.42905274,-0.6467652,-0.12213135,0.0
23427,1.1410904,0.59635925,0.37365723,-0.84536135,-0.5586182,0.023364259,0.0
23428,1.1458557,0.39292145,0.65960693,-0.84536135,-0.5586182,0.023364259,0.0
23429,1.1458557,0.39292145,0.65960693,-1.0450195,0.081774905,0.16354981,0.0
23430,0.7362037,-0.3080635,1.2699585,-1.0450195,0.081774905,0.16354981,0.0
23431,0.7362037,-0.3080635,1.2699585,0.083898924,-0.40037844,-0.040356446,0.0
23432,-0.4979024,0.18963242,1.9258919,0.083898924,-0.40037844,-0.040356446,0.0
23433,-0.4979024,0.18963242,1.9258919,0.015930176,-0.56392825,0.07965088,0.0
23434,-0.74758947,0.81290054,2.6213303,0.015930176,-0.56392825,0.07965088,0.0
23435,-0.74758947,0.81290054,2.6213303,-0.57454836,0.15930176,-0.1178833,0.0
23436,0.19138145,0.7640915,2.3918037,-0.57454836,0.15930176,-0.1178833,0.0
23437,0.19138145,0.7640915,2.3918037,0.29948732,0.2262085,-0.34833986,0.0
23438,0.5678024,-0.8994293,0.7104187,0.29948732,0.2262085,-0.34833986,0.0
23439,0.5678024,-0.8994293,0.7104187,1.0503296,0.2623169,0.6786255,0.0
23440,-0.6260071,-2.5369263,-0.07354736,1.0503296,0.2623169,0.6786255,0.0
23441,-0.6260071,-2.5369263,-0.07354736,1.1395386,0.10301514,0.13381349,0.0
23442,-1.9972168,-1.5050774,0.6150627,1.1395386,0.10301514,0.13381349,0.0
23443,-1.9972168,-1.5050774,0.6150627,1.3168945,-0.010620117,0.4970215,0.0
23444,-2.0563917,0.105278015,1.0443687,1.3168945,-0.010620117,0.4970215,0.0
23445,-2.0563917,0.105278015,1.0443687,0.48533937,0.19753419,0.18691407,0.0
23446,-1.4415612,0.48812866,0.47834396,0.48533937,0.19753419,0.18691407,0.0
23447,-1.4415612,0.48812866,0.47834396,-0.1996582,0.41312256,0.30161133,0.0
23448,-1.4825703,-0.31463623,-0.22080612,-0.1996582,0.41312256,0.30161133,0.0
23449,-1.4825703,-0.31463623,-0.22080612,0.19753419,0.31116945,0.16354981,0.0
23450,-1.641232,-0.80176926,-0.24079514,0.19753419,0.31116945,0.16354981,0.0
23451,-1.641232,-0.80176926,-0.24079514,0.6223389,0.009558106,0.07434082,0.0
23452,-0.9753391,-0.103889465,0.089076996,0.6223389,0.009558106,0.07434082,0.0
23453,-0.9753391,-0.103889465,0.089076996,-0.010620117,0.19222413,-0.025488282,0.0
23454,-0.32586455,0.7355499,0.111763,-0.010620117,0.19222413,-0.025488282,0.0
23455,-0.32586455,0.7355499,0.111763,-0.1274414,0.26762697,-0.008496094,0.0
23456,-0.53901196,0.86631775,-0.0073432922,-0.1274414,0.26762697,-0.008496094,0.0
23457,-0.53901196,0.86631775,-0.0073432922,0.25913087,0.07965088,-0.046728518,0.0
23458,-0.7658653,0.76748276,0.043014526,0.25913087,0.07965088,-0.046728518,0.0
23459,-0.7658653,0.76748276,0.043014526,0.35577393,0.027612304,-0.070092775,0.0
23460,-0.53760684,0.59643173,0.17895508,0.35577393,0.027612304,-0.070092775,0.0
23461,-0.53760684,0.59643173,0.17895508,0.27399904,0.07434082,-0.027612304,0.0
23462,-0.26776862,0.046676636,0.2662468,0.27399904,0.07434082,-0.027612304,0.0
23463,-0.26776862,0.046676636,0.2662468,0.22727051,0.060534667,-0.06903076,0.0
23464,-0.13598001,-0.44488525,0.20807648,0.22727051,0.060534667,-0.06903076,0.0
23465,-0.13598001,-0.44488525,0.20807648,-0.05522461,0.08496094,-0.0541626,0.0
23466,-0.27084458,-0.39980316,-0.039081573,-0.05522461,0.08496094,-0.0541626,0.0
23467,-0.27084458,-0.39980316,-0.039081573,-0.12319336,0.10089111,-0.13168946,0.0
23468,-0.48936844,-0.15488815,-0.3361969,-0.12319336,0.10089111,-0.13168946,0.0
23469,-0.48936844,-0.15488815,-0.3361969,0.008496094,0.025488282,-0.13168946,0.0
23470,-0.43150938,-0.0342865,-0.36429596,0.008496094,0.025488282,-0.13168946,0.0
23471,-0.43150938,-0.0342865,-0.36429596,0.04885254,0.0031860352,-0.1731079,0.0
23472,-0.09294927,0.1665039,-0.1466713,0.04885254,0.0031860352,-0.1731079,0.0
23473,-0.09294927,0.1665039,-0.1466713,-0.08920898,0.08920898,-0.18266602,0.0
23474,0.1923765,0.20571518,0.027267456,-0.08920898,0.08920898,-0.18266602,0.0
23475,0.1923765,0.20571518,0.027267456,-0.16354981,0.23045655,-0.13168946,0.0
23476,0.23627424,-0.24079895,0.11890793,-0.16354981,0.23045655,-0.13168946,0.0
23477,0.23627424,-0.24079895,0.11890793,-0.121069334,0.23258057,-0.09664307,0.0
23478,0.05724454,-0.41701508,0.042160034,-0.121069334,0.23258057,-0.09664307,0.0
23479,0.05724454,-0.41701508,0.042160034,-0.090270996,0.18903808,-0.1359375,0.0
23480,-0.095793724,-0.121219635,-0.14660645,-0.090270996,0.18903808,-0.1359375,0.0
23481,-0.095793724,-0.121219635,-0.14660645,-0.015930176,0.18691407,-0.028674318,0.0
23482,-0.13372731,0.15943527,-0.34544754,-0.015930176,0.18691407,-0.028674318,0.0
23483,-0.13372731,0.15943527,-0.34544754,0.033984374,0.078588866,-0.016992187,0.0
23484,-0.12912536,0.32430267,-0.512455,0.033984374,0.078588866,-0.016992187,0.0
23485,-0.12912536,0.32430267,-0.512455,0.14230958,0.038232423,0.043542482,0.0
23486,-0.08622265,0.252182,-0.487175,0.14230958,0.038232423,0.043542482,0.0
23487,-0.08622265,0.252182,-0.487175,0.03717041,-0.029736329,0.029736329,0.0
23488,-0.065792084,0.2022934,-0.4690857,0.03717041,-0.029736329,0.029736329,0.0
23489,-0.065792084,0.2022934,-0.4690857,-0.15186767,0.020178223,0.03079834,0.0
23490,-0.054769874,0.009857178,-0.56036377,-0.15186767,0.020178223,0.03079834,0.0
23491,-0.054769874,0.009857178,-0.56036377,-0.0010620117,-0.02442627,0.078588866,0.0
23492,0.011958122,-0.32218933,-0.4873047,-0.0010620117,-0.02442627,0.078588866,0.0
23493,0.011958122,-0.32218933,-0.4873047,0.16036378,-0.12850343,0.06265869,0.0
23494,0.17792583,-0.3110466,-0.24672699,0.16036378,-0.12850343,0.06265869,0.0
23495,0.17792583,-0.3110466,-0.24672699,-0.0063720704,-0.043542482,0.06796875,0.0
23496,0.24901795,-0.16353226,-0.07752991,-0.0063720704,-0.043542482,0.06796875,0.0
23497,0.24901795,-0.16353226,-0.07752991,-0.06584473,0.0031860352,0.0998291,0.0
23498,0.16078663,-0.12093735,-0.05329895,-0.06584473,0.0031860352,0.0998291,0.0
23499,0.16078663,-0.12093735,-0.05329895,0.08496094,-0.0637207,0.12213135,0.0
23500,0.15669322,-0.038887024,-0.06652832,0.08496094,-0.0637207,0.12213135,0.0
23501,0.15669322,-0.038887024,-0.06652832,0.05628662,-0.06796875,0.16673584,0.0
23502,0.15669322,-0.038887024,-0.06652832,0.05628662,-0.06796875,0.16673584,91.0
23503,0.17580628,0.029472351,-0.033668518,0.05628662,-0.06796875,0.16673584,91.0
23504,0.17580628,0.029472351,-0.033668518,0.012744141,-0.06796875,0.20921631,91.0
23505,0.16439998,-0.06674194,0.057575226,0.012744141,-0.06796875,0.20921631,91.0
23506,0.16439998,-0.06674194,0.057575226,0.05522461,-0.10301514,0.23258057,91.0
23507,0.18809962,-0.12528992,0.16909409,0.05522461,-0.10301514,0.23258057,91.0
23508,0.18809962,-0.12528992,0.16909409,0.0063720704,-0.11682129,0.2538208,91.0
23509,0.1779089,-0.077308655,0.21240234,0.0063720704,-0.11682129,0.2538208,91.0
23510,0.1779089,-0.077308655,0.21240234,-0.02442627,-0.11469727,0.28780517,91.0
23511,0.13411176,-0.1670723,0.1774292,-0.02442627,-0.11469727,0.28780517,91.0
23512,0.13411176,-0.1670723,0.1774292,0.052038576,-0.15717773,0.3069214,91.0
23513,0.12769961,-0.27507782,0.18591309,0.052038576,-0.15717773,0.3069214,91.0
23514,0.12769961,-0.27507782,0.18591309,0.08071289,-0.19222413,0.32285157,91.0
23515,0.23525298,-0.20545197,0.23274994,0.08071289,-0.19222413,0.32285157,91.0
23516,0.23525298,-0.20545197,0.23274994,-0.0021240234,-0.15823975,0.36639404,91.0
23517,0.3407414,-0.16579056,0.16098022,-0.0021240234,-0.15823975,0.36639404,91.0
23518,0.3407414,-0.16579056,0.16098022,-0.0361084,-0.12956543,0.3812622,91.0
23519,0.20436805,-0.1991005,-0.059143066,-0.0361084,-0.12956543,0.3812622,91.0
23520,0.20436805,-0.1991005,-0.059143066,-0.02442627,-0.15505372,0.35577393,91.0
23521,0.042193174,-0.15713501,-0.22544098,-0.02442627,-0.15505372,0.35577393,91.0
23522,0.042193174,-0.15713501,-0.22544098,0.040356446,-0.18266602,0.34940186,91.0
23523,0.13010466,-0.1426773,-0.12266159,0.040356446,-0.18266602,0.34940186,91.0
23524,0.13010466,-0.1426773,-0.12266159,-0.0063720704,-0.15717773,0.3345337,91.0
23525,-0.10996652,0.14754105,0.48557281,-0.0063720704,-0.15717773,0.3345337,91.0
23526,-0.10996652,0.14754105,0.48557281,-0.11151123,-0.0031860352,0.16036378,91.0
23527,-0.6155733,0.45889282,0.6852226,-0.11151123,-0.0031860352,0.16036378,91.0
23528,-0.6155733,0.45889282,0.6852226,-0.34940186,0.039294433,0.16885987,91.0
23529,-0.13631845,-0.06266022,0.04113388,-0.34940186,0.039294433,0.16885987,91.0
23530,-0.13631845,-0.06266022,0.04113388,0.007434082,-0.07752686,0.18691407,91.0
23531,0.6116484,-0.52049255,0.11778259,0.007434082,-0.07752686,0.18691407,91.0
23532,0.6116484,-0.52049255,0.11778259,0.118945315,0.010620117,0.1529297,91.0
23533,0.19838852,-0.04145813,0.6533928,0.118945315,0.010620117,0.1529297,91.0
23534,0.19838852,-0.04145813,0.6533928,-0.26337892,0.033984374,0.06903076,91.0
23535,-0.47325945,0.21855545,0.1390953,-0.26337892,0.033984374,0.06903076,91.0
23536,-0.47325945,0.21855545,0.1390953,-0.48533937,0.12850343,0.13487549,91.0
23537,-0.43712807,0.11106491,-1.0251389,-0.48533937,0.12850343,0.13487549,91.0
23538,-0.43712807,0.11106491,-1.0251389,0.3164795,-0.27506104,0.08283692,91.0
23539,0.27798307,-0.113601685,-1.2245522,0.3164795,-0.27506104,0.08283692,91.0
23540,0.27798307,-0.113601685,-1.2245522,0.27612305,-0.16885987,0.18160401,91.0
23541,0.811571,-0.70329666,-0.3389206,0.27612305,-0.16885987,0.18160401,91.0
23542,0.811571,-0.70329666,-0.3389206,0.04460449,-0.047790527,0.08283692,91.0
23543,0.69000393,-0.9392357,0.16144562,0.04460449,-0.047790527,0.08283692,91.0
23544,0.69000393,-0.9392357,0.16144562,-0.22408448,0.04991455,0.15505372,91.0
23545,0.41546756,-0.4700775,-0.08729935,-0.22408448,0.04991455,0.15505372,91.0
23546,0.41546756,-0.4700775,-0.08729935,0.0053100586,0.0010620117,0.11151123,91.0
23547,0.23414403,0.16017914,-0.25758362,0.0053100586,0.0010620117,0.11151123,91.0
23548,0.23414403,0.16017914,-0.25758362,0.08602295,-0.059472658,0.10513916,91.0
23549,0.2596785,0.1324997,-0.14607239,0.08602295,-0.059472658,0.10513916,91.0
23550,0.2596785,0.1324997,-0.14607239,-0.13062744,0.02442627,0.14230958,91.0
23551,0.3299596,-0.33246613,-0.05391693,-0.13062744,0.02442627,0.14230958,91.0
23552,0.3299596,-0.33246613,-0.05391693,-0.028674318,-0.03717041,0.20603028,91.0
23553,0.08277872,-0.2953186,-0.15810013,-0.028674318,-0.03717041,0.20603028,91.0
23554,0.08277872,-0.2953186,-0.15810013,0.11257324,-0.053100586,0.24213867,91.0
23555,-0.18748796,0.19395828,-0.3841324,0.11257324,-0.053100586,0.24213867,91.0
23556,-0.18748796,0.19395828,-0.3841324,0.22727051,-0.27293703,0.34090576,91.0
23557,-0.10722914,0.24303436,-0.53707886,0.22727051,-0.27293703,0.34090576,91.0
23558,-0.10722914,0.24303436,-0.53707886,0.095581055,-0.2538208,0.40144044,91.0
23559,0.37089393,-0.45540237,-0.43889236,0.095581055,-0.2538208,0.40144044,91.0
23560,0.37089393,-0.45540237,-0.43889236,0.33134767,-0.3419678,0.33028564,91.0
23561,0.82354623,-0.9402008,-0.24169159,0.33134767,-0.3419678,0.33028564,91.0
23562,0.82354623,-0.9402008,-0.24169159,-0.11469727,-0.15717773,0.31223145,91.0
23563,0.5178946,-0.54981995,-0.3629341,-0.11469727,-0.15717773,0.31223145,91.0
23564,0.5178946,-0.54981995,-0.3629341,-0.37382814,-0.093457036,0.3058594,91.0
23565,-0.1802522,0.20619965,-0.57006073,-0.37382814,-0.093457036,0.3058594,91.0
23566,-0.1802522,0.20619965,-0.57006073,-0.060534667,-0.25806886,0.38975832,91.0
23567,-0.18873301,0.9002228,0.64191055,-0.060534667,-0.25806886,0.38975832,91.0
23568,-0.18873301,0.9002228,0.64191055,0.362146,-0.1178833,0.14868164,91.0
23569,-0.20870125,0.97081375,2.0632973,0.362146,-0.1178833,0.14868164,91.0
23570,-0.20870125,0.97081375,2.0632973,-0.25063476,-0.040356446,0.3069214,91.0
23571,-0.50418025,0.14990616,1.7892227,-0.25063476,-0.040356446,0.3069214,91.0
23572,-0.50418025,0.14990616,1.7892227,-0.3971924,0.5214478,0.21983643,91.0
23573,-1.1139033,0.06036377,0.91095734,-0.3971924,0.5214478,0.21983643,91.0
23574,-1.1139033,0.06036377,0.91095734,0.7805786,-0.18054199,-0.09239502,91.0
23575,-0.59270954,0.5698242,0.59897995,0.7805786,-0.18054199,-0.09239502,91.0
23576,-0.59270954,0.5698242,0.59897995,0.1083252,0.07965088,-0.25806886,91.0
23577,0.535244,0.067214966,0.21133804,0.1083252,0.07965088,-0.25806886,91.0
23578,0.535244,0.067214966,0.21133804,-1.0078491,0.5076416,-0.18903808,91.0
23579,0.24862975,-0.76675034,-0.8508148,-1.0078491,0.5076416,-0.18903808,91.0
23580,0.24862975,-0.76675034,-0.8508148,0.08071289,-0.039294433,0.026550293,91.0
23581,0.4084497,-1.0915718,-1.4611588,0.08071289,-0.039294433,0.026550293,91.0
23582,0.4084497,-1.0915718,-1.4611588,0.5734863,-0.23895264,0.09239502,91.0
23583,0.86632276,-0.6762848,-0.9621544,0.5734863,-0.23895264,0.09239502,91.0
23584,0.86632276,-0.6762848,-0.9621544,0.15717773,0.03186035,-0.032922365,91.0
23585,0.43689367,-0.3118286,-0.5572128,0.15717773,0.03186035,-0.032922365,91.0
23586,0.43689367,-0.3118286,-0.5572128,-0.49277344,0.16885987,0.09770508,91.0
23587,-0.0015958995,-0.551857,-0.5668869,-0.49277344,0.16885987,0.09770508,91.0
23588,-0.0015958995,-0.551857,-0.5668869,0.32178956,-0.13062744,0.16036378,91.0
23589,0.01123549,-0.22892761,-0.19325256,0.32178956,-0.13062744,0.16036378,91.0
23590,0.01123549,-0.22892761,-0.19325256,0.47684327,-0.095581055,0.124255374,91.0
23591,0.14382726,0.2908554,0.32014084,0.47684327,-0.095581055,0.124255374,91.0
23592,0.14382726,0.2908554,0.32014084,-0.34727785,0.2623169,0.12000733,91.0
23593,-0.012538284,0.23331451,0.6752548,-0.34727785,0.2623169,0.12000733,91.0
23594,-0.012538284,0.23331451,0.6752548,0.0053100586,0.13062744,0.027612304,91.0
23595,-0.42642468,0.2794876,0.83206177,0.0053100586,0.13062744,0.027612304,91.0
23596,-0.42642468,0.2794876,0.83206177,0.022302246,0.13275146,-0.0031860352,91.0
23597,-0.6420309,0.5921478,0.51761246,0.022302246,0.13275146,-0.0031860352,91.0
23598,-0.6420309,0.5921478,0.51761246,-0.18372802,0.2166504,-0.050976563,91.0
23599,-0.35894942,0.5553589,-0.08847427,-0.18372802,0.2166504,-0.050976563,91.0
23600,-0.35894942,0.5553589,-0.08847427,-0.035046387,0.045666505,-0.009558106,91.0
23601,0.30185413,0.04001236,-0.5588074,-0.035046387,0.045666505,-0.009558106,91.0
23602,0.30185413,0.04001236,-0.5588074,0.13487549,-0.078588866,-0.0021240234,91.0
23603,0.45928115,-0.38731384,-0.5918579,0.13487549,-0.078588866,-0.0021240234,91.0
23604,0.45928115,-0.38731384,-0.5918579,0.004248047,0.052038576,0.0021240234,91.0
23605,-0.03446716,-0.44200897,-0.34516907,0.004248047,0.052038576,0.0021240234,91.0
23606,-0.03446716,-0.44200897,-0.34516907,0.1444336,-0.083898924,0.07965088,91.0
23607,-0.023240238,-0.29664612,-0.12264633,0.1444336,-0.083898924,0.07965088,91.0
23608,-0.023240238,-0.29664612,-0.12264633,0.23682861,-0.12531738,0.04460449,91.0
23609,0.40244055,-0.16667175,0.076725006,0.23682861,-0.12531738,0.04460449,91.0
23610,0.40244055,-0.16667175,0.076725006,-0.08602295,0.04248047,0.013806152,91.0
23611,0.23976249,-0.19700623,0.16775513,-0.08602295,0.04248047,0.013806152,91.0
23612,0.23976249,-0.19700623,0.16775513,-0.22727051,0.11151123,0.0180542,91.0
23613,-0.14278474,-0.24424744,0.042869568,-0.22727051,0.11151123,0.0180542,91.0
23614,-0.14278474,-0.24424744,0.042869568,0.06584473,0.014868164,0.026550293,91.0
23615,-0.12636158,0.07765961,-0.08187866,0.06584473,0.014868164,0.026550293,91.0
23616,-0.12636158,0.07765961,-0.08187866,0.15080567,-0.040356446,-0.015930176,91.0
23617,-0.12636158,0.07765961,-0.08187866,0.15080567,-0.040356446,-0.015930176,91.0
23618,-0.015847564,0.5999603,0.13962555,0.15080567,-0.040356446,-0.015930176,91.0
23619,-0.015847564,0.5999603,0.13962555,-0.04991455,0.06159668,-0.04460449,91.0
23620,-0.13043928,0.60380936,0.518013,-0.04991455,0.06159668,-0.04460449,91.0
23621,-0.13043928,0.60380936,0.518013,-0.13381349,0.05522461,-0.06478272,91.0
23622,-0.1947445,0.032440186,0.5187683,-0.13381349,0.05522461,-0.06478272,91.0
23623,-0.1947445,0.032440186,0.5187683,-0.15505372,0.058410645,-0.07115479,91.0
23624,-0.052987993,-0.3494873,0.04971695,-0.15505372,0.058410645,-0.07115479,91.0
23625,-0.052987993,-0.3494873,0.04971695,-0.11151123,0.029736329,-0.02442627,91.0
23626,0.07812962,-0.29496765,-0.4127159,-0.11151123,0.029736329,-0.02442627,91.0
23627,0.07812962,-0.29496765,-0.4127159,-0.007434082,0.040356446,0.0063720704,91.0
23628,0.021207318,-0.077049255,-0.3727646,-0.007434082,0.040356446,0.0063720704,91.0
23629,0.021207318,-0.077049255,-0.3727646,0.12531738,-0.04141846,-0.033984374,91.0
23630,-0.12143749,0.15330505,-0.05222702,0.12531738,-0.04141846,-0.033984374,91.0
23631,-0.12143749,0.15330505,-0.05222702,0.0180542,-0.038232423,-0.020178223,91.0
23632,-0.067438066,0.10129547,0.019779205,0.0180542,-0.038232423,-0.020178223,91.0
23633,-0.067438066,0.10129547,0.019779205,-0.11469727,0.0053100586,-0.022302246,91.0
23634,0.057267815,-0.094322205,-0.22416687,-0.11469727,0.0053100586,-0.022302246,91.0
23635,0.057267815,-0.094322205,-0.22416687,-0.0637207,-0.0361084,0.015930176,91.0
23636,0.10695927,-0.1687851,-0.3379898,-0.0637207,-0.0361084,0.015930176,91.0
23637,0.10695927,-0.1687851,-0.3379898,0.019116212,-0.022302246,0.057348635,91.0
23638,0.014852077,0.0066223145,-0.046466827,0.019116212,-0.022302246,0.057348635,91.0
23639,0.014852077,0.0066223145,-0.046466827,0.17416993,-0.0998291,0.023364259,91.0
23640,-0.12310371,0.19051361,0.33880234,0.17416993,-0.0998291,0.023364259,91.0
23641,-0.12310371,0.19051361,0.33880234,0.0010620117,-0.078588866,0.07434082,91.0
23642,-0.014608443,0.0045318604,0.42552185,0.0010620117,-0.078588866,0.07434082,91.0
23643,-0.014608443,0.0045318604,0.42552185,-0.08602295,-0.0010620117,0.050976563,91.0
23644,0.26072535,-0.29994202,0.25463867,-0.08602295,-0.0010620117,0.050976563,91.0
23645,0.26072535,-0.29994202,0.25463867,0.009558106,0.0361084,0.13381349,91.0
23646,0.32516962,-0.2717514,0.051879883,0.009558106,0.0361084,0.13381349,91.0
23647,0.32516962,-0.2717514,0.051879883,0.11469727,0.06265869,0.09664307,91.0
23648,0.10078513,0.008720398,0.016441345,0.11469727,0.06265869,0.09664307,91.0
23649,0.10078513,0.008720398,0.016441345,0.14974366,0.06478272,0.13699952,91.0
23650,-0.11192562,0.027702332,0.15366745,0.14974366,0.06478272,0.13699952,91.0
23651,-0.11192562,0.027702332,0.15366745,0.24957275,0.021240234,0.13381349,91.0
23652,-0.044801727,-0.21753693,0.3341179,0.24957275,0.021240234,0.13381349,91.0
23653,-0.044801727,-0.21753693,0.3341179,0.20709229,0.060534667,0.14018555,91.0
23654,0.097972095,-0.3549347,0.4832611,0.20709229,0.060534667,0.14018555,91.0
23655,0.097972095,-0.3549347,0.4832611,0.10513916,0.10620117,0.13912354,91.0
23656,0.026021719,-0.34560394,0.579052,0.10513916,0.10620117,0.13912354,91.0
23657,0.026021719,-0.34560394,0.579052,0.04460449,0.10407715,0.1529297,91.0
23658,-0.22069874,-0.19143677,0.5604477,0.04460449,0.10407715,0.1529297,91.0
23659,-0.22069874,-0.19143677,0.5604477,0.004248047,0.06584473,0.13062744,91.0
23660,-0.42417863,0.1543808,0.3876419,0.004248047,0.06584473,0.13062744,91.0
23661,-0.42417863,0.1543808,0.3876419,-0.23895264,0.10620117,0.14549561,91.0
23662,-0.4012814,0.24497986,0.010356903,-0.23895264,0.10620117,0.14549561,91.0
23663,-0.4012814,0.24497986,0.010356903,-0.32072756,0.36745605,0.08920898,91.0
23664,-0.38289034,0.044662476,-0.57192993,-0.32072756,0.36745605,0.08920898,91.0
23665,-0.38289034,0.044662476,-0.57192993,-0.008496094,0.39506838,-0.050976563,91.0
23666,-0.46722537,0.013549805,-1.0513191,-0.008496094,0.39506838,-0.050976563,91.0
23667,-0.46722537,0.013549805,-1.0513191,-0.0063720704,0.38338622,-0.08814698,91.0
23668,-0.46253765,0.26047516,-1.1881523,-0.0063720704,0.38338622,-0.08814698,91.0
23669,-0.46253765,0.26047516,-1.1881523,-0.13806152,0.44710693,-0.1083252,91.0
23670,-0.5016707,0.5397186,-1.0162697,-0.13806152,0.44710693,-0.1083252,91.0
23671,-0.5016707,0.5397186,-1.0162697,-0.1709839,0.2516968,-0.2177124,91.0
23672,-0.69017935,1.1610107,-0.69652176,-0.1709839,0.2516968,-0.2177124,91.0
23673,-0.69017935,1.1610107,-0.69652176,-1.0078491,0.14124756,-0.41099855,91.0
23674,-0.758723,1.8853035,-0.4051895,-1.0078491,0.14124756,-0.41099855,91.0
23675,-0.758723,1.8853035,-0.4051895,-2.168628,0.1539917,-0.48215333,91.0
23676,-0.6883749,1.8237839,-0.4575119,-2.168628,0.1539917,-0.48215333,91.0
23677,-0.6883749,1.8237839,-0.4575119,-3.173291,-0.19647217,-0.7455322,91.0
23678,-0.5356364,1.2879791,-0.880146,-3.173291,-0.19647217,-0.7455322,91.0
23679,-0.5356364,1.2879791,-0.880146,-4.4785037,-0.43967286,-0.9260742,91.0
23680,0.02857089,0.24855804,-1.0346222,-4.4785037,-0.43967286,-0.9260742,91.0
23681,0.02857089,0.24855804,-1.0346222,-5.0052614,-0.3706421,-1.1278565,91.0
23682,1.0953666,-2.8552094,-0.4965706,-5.0052614,-0.3706421,-1.1278565,91.0
23683,1.0953666,-2.8552094,-0.4965706,-2.2387207,-0.026550293,-0.76677245,91.0
23684,1.4788934,-5.8342743,0.42528915,-2.2387207,-0.026550293,-0.76677245,91.0
23685,1.4788934,-5.8342743,0.42528915,1.089624,-1.1618408,-0.7784546,91.0
23686,0.8278779,-3.934143,1.3637924,1.089624,-1.1618408,-0.7784546,91.0
23687,0.8278779,-3.934143,1.3637924,1.0970582,-1.3434448,-0.9366943,91.0
23688,0.4874366,0.9143219,2.2253723,1.0970582,-1.3434448,-0.9366943,91.0
23689,0.4874366,0.9143219,2.2253723,-1.081128,-1.0120972,-0.9420044,91.0
23690,0.7127154,3.055214,2.4171906,-1.081128,-1.0120972,-0.9420044,91.0
23691,0.7127154,3.055214,2.4171906,-2.267395,-0.42799073,-1.1331666,91.0
23692,0.61539936,1.1262131,1.61483,-2.267395,-0.42799073,-1.1331666,91.0
23693,0.61539936,1.1262131,1.61483,-1.7236451,-0.27506104,-1.0641358,91.0
23694,-0.0986595,-2.1839066,0.80976105,-1.7236451,-0.27506104,-1.0641358,91.0
23695,-0.0986595,-2.1839066,0.80976105,-0.8995239,-0.41843262,-0.727478,91.0
23696,-0.7540863,-3.7411041,0.4503746,-0.8995239,-0.41843262,-0.727478,91.0
23697,-0.7540863,-3.7411041,0.4503746,-0.2527588,-0.48109132,-0.53525394,91.0
23698,-0.9389502,-2.8305206,0.18733978,-0.2527588,-0.48109132,-0.53525394,91.0
23699,-0.9389502,-2.8305206,0.18733978,-0.29311523,-0.4248047,-0.52675784,91.0
23700,-0.6254277,-1.1950226,-0.14794159,-0.29311523,-0.4248047,-0.52675784,91.0
23701,-0.6254277,-1.1950226,-0.14794159,-0.67437744,-0.41206056,-0.6818115,91.0
23702,0.11517298,-0.29000092,-0.17481232,-0.67437744,-0.41206056,-0.6818115,91.0
23703,0.11517298,-0.29000092,-0.17481232,-0.9696167,-0.22302246,-0.5766724,91.0
23704,0.6007932,0.22266388,-0.09885788,-0.9696167,-0.22302246,-0.5766724,91.0
23705,0.6007932,0.22266388,-0.09885788,-1.0513916,0.035046387,-0.5564942,91.0
23706,0.43429664,0.58096313,-0.056541443,-1.0513916,0.035046387,-0.5564942,91.0
23707,0.43429664,0.58096313,-0.056541443,-0.9494385,0.05522461,-0.58198243,91.0
23708,0.023011029,0.30204773,0.26571655,-0.9494385,0.05522461,-0.58198243,91.0
23709,0.023011029,0.30204773,0.26571655,-1.0641358,0.12531738,-0.5129517,91.0
23710,-0.30664003,-0.4415207,0.6919937,-1.0641358,0.12531738,-0.5129517,91.0
23711,-0.30664003,-0.4415207,0.6919937,-0.99722904,0.1083252,-0.5564942,91.0
23712,-0.35338092,-0.6440964,0.5727997,-0.99722904,0.1083252,-0.5564942,91.0
23713,-0.35338092,-0.6440964,0.5727997,-0.71154785,-0.1274414,-0.4715332,91.0
23714,0.18793738,-0.13761902,-0.2806778,-0.71154785,-0.1274414,-0.4715332,91.0
23715,0.18793738,-0.13761902,-0.2806778,-0.6903076,-0.06478272,-0.3079834,91.0
23716,1.7323934,0.21573639,-1.0749474,-0.6903076,-0.06478272,-0.3079834,91.0
23717,1.7323934,0.21573639,-1.0749474,0.43117675,0.07434082,-0.6138428,91.0
23718,2.8330095,0.2679901,0.19145966,0.43117675,0.07434082,-0.6138428,91.0
23719,2.8330095,0.2679901,0.19145966,0.15823975,0.31116945,0.09239502,91.0
23720,1.602638,0.83693695,2.4310951,0.15823975,0.31116945,0.09239502,91.0
23721,1.602638,0.83693695,2.4310951,0.12531738,0.07115479,-0.10407715,91.0
23722,-0.26747453,1.2100525,2.5314217,0.12531738,0.07115479,-0.10407715,91.0
23723,-0.26747453,1.2100525,2.5314217,0.19222413,0.06265869,-0.0541626,91.0
23724,-1.0106959,0.26019287,0.946949,0.19222413,0.06265869,-0.0541626,91.0
23725,-1.0106959,0.26019287,0.946949,0.17841797,0.059472658,-0.15717773,91.0
23726,-1.0106959,0.26019287,0.946949,0.17841797,0.059472658,-0.15717773,91.0
23727,-0.9222653,-0.7406006,-0.4350319,0.17841797,0.059472658,-0.15717773,91.0
23728,-0.9222653,-0.7406006,-0.4350319,-0.16248779,0.26125488,-0.22408448,91.0
23729,-0.81907445,-0.5253906,-0.64209366,-0.16248779,0.26125488,-0.22408448,91.0
23730,-0.81907445,-0.5253906,-0.64209366,-0.25594482,0.39400634,-0.22408448,91.0
23731,-0.88991535,0.27160645,0.041877747,-0.25594482,0.39400634,-0.22408448,91.0
23732,-0.88991535,0.27160645,0.041877747,-0.1178833,0.37595215,-0.18266602,91.0
23733,-0.79439074,0.64404297,0.65032196,-0.1178833,0.37595215,-0.18266602,91.0
23734,-0.79439074,0.64404297,0.65032196,0.032922365,0.3334717,-0.16567384,91.0
23735,-0.5968285,0.52698517,0.7183647,0.032922365,0.3334717,-0.16567384,91.0
23736,-0.5968285,0.52698517,0.7183647,-0.012744141,0.36851808,-0.16354981,91.0
23737,-0.5245454,0.31653595,0.50606155,-0.012744141,0.36851808,-0.16354981,91.0
23738,-0.5245454,0.31653595,0.50606155,-0.028674318,0.3993164,-0.2081543,91.0
23739,-0.5102247,0.050994873,0.246521,-0.028674318,0.3993164,-0.2081543,91.0
23740,-0.5102247,0.050994873,0.246521,-0.098767094,0.46622315,-0.2824951,91.0
23741,-0.53951526,-0.1661377,0.006641388,-0.098767094,0.46622315,-0.2824951,91.0
23742,-0.53951526,-0.1661377,0.006641388,-0.20072022,0.52250975,-0.36639404,91.0
23743,-0.56568205,-0.093055725,0.013114929,-0.20072022,0.52250975,-0.36639404,91.0
23744,-0.56568205,-0.093055725,0.013114929,-0.3355957,0.59260255,-0.4364868,91.0
23745,-0.44353688,0.16419983,0.30758667,-0.3355957,0.59260255,-0.4364868,91.0
23746,-0.44353688,0.16419983,0.30758667,-0.23895264,0.58410645,-0.45029297,91.0
23747,-0.25374305,0.23438263,0.5389252,-0.23895264,0.58410645,-0.45029297,91.0
23748,-0.25374305,0.23438263,0.5389252,-0.14549561,0.56180423,-0.4970215,91.0
23749,-0.13586795,0.18602753,0.5121918,-0.14549561,0.56180423,-0.4970215,91.0
23750,-0.13586795,0.18602753,0.5121918,-0.08814698,0.541626,-0.51826173,91.0
23751,-0.11734915,0.2171936,0.29759598,-0.08814698,0.541626,-0.51826173,91.0
23752,-0.11734915,0.2171936,0.29759598,-0.08814698,0.5256958,-0.5246338,91.0
23753,-0.20875967,0.26733398,0.049243927,-0.08814698,0.5256958,-0.5246338,91.0
23754,-0.20875967,0.26733398,0.049243927,-0.18160401,0.5384399,-0.51082766,91.0
23755,-0.32649267,0.25610352,-0.1531601,-0.18160401,0.5384399,-0.51082766,91.0
23756,-0.32649267,0.25610352,-0.1531601,-0.27612305,0.57561034,-0.5299439,91.0
23757,-0.37784457,0.19081879,-0.22969055,-0.27612305,0.57561034,-0.5299439,91.0
23758,-0.37784457,0.19081879,-0.22969055,-0.3462158,0.6180908,-0.50020754,91.0
23759,-0.37295437,0.19718933,-0.15200043,-0.3462158,0.6180908,-0.50020754,91.0
23760,-0.37295437,0.19718933,-0.15200043,-0.34727785,0.62340087,-0.49489745,91.0
23761,-0.21636891,0.19824219,-0.016986847,-0.34727785,0.62340087,-0.49489745,91.0
23762,-0.21636891,0.19824219,-0.016986847,-0.32816163,0.632959,-0.4619751,91.0
23763,-0.059984684,0.19413757,0.11709976,-0.32816163,0.632959,-0.4619751,91.0
23764,-0.059984684,0.19413757,0.11709976,-0.270813,0.65632325,-0.36639404,91.0
23765,-0.109401345,0.31266022,0.22838593,-0.270813,0.65632325,-0.36639404,91.0
23766,-0.109401345,0.31266022,0.22838593,-0.07646485,0.55543214,-0.40250245,91.0
23767,-0.10251129,0.30239868,0.24094772,-0.07646485,0.55543214,-0.40250245,91.0
23768,-0.10251129,0.30239868,0.24094772,-0.043542482,0.44923097,-0.26975098,91.0
23769,0.14333272,0.3060913,0.1485672,-0.043542482,0.44923097,-0.26975098,91.0
23770,0.14333272,0.3060913,0.1485672,0.18372802,0.34940186,-0.24532472,91.0
23771,0.4862361,0.21186829,-0.03895569,0.18372802,0.34940186,-0.24532472,91.0
23772,0.4862361,0.21186829,-0.03895569,0.07327881,0.270813,0.0998291,91.0
23773,0.66409886,0.14149475,-0.40411377,0.07327881,0.270813,0.0998291,91.0
23774,0.66409886,0.14149475,-0.40411377,0.07646485,0.4163086,0.19222413,91.0
23775,0.50352037,0.47792816,-0.6234741,0.07646485,0.4163086,0.19222413,91.0
23776,0.50352037,0.47792816,-0.6234741,0.45666504,0.43754885,0.362146,91.0
23777,0.2720424,0.36140442,-0.5235596,0.45666504,0.43754885,0.362146,91.0
23778,0.2720424,0.36140442,-0.5235596,0.3154175,0.5012695,0.5140137,91.0
23779,0.11607146,-0.5374298,-0.3225441,0.3154175,0.5012695,0.5140137,91.0
23780,0.11607146,-0.5374298,-0.3225441,0.5511841,0.5033936,0.42055663,91.0
23781,-0.024721026,-1.4857025,-0.13008118,0.5511841,0.5033936,0.42055663,91.0
23782,-0.024721026,-1.4857025,-0.13008118,0.49064943,0.47365722,0.42374268,91.0
23783,-0.08516991,-1.4604034,-0.20780182,0.49064943,0.47365722,0.42374268,91.0
23784,-0.08516991,-1.4604034,-0.20780182,0.5235718,0.50870365,0.33240968,91.0
23785,-0.5466393,-0.7523575,-0.6590042,0.5235718,0.50870365,0.33240968,91.0
23786,-0.5466393,-0.7523575,-0.6590042,0.57242435,0.6818115,0.2357666,91.0
23787,-0.76839066,-0.376503,-0.7362213,0.57242435,0.6818115,0.2357666,91.0
23788,-0.76839066,-0.376503,-0.7362213,0.6223389,0.73809814,0.19328614,91.0
23789,-1.6625276,-0.08047485,-0.7713127,0.6223389,0.73809814,0.19328614,91.0
23790,-1.6625276,-0.08047485,-0.7713127,0.901648,0.64782715,0.08602295,91.0
23791,-1.561626,0.12033844,-0.6836395,0.901648,0.64782715,0.08602295,91.0
23792,-1.561626,0.12033844,-0.6836395,1.0598878,0.58304447,0.04991455,91.0
23793,-1.2627406,0.7956848,-0.4291153,1.0598878,0.58304447,0.04991455,91.0
23794,-1.2627406,0.7956848,-0.4291153,0.8421753,0.73703617,-0.09133301,91.0
23795,-1.0885372,0.90625,-0.41324997,0.8421753,0.73703617,-0.09133301,91.0
23796,-1.0885372,0.90625,-0.41324997,0.67650145,0.88253176,-0.3079834,91.0
23797,-0.9604049,1.0817642,-0.38760757,0.67650145,0.88253176,-0.3079834,91.0
23798,-0.9604049,1.0817642,-0.38760757,0.5256958,0.7540283,-0.23151855,91.0
23799,-0.82365847,0.7825165,-0.4211197,0.5256958,0.7540283,-0.23151855,91.0
23800,-0.82365847,0.7825165,-0.4211197,0.6064087,0.7625244,-0.36745605,91.0
23801,-0.96463966,0.43668365,-0.28466034,0.6064087,0.7625244,-0.36745605,91.0
23802,-0.96463966,0.43668365,-0.28466034,0.6467652,0.5150757,-0.36851808,91.0
23803,-0.92505646,0.3391266,-0.21892548,0.6467652,0.5150757,-0.36851808,91.0
23804,-0.92505646,0.3391266,-0.21892548,0.50870365,0.49171144,-0.3525879,91.0
23805,-0.84575796,0.35666656,0.07976532,0.50870365,0.49171144,-0.3525879,91.0
23806,-0.84575796,0.35666656,0.07976532,0.62977296,0.3164795,-0.54587406,91.0
23807,-0.7853589,0.62470245,0.0013237,0.62977296,0.3164795,-0.54587406,91.0
23808,-0.7853589,0.62470245,0.0013237,0.39188233,0.25700685,-0.48533937,91.0
23809,-1.0303011,2.0188065,-1.2278748,0.39188233,0.25700685,-0.48533937,91.0
23810,-1.0303011,2.0188065,-1.2278748,-0.33028564,0.33665773,-0.4704712,91.0
23811,-0.94438267,1.5981293,-1.353199,-0.33028564,0.33665773,-0.4704712,91.0
23812,-0.94438267,1.5981293,-1.353199,-0.107263185,0.24320069,-0.38763428,91.0
23813,-0.3674693,0.0011978149,-1.041935,-0.107263185,0.24320069,-0.38763428,91.0
23814,-0.3674693,0.0011978149,-1.041935,0.53525394,-0.15823975,-0.32497558,91.0
23815,0.5817814,-1.3950043,0.07051849,0.53525394,-0.15823975,-0.32497558,91.0
23816,0.5817814,-1.3950043,0.07051849,0.19328614,0.1359375,-0.36745605,91.0
23817,0.5327468,-1.0477676,0.9642868,0.19328614,0.1359375,-0.36745605,91.0
23818,0.5327468,-1.0477676,0.9642868,-0.1274414,0.20921631,-0.42692873,91.0
23819,-0.35134172,-0.2533493,1.0328903,-0.1274414,0.20921631,-0.42692873,91.0
23820,-0.35134172,-0.2533493,1.0328903,-0.270813,0.11363526,-0.2357666,91.0
23821,-0.12628841,-0.38414764,1.0359573,-0.270813,0.11363526,-0.2357666,91.0
23822,-0.12628841,-0.38414764,1.0359573,0.4885254,-0.17735596,-0.17523193,91.0
23823,0.28053665,-0.20365906,1.1116028,0.4885254,-0.17735596,-0.17523193,91.0
23824,0.28053665,-0.20365906,1.1116028,0.26444092,-0.08283692,-0.21983643,91.0
23825,0.64199543,0.34452057,1.2171249,0.26444092,-0.08283692,-0.21983643,91.0
23826,0.64199543,0.34452057,1.2171249,-0.16992188,0.24001466,-0.07965088,91.0
23827,0.368186,0.0925827,0.68125534,-0.16992188,0.24001466,-0.07965088,91.0
23828,0.368186,0.0925827,0.68125534,-0.06584473,0.17735596,-0.04141846,91.0
23829,0.368186,0.0925827,0.68125534,-0.06584473,0.17735596,-0.04141846,93.0
23830,-0.08684778,-0.33424377,-0.21646881,-0.06584473,0.17735596,-0.04141846,93.0
23831,-0.08684778,-0.33424377,-0.21646881,0.3971924,-0.04460449,-0.09664307,93.0
23832,-0.32754707,0.29288483,-0.5146942,0.3971924,-0.04460449,-0.09664307,93.0
23833,-0.32754707,0.29288483,-0.5146942,0.36002198,-0.04991455,-0.15930176,93.0
23834,-0.4129653,0.99368286,-0.32585526,0.36002198,-0.04991455,-0.15930176,93.0
23835,-0.4129653,0.99368286,-0.32585526,-0.029736329,0.007434082,-0.17629395,93.0
23836,-0.58647585,0.8905029,-0.1690216,-0.029736329,0.007434082,-0.17629395,93.0
23837,-0.58647585,0.8905029,-0.1690216,-0.015930176,-0.11151123,-0.13487549,93.0
23838,-0.45040607,0.36228943,-0.1430664,-0.015930176,-0.11151123,-0.13487549,93.0
23839,-0.45040607,0.36228943,-0.1430664,-0.10301514,-0.17735596,-0.090270996,93.0
23840,0.028737545,-0.3489151,-0.20503998,-0.10301514,-0.17735596,-0.090270996,93.0
23841,0.028737545,-0.3489151,-0.20503998,-0.16567384,-0.15717773,-0.16142578,93.0
23842,0.02461338,-0.6744919,-0.0634613,-0.16567384,-0.15717773,-0.16142578,93.0
23843,0.02461338,-0.6744919,-0.0634613,-0.095581055,-0.15823975,-0.2782471,93.0
23844,-0.2874627,-0.45417023,0.3225708,-0.095581055,-0.15823975,-0.2782471,93.0
23845,-0.2874627,-0.45417023,0.3225708,-0.24213867,-0.16885987,-0.28780517,93.0
23846,-0.26500416,-0.28105927,0.44348145,-0.24213867,-0.16885987,-0.28780517,93.0
23847,-0.26500416,-0.28105927,0.44348145,-0.35046387,-0.19222413,-0.42799073,93.0
23848,-0.15471554,-0.23562622,0.3797722,-0.35046387,-0.19222413,-0.42799073,93.0
23849,-0.15471554,-0.23562622,0.3797722,-0.45029297,-0.16779785,-0.4694092,93.0
23850,-0.13401413,-0.38490295,0.43548203,-0.45029297,-0.16779785,-0.4694092,93.0
23851,-0.13401413,-0.38490295,0.43548203,-0.41524658,-0.19222413,-0.5628662,93.0
23852,-0.11980915,-0.44120026,0.37564087,-0.41524658,-0.19222413,-0.5628662,93.0
23853,-0.11980915,-0.44120026,0.37564087,-0.49489745,-0.16142578,-0.7434082,93.0
23854,-0.16631842,-0.15802765,0.1568985,-0.49489745,-0.16142578,-0.7434082,93.0
23855,-0.16631842,-0.15802765,0.1568985,-0.6244629,-0.13699952,-0.8230591,93.0
23856,-0.17419243,0.038719177,0.027080536,-0.6244629,-0.13699952,-0.8230591,93.0
23857,-0.17419243,0.038719177,0.027080536,-0.6467652,-0.07646485,-0.9345703,93.0
23858,-0.019627094,-0.07524872,-0.07191467,-0.6467652,-0.07646485,-0.9345703,93.0
23859,-0.019627094,-0.07524872,-0.07191467,-0.5097656,-0.039294433,-1.0545777,93.0
23860,0.07499695,-0.17636108,-0.19158936,-0.5097656,-0.039294433,-1.0545777,93.0
23861,0.07499695,-0.17636108,-0.19158936,-0.3695801,-0.0053100586,-1.2489258,93.0
23862,-0.018908978,-0.24603271,-0.1367302,-0.3695801,-0.0053100586,-1.2489258,93.0
23863,-0.018908978,-0.24603271,-0.1367302,-0.4248047,0.15930176,-1.2457398,93.0
23864,-0.30730247,-0.7003555,0.10483551,-0.4248047,0.15930176,-1.2457398,93.0
23865,-0.30730247,-0.7003555,0.10483551,-0.41524658,0.3069214,-1.2776002,93.0
23866,-2.122075,-7.415085,4.209297,-0.41524658,0.3069214,-1.2776002,93.0
23867,-2.122075,-7.415085,4.209297,-0.68924564,0.43754885,-1.5218629,93.0
23868,-2.0118446,-5.4658203,3.374031,-0.68924564,0.43754885,-1.5218629,93.0
23869,-2.0118446,-5.4658203,3.374031,-1.3360108,0.75509036,-1.6057618,93.0
23870,-1.6037507,-4.1645355,2.3814774,-1.3360108,0.75509036,-1.6057618,93.0
23871,-1.6037507,-4.1645355,2.3814774,-1.6524903,0.9165161,-1.8043579,93.0
23872,-1.1341476,-3.5062256,1.3706131,-1.6524903,0.9165161,-1.8043579,93.0
23873,-1.1341476,-3.5062256,1.3706131,-1.6025757,0.994043,-2.081543,93.0
23874,-0.6616154,-3.1660233,0.6465149,-1.6025757,0.994043,-2.081543,93.0
23875,-0.6616154,-3.1660233,0.6465149,-1.4071655,1.1820191,-1.9753418,93.0
23876,-0.47289562,-2.8383484,0.281456,-1.4071655,1.1820191,-1.9753418,93.0
23877,-0.47289562,-2.8383484,0.281456,-1.2340577,1.2722901,-1.905249,93.0
23878,-0.7883873,-2.2178192,0.22600555,-1.2340577,1.2722901,-1.905249,93.0
23879,-0.7883873,-2.2178192,0.22600555,-1.3030884,1.3126465,-1.8425903,93.0
23880,-1.055429,-1.8497772,0.35474014,-1.3030884,1.3126465,-1.8425903,93.0
23881,-1.055429,-1.8497772,0.35474014,-1.0790039,1.2914063,-1.6896607,93.0
23882,-0.9371414,-1.8166962,0.49110413,-1.0790039,1.2914063,-1.6896607,93.0
23883,-0.9371414,-1.8166962,0.49110413,-0.6786255,1.4092896,-1.6131958,93.0
23884,-0.73424673,-1.8632202,0.43919373,-0.6786255,1.4092896,-1.6131958,93.0
23885,-0.73424673,-1.8632202,0.43919373,-1.0343994,1.2308716,-1.4666382,93.0
23886,-0.49508762,-1.9616852,0.21002197,-1.0343994,1.2308716,-1.4666382,93.0
23887,-0.49508762,-1.9616852,0.21002197,-0.65632325,1.357251,-1.3030884,93.0
23888,-0.2830944,-1.6967392,0.08210373,-0.65632325,1.357251,-1.3030884,93.0
23889,-0.2830944,-1.6967392,0.08210373,-0.4333008,1.2414917,-1.3795532,93.0
23890,-0.253685,-1.1296234,0.003780365,-0.4333008,1.2414917,-1.3795532,93.0
23891,-0.253685,-1.1296234,0.003780365,-0.6860596,1.2191895,-1.2903442,93.0
23892,-0.10092163,-1.041275,-0.27131653,-0.6860596,1.2191895,-1.2903442,93.0
23893,-0.10092163,-1.041275,-0.27131653,-0.8889038,1.2181275,-1.268042,93.0
23894,0.022875786,-1.5124893,-0.50971985,-0.8889038,1.2181275,-1.268042,93.0
23895,0.022875786,-1.5124893,-0.50971985,-0.7784546,1.270166,-1.2489258,93.0
23896,-0.2720194,-1.7829666,-0.3128395,-0.7784546,1.270166,-1.2489258,93.0
23897,-0.2720194,-1.7829666,-0.3128395,-0.6775635,1.2584839,-1.175647,93.0
23898,-0.73711014,-1.5534515,0.14396667,-0.6775635,1.2584839,-1.175647,93.0
23899,-0.73711014,-1.5534515,0.14396667,-0.7869507,1.2945923,-1.0991821,93.0
23900,-0.9035311,-1.0344391,0.42069244,-0.7869507,1.2945923,-1.0991821,93.0
23901,-0.9035311,-1.0344391,0.42069244,-0.7858887,1.3317627,-1.1289185,93.0
23902,-0.7157326,-0.60754395,0.15009308,-0.7858887,1.3317627,-1.1289185,93.0
23903,-0.7157326,-0.60754395,0.15009308,-1.0290893,1.2160034,-1.0343994,93.0
23904,-0.3122959,-0.7770004,-0.71409607,-1.0290893,1.2160034,-1.0343994,93.0
23905,-0.3122959,-0.7770004,-0.71409607,-1.4889405,1.3243287,-0.91757816,93.0
23906,-0.053743362,-1.3680344,-1.4167213,-1.4889405,1.3243287,-0.91757816,93.0
23907,-0.053743362,-1.3680344,-1.4167213,-1.3222046,1.4230957,-0.83474123,93.0
23908,-0.28591442,-1.5995941,-1.3433151,-1.3222046,1.4230957,-0.83474123,93.0
23909,-0.28591442,-1.5995941,-1.3433151,-0.7848267,1.2839721,-0.73703617,93.0
23910,-0.6926966,-1.1009064,-0.8848953,-0.7848267,1.2839721,-0.73703617,93.0
23911,-0.6926966,-1.1009064,-0.8848953,-0.6605713,1.2117554,-0.7126099,93.0
23912,-0.73538303,-0.40899658,-0.79113007,-0.6605713,1.2117554,-0.7126099,93.0
23913,-0.73538303,-0.40899658,-0.79113007,-0.9143921,1.1947632,-0.66588134,93.0
23914,-0.3904915,-0.4462967,-1.121872,-0.9143921,1.1947632,-0.66588134,93.0
23915,-0.3904915,-0.4462967,-1.121872,-1.0651978,1.2202514,-0.64570314,93.0
23916,-0.081606865,-1.196785,-1.4870224,-1.0651978,1.2202514,-0.64570314,93.0
23917,-0.081606865,-1.196785,-1.4870224,-0.8793457,1.1225464,-0.5161377,93.0
23918,0.041855812,-1.7574615,-1.4684868,-0.8793457,1.1225464,-0.5161377,93.0
23919,0.041855812,-1.7574615,-1.4684868,-0.43011475,0.9866089,-0.52888185,93.0
23920,-0.011412621,-1.466919,-0.9376564,-0.43011475,0.9866089,-0.52888185,93.0
23921,-0.011412621,-1.466919,-0.9376564,-0.20921631,0.94625247,-0.41843262,93.0
23922,-0.48231125,-0.6804962,-0.27917862,-0.20921631,0.94625247,-0.41843262,93.0
23923,-0.48231125,-0.6804962,-0.27917862,-0.270813,0.9674927,-0.40144044,93.0
23924,-1.0116549,-0.3511734,0.053806305,-0.270813,0.9674927,-0.40144044,93.0
23925,-1.0116549,-0.3511734,0.053806305,-0.5055176,0.8995239,-0.45454103,93.0
23926,-0.89157486,-0.8911438,-0.11452484,-0.5055176,0.8995239,-0.45454103,93.0
23927,-0.89157486,-0.8911438,-0.11452484,-0.48215333,0.8878418,-0.40144044,93.0
23928,-0.3169222,-1.6979675,-0.5010071,-0.48215333,0.8878418,-0.40144044,93.0
23929,-0.3169222,-1.6979675,-0.5010071,-0.22408448,0.7986328,-0.24957275,93.0
23930,0.094545364,-1.6865845,-0.7170677,-0.22408448,0.7986328,-0.24957275,93.0
23931,0.094545364,-1.6865845,-0.7170677,-0.045666505,0.8230591,-0.05522461,93.0
23932,0.09421539,-0.4913025,-0.66516876,-0.045666505,0.8230591,-0.05522461,93.0
23933,0.09421539,-0.4913025,-0.66516876,0.06478272,0.77951664,0.027612304,93.0
23934,-0.23107338,1.1372604,-0.5253372,0.06478272,0.77951664,0.027612304,93.0
23935,-0.23107338,1.1372604,-0.5253372,0.27506104,0.5936646,-0.060534667,93.0
23936,-0.51601124,1.8645096,-0.5021782,0.27506104,0.5936646,-0.060534667,93.0
23937,-0.51601124,1.8645096,-0.5021782,0.28674316,0.50445557,-0.16779785,93.0
23938,-0.47107315,1.0049896,-0.5720444,0.28674316,0.50445557,-0.16779785,93.0
23939,-0.47107315,1.0049896,-0.5720444,0.28674316,0.50445557,-0.16779785,97.0
23940,-0.47107315,1.0049896,-0.5720444,0.24744873,0.61915284,0.07327881,97.0
23941,-0.22546673,-0.9263916,-0.5310707,0.24744873,0.61915284,0.07327881,97.0
23942,-0.22546673,-0.9263916,-0.5310707,0.6977417,0.6425171,0.25700685,97.0
23943,0.10918999,-2.49823,-0.15323639,0.6977417,0.6425171,0.25700685,97.0
23944,0.10918999,-2.49823,-0.15323639,1.544165,0.2803711,0.24213867,97.0
23945,0.31547737,-2.3951035,0.06414032,1.544165,0.2803711,0.24213867,97.0
23946,0.31547737,-2.3951035,0.06414032,1.2892822,0.09770508,0.45135498,97.0
23947,0.0011615753,-1.0163422,-0.5037918,1.2892822,0.09770508,0.45135498,97.0
23948,0.0011615753,-1.0163422,-0.5037918,0.20603028,0.2548828,0.72323,97.0
23949,-0.9193592,0.19771576,-1.1819878,0.20603028,0.2548828,0.72323,97.0
23950,-0.9193592,0.19771576,-1.1819878,-0.20284425,0.04885254,0.9165161,97.0
23951,-1.9592419,0.99347687,-0.83071136,-0.20284425,0.04885254,0.9165161,97.0
23952,-1.9592419,0.99347687,-0.83071136,-0.06584473,-0.4333008,0.99510497,97.0
23953,-2.4693108,1.2589188,0.23601532,-0.06584473,-0.4333008,0.99510497,97.0
23954,-2.4693108,1.2589188,0.23601532,-0.32603762,-0.42161867,1.265918,97.0
23955,-2.6082973,0.80509186,1.002079,-0.32603762,-0.42161867,1.265918,97.0
23956,-2.6082973,0.80509186,1.002079,-0.85598147,-0.46728516,1.1724609,97.0
23957,-2.8268108,0.0550766,1.1163254,-0.85598147,-0.46728516,1.1724609,97.0
23958,-2.8268108,0.0550766,1.1163254,-0.96643066,-0.43011475,1.8022339,97.0
23959,-3.2424908,-0.3981018,1.1198196,-0.96643066,-0.43011475,1.8022339,97.0
23960,-3.2424908,-0.3981018,1.1198196,-0.2899292,-0.80181885,1.9413575,97.0
23961,-3.5772696,0.54385376,1.2979774,-0.2899292,-0.80181885,1.9413575,97.0
23962,-3.5772696,0.54385376,1.2979774,-0.25700685,-0.81881106,2.247217,97.0
23963,-3.4790277,2.5313873,1.3367805,-0.25700685,-0.81881106,2.247217,97.0
23964,-3.4790277,2.5313873,1.3367805,-0.18160401,-0.727478,2.2907593,97.0
23965,-3.3179874,3.7435455,1.0543861,-0.18160401,-0.727478,2.2907593,97.0
23966,-3.3179874,3.7435455,1.0543861,0.24744873,-0.6265869,2.3311157,97.0
23967,-3.0831375,3.6130142,1.1971703,0.24744873,-0.6265869,2.3311157,97.0
23968,-3.0831375,3.6130142,1.1971703,1.1968873,-0.6435791,2.253589,97.0
23969,-2.1318417,3.6949387,2.1616936,1.1968873,-0.6435791,2.253589,97.0
23970,-2.1318417,3.6949387,2.1616936,2.1080933,-0.5140137,1.6131958,97.0
23971,-0.7567673,4.4389114,2.9069672,2.1080933,-0.5140137,1.6131958,97.0
23972,-0.7567673,4.4389114,2.9069672,1.8882569,-0.06690674,1.1490967,97.0
23973,0.08989906,4.3654327,2.42313,1.8882569,-0.06690674,1.1490967,97.0
23974,0.08989906,4.3654327,2.42313,1.6949707,0.18903808,0.36002198,97.0
23975,0.44877434,3.2339401,1.2283974,1.6949707,0.18903808,0.36002198,97.0
23976,0.44877434,3.2339401,1.2283974,1.996582,0.0063720704,-0.39506838,97.0
23977,1.1499615,2.322441,0.122047424,1.996582,0.0063720704,-0.39506838,97.0
23978,1.1499615,2.322441,0.122047424,1.8425903,-0.16036378,-1.1522827,97.0
23979,2.290783,1.9873962,-0.6483307,1.8425903,-0.16036378,-1.1522827,97.0
23980,2.290783,1.9873962,-0.6483307,1.1852051,-0.07965088,-1.8043579,97.0
23981,3.3071613,1.271286,-1.0399399,1.1852051,-0.07965088,-1.8043579,97.0
23982,3.3071613,1.271286,-1.0399399,0.81881106,-0.22302246,-2.3204956,97.0
23983,3.924098,0.31362152,-1.3939743,0.81881106,-0.22302246,-2.3204956,97.0
23984,3.924098,0.31362152,-1.3939743,0.38975832,-0.31966552,-2.8812377,97.0
23985,4.330782,-0.23596954,-1.5323029,0.38975832,-0.31966552,-2.8812377,97.0
23986,4.330782,-0.23596954,-1.5323029,0.0,-0.3462158,-3.3240967,97.0
23987,4.7297506,-0.8974457,-0.9495621,0.0,-0.3462158,-3.3240967,97.0
23988,4.7297506,-0.8974457,-0.9495621,-0.28355715,-0.270813,-3.5853517,97.0
23989,5.2360344,-1.9057846,-0.21803665,-0.28355715,-0.270813,-3.5853517,97.0
23990,5.2360344,-1.9057846,-0.21803665,-0.85704345,-0.13806152,-3.799878,97.0
23991,5.6100807,-2.5207443,-0.3341484,-0.85704345,-0.13806152,-3.799878,97.0
23992,5.6100807,-2.5207443,-0.3341484,-1.7416992,0.095581055,-3.7361572,97.0
23993,5.3895655,-3.795868,-0.9795265,-1.7416992,0.095581055,-3.7361572,97.0
23994,5.3895655,-3.795868,-0.9795265,-2.1134033,0.4800293,-3.08833,97.0
23995,4.0022287,-7.511612,-1.1186905,-2.1134033,0.4800293,-3.08833,97.0
23996,4.0022287,-7.511612,-1.1186905,-1.4241577,0.5246338,-1.5558472,97.0
23997,2.3022838,-7.8356705,-0.860199,-1.4241577,0.5246338,-1.5558472,97.0
23998,2.3022838,-7.8356705,-0.860199,-0.31329346,-0.04460449,-2.005078,97.0
23999,1.6183653,-2.6833038,-0.87895584,-0.31329346,-0.04460449,-2.005078,97.0
24000,1.6183653,-2.6833038,-0.87895584,-1.5537232,0.90058595,-1.0705079,97.0
24001,0.602407,0.5886688,-0.6367569,-1.5537232,0.90058595,-1.0705079,97.0
24002,0.602407,0.5886688,-0.6367569,-1.3285767,0.9420044,-0.9505005,97.0
24003,-1.5647545,0.41364288,-0.04024124,-1.3285767,0.9420044,-0.9505005,97.0
24004,-1.5647545,0.41364288,-0.04024124,-0.44073486,0.5161377,-0.83686525,97.0
24005,-2.6654024,-0.10999298,0.41005707,-0.44073486,0.5161377,-0.83686525,97.0
24006,-2.6654024,-0.10999298,0.41005707,-0.26550293,0.4725952,-0.7688965,97.0
24007,-2.4834452,0.057136536,0.36859894,-0.26550293,0.4725952,-0.7688965,97.0
24008,-2.4834452,0.057136536,0.36859894,-0.35683593,0.5331299,-0.82730716,97.0
24009,-2.2162237,0.39803314,0.057109833,-0.35683593,0.5331299,-0.82730716,97.0
24010,-2.2162237,0.39803314,0.057109833,-0.2824951,0.35789797,-1.0014771,97.0
24011,-1.8125668,0.56975555,-0.25149536,-0.2824951,0.35789797,-1.0014771,97.0
24012,-1.8125668,0.56975555,-0.25149536,-0.4980835,0.37807617,-1.0981201,97.0
24013,-0.8278122,0.13874817,-0.44588852,-0.4980835,0.37807617,-1.0981201,97.0
24014,-0.8278122,0.13874817,-0.44588852,-0.3971924,0.2803711,-1.2531738,97.0
24015,0.20916176,-0.37316895,-0.9025841,-0.3971924,0.2803711,-1.2531738,97.0
24016,0.20916176,-0.37316895,-0.9025841,-0.32391357,0.2262085,-1.2170655,97.0
24017,0.6685257,-0.82881165,-1.5195999,-0.32391357,0.2262085,-1.2170655,97.0
24018,0.6685257,-0.82881165,-1.5195999,0.11044922,0.12319336,-1.1565307,97.0
24019,0.5873594,-0.8332672,-1.5092468,0.11044922,0.12319336,-1.1565307,97.0
24020,0.5873594,-0.8332672,-1.5092468,0.7954468,-0.22833252,-1.2478638,97.0
24021,0.51380825,-0.0867157,-0.8216553,0.7954468,-0.22833252,-1.2478638,97.0
24022,0.51380825,-0.0867157,-0.8216553,0.7880127,-0.26762697,-1.1650269,97.0
24023,0.70071983,0.39105225,-0.022644043,0.7880127,-0.26762697,-1.1650269,97.0
24024,0.70071983,0.39105225,-0.022644043,0.89846194,-0.37595215,-1.0864381,97.0
24025,0.75670624,0.3065033,0.6029167,0.89846194,-0.37595215,-1.0864381,97.0
24026,0.75670624,0.3065033,0.6029167,1.1650269,-0.631897,-1.0248413,97.0
24027,0.65928364,0.40156555,0.9549904,1.1650269,-0.631897,-1.0248413,97.0
24028,0.65928364,0.40156555,0.9549904,1.1650269,-0.631897,-1.0248413,97.0
24029,0.65928364,0.40156555,0.9549904,1.0524536,-0.74659425,-1.0864381,97.0
24030,0.8943949,1.2490997,0.97685623,1.0524536,-0.74659425,-1.0864381,97.0
24031,0.8943949,1.2490997,0.97685623,0.99510497,-0.93775636,-1.2085694,97.0
24032,1.5304813,2.4303741,0.90449524,0.99510497,-0.93775636,-1.2085694,97.0
24033,1.5304813,2.4303741,0.90449524,0.7604004,-0.89421386,-1.3774292,97.0
24034,2.0936236,1.0821304,1.4260521,0.7604004,-0.89421386,-1.3774292,97.0
24035,2.0936236,1.0821304,1.4260521,0.84111327,-0.811377,-1.0620117,97.0
24036,2.127902,-1.2895813,2.1246414,0.84111327,-0.811377,-1.0620117,97.0
24037,2.127902,-1.2895813,2.1246414,1.0259033,-1.1873292,-1.3285767,97.0
24038,1.6172872,-0.69444275,1.5811577,1.0259033,-1.1873292,-1.3285767,97.0
24039,1.6172872,-0.69444275,1.5811577,0.090270996,-0.8708496,-1.26698,97.0
24040,1.3922305,0.6397934,0.42892838,0.090270996,-0.8708496,-1.26698,97.0
24041,1.3922305,0.6397934,0.42892838,-0.06478272,-0.86978763,-1.3009644,97.0
24042,1.790359,0.13215637,0.011318207,-0.06478272,-0.86978763,-1.3009644,97.0
24043,1.790359,0.13215637,0.011318207,0.15505372,-0.89208984,-1.2149414,97.0
24044,2.4301996,-0.99308014,0.22685242,0.15505372,-0.89208984,-1.2149414,97.0
24045,2.4301996,-0.99308014,0.22685242,0.2803711,-0.9430664,-1.2021973,97.0
24046,2.7251291,-0.8891678,0.2736969,0.2803711,-0.9430664,-1.2021973,97.0
24047,2.7251291,-0.8891678,0.2736969,-0.07115479,-0.817749,-1.1055542,97.0
24048,2.5551033,0.16431427,0.08644867,-0.07115479,-0.817749,-1.1055542,97.0
24049,2.5551033,0.16431427,0.08644867,-0.47578126,-0.5872925,-1.1002442,97.0
24050,2.0937898,0.7507858,0.021820068,-0.47578126,-0.5872925,-1.1002442,97.0
24051,2.0937898,0.7507858,0.021820068,-0.47790527,-0.4088745,-1.081128,97.0
24052,1.5291333,0.23487091,0.12351227,-0.47790527,-0.4088745,-1.081128,97.0
24053,1.5291333,0.23487091,0.12351227,-0.14974366,-0.44816896,-1.0259033,97.0
24054,1.1404941,-0.3174591,0.16115189,-0.14974366,-0.44816896,-1.0259033,97.0
24055,1.1404941,-0.3174591,0.16115189,0.04460449,-0.48321533,-1.0078491,97.0
24056,1.0866995,-0.15446472,0.084171295,0.04460449,-0.48321533,-1.0078491,97.0
24057,1.0866995,-0.15446472,0.084171295,-0.10089111,-0.30267334,-0.9409424,97.0
24058,1.0779045,0.16148376,-0.060813904,-0.10089111,-0.30267334,-0.9409424,97.0
24059,1.0779045,0.16148376,-0.060813904,-0.04248047,-0.24638672,-0.89846194,97.0
24060,0.8600409,0.17082977,-0.30311966,-0.04248047,-0.24638672,-0.89846194,97.0
24061,0.8600409,0.17082977,-0.30311966,0.1444336,-0.29630128,-0.87191164,97.0
24062,0.6647296,-0.10972595,-0.56752014,0.1444336,-0.29630128,-0.87191164,97.0
24063,0.6647296,-0.10972595,-0.56752014,0.16779785,-0.35577393,-0.8071289,97.0
24064,0.67238426,-0.11128235,-0.64572525,0.16779785,-0.35577393,-0.8071289,97.0
24065,0.67238426,-0.11128235,-0.64572525,0.06478272,-0.41737062,-0.79119873,97.0
24066,0.7826706,0.47599792,-0.55428696,0.06478272,-0.41737062,-0.79119873,97.0
24067,0.7826706,0.47599792,-0.55428696,-0.35895997,-0.29630128,-0.82836914,97.0
24068,0.9115248,0.9627075,-0.39888382,-0.35895997,-0.29630128,-0.82836914,97.0
24069,0.9115248,0.9627075,-0.39888382,-0.40462646,-0.26762697,-0.8442993,97.0
24070,1.0568444,0.94857025,-0.31962204,-0.40462646,-0.26762697,-0.8442993,97.0
24071,1.0568444,0.94857025,-0.31962204,-0.40037844,-0.26868898,-0.81987303,97.0
24072,1.2045575,0.82061005,-0.36902618,-0.40037844,-0.26868898,-0.81987303,97.0
24073,1.2045575,0.82061005,-0.36902618,-0.5501221,-0.2442627,-0.81031495,97.0
24074,1.2718247,0.78565216,-0.3765564,-0.5501221,-0.2442627,-0.81031495,97.0
24075,1.2718247,0.78565216,-0.3765564,-0.76464844,-0.16992188,-0.7604004,97.0
24076,1.1530921,0.61164093,-0.08294678,-0.76464844,-0.16992188,-0.7604004,97.0
24077,1.1530921,0.61164093,-0.08294678,-0.6149048,-0.14655761,-0.7306641,97.0
24078,0.9076055,0.38056946,0.13681412,-0.6149048,-0.14655761,-0.7306641,97.0
24079,0.9076055,0.38056946,0.13681412,-0.42692873,-0.098767094,-0.7051758,97.0
24080,0.7126445,0.17075348,-0.14813995,-0.42692873,-0.098767094,-0.7051758,97.0
24081,0.7126445,0.17075348,-0.14813995,-0.3090454,-0.022302246,-0.71367186,97.0
24082,0.594664,-0.1719513,-0.46110153,-0.3090454,-0.022302246,-0.71367186,97.0
24083,0.594664,-0.1719513,-0.46110153,0.10407715,-0.13487549,-0.6552612,97.0
24084,0.5890857,-0.23383331,-0.5086899,0.10407715,-0.13487549,-0.6552612,97.0
24085,0.5890857,-0.23383331,-0.5086899,0.34727785,-0.19753419,-0.635083,97.0
24086,0.601127,0.10928345,-0.4523735,0.34727785,-0.19753419,-0.635083,97.0
24087,0.601127,0.10928345,-0.4523735,0.2803711,-0.11044922,-0.5649902,97.0
24088,0.5292537,0.41584778,-0.3558464,0.2803711,-0.11044922,-0.5649902,97.0
24089,0.5292537,0.41584778,-0.3558464,0.31966552,-0.14018555,-0.5787964,97.0
24090,0.4720602,0.4283905,-0.28278732,0.31966552,-0.14018555,-0.5787964,97.0
24091,0.4720602,0.4283905,-0.28278732,0.20603028,-0.052038576,-0.52038574,97.0
24092,0.3912834,0.28770447,-0.19872665,0.20603028,-0.052038576,-0.52038574,97.0
24093,0.3912834,0.28770447,-0.19872665,0.16142578,-0.06478272,-0.45454103,97.0
24094,0.28078794,0.37503815,-0.16613388,0.16142578,-0.06478272,-0.45454103,97.0
24095,0.28078794,0.37503815,-0.16613388,0.039294433,0.0,-0.4364868,97.0
24096,0.3047452,0.6158142,-0.2526245,0.039294433,0.0,-0.4364868,97.0
24097,0.3047452,0.6158142,-0.2526245,0.035046387,0.047790527,-0.43967286,97.0
24098,0.47499728,0.4456787,-0.2599373,0.035046387,0.047790527,-0.43967286,97.0
24099,0.47499728,0.4456787,-0.2599373,0.20709229,-0.032922365,-0.34940186,97.0
24100,0.58075464,0.24729156,-0.05644989,0.20709229,-0.032922365,-0.34940186,97.0
24101,0.58075464,0.24729156,-0.05644989,0.20709229,0.008496094,-0.2984253,97.0
24102,0.4757365,0.35232544,0.13164902,0.20709229,0.008496094,-0.2984253,97.0
24103,0.4757365,0.35232544,0.13164902,-0.03079834,0.13699952,-0.2888672,97.0
24104,0.2619369,0.43454742,0.24207306,-0.03079834,0.13699952,-0.2888672,97.0
24105,0.2619369,0.43454742,0.24207306,-0.052038576,0.14549561,-0.27718505,97.0
24106,0.011282921,0.4883957,0.37781525,-0.052038576,0.14549561,-0.27718505,97.0
24107,0.011282921,0.4883957,0.37781525,0.04141846,0.0722168,-0.33028564,97.0
24108,-0.08736038,0.47169495,0.25684357,0.04141846,0.0722168,-0.33028564,97.0
24109,-0.08736038,0.47169495,0.25684357,0.17947999,0.0031860352,-0.35046387,97.0
24110,0.20395207,-0.6518936,-0.53434753,0.17947999,0.0031860352,-0.35046387,97.0
24111,0.20395207,-0.6518936,-0.53434753,0.49277344,-0.029736329,-0.023364259,97.0
24112,0.6443505,-1.4136047,-0.96138763,0.49277344,-0.029736329,-0.023364259,97.0
24113,0.6443505,-1.4136047,-0.96138763,0.64782715,-0.21346436,0.026550293,97.0
24114,0.5571308,-0.51612854,-0.6719284,0.64782715,-0.21346436,0.026550293,97.0
24115,0.5571308,-0.51612854,-0.6719284,-0.22939454,0.28780517,0.009558106,97.0
24116,0.16233063,0.075683594,-0.2809639,-0.22939454,0.28780517,0.009558106,97.0
24117,0.16233063,0.075683594,-0.2809639,0.14018555,0.015930176,0.0637207,97.0
24118,0.057537794,0.09487152,0.29860687,0.14018555,0.015930176,0.0637207,97.0
24119,0.057537794,0.09487152,0.29860687,-0.16461182,0.18585205,0.1263794,97.0
24120,0.079404354,0.36032104,0.8613739,-0.16461182,0.18585205,0.1263794,97.0
24121,0.079404354,0.36032104,0.8613739,-0.26550293,0.15505372,0.08283692,97.0
24122,-0.03197217,0.80812836,1.0715942,-0.26550293,0.15505372,0.08283692,97.0
24123,-0.03197217,0.80812836,1.0715942,-0.29630128,0.18797608,0.08602295,97.0
24124,-0.27040195,1.127182,0.7743263,-0.29630128,0.18797608,0.08602295,97.0
24125,-0.27040195,1.127182,0.7743263,-0.31116945,0.20496826,0.04248047,97.0
24126,-0.40261292,0.95703125,0.11392212,-0.31116945,0.20496826,0.04248047,97.0
24127,-0.40261292,0.95703125,0.11392212,-0.03079834,0.08283692,0.03717041,97.0
24128,-0.30558646,0.5921478,-0.22652435,-0.03079834,0.08283692,0.03717041,97.0
24129,-0.30558646,0.5921478,-0.22652435,0.04460449,0.059472658,-0.011682129,97.0
24130,-0.20721328,0.33720398,-0.10792923,0.04460449,0.059472658,-0.011682129,97.0
24131,-0.20721328,0.33720398,-0.10792923,-0.20390625,0.16567384,0.03717041,97.0
24132,-0.109874725,-0.032424927,0.036949158,-0.20390625,0.16567384,0.03717041,97.0
24133,-0.109874725,-0.032424927,0.036949158,-0.32922363,0.19753419,0.007434082,97.0
24134,-0.019821167,-0.3490677,0.13529587,-0.32922363,0.19753419,0.007434082,97.0
24135,-0.019821167,-0.3490677,0.13529587,-0.6000366,0.26868898,0.047790527,97.0
24136,-0.043908715,-0.6470642,0.20817566,-0.6000366,0.26868898,0.047790527,97.0
24137,-0.043908715,-0.6470642,0.20817566,-0.5692383,0.2347046,0.045666505,97.0
24138,-0.078217745,-0.96995544,0.20964432,-0.5692383,0.2347046,0.045666505,97.0
24139,-0.078217745,-0.96995544,0.20964432,-0.44179687,0.20603028,0.10407715,97.0
24140,-0.078217745,-0.96995544,0.20964432,-0.44179687,0.20603028,0.10407715,93.0
24141,-0.0030282736,-1.2429047,0.02507782,-0.44179687,0.20603028,0.10407715,93.0
24142,-0.0030282736,-1.2429047,0.02507782,-0.55755615,0.2793091,0.2081543,93.0
24143,0.23873949,-1.5916748,-0.6693802,-0.55755615,0.2793091,0.2081543,93.0
24144,0.23873949,-1.5916748,-0.6693802,-0.72641605,0.4088745,0.44179687,93.0
24145,0.49747348,-1.8012314,-1.6633835,-0.72641605,0.4088745,0.44179687,93.0
24146,0.49747348,-1.8012314,-1.6633835,-0.86766356,0.5883545,0.68499756,93.0
24147,0.37660432,-1.2722626,-2.4062958,-0.86766356,0.5883545,0.68499756,93.0
24148,0.37660432,-1.2722626,-2.4062958,-1.0312134,0.43861085,0.7614624,93.0
24149,-0.012400627,-0.45322418,-3.141674,-1.0312134,0.43861085,0.7614624,93.0
24150,-0.012400627,-0.45322418,-3.141674,-1.4698242,0.5065796,0.7104859,93.0
24151,-0.25572133,-0.48349,-3.4829445,-1.4698242,0.5065796,0.7104859,93.0
24152,-0.25572133,-0.48349,-3.4829445,-1.1331666,0.2538208,0.6988037,93.0
24153,-0.36199903,-1.0147705,-2.9851837,-1.1331666,0.2538208,0.6988037,93.0
24154,-0.36199903,-1.0147705,-2.9851837,-0.5692383,-0.21877442,0.69986576,93.0
24155,-0.2805661,-1.0887451,-2.0895767,-0.5692383,-0.21877442,0.69986576,93.0
24156,-0.2805661,-1.0887451,-2.0895767,-0.541626,-0.4895874,0.7657105,93.0
24157,-0.098915815,-0.8377228,-1.2133102,-0.541626,-0.4895874,0.7657105,93.0
24158,-0.098915815,-0.8377228,-1.2133102,-0.9122681,-0.7540283,0.8846558,93.0
24159,-0.15936947,-0.66384125,-0.22914124,-0.9122681,-0.7540283,0.8846558,93.0
24160,-0.15936947,-0.66384125,-0.22914124,-1.4007934,-0.9239502,0.9366943,93.0
24161,-0.4701469,-0.75029755,0.62410736,-1.4007934,-0.9239502,0.9366943,93.0
24162,-0.4701469,-0.75029755,0.62410736,-2.1335816,-1.0790039,0.98129886,93.0
24163,-0.81869566,-0.4464035,0.11907196,-2.1335816,-1.0790039,0.98129886,93.0
24164,-0.81869566,-0.4464035,0.11907196,-2.7984009,-1.3869873,0.7784546,93.0
24165,-0.7497686,0.3874359,-1.9162445,-2.7984009,-1.3869873,0.7784546,93.0
24166,-0.7497686,0.3874359,-1.9162445,-3.821118,-1.8542725,0.7720825,93.0
24167,-0.072165966,0.4110489,-3.3068466,-3.821118,-1.8542725,0.7720825,93.0
24168,-0.072165966,0.4110489,-3.3068466,-4.4636354,-2.1537597,0.3069214,93.0
24169,0.17289472,-0.45104218,-3.368843,-4.4636354,-2.1537597,0.3069214,93.0
24170,0.17289472,-0.45104218,-3.368843,-4.2777834,-2.608301,0.009558106,93.0
24171,-0.081288695,-1.5733948,-2.9801712,-4.2777834,-2.608301,0.009558106,93.0
24172,-0.081288695,-1.5733948,-2.9801712,-2.616797,-2.71344,-0.45772704,93.0
24173,-0.016752124,-2.3967056,-2.0616379,-2.616797,-2.71344,-0.45772704,93.0
24174,-0.016752124,-2.3967056,-2.0616379,-0.14761963,-3.1000123,-0.8496094,93.0
24175,0.30025804,-1.6482086,-0.86675644,-0.14761963,-3.1000123,-0.8496094,93.0
24176,0.30025804,-1.6482086,-0.86675644,1.2021973,-3.4557862,-1.0779419,93.0
24177,0.755746,0.1807251,-0.070625305,1.2021973,-3.4557862,-1.0779419,93.0
24178,0.755746,0.1807251,-0.070625305,1.0142212,-3.4526002,-1.083252,93.0
24179,1.4515207,0.8669205,0.30626678,1.0142212,-3.4526002,-1.083252,93.0
24180,1.4515207,0.8669205,0.30626678,0.8358032,-3.1626709,-0.86553955,93.0
24181,1.7930403,-0.016456604,0.59589005,0.8358032,-3.1626709,-0.86553955,93.0
24182,1.7930403,-0.016456604,0.59589005,1.2276856,-3.158423,-0.50233155,93.0
24183,1.2977746,-0.7123718,0.7113304,1.2276856,-3.158423,-0.50233155,93.0
24184,1.2977746,-0.7123718,0.7113304,0.994043,-3.2115235,-0.1274414,93.0
24185,0.8044305,-0.4278946,1.3362503,0.994043,-3.2115235,-0.1274414,93.0
24186,0.8044305,-0.4278946,1.3362503,0.5511841,-2.800525,0.033984374,93.0
24187,1.4724874,1.8163528,4.2615166,0.5511841,-2.800525,0.033984374,93.0
24188,1.4724874,1.8163528,4.2615166,-4.1131716,-1.174585,-0.081774905,93.0
24189,2.770434,4.248993,6.6244965,-4.1131716,-1.174585,-0.081774905,93.0
24190,2.770434,4.248993,6.6244965,-5.1188965,1.0057251,-0.0361084,93.0
24191,2.13478,1.033226,4.2714577,-5.1188965,1.0057251,-0.0361084,93.0
24192,2.13478,1.033226,4.2714577,-2.4001465,1.3657471,0.6966797,93.0
24193,-0.6026373,-3.6101608,-1.0473747,-2.4001465,1.3657471,0.6966797,93.0
24194,-0.6026373,-3.6101608,-1.0473747,-0.46834716,1.1267945,0.2262085,93.0
24195,-2.9873223,-4.1125946,-5.269005,-0.46834716,1.1267945,0.2262085,93.0
24196,-2.9873223,-4.1125946,-5.269005,0.44816896,1.2181275,0.16142578,93.0
24197,-3.3492208,-2.975174,-6.698288,0.44816896,1.2181275,0.16142578,93.0
24198,-3.3492208,-2.975174,-6.698288,1.3126465,0.5703003,0.43117675,93.0
24199,-2.242658,-1.3406754,-5.85791,1.3126465,0.5703003,0.43117675,93.0
24200,-2.242658,-1.3406754,-5.85791,2.3693483,0.45347902,0.09770508,93.0
24201,-1.04647,0.5362854,-4.0992203,2.3693483,0.45347902,0.09770508,93.0
24202,-1.04647,0.5362854,-4.0992203,2.3300538,0.41099855,0.025488282,93.0
24203,-0.22971761,1.5197144,-2.5096512,2.3300538,0.41099855,0.025488282,93.0
24204,-0.22971761,1.5197144,-2.5096512,1.8659546,0.51932377,-0.027612304,93.0
24205,0.21754432,1.062355,-1.368866,1.8659546,0.51932377,-0.027612304,93.0
24206,0.21754432,1.062355,-1.368866,1.6163819,0.7072998,-0.014868164,93.0
24207,0.30364966,0.05014801,-0.25975418,1.6163819,0.7072998,-0.014868164,93.0
24208,0.30364966,0.05014801,-0.25975418,1.8447144,0.8241211,0.058410645,93.0
24209,0.07083726,-0.54120636,0.94538116,1.8447144,0.8241211,0.058410645,93.0
24210,0.07083726,-0.54120636,0.94538116,1.8595825,0.81987303,0.15186767,93.0
24211,-0.26203132,-0.7119827,2.195881,1.8595825,0.81987303,0.15186767,93.0
24212,-0.26203132,-0.7119827,2.195881,2.1091554,0.9791748,0.34090576,93.0
24213,-0.39058208,-0.8749008,3.535221,2.1091554,0.9791748,0.34090576,93.0
24214,-0.39058208,-0.8749008,3.535221,2.7368042,1.0524536,0.4609131,93.0
24215,-0.22162092,-0.24033356,4.538307,2.7368042,1.0524536,0.4609131,93.0
24216,-0.22162092,-0.24033356,4.538307,3.087268,0.9494385,0.3802002,93.0
24217,0.15604067,1.8741684,4.506134,3.087268,0.9494385,0.3802002,93.0
24218,0.15604067,1.8741684,4.506134,1.7321411,1.3370727,0.32603762,93.0
24219,0.5207188,3.656662,3.5483131,1.7321411,1.3370727,0.32603762,93.0
24220,0.5207188,3.656662,3.5483131,0.1709839,2.4043946,0.4067505,93.0
24221,0.37225127,2.7778473,2.7483177,0.1709839,2.4043946,0.4067505,93.0
24222,0.37225127,2.7778473,2.7483177,0.27612305,2.7962768,0.3164795,93.0
24223,-0.4683001,0.5092392,2.6414528,0.27612305,2.7962768,0.3164795,93.0
24224,-0.4683001,0.5092392,2.6414528,1.2000732,2.6125488,0.17735596,93.0
24225,-1.3013369,-0.020950317,2.792057,1.2000732,2.6125488,0.17735596,93.0
24226,-1.3013369,-0.020950317,2.792057,1.0259033,2.617859,-0.12000733,93.0
24227,-1.3601613,1.1313705,2.4674606,1.0259033,2.617859,-0.12000733,93.0
24228,-1.3601613,1.1313705,2.4674606,0.1444336,3.0373535,-0.4609131,93.0
24229,-0.9441227,1.4945831,1.4059029,0.1444336,3.0373535,-0.4609131,93.0
24230,-0.9441227,1.4945831,1.4059029,-0.22833252,3.3272827,-0.59047854,93.0
24231,-0.98569363,0.5881195,0.26797104,-0.22833252,3.3272827,-0.59047854,93.0
24232,-0.98569363,0.5881195,0.26797104,0.16567384,2.9938111,-0.6966797,93.0
24233,-1.4125662,0.03276062,-0.45604706,0.16567384,2.9938111,-0.6966797,93.0
24234,-1.4125662,0.03276062,-0.45604706,0.16992188,2.5498903,-0.91757816,93.0
24235,-1.3442742,0.18304443,-0.9446373,0.16992188,2.5498903,-0.91757816,93.0
24236,-1.3442742,0.18304443,-0.9446373,-0.20284425,2.355542,-0.99935305,93.0
24237,-0.8189496,0.111442566,-1.3227615,-0.20284425,2.355542,-0.99935305,93.0
24238,-0.8189496,0.111442566,-1.3227615,-0.06690674,1.8925049,-1.0099732,93.0
24239,-0.42657083,-0.26643372,-1.4567451,-0.06690674,1.8925049,-1.0099732,93.0
24240,-0.42657083,-0.26643372,-1.4567451,0.23045655,1.3476928,-1.083252,93.0
24241,-0.13163753,-0.5986328,-1.3643608,0.23045655,1.3476928,-1.083252,93.0
24242,-0.13163753,-0.5986328,-1.3643608,0.39082032,0.8400513,-1.0492676,93.0
24243,0.17381595,-0.80709076,-1.2711868,0.39082032,0.8400513,-1.0492676,93.0
24244,0.17381595,-0.80709076,-1.2711868,0.5055176,0.35895997,-0.8814697,93.0
24245,0.3564722,-0.76123047,-1.1765556,0.5055176,0.35895997,-0.8814697,93.0
24246,0.3564722,-0.76123047,-1.1765556,0.44923097,0.0541626,-0.87615967,93.0
24247,0.4520845,-0.6307602,-0.8636093,0.44923097,0.0541626,-0.87615967,93.0
24248,0.4520845,-0.6307602,-0.8636093,0.40356445,-0.24001466,-0.7317261,93.0
24249,0.50260997,-0.56578827,-0.5001755,0.40356445,-0.24001466,-0.7317261,93.0
24250,0.50260997,-0.56578827,-0.5001755,0.3345337,-0.5214478,-0.56605226,93.0
24251,0.42976135,-0.3099823,-0.4491768,0.3345337,-0.5214478,-0.56605226,93.0
24252,0.42976135,-0.3099823,-0.4491768,0.24638672,-0.89208984,-0.51188964,93.0
24253,0.34566456,0.06838226,-0.9414673,0.24638672,-0.89208984,-0.51188964,93.0
24254,0.34566456,0.06838226,-0.9414673,-0.16461182,-1.1639649,-0.3993164,93.0
24255,0.43862885,-0.09339142,-1.6527367,-0.16461182,-1.1639649,-0.3993164,93.0
24256,0.43862885,-0.09339142,-1.6527367,-0.29630128,-1.260608,-0.33240968,93.0
24257,1.0680784,-1.1328201,-0.75157166,-0.29630128,-1.260608,-0.33240968,93.0
24258,1.0680784,-1.1328201,-0.75157166,1.2383057,-0.7412842,-0.1539917,93.0
24259,1.7389232,-1.6102219,2.6610832,1.2383057,-0.7412842,-0.1539917,93.0
24260,1.7389232,-1.6102219,2.6610832,1.8585205,-1.2871583,0.4704712,93.0
24261,1.7389232,-1.6102219,2.6610832,1.8585205,-1.2871583,0.4704712,93.0
24262,1.8830453,0.1867218,5.062092,1.8585205,-1.2871583,0.4704712,93.0
24263,1.8830453,0.1867218,5.062092,0.18691407,-0.4991455,0.04141846,93.0
24264,1.4012849,2.3034515,4.0497932,0.18691407,-0.4991455,0.04141846,93.0
24265,1.4012849,2.3034515,4.0497932,-1.5059327,0.27293703,-0.02442627,93.0
24266,0.29190207,2.0450058,1.8701706,-1.5059327,0.27293703,-0.02442627,93.0
24267,0.29190207,2.0450058,1.8701706,-0.7423462,-0.04460449,-0.24532472,93.0
24268,-1.0480945,-0.034072876,0.22674942,-0.7423462,-0.04460449,-0.24532472,93.0
24269,-1.0480945,-0.034072876,0.22674942,0.72641605,-0.7954468,0.10938721,93.0
24270,-1.7641348,-1.718956,-0.41389847,0.72641605,-0.7954468,0.10938721,93.0
24271,-1.7641348,-1.718956,-0.41389847,2.1261475,-1.2032593,0.087084964,93.0
24272,-1.6387492,-1.1909027,0.10901642,2.1261475,-1.2032593,0.087084964,93.0
24273,-1.6387492,-1.1909027,0.10901642,3.1828492,-1.6907227,0.16248779,93.0
24274,-0.6803964,0.963768,0.9703522,3.1828492,-1.6907227,0.16248779,93.0
24275,-0.6803964,0.963768,0.9703522,2.7676027,-1.535669,0.038232423,93.0
24276,0.66852474,2.2183151,1.553112,2.7676027,-1.535669,0.038232423,93.0
24277,0.66852474,2.2183151,1.553112,2.0964112,-1.2308716,0.019116212,93.0
24278,1.5268486,2.1805878,1.682148,2.0964112,-1.2308716,0.019116212,93.0
24279,1.5268486,2.1805878,1.682148,1.8840088,-1.174585,-0.19541016,93.0
24280,1.5704778,1.8861465,1.0156174,1.8840088,-1.174585,-0.19541016,93.0
24281,1.5704778,1.8861465,1.0156174,1.8818848,-1.1023682,-0.18585205,93.0
24282,1.3535869,1.8202057,-0.054561615,1.8818848,-1.1023682,-0.18585205,93.0
24283,1.3535869,1.8202057,-0.054561615,2.0486207,-0.99935305,-0.2347046,93.0
24284,1.3570027,2.029396,0.38679504,2.0486207,-0.99935305,-0.2347046,93.0
24285,1.3570027,2.029396,0.38679504,2.5020998,-0.5787964,-0.115759276,93.0
24286,1.3198795,3.1446838,1.7584686,2.5020998,-0.5787964,-0.115759276,93.0
24287,1.3198795,3.1446838,1.7584686,1.4071655,-0.6488892,-0.42799073,93.0
24288,1.0589554,3.3703766,1.8082657,1.4071655,-0.6488892,-0.42799073,93.0
24289,1.0589554,3.3703766,1.8082657,0.62977296,-0.28461915,-0.39082032,93.0
24290,0.50218153,1.7477188,0.52479553,0.62977296,-0.28461915,-0.39082032,93.0
24291,0.50218153,1.7477188,0.52479553,0.30373535,-0.26125488,-0.46834716,93.0
24292,0.38881803,0.6238251,-0.021289825,0.30373535,-0.26125488,-0.46834716,93.0
24293,0.38881803,0.6238251,-0.021289825,0.3419678,-0.37701416,-0.57561034,93.0
24294,0.5433178,-0.3221283,-0.96717834,0.3419678,-0.37701416,-0.57561034,93.0
24295,0.5433178,-0.3221283,-0.96717834,-0.8602295,0.3355957,-0.76677245,93.0
24296,0.4465685,-0.67380524,-0.73210526,-0.8602295,0.3355957,-0.76677245,93.0
24297,0.4465685,-0.67380524,-0.73210526,-0.4991455,0.3069214,-0.6924316,93.0
24298,-0.21881938,-0.95227814,0.8820648,-0.4991455,0.3069214,-0.6924316,93.0
24299,-0.21881938,-0.95227814,0.8820648,-0.2166504,-0.4694092,-1.0110352,93.0
24300,0.029583216,0.30606842,0.7307129,-0.2166504,-0.4694092,-1.0110352,93.0
24301,0.029583216,0.30606842,0.7307129,-0.9239502,-0.008496094,-0.83474123,93.0
24302,0.7273898,1.8467789,-1.0890884,-0.9239502,-0.008496094,-0.83474123,93.0
24303,0.7273898,1.8467789,-1.0890884,-0.994043,0.39506838,-0.16567384,93.0
24304,0.6178248,0.6054611,-1.404377,-0.994043,0.39506838,-0.16567384,93.0
24305,0.6178248,0.6054611,-1.404377,-0.43117675,0.19541016,-0.1263794,93.0
24306,0.62308073,-1.5251389,-1.3650055,-0.43117675,0.19541016,-0.1263794,93.0
24307,0.62308073,-1.5251389,-1.3650055,-0.47578126,0.3695801,0.06478272,93.0
24308,0.30616713,-1.3358002,-0.6639023,-0.47578126,0.3695801,0.06478272,93.0
24309,0.30616713,-1.3358002,-0.6639023,-0.42161867,0.47471926,0.27399904,93.0
24310,-0.6802983,-1.1608124,1.3521309,-0.42161867,0.47471926,0.27399904,93.0
24311,-0.6802983,-1.1608124,1.3521309,-0.64995116,0.5341919,0.36108398,93.0
24312,-0.62302303,-0.8698349,1.2059937,-0.64995116,0.5341919,0.36108398,93.0
24313,-0.62302303,-0.8698349,1.2059937,-0.8028809,0.40037844,0.3419678,93.0
24314,-0.2317071,-0.2994156,0.20372391,-0.8028809,0.40037844,0.3419678,93.0
24315,-0.2317071,-0.2994156,0.20372391,-1.1044922,0.44498292,0.4609131,93.0
24316,-0.26119566,-0.35372925,-0.26068878,-1.1044922,0.44498292,0.4609131,93.0
24317,-0.26119566,-0.35372925,-0.26068878,-0.95793456,0.23789063,0.37701416,93.0
24318,-0.8118863,-0.92419434,-0.61133575,-0.95793456,0.23789063,0.37701416,93.0
24319,-0.8118863,-0.92419434,-0.61133575,-0.905896,0.28674316,0.56392825,93.0
24320,-0.96460915,-0.96443176,-0.31785202,-0.905896,0.28674316,0.56392825,93.0
24321,-0.96460915,-0.96443176,-0.31785202,-0.7975708,0.32285157,0.58198243,93.0
24322,-1.2620194,-0.8434448,0.5033226,-0.7975708,0.32285157,0.58198243,93.0
24323,-1.2620194,-0.8434448,0.5033226,-0.61065674,0.21983643,0.7614624,93.0
24324,-1.2914271,-0.25169373,0.8780136,-0.61065674,0.21983643,0.7614624,93.0
24325,-1.2914271,-0.25169373,0.8780136,-0.9260742,0.48427734,0.7327881,93.0
24326,-0.542773,0.22712708,0.91897583,-0.9260742,0.48427734,0.7327881,93.0
24327,-0.542773,0.22712708,0.91897583,-1.4963745,1.0365235,0.75615233,93.0
24328,-0.2890525,0.13049316,0.6904297,-1.4963745,1.0365235,0.75615233,93.0
24329,-0.2890525,0.13049316,0.6904297,-1.6185058,1.1894531,0.815625,93.0
24330,-0.22756767,0.47535706,0.81847,-1.6185058,1.1894531,0.815625,93.0
24331,-0.22756767,0.47535706,0.81847,-2.4043946,1.0906861,0.9674927,93.0
24332,-0.45694423,0.48545074,0.20316315,-2.4043946,1.0906861,0.9674927,93.0
24333,-0.45694423,0.48545074,0.20316315,-3.0341675,1.0407715,1.0981201,93.0
24334,-0.56129515,0.16777039,-1.2814522,-3.0341675,1.0407715,1.0981201,93.0
24335,-0.56129515,0.16777039,-1.2814522,-4.0016603,1.084314,1.2786621,93.0
24336,-0.69820607,-1.1313629,-2.7267227,-4.0016603,1.084314,1.2786621,93.0
24337,-0.69820607,-1.1313629,-2.7267227,-3.5566773,0.9388184,1.4199097,93.0
24338,-1.7511431,-2.5855255,-3.5609932,-3.5566773,0.9388184,1.4199097,93.0
24339,-1.7511431,-2.5855255,-3.5609932,-2.2249146,0.5065796,1.7119629,93.0
24340,-3.5565176,-3.737465,-3.95092,-2.2249146,0.5065796,1.7119629,93.0
24341,-3.5565176,-3.737465,-3.95092,-0.4163086,0.118945315,1.4761963,93.0
24342,-4.144616,-3.5228424,-2.6992607,-0.4163086,0.118945315,1.4761963,93.0
24343,-4.144616,-3.5228424,-2.6992607,0.87403566,-0.41206056,1.8245362,93.0
24344,-2.1593938,-1.8446274,-0.66194916,0.87403566,-0.41206056,1.8245362,93.0
24345,-2.1593938,-1.8446274,-0.66194916,0.5787964,-0.07115479,1.628064,93.0
24346,0.16258502,-0.9580841,0.07216263,0.5787964,-0.07115479,1.628064,93.0
24347,0.16258502,-0.9580841,0.07216263,0.8952759,0.093457036,1.7289551,93.0
24348,0.40659392,-1.4849854,-0.12498474,0.8952759,0.093457036,1.7289551,93.0
24349,0.40659392,-1.4849854,-0.12498474,2.0911012,-0.30373535,2.092163,93.0
24350,-0.41611886,-2.2505646,-0.22301102,2.0911012,-0.30373535,2.092163,93.0
24351,-0.41611886,-2.2505646,-0.22301102,3.09364,-0.5649902,2.4776733,93.0
24352,-0.86170363,-1.7298889,0.38284302,3.09364,-0.5649902,2.4776733,93.0
24353,-0.86170363,-1.7298889,0.38284302,4.003784,-0.9855469,2.6688354,93.0
24354,-0.86170363,-1.7298889,0.38284302,4.003784,-0.9855469,2.6688354,89.0
24355,-0.7498975,0.4657898,1.2063866,4.003784,-0.9855469,2.6688354,89.0
24356,-0.7498975,0.4657898,1.2063866,3.902893,-0.89102787,2.6295412,89.0
24357,-0.6896274,2.548851,1.8251419,3.902893,-0.89102787,2.6295412,89.0
24358,-0.6896274,2.548851,1.8251419,3.6618164,-0.73809814,2.895044,89.0
24359,-1.1885304,3.4554138,2.0669594,3.6618164,-0.73809814,2.895044,89.0
24360,-1.1885304,3.4554138,2.0669594,4.241675,-0.7890747,2.907788,89.0
24361,-1.8254216,3.8129883,2.218792,4.241675,-0.7890747,2.907788,89.0
24362,-1.8254216,3.8129883,2.218792,4.8512697,-0.9154541,3.1626709,89.0
24363,-2.2462015,4.0489044,2.5741081,4.8512697,-0.9154541,3.1626709,89.0
24364,-2.2462015,4.0489044,2.5741081,4.625061,-0.9834229,3.3060424,89.0
24365,-2.52035,4.614685,2.9730186,4.625061,-0.9834229,3.3060424,89.0
24366,-2.52035,4.614685,2.9730186,4.145032,-0.90058595,3.1170044,89.0
24367,-2.6540365,5.8720245,3.0833359,4.145032,-0.90058595,3.1170044,89.0
24368,-2.6540365,5.8720245,3.0833359,3.7329712,-0.9122681,2.7760987,89.0
24369,-2.6532707,7.153038,2.8455276,3.7329712,-0.9122681,2.7760987,89.0
24370,-2.6532707,7.153038,2.8455276,2.7676027,-0.87191164,2.16969,89.0
24371,-2.3054905,6.975937,2.2512512,2.7676027,-0.87191164,2.16969,89.0
24372,-2.3054905,6.975937,2.2512512,1.898877,-0.7625244,1.7586914,89.0
24373,-1.703218,4.9223557,1.716919,1.898877,-0.7625244,1.7586914,89.0
24374,-1.703218,4.9223557,1.716919,1.8394043,-0.8209351,1.4655762,89.0
24375,-1.2622695,1.1014633,2.1139145,1.8394043,-0.8209351,1.4655762,89.0
24376,-1.2622695,1.1014633,2.1139145,2.885486,-0.634021,2.0167603,89.0
24377,-1.107789,-1.6584778,3.2174644,2.885486,-0.634021,2.0167603,89.0
24378,-1.107789,-1.6584778,3.2174644,4.1089234,-1.0067872,1.9179932,89.0
24379,-0.68692684,-0.7673569,3.4668427,4.1089234,-1.0067872,1.9179932,89.0
24380,-0.68692684,-0.7673569,3.4668427,2.5828125,-0.52250975,2.1537597,89.0
24381,0.19447708,1.8423615,2.537487,2.5828125,-0.52250975,2.1537597,89.0
24382,0.19447708,1.8423615,2.537487,1.5515991,-0.028674318,1.5494751,89.0
24383,0.40675354,3.5249481,0.9042053,1.5515991,-0.028674318,1.5494751,89.0
24384,0.40675354,3.5249481,0.9042053,0.991919,-0.021240234,1.6004517,89.0
24385,-0.17608643,3.1599884,-0.8642578,0.991919,-0.021240234,1.6004517,89.0
24386,-0.17608643,3.1599884,-0.8642578,1.5558472,0.32391357,1.4347779,89.0
24387,-0.4824829,2.310936,-0.9182625,1.5558472,0.32391357,1.4347779,89.0
24388,-0.4824829,2.310936,-0.9182625,2.6390991,-0.21240234,1.2521118,89.0
24389,0.08413124,2.710373,0.46422958,2.6390991,-0.21240234,1.2521118,89.0
24390,0.08413124,2.710373,0.46422958,1.445398,0.10301514,0.7189819,89.0
24391,1.0977736,3.4940948,0.9164505,1.445398,0.10301514,0.7189819,89.0
24392,1.0977736,3.4940948,0.9164505,-0.14549561,0.82836914,0.36851808,89.0
24393,1.2740192,2.3285904,-0.02771759,-0.14549561,0.82836914,0.36851808,89.0
24394,1.2740192,2.3285904,-0.02771759,-0.41843262,0.8591675,0.38338622,89.0
24395,0.54778004,-0.24652863,-1.0965538,-0.41843262,0.8591675,0.38338622,89.0
24396,0.54778004,-0.24652863,-1.0965538,0.0053100586,0.79226077,0.4609131,89.0
24397,-0.16884375,-1.7860794,-1.2784004,0.0053100586,0.79226077,0.4609131,89.0
24398,-0.16884375,-1.7860794,-1.2784004,0.7062378,0.53950197,0.7975708,89.0
24399,-0.21846151,-1.4131927,-0.5804596,0.7062378,0.53950197,0.7975708,89.0
24400,-0.21846151,-1.4131927,-0.5804596,1.1554688,0.38975832,0.7869507,89.0
24401,0.39727688,-0.043563843,0.31485748,1.1554688,0.38975832,0.7869507,89.0
24402,0.39727688,-0.043563843,0.31485748,1.1299804,0.4704712,0.8379273,89.0
24403,0.80421066,0.94686127,0.69197464,1.1299804,0.4704712,0.8379273,89.0
24404,0.80421066,0.94686127,0.69197464,0.8421753,0.6924316,1.0057251,89.0
24405,0.350461,1.0069122,0.39196014,0.8421753,0.6924316,1.0057251,89.0
24406,0.350461,1.0069122,0.39196014,1.0184692,0.6786255,1.2627319,89.0
24407,-0.22364712,0.66861725,-0.052692413,1.0184692,0.6786255,1.2627319,89.0
24408,-0.22364712,0.66861725,-0.052692413,1.357251,0.46409914,1.3147706,89.0
24409,-0.3219719,0.5904465,-0.39767456,1.357251,0.46409914,1.3147706,89.0
24410,-0.3219719,0.5904465,-0.39767456,0.9781128,0.6839356,1.3859253,89.0
24411,-0.46217966,0.5264969,-0.6406021,0.9781128,0.6839356,1.3859253,89.0
24412,-0.46217966,0.5264969,-0.6406021,0.9430664,0.69986576,1.537793,89.0
24413,-0.67430925,0.32898712,-0.7043648,0.9430664,0.69986576,1.537793,89.0
24414,-0.67430925,0.32898712,-0.7043648,1.2914063,0.41312256,1.5335449,89.0
24415,-0.38827515,0.37766266,-0.43164062,1.2914063,0.41312256,1.5335449,89.0
24416,-0.38827515,0.37766266,-0.43164062,1.4230957,0.22408448,1.4613281,89.0
24417,0.043200493,0.7378998,0.29810715,1.4230957,0.22408448,1.4613281,89.0
24418,0.043200493,0.7378998,0.29810715,1.178833,0.24001466,1.4836304,89.0
24419,-0.14989996,0.908432,1.0209312,1.178833,0.24001466,1.4836304,89.0
24420,-0.14989996,0.908432,1.0209312,0.8963379,0.42055663,1.5303589,89.0
24421,-0.73375034,0.70440674,1.0868607,0.8963379,0.42055663,1.5303589,89.0
24422,-0.73375034,0.70440674,1.0868607,1.0556396,0.2793091,1.5165528,89.0
24423,-0.8297615,0.47589874,0.4608841,1.0556396,0.2793091,1.5165528,89.0
24424,-0.8297615,0.47589874,0.4608841,1.1140503,0.2081543,1.4305298,89.0
24425,-0.46516418,0.5003967,-0.47447205,1.1140503,0.2081543,1.4305298,89.0
24426,-0.46516418,0.5003967,-0.47447205,1.1321045,0.20284425,1.4698242,89.0
24427,-0.241467,0.7295151,-1.1684685,1.1321045,0.20284425,1.4698242,89.0
24428,-0.241467,0.7295151,-1.1684685,1.3869873,0.057348635,1.4517701,89.0
24429,0.025784016,0.8955612,-1.1876945,1.3869873,0.057348635,1.4517701,89.0
24430,0.025784016,0.8955612,-1.1876945,1.6429322,-0.053100586,1.265918,89.0
24431,0.5884371,1.1394119,-0.65844345,1.6429322,-0.053100586,1.265918,89.0
24432,0.5884371,1.1394119,-0.65844345,1.6153198,-0.07115479,1.1204224,89.0
24433,0.9772072,1.4634819,-0.2869568,1.6153198,-0.07115479,1.1204224,89.0
24434,0.9772072,1.4634819,-0.2869568,1.3668091,-0.0021240234,1.0343994,89.0
24435,0.8828521,1.6618881,-0.37117004,1.3668091,-0.0021240234,1.0343994,89.0
24436,0.8828521,1.6618881,-0.37117004,1.3784913,-0.07540283,0.9876709,89.0
24437,0.6382885,1.628952,-0.6060333,1.3784913,-0.07540283,0.9876709,89.0
24438,0.6382885,1.628952,-0.6060333,1.2234375,0.039294433,0.9515625,89.0
24439,0.5495467,1.5094376,-0.8544693,1.2234375,0.039294433,0.9515625,89.0
24440,0.5495467,1.5094376,-0.8544693,1.2234375,0.026550293,0.903772,89.0
24441,0.52949333,1.4449272,-1.1135902,1.2234375,0.026550293,0.903772,89.0
24442,0.52949333,1.4449272,-1.1135902,1.0205933,0.11682129,0.7975708,89.0
24443,0.5052352,1.1105804,-1.1749191,1.0205933,0.11682129,0.7975708,89.0
24444,0.5052352,1.1105804,-1.1749191,0.98129886,0.24532472,0.88040775,89.0
24445,0.30363894,0.9314232,-1.0187798,0.98129886,0.24532472,0.88040775,89.0
24446,0.30363894,0.9314232,-1.0187798,1.1618408,0.14761963,0.811377,89.0
24447,0.22480822,1.0084686,-0.6795883,1.1618408,0.14761963,0.811377,89.0
24448,0.22480822,1.0084686,-0.6795883,0.84111327,0.35683593,0.7338501,89.0
24449,0.4771366,1.039917,-0.46199417,0.84111327,0.35683593,0.7338501,89.0
24450,0.4771366,1.039917,-0.46199417,0.6138428,0.44816896,0.63720703,89.0
24451,0.508162,1.6008148,-0.69773483,0.6138428,0.44816896,0.63720703,89.0
24452,0.508162,1.6008148,-0.69773483,0.6138428,0.44816896,0.63720703,87.0
24453,0.508162,1.6008148,-0.69773483,0.61278075,0.35895997,0.5235718,87.0
24454,0.15762806,2.5907211,-0.9897194,0.61278075,0.35895997,0.5235718,87.0
24455,0.15762806,2.5907211,-0.9897194,0.4163086,0.3536499,0.39188233,87.0
24456,0.07627344,2.521099,-0.6085472,0.4163086,0.3536499,0.39188233,87.0
24457,0.07627344,2.521099,-0.6085472,0.10620117,0.45347902,0.22302246,87.0
24458,0.42162704,1.4348984,0.51820374,0.10620117,0.45347902,0.22302246,87.0
24459,0.42162704,1.4348984,0.51820374,-0.36533204,0.60216063,0.09770508,87.0
24460,0.4914031,0.35831833,1.2161255,-0.36533204,0.60216063,0.09770508,87.0
24461,0.4914031,0.35831833,1.2161255,-1.1002442,0.9674927,0.15823975,87.0
24462,-0.17166042,-1.099781,0.5853157,-1.1002442,0.9674927,0.15823975,87.0
24463,-0.17166042,-1.099781,0.5853157,-0.7062378,0.7678345,0.5320679,87.0
24464,-0.9923086,-1.924736,-0.8007431,-0.7062378,0.7678345,0.5320679,87.0
24465,-0.9923086,-1.924736,-0.8007431,0.3717041,0.30267334,0.56817627,87.0
24466,-1.0819206,-0.8987465,-1.8454285,0.3717041,0.30267334,0.56817627,87.0
24467,-1.0819206,-0.8987465,-1.8454285,0.5798584,0.22833252,0.49489745,87.0
24468,-0.5799651,0.3525467,-1.8594208,0.5798584,0.22833252,0.49489745,87.0
24469,-0.5799651,0.3525467,-1.8594208,0.5766724,0.25806886,0.4694092,87.0
24470,0.0033860207,0.62377167,-1.1492424,0.5766724,0.25806886,0.4694092,87.0
24471,0.0033860207,0.62377167,-1.1492424,0.67331547,0.12000733,0.32497558,87.0
24472,0.54725266,0.6414833,-0.45384216,0.67331547,0.12000733,0.32497558,87.0
24473,0.54725266,0.6414833,-0.45384216,0.40037844,0.22939454,0.3355957,87.0
24474,0.85870075,0.7900696,-0.08790207,0.40037844,0.22939454,0.3355957,87.0
24475,0.85870075,0.7900696,-0.08790207,0.2824951,0.32285157,0.5809204,87.0
24476,0.70525885,0.8559799,0.1018219,0.2824951,0.32285157,0.5809204,87.0
24477,0.70525885,0.8559799,0.1018219,0.45347902,0.26444092,0.7604004,87.0
24478,0.43510532,0.7968941,0.34035492,0.45347902,0.26444092,0.7604004,87.0
24479,0.43510532,0.7968941,0.34035492,0.5161377,0.23682861,0.77739257,87.0
24480,0.37948084,0.889225,0.54777145,0.5161377,0.23682861,0.77739257,87.0
24481,0.37948084,0.889225,0.54777145,0.2527588,0.35577393,0.76358646,87.0
24482,0.44533253,0.89120483,0.59381866,0.2527588,0.35577393,0.76358646,87.0
24483,0.44533253,0.89120483,0.59381866,0.023364259,0.49383545,0.7168579,87.0
24484,0.512516,0.3398056,0.39831924,0.023364259,0.49383545,0.7168579,87.0
24485,0.512516,0.3398056,0.39831924,0.21346436,0.39082032,0.77314454,87.0
24486,0.48484182,-0.1051445,7.095337E-4,0.21346436,0.39082032,0.77314454,87.0
24487,0.48484182,-0.1051445,7.095337E-4,0.32178956,0.3069214,0.8464233,87.0
24488,0.35918665,0.20269012,-0.30846405,0.32178956,0.3069214,0.8464233,87.0
24489,0.35918665,0.20269012,-0.30846405,0.2347046,0.29205322,0.7954468,87.0
24490,0.12721777,0.9233475,-0.3343544,0.2347046,0.29205322,0.7954468,87.0
24491,0.12721777,0.9233475,-0.3343544,0.13381349,0.3430298,0.725354,87.0
24492,-0.30650234,1.4912682,-0.12945938,0.13381349,0.3430298,0.725354,87.0
24493,-0.30650234,1.4912682,-0.12945938,0.0010620117,0.3451538,0.7688965,87.0
24494,-0.8555536,1.1500702,0.18307495,0.0010620117,0.3451538,0.7688965,87.0
24495,-0.8555536,1.1500702,0.18307495,-0.046728518,0.39188233,0.75509036,87.0
24496,-1.0842476,-0.08304596,0.521019,-0.046728518,0.39188233,0.75509036,87.0
24497,-1.0842476,-0.08304596,0.521019,0.21558838,0.19328614,0.74659425,87.0
24498,-0.8207793,-0.9699135,0.81415176,0.21558838,0.19328614,0.74659425,87.0
24499,-0.8207793,-0.9699135,0.81415176,-0.115759276,0.34090576,0.60109866,87.0
24500,-0.3078928,-1.3001709,0.769413,-0.115759276,0.34090576,0.60109866,87.0
24501,-0.3078928,-1.3001709,0.769413,-0.544812,0.5766724,0.56180423,87.0
24502,0.10486984,-1.506237,0.028869629,-0.544812,0.5766724,0.56180423,87.0
24503,0.10486984,-1.506237,0.028869629,-0.05628662,0.31116945,0.56392825,87.0
24504,0.44858122,-1.1420021,-0.96429443,-0.05628662,0.31116945,0.56392825,87.0
24505,0.44858122,-1.1420021,-0.96429443,0.23895264,0.2262085,0.6467652,87.0
