,accx,accy,accz,gyrox,gyroy,gyroz,heart rate
24531,open,open,open,open,open,open,open
24532,0.11628723,-0.13376617,0.09590149,-0.107263185,-0.058410645,-0.025488282,147.0
24533,0.09769249,-0.120342255,0.10610962,-0.107263185,-0.058410645,-0.025488282,147.0
24534,0.09769249,-0.120342255,0.10610962,0.053100586,0.18054199,0.06159668,147.0
24535,0.09769249,-0.120342255,0.10610962,0.02442627,0.1731079,0.028674318,147.0
24536,0.083244324,-0.10457611,0.11306763,0.02442627,0.1731079,0.028674318,147.0
24537,-0.21294498,1.6386051,-1.0843048,0.02442627,0.1731079,0.028674318,147.0
24538,-0.21294498,1.6386051,-1.0843048,0.11044922,0.12850343,0.025488282,147.0
24539,-0.17824173,1.3510933,-0.91589355,0.11044922,0.12850343,0.025488282,147.0
24540,-0.17824173,1.3510933,-0.91589355,0.093457036,0.11151123,-0.008496094,147.0
24541,-0.115615845,1.1938019,-0.66218567,0.093457036,0.11151123,-0.008496094,147.0
24542,-0.115615845,1.1938019,-0.66218567,-0.028674318,0.10301514,-0.03186035,147.0
24543,-0.115615845,1.1938019,-0.66218567,-0.08496094,0.08071289,-0.057348635,147.0
24544,-0.05777645,0.97473145,-0.47120667,-0.08496094,0.08071289,-0.057348635,147.0
24545,-0.070013046,0.6716671,-0.38339233,-0.08496094,0.08071289,-0.057348635,147.0
24546,-0.070013046,0.6716671,-0.38339233,-0.043542482,0.06584473,-0.022302246,147.0
24547,-0.08466053,0.39795303,-0.33364868,-0.043542482,0.06584473,-0.022302246,147.0
24548,-0.08466053,0.39795303,-0.33364868,0.08602295,0.025488282,-0.038232423,147.0
24549,-0.07466221,0.28539276,-0.2579193,0.08602295,0.025488282,-0.038232423,147.0
24550,-0.07466221,0.28539276,-0.2579193,0.124255374,0.007434082,-0.028674318,147.0
24551,-0.101428986,0.3082943,-0.17707825,0.124255374,0.007434082,-0.028674318,147.0
24552,-0.101428986,0.3082943,-0.17707825,0.015930176,0.0063720704,-0.015930176,147.0
24553,-0.12034035,0.25099373,-0.12797546,0.015930176,0.0063720704,-0.015930176,147.0
24554,-0.12034035,0.25099373,-0.12797546,0.020178223,-0.02442627,0.0031860352,147.0
24555,-0.1128006,0.08601189,-0.0745697,0.020178223,-0.02442627,0.0031860352,147.0
24556,-0.1128006,0.08601189,-0.0745697,-0.03186035,-0.0180542,0.021240234,147.0
24557,-0.07996178,-0.008436203,-6.713867E-4,-0.03186035,-0.0180542,0.021240234,147.0
24558,-0.07996178,-0.008436203,-6.713867E-4,0.0053100586,-0.020178223,0.013806152,147.0
24559,-0.07216072,0.06688309,0.06440735,0.0053100586,-0.020178223,0.013806152,147.0
24560,-0.07216072,0.06688309,0.06440735,-0.025488282,-0.004248047,0.009558106,147.0
24561,-0.054579735,0.16838646,0.13179016,-0.025488282,-0.004248047,0.009558106,147.0
24562,-0.054579735,0.16838646,0.13179016,-0.014868164,0.0053100586,0.019116212,147.0
24563,0.029480934,0.19121552,0.2602234,-0.014868164,0.0053100586,0.019116212,147.0
24564,0.029480934,0.19121552,0.2602234,-0.043542482,0.047790527,0.023364259,147.0
24565,0.12485409,0.14384079,0.3542328,-0.043542482,0.047790527,0.023364259,147.0
24566,0.12485409,0.14384079,0.3542328,-0.04885254,0.093457036,0.040356446,147.0
24567,0.15591335,0.05616188,0.41241455,-0.04885254,0.093457036,0.040356446,147.0
24568,0.15591335,0.05616188,0.41241455,0.011682129,0.15717773,0.08283692,147.0
24569,0.20605373,-0.036613464,0.5303192,0.011682129,0.15717773,0.08283692,147.0
24570,0.20605373,-0.036613464,0.5303192,0.023364259,0.28780517,0.12531738,147.0
24571,0.27617073,-0.13837433,0.6764984,0.023364259,0.28780517,0.12531738,147.0
24572,0.27617073,-0.13837433,0.6764984,0.0053100586,0.4619751,0.19116211,147.0
24573,0.27985954,-0.32583618,0.79052734,0.0053100586,0.4619751,0.19116211,147.0
24574,0.27985954,-0.32583618,0.79052734,0.1901001,0.6117188,0.29736328,147.0
24575,0.2560768,-0.42301178,0.9703827,0.1901001,0.6117188,0.29736328,147.0
24576,0.2560768,-0.42301178,0.9703827,0.3164795,0.8071289,0.38869628,147.0
24577,0.2592554,-0.2280941,1.2414703,0.3164795,0.8071289,0.38869628,147.0
24578,0.2592554,-0.2280941,1.2414703,-0.008496094,1.1618408,0.4322388,147.0
24579,0.16967201,-0.26776695,1.292984,-0.008496094,1.1618408,0.4322388,147.0
24580,0.16967201,-0.26776695,1.292984,-0.10301514,1.4294678,0.5235718,147.0
24581,-0.028373718,-0.7834034,1.1088257,-0.10301514,1.4294678,0.5235718,147.0
24582,-0.028373718,-0.7834034,1.1088257,0.4715332,1.5038086,0.71791995,147.0
24583,-0.2521181,-1.0145035,0.9470978,0.4715332,1.5038086,0.71791995,147.0
24584,-0.2521181,-1.0145035,0.9470978,0.5883545,1.6726685,0.79226077,147.0
24585,-0.49533463,-0.8391056,0.81752014,0.5883545,1.6726685,0.79226077,147.0
24586,-0.49533463,-0.8391056,0.81752014,0.62764895,1.7533814,0.90908206,147.0
24587,-0.49533463,-0.8391056,0.81752014,0.85704345,1.7703736,1.0195312,147.0
24588,-0.74967384,-0.7154503,0.71865845,0.85704345,1.7703736,1.0195312,147.0
24589,-0.95609856,-0.68096733,0.68426514,0.85704345,1.7703736,1.0195312,147.0
24590,-0.95609856,-0.68096733,0.68426514,0.9547486,1.8011719,1.1098022,147.0
24591,-1.0379868,-0.6111069,0.68182373,0.9547486,1.8011719,1.1098022,147.0
24592,-1.0379868,-0.6111069,0.68182373,1.0747559,1.7884277,1.2213135,147.0
24593,-0.99627113,-0.40068817,0.7129669,1.0747559,1.7884277,1.2213135,147.0
24594,-0.99627113,-0.40068817,0.7129669,0.9197022,1.81604,1.2765381,147.0
24595,-0.95613575,-0.18561363,0.7210846,0.9197022,1.81604,1.2765381,147.0
24596,-0.95613575,-0.18561363,0.7210846,0.62127686,1.8638306,1.3328247,147.0
24597,-1.0610514,-0.15810966,0.6361084,0.62127686,1.8638306,1.3328247,147.0
24598,-1.0610514,-0.15810966,0.6361084,0.5363159,1.8394043,1.3721192,147.0
24599,-1.267396,-0.15793228,0.5417023,0.5363159,1.8394043,1.3721192,147.0
24600,-1.267396,-0.15793228,0.5417023,0.42692873,1.7926759,1.3827393,147.0
24601,-1.4674454,-0.055934906,0.5211487,0.42692873,1.7926759,1.3827393,147.0
24602,-1.4674454,-0.055934906,0.5211487,0.13912354,1.7565674,1.358313,147.0
24603,-1.6285343,0.0382843,0.47433472,0.13912354,1.7565674,1.358313,147.0
24604,-1.6285343,0.0382843,0.47433472,-0.09664307,1.6960328,1.3211426,147.0
24605,-1.7449293,0.040246964,0.3612976,-0.09664307,1.6960328,1.3211426,147.0
24606,-1.7449293,0.040246964,0.3612976,-0.16992188,1.5940796,1.2595459,147.0
24607,-1.7741423,-0.04996872,0.26675415,-0.16992188,1.5940796,1.2595459,147.0
24608,-1.7741423,-0.04996872,0.26675415,-0.270813,1.4655762,1.2234375,147.0
24609,-1.7320213,-0.28340912,0.17945862,-0.270813,1.4655762,1.2234375,147.0
24610,-1.7320213,-0.28340912,0.17945862,-0.4970215,1.3476928,1.1554688,147.0
24611,-1.603159,-0.64571,0.16401672,-0.4970215,1.3476928,1.1554688,147.0
24612,-1.603159,-0.64571,0.16401672,-0.26868898,1.2032593,1.1310425,147.0
24613,-1.3998613,-0.795414,0.31311035,-0.26868898,1.2032593,1.1310425,147.0
24614,-1.3998613,-0.795414,0.31311035,0.03079834,1.0428956,1.1299804,147.0
24615,-1.2211466,-0.53528214,0.57366943,0.03079834,1.0428956,1.1299804,147.0
24616,-1.2211466,-0.53528214,0.57366943,-0.1529297,0.9611206,1.083252,147.0
24617,-1.1446662,-0.28700256,0.77116394,-0.1529297,0.9611206,1.083252,147.0
24618,-1.1446662,-0.28700256,0.77116394,-0.7041138,0.905896,0.9876709,147.0
24619,-1.1295514,-0.58353233,0.7836304,-0.7041138,0.905896,0.9876709,147.0
24620,-1.1295514,-0.58353233,0.7836304,-0.90695804,0.87615967,0.97492677,147.0
24621,-1.0730748,-1.1839523,0.713501,-0.90695804,0.87615967,0.97492677,147.0
24622,-1.0730748,-1.1839523,0.713501,-0.49064943,0.7657105,1.0184692,147.0
24623,-0.9641361,-1.3122253,0.70062256,-0.49064943,0.7657105,1.0184692,147.0
24624,-0.9641361,-1.3122253,0.70062256,-0.5033936,0.727478,0.9802368,147.0
24625,-0.89224386,-1.0682735,0.65953064,-0.5033936,0.727478,0.9802368,147.0
24626,-0.89224386,-1.0682735,0.65953064,-1.1331666,0.77526855,0.88996583,147.0
24627,-0.92884636,-1.2381516,0.54067993,-1.1331666,0.77526855,0.88996583,147.0
24628,-0.92884636,-1.2381516,0.54067993,-1.2807862,0.8092529,0.87403566,147.0
24629,-0.9626937,-1.6749935,0.46159363,-1.2807862,0.8092529,0.87403566,147.0
24630,-0.9626937,-1.6749935,0.46159363,-1.0641358,0.7699585,0.89102787,147.0
24631,-0.9544568,-1.6910686,0.4247589,-1.0641358,0.7699585,0.89102787,147.0
24632,-0.9544568,-1.6910686,0.4247589,-1.2786621,0.80181885,0.8241211,147.0
24633,-0.898746,-1.2494869,0.33729553,-1.2786621,0.80181885,0.8241211,147.0
24634,-0.898746,-1.2494869,0.33729553,-1.8372803,0.8241211,0.6446411,147.0
24635,-0.77639437,-0.93832207,0.03590393,-1.8372803,0.8241211,0.6446411,147.0
24636,-0.77639437,-0.93832207,0.03590393,-2.8865478,0.8846558,0.46409914,147.0
24637,-0.6188202,-1.2167587,-0.5036926,-2.8865478,0.8846558,0.46409914,147.0
24638,-0.6188202,-1.2167587,-0.5036926,-3.7467773,0.9876709,0.35577393,147.0
24639,-0.59349394,-2.051691,-1.087204,-3.7467773,0.9876709,0.35577393,147.0
24640,-0.59349394,-2.051691,-1.087204,-3.7627075,0.99935305,0.40144044,147.0
24641,-0.7938385,-2.8092356,-1.4465942,-3.7627075,0.99935305,0.40144044,147.0
24642,-0.7938385,-2.8092356,-1.4465942,-3.4536622,0.84111327,0.45029297,147.0
24643,-0.95355225,-2.859253,-1.704956,-3.4536622,0.84111327,0.45029297,147.0
24644,-0.95355225,-2.859253,-1.704956,-3.5704834,0.7975708,0.3525879,147.0
24645,-1.1708255,-2.6578865,-2.187912,-3.5704834,0.7975708,0.3525879,147.0
24646,-1.1708255,-2.6578865,-2.187912,-3.9145753,0.60322267,0.5883545,147.0
24647,-1.5927272,-2.841177,-2.6417542,-3.9145753,0.60322267,0.5883545,147.0
24648,-1.5927272,-2.841177,-2.6417542,-3.99104,0.3706421,0.7625244,147.0
24649,-1.7906613,-3.2778244,-2.741623,-3.99104,0.3706421,0.7625244,147.0
24650,-1.7906613,-3.2778244,-2.741623,-3.7489014,-0.0637207,0.7051758,147.0
24651,-1.5706882,-3.6222105,-2.5660706,-3.7489014,-0.0637207,0.7051758,147.0
24652,-1.5706882,-3.6222105,-2.5660706,-3.706421,-0.2824951,0.8687256,147.0
24653,-1.3070877,-3.7927275,-1.9661102,-3.706421,-0.2824951,0.8687256,147.0
24654,-1.3070877,-3.7927275,-1.9661102,-3.0893922,-0.55968016,0.8442993,147.0
24655,-1.2517004,-3.5550318,-0.9906311,-3.0893922,-0.55968016,0.8442993,147.0
24656,-1.2517004,-3.5550318,-0.9906311,-2.4182007,-0.96430665,0.8464233,147.0
24657,-1.0748711,-2.6114206,-0.2832489,-2.4182007,-0.96430665,0.8464233,147.0
24658,-1.0748711,-2.6114206,-0.2832489,-2.5031617,-1.1809571,0.8708496,147.0
24659,-0.9137299,-1.8274422,-0.3995514,-2.5031617,-1.1809571,0.8708496,147.0
24660,-0.9137299,-1.8274422,-0.3995514,-2.6582153,-1.264856,0.9494385,147.0
24661,-0.7138331,-1.7485743,-0.43544006,-2.6582153,-1.264856,0.9494385,147.0
24662,-0.7138331,-1.7485743,-0.43544006,-2.163318,-1.8202881,1.1406006,147.0
24663,-0.74739707,-1.6424994,-0.51097107,-2.163318,-1.8202881,1.1406006,147.0
24664,-0.74739707,-1.6424994,-0.51097107,-1.7098389,-1.9827759,1.0598878,147.0
24665,0.03660381,-1.599205,0.6018524,-1.7098389,-1.9827759,1.0598878,147.0
24666,0.03660381,-1.599205,0.6018524,-0.4428589,-2.0687988,1.1374146,147.0
24667,0.15091395,-1.2991028,0.85050964,-0.4428589,-2.0687988,1.1374146,147.0
24668,0.15091395,-1.2991028,0.85050964,-0.060534667,-2.0571167,1.2574219,147.0
24669,0.7174597,-0.55874014,1.3636627,-0.060534667,-2.0571167,1.2574219,147.0
24670,0.7174597,-0.55874014,1.3636627,0.725354,-1.9264892,1.0641358,147.0
24671,0.46386027,-0.06343508,1.1193695,0.725354,-1.9264892,1.0641358,147.0
24672,0.46386027,-0.06343508,1.1193695,0.8506714,-1.803296,0.998291,147.0
24673,0.40016556,1.3575401,0.2626953,0.8506714,-1.803296,0.998291,147.0
24674,0.40016556,1.3575401,0.2626953,0.9600586,-1.5579712,0.83898926,147.0
24675,0.22658992,1.2771091,0.017044067,0.9600586,-1.5579712,0.83898926,147.0
24676,0.22658992,1.2771091,0.017044067,1.0046631,-1.3838013,0.72641605,147.0
24677,0.438694,0.6346512,-0.57740784,1.0046631,-1.3838013,0.72641605,147.0
24678,0.438694,0.6346512,-0.57740784,1.6641724,-1.1023682,0.6265869,147.0
24679,0.29761052,0.20358276,-0.41912842,1.6641724,-1.1023682,0.6265869,147.0
24680,0.29761052,0.20358276,-0.41912842,1.9859619,-1.1044922,0.5649902,147.0
24681,0.34323978,0.5949707,-0.7978668,1.9859619,-1.1044922,0.5649902,147.0
24682,0.34323978,0.5949707,-0.7978668,2.167566,-1.0312134,0.18372802,147.0
24683,0.36113977,0.79664326,-0.4186554,2.167566,-1.0312134,0.18372802,147.0
24684,0.36113977,0.79664326,-0.4186554,2.0072021,-0.98236084,0.07965088,147.0
24685,0.8196857,0.92751217,0.028167725,2.0072021,-0.98236084,0.07965088,147.0
24686,0.8196857,0.92751217,0.028167725,1.4677002,-0.8793457,-0.015930176,147.0
24687,1.4920158,0.15804958,0.15257263,1.4677002,-0.8793457,-0.015930176,147.0
24688,1.4920158,0.15804958,0.15257263,1.2106934,-0.7965088,-0.0637207,147.0
24689,2.3903532,-0.7258549,0.08753967,1.2106934,-0.7965088,-0.0637207,147.0
24690,2.3903532,-0.7258549,0.08753967,1.0099732,-0.6988037,0.0,147.0
24691,2.2387233,-0.5643997,0.18104553,1.0099732,-0.6988037,0.0,147.0
24692,2.2387233,-0.5643997,0.18104553,0.6796875,-0.5809204,0.032922365,147.0
24693,2.425488,-0.32123375,-0.071640015,0.6796875,-0.5809204,0.032922365,147.0
24694,2.425488,-0.32123375,-0.071640015,0.14761963,-0.33134767,0.21558838,147.0
24695,2.3196383,-0.6502242,-0.5706024,0.14761963,-0.33134767,0.21558838,147.0
24696,2.3196383,-0.6502242,-0.5706024,0.13275146,-0.35577393,0.47471926,147.0
24697,1.8488016,-0.9662242,-0.5835266,0.13275146,-0.35577393,0.47471926,147.0
24698,1.8488016,-0.9662242,-0.5835266,0.31966552,-0.41737062,0.5851685,147.0
24699,1.1780891,-0.7423887,-0.008636475,0.31966552,-0.41737062,0.5851685,147.0
24700,1.1780891,-0.7423887,-0.008636475,0.21452637,-0.28674316,0.7975708,147.0
24701,0.32741976,-0.4804101,0.65193176,0.21452637,-0.28674316,0.7975708,147.0
24702,0.32741976,-0.4804101,0.65193176,0.38975832,-0.27718505,1.0683838,147.0
24703,-0.68431664,-0.17494106,1.0188751,0.38975832,-0.27718505,1.0683838,147.0
24704,-0.68431664,-0.17494106,1.0188751,0.52675784,-0.3090454,1.0567017,147.0
24705,-1.5740647,0.31748152,1.0510101,0.52675784,-0.3090454,1.0567017,147.0
24706,-1.5740647,0.31748152,1.0510101,0.38763428,-0.270813,1.0630738,147.0
24707,-2.1391835,0.6190243,0.8519745,0.38763428,-0.270813,1.0630738,147.0
24708,-2.1391835,0.6190243,0.8519745,0.34940186,-0.26550293,0.9632446,147.0
24709,-2.3040838,0.4887619,0.64630127,0.34940186,-0.26550293,0.9632446,147.0
24710,-2.3040838,0.4887619,0.64630127,0.27506104,-0.2527588,0.93138427,147.0
24711,-2.050921,0.011724949,0.544693,0.27506104,-0.2527588,0.93138427,147.0
24712,-2.050921,0.011724949,0.544693,0.11363526,-0.18479005,0.817749,147.0
24713,-1.8021994,-0.4553175,0.026641846,0.11363526,-0.18479005,0.817749,147.0
24714,-1.8021994,-0.4553175,0.026641846,0.0722168,-0.3706421,0.7890747,147.0
24715,-1.9105217,-0.47964668,-1.7114716,0.0722168,-0.3706421,0.7890747,147.0
24716,-1.9105217,-0.47964668,-1.7114716,0.0021240234,-0.903772,0.6085327,147.0
24717,-1.6067865,0.37779427,-3.2329407,0.0021240234,-0.903772,0.6085327,147.0
24718,-1.6067865,0.37779427,-3.2329407,0.19116211,-1.269104,0.0998291,147.0
24719,-0.11415243,0.79222584,-1.6564331,0.19116211,-1.269104,0.0998291,147.0
24720,-0.11415243,0.79222584,-1.6564331,-1.0397094,-0.7763306,0.77102053,147.0
24721,-0.11415243,0.79222584,-1.6564331,-1.0397094,-0.7763306,0.77102053,0.0
24722,1.6776114,-0.75777197,2.2841492,-1.0397094,-0.7763306,0.77102053,0.0
24723,1.6776114,-0.75777197,2.2841492,0.55755615,-0.32709962,0.817749,0.0
24724,1.7568474,-2.0553265,4.438217,0.55755615,-0.32709962,0.817749,0.0
24725,1.7568474,-2.0553265,4.438217,1.449646,-0.4609131,1.2287476,0.0
24726,0.33318806,-1.0210681,2.4797668,1.449646,-0.4609131,1.2287476,0.0
24727,0.33318806,-1.0210681,2.4797668,1.9148072,-0.8527954,1.2712281,0.0
24728,-1.2249045,1.0842934,-0.6893158,1.9148072,-0.8527954,1.2712281,0.0
24729,-1.2249045,1.0842934,-0.6893158,2.897168,-1.2521118,1.3147706,0.0
24730,-2.000932,2.3193998,-1.2017517,2.897168,-1.2521118,1.3147706,0.0
24731,-2.000932,2.3193998,-1.2017517,2.4840455,-1.1289185,0.98448485,0.0
24732,-1.7836924,1.8672752,0.59358215,2.4840455,-1.1289185,0.98448485,0.0
24733,-1.7836924,1.8672752,0.59358215,2.3364258,-1.0174073,0.84111327,0.0
24734,-1.0590339,0.7217989,2.1152496,2.3364258,-1.0174073,0.84111327,0.0
24735,-1.0590339,0.7217989,2.1152496,2.2440307,-1.0333375,0.6881836,0.0
24736,-0.24072075,0.48321342,2.2755737,2.2440307,-1.0333375,0.6881836,0.0
24737,-0.24072075,0.48321342,2.2755737,2.2833252,-1.0036011,0.55543214,0.0
24738,0.8096452,1.3157701,2.578186,2.2833252,-1.0036011,0.55543214,0.0
24739,0.8096452,1.3157701,2.578186,2.0082643,-0.50445557,0.43117675,0.0
24740,2.2511463,1.952445,3.4466248,2.0082643,-0.50445557,0.43117675,0.0
24741,2.2511463,1.952445,3.4466248,-0.083898924,0.2538208,0.45878908,0.0
24742,2.543532,2.4657278,2.4294891,-0.083898924,0.2538208,0.45878908,0.0
24743,2.543532,2.4657278,2.4294891,-0.44604492,0.4067505,0.029736329,0.0
24744,1.1652331,2.6888914,0.15771484,-0.44604492,0.4067505,0.029736329,0.0
24745,1.1652331,2.6888914,0.15771484,-0.40144044,0.36745605,-0.18479005,0.0
24746,0.07503319,1.9143696,-0.8946533,-0.40144044,0.36745605,-0.18479005,0.0
24747,0.07503319,1.9143696,-0.8946533,-0.5607422,0.3695801,-0.3451538,0.0
24748,-0.16763449,0.6017723,-0.79878235,-0.5607422,0.3695801,-0.3451538,0.0
24749,-0.16763449,0.6017723,-0.79878235,-0.544812,0.38763428,-0.3090454,0.0
24750,-0.08549929,-0.69667053,-0.09107971,-0.544812,0.38763428,-0.3090454,0.0
24751,-0.08549929,-0.69667053,-0.09107971,-0.51188964,0.4704712,-0.22089843,0.0
24752,0.08632469,-0.71220684,0.29510498,-0.51188964,0.4704712,-0.22089843,0.0
24753,0.08632469,-0.71220684,0.29510498,-0.7986328,0.57242435,-0.32922363,0.0
24754,0.2981615,0.3894024,-0.4260559,-0.7986328,0.57242435,-0.32922363,0.0
24755,0.2981615,0.3894024,-0.4260559,-1.1692749,0.72854006,-0.3079834,0.0
24756,0.12334347,0.80984974,-1.6913605,-1.1692749,0.72854006,-0.3079834,0.0
24757,0.12334347,0.80984974,-1.6913605,-1.2202514,0.74659425,-0.14230958,0.0
24758,-0.47537327,0.1442051,-1.9162445,-1.2202514,0.74659425,-0.14230958,0.0
24759,-0.47537327,0.1442051,-1.9162445,-1.2202514,0.817749,-0.115759276,0.0
24760,-0.7597909,-0.6819868,-1.0656738,-1.2202514,0.817749,-0.115759276,0.0
24761,-0.7597909,-0.6819868,-1.0656738,-1.4900025,0.9388184,-0.08602295,0.0
24762,-0.5715289,-0.9550381,-0.51960754,-1.4900025,0.9388184,-0.08602295,0.0
24763,-0.5715289,-0.9550381,-0.51960754,-2.0114503,1.0991821,-0.22089843,0.0
24764,-0.4766569,-1.0442553,-0.88438416,-2.0114503,1.0991821,-0.22089843,0.0
24765,-0.4766569,-1.0442553,-0.88438416,-2.619983,1.3009644,-0.31329346,0.0
24766,-0.66245365,-1.6282024,-1.3808746,-2.619983,1.3009644,-0.31329346,0.0
24767,-0.66245365,-1.6282024,-1.3808746,-2.633789,1.358313,-0.20390625,0.0
24768,-0.9245796,-1.760973,-1.2599335,-2.633789,1.358313,-0.20390625,0.0
24769,-0.9245796,-1.760973,-1.2599335,-2.1070313,1.3115845,-0.10938721,0.0
24770,-1.0133696,-0.84189606,-1.3855743,-2.1070313,1.3115845,-0.10938721,0.0
24771,-1.0133696,-0.84189606,-1.3855743,-2.3385499,1.2499878,-0.31966552,0.0
24772,-1.0035667,-0.37443256,-2.2026825,-2.3385499,1.2499878,-0.31966552,0.0
24773,-1.0035667,-0.37443256,-2.2026825,-2.366162,1.2276856,-0.3058594,0.0
24774,-1.1507783,-1.1209211,-2.7381592,-2.366162,1.2276856,-0.3058594,0.0
24775,-1.1507783,-1.1209211,-2.7381592,-1.9636596,1.0195312,-0.20284425,0.0
24776,-1.2497976,-1.8853111,-2.47258,-1.9636596,1.0195312,-0.20284425,0.0
24777,-1.2497976,-1.8853111,-2.47258,-1.622754,0.78164065,-0.1539917,0.0
24778,-1.0403043,-1.7160492,-1.4649963,-1.622754,0.78164065,-0.1539917,0.0
24779,-1.0403043,-1.7160492,-1.4649963,-1.260608,0.7742066,-0.11469727,0.0
24780,-0.9606004,-1.1801877,-0.57240295,-1.260608,0.7742066,-0.11469727,0.0
24781,-0.9606004,-1.1801877,-0.57240295,-1.2468017,0.6680054,-0.27399904,0.0
24782,-1.5124867,-1.283701,-1.3848572,-1.2468017,0.6680054,-0.27399904,0.0
24783,-1.5124867,-1.283701,-1.3848572,-0.99298096,0.11151123,-0.22302246,0.0
24784,-2.1714153,-1.88907,-2.7305603,-0.99298096,0.11151123,-0.22302246,0.0
24785,-2.1714153,-1.88907,-2.7305603,0.115759276,-0.029736329,0.043542482,0.0
24786,-1.825682,-1.7931404,-1.958664,0.115759276,-0.029736329,0.043542482,0.0
24787,-1.825682,-1.7931404,-1.958664,0.98873293,-0.3430298,-0.033984374,0.0
24788,-0.5645007,-0.6501374,0.2783966,0.98873293,-0.3430298,-0.033984374,0.0
24789,-0.5645007,-0.6501374,0.2783966,0.8421753,-0.29311523,-0.15717773,0.0
24790,0.4599107,0.2551341,1.7356873,0.8421753,-0.29311523,-0.15717773,0.0
24791,0.4599107,0.2551341,1.7356873,0.48640138,-0.23045655,-0.26868898,0.0
24792,0.77032113,0.07150221,1.7016449,0.48640138,-0.23045655,-0.26868898,0.0
24793,0.77032113,0.07150221,1.7016449,0.26019287,-0.14974366,-0.27293703,0.0
24794,0.62987995,-0.500391,0.81559753,0.26019287,-0.14974366,-0.27293703,0.0
24795,0.62987995,-0.500391,0.81559753,0.31010744,-0.14549561,-0.24532472,0.0
24796,0.39054948,-0.46686554,-0.046188354,0.31010744,-0.14549561,-0.24532472,0.0
24797,0.39054948,-0.46686554,-0.046188354,0.36745605,-0.14974366,-0.33878174,0.0
24798,0.3016119,0.042938232,-0.3802948,0.36745605,-0.14974366,-0.33878174,0.0
24799,0.3016119,0.042938232,-0.3802948,0.2177124,-0.13275146,-0.36002198,0.0
24800,0.312896,0.44873047,-0.10461426,0.2177124,-0.13275146,-0.36002198,0.0
24801,0.312896,0.44873047,-0.10461426,0.2984253,-0.1529297,-0.4088745,0.0
24802,0.23172551,0.61712646,0.32164,0.2984253,-0.1529297,-0.4088745,0.0
24803,0.23172551,0.61712646,0.32164,0.12531738,-0.19753419,-0.4970215,0.0
24804,0.12388134,0.39320087,0.49916077,0.12531738,-0.19753419,-0.4970215,0.0
24805,0.12388134,0.39320087,0.49916077,-0.1709839,-0.2081543,-0.50870365,0.0
24806,-0.030753314,-0.11085415,0.65415955,-0.1709839,-0.2081543,-0.50870365,0.0
24807,-0.030753314,-0.11085415,0.65415955,-0.07965088,-0.29948732,-0.27612305,0.0
24808,-0.35597473,-0.22791672,1.1276093,-0.07965088,-0.29948732,-0.27612305,0.0
24809,-0.35597473,-0.22791672,1.1276093,0.27718505,-0.3982544,-0.2177124,0.0
24810,-0.52658886,0.15986633,1.461731,0.27718505,-0.3982544,-0.2177124,0.0
24811,-0.52658886,0.15986633,1.461731,0.39400634,-0.48215333,-0.20284425,0.0
24812,-0.11727941,0.55578613,1.1027222,0.39400634,-0.48215333,-0.20284425,0.0
24813,-0.11727941,0.55578613,1.1027222,0.25594482,-0.56392825,-0.16354981,0.0
24814,0.62050754,0.7924442,0.326828,0.25594482,-0.56392825,-0.16354981,0.0
24815,0.62050754,0.7924442,0.326828,0.033984374,-0.630835,-0.10620117,0.0
24816,1.1417308,0.9655471,-0.36169434,0.033984374,-0.630835,-0.10620117,0.0
24817,1.1417308,0.9655471,-0.36169434,-0.13699952,-0.6754395,-0.039294433,0.0
24818,1.2141292,1.2121716,-0.6265869,-0.13699952,-0.6754395,-0.039294433,0.0
24819,1.2141292,1.2121716,-0.6265869,-0.19753419,-0.70198977,-0.007434082,0.0
24820,1.0627584,1.3826647,-0.4984131,-0.19753419,-0.70198977,-0.007434082,0.0
24821,1.0627584,1.3826647,-0.4984131,-0.6180908,-0.5522461,0.04248047,0.0
24822,0.8176384,1.0737343,-0.30622864,-0.6180908,-0.5522461,0.04248047,0.0
24823,0.8176384,1.0737343,-0.30622864,-0.813501,-0.37701416,0.07965088,0.0
24824,0.5138886,0.26539612,-0.31695557,-0.813501,-0.37701416,0.07965088,0.0
24825,0.5138886,0.26539612,-0.31695557,-1.0205933,-0.13381349,0.29630128,0.0
24826,0.28629398,-0.61834717,-0.6559906,-1.0205933,-0.13381349,0.29630128,0.0
24827,0.28629398,-0.61834717,-0.6559906,-1.0067872,-0.026550293,0.4800293,0.0
24828,0.100666046,-0.9800172,-1.186966,-1.0067872,-0.026550293,0.4800293,0.0
24829,0.100666046,-0.9800172,-1.186966,-0.81881106,0.118945315,0.58410645,0.0
24830,-0.07355642,-0.7515187,-1.5564575,-0.81881106,0.118945315,0.58410645,0.0
24831,-0.07355642,-0.7515187,-1.5564575,-0.6860596,0.26444092,0.6616333,0.0
24832,-0.27658188,-0.405756,-1.6518097,-0.6860596,0.26444092,0.6616333,0.0
24833,-0.27658188,-0.405756,-1.6518097,-0.61915284,0.38444826,0.7072998,0.0
24834,-0.48444903,-0.2067461,-1.5217133,-0.61915284,0.38444826,0.7072998,0.0
24835,-0.48444903,-0.2067461,-1.5217133,-0.59260255,0.4715332,0.65632325,0.0
24836,-0.63575256,-0.16039181,-1.24469,-0.59260255,0.4715332,0.65632325,0.0
24837,-0.63575256,-0.16039181,-1.24469,-0.5883545,0.46516114,0.6425171,0.0
24838,-0.7007041,-0.28283024,-1.0332489,-0.5883545,0.46516114,0.6425171,0.0
24839,-0.7007041,-0.28283024,-1.0332489,-0.8336792,0.41949463,0.6711914,0.0
24840,-0.73105896,-0.5149603,-0.8424835,-0.8336792,0.41949463,0.6711914,0.0
24841,-0.73105896,-0.5149603,-0.8424835,-0.94625247,0.3536499,0.65207523,0.0
24842,-0.876876,-0.7934017,-0.49638367,-0.94625247,0.3536499,0.65207523,0.0
24843,-0.876876,-0.7934017,-0.49638367,-0.7497803,0.40037844,0.6956177,0.0
24844,-1.1687616,-0.76331043,-0.19812012,-0.7497803,0.40037844,0.6956177,0.0
24845,-1.1687616,-0.76331043,-0.19812012,-0.28568116,0.24532472,0.6488892,0.0
24846,-1.4419308,-0.34242296,-0.25564575,-0.28568116,0.24532472,0.6488892,0.0
24847,-1.4419308,-0.34242296,-0.25564575,-0.27718505,0.016992187,0.7943848,0.0
24848,-1.4580245,0.17736769,-0.32286072,-0.27718505,0.016992187,0.7943848,0.0
24849,-1.4580245,0.17736769,-0.32286072,-0.7189819,-0.19116211,0.82836914,0.0
24850,-1.1548352,0.5761957,0.053649902,-0.7189819,-0.19116211,0.82836914,0.0
24851,-1.1548352,0.5761957,0.053649902,-1.1915772,-0.26125488,0.9653687,0.0
24852,-0.8545078,0.44325638,0.5826721,-1.1915772,-0.26125488,0.9653687,0.0
24853,-0.8545078,0.44325638,0.5826721,-1.4209718,-0.24744873,1.1257324,0.0
24854,-0.8824588,-0.118270874,0.7405853,-1.4209718,-0.24744873,1.1257324,0.0
24855,-0.8824588,-0.118270874,0.7405853,-0.8814697,-0.31223145,1.2425537,0.0
24856,-0.9694803,-0.3640871,0.4950714,-0.8814697,-0.31223145,1.2425537,0.0
24857,-0.9694803,-0.3640871,0.4950714,0.24638672,-0.3419678,1.2468017,0.0
24858,-0.83559406,0.31837368,-0.10140991,0.24638672,-0.3419678,1.2468017,0.0
24859,-0.83559406,0.31837368,-0.10140991,0.64995116,-0.43967286,1.178833,0.0
24860,-0.6172179,1.282568,-0.785614,0.64995116,-0.43967286,1.178833,0.0
24861,-0.6172179,1.282568,-0.785614,0.060534667,-0.50020754,1.0343994,0.0
24862,-0.6172179,1.282568,-0.785614,0.060534667,-0.50020754,1.0343994,0.0
24863,-0.4855224,1.4596848,-0.90644836,0.060534667,-0.50020754,1.0343994,0.0
24864,-0.4855224,1.4596848,-0.90644836,-0.68074954,-0.5979126,0.7147339,0.0
24865,-0.29519272,1.0398793,-0.5160675,-0.68074954,-0.5979126,0.7147339,0.0
24866,-0.29519272,1.0398793,-0.5160675,-1.0790039,-0.67437744,0.41099855,0.0
24867,0.12975168,0.4852724,-0.19425964,-1.0790039,-0.67437744,0.41099855,0.0
24868,0.12975168,0.4852724,-0.19425964,-1.5855836,-0.544812,0.18479005,0.0
24869,0.22195315,-0.08630657,-0.002670288,-1.5855836,-0.544812,0.18479005,0.0
24870,0.22195315,-0.08630657,-0.002670288,-1.3699951,-0.35471192,0.118945315,0.0
24871,-0.4544077,-0.18150902,-0.11367798,-1.3699951,-0.35471192,0.118945315,0.0
24872,-0.4544077,-0.18150902,-0.11367798,-1.1979493,-0.3175415,-0.11363526,0.0
24873,-1.2487068,-0.24651337,-0.687912,-1.1979493,-0.3175415,-0.11363526,0.0
24874,-1.2487068,-0.24651337,-0.687912,-1.1629028,-0.058410645,-0.10301514,0.0
24875,-1.7249541,-1.1505432,-0.8642273,-1.1629028,-0.058410645,-0.10301514,0.0
24876,-1.7249541,-1.1505432,-0.8642273,-0.57561034,0.16567384,-0.011682129,0.0
24877,-1.9995677,-1.9578738,-0.450531,-0.57561034,0.16567384,-0.011682129,0.0
24878,-1.9995677,-1.9578738,-0.450531,-0.20072022,0.24532472,0.038232423,0.0
24879,-2.0134358,-1.8457422,-0.21829224,-0.20072022,0.24532472,0.038232423,0.0
24880,-2.0134358,-1.8457422,-0.21829224,-0.40037844,0.3706421,0.1263794,0.0
24881,-1.875751,-1.3974438,-0.4446106,-0.40037844,0.3706421,0.1263794,0.0
24882,-1.875751,-1.3974438,-0.4446106,-0.5734863,0.52038574,0.30373535,0.0
24883,-1.7486234,-1.227159,-0.7319031,-0.5734863,0.52038574,0.30373535,0.0
24884,-1.7486234,-1.227159,-0.7319031,-0.44073486,0.4056885,0.41949463,0.0
24885,-1.1792698,-1.8720593,-0.93130493,-0.44073486,0.4056885,0.41949463,0.0
24886,-1.1792698,-1.8720593,-0.93130493,0.99722904,0.16992188,0.53100586,0.0
24887,-0.58285666,-3.7457433,-1.3844604,0.99722904,0.16992188,0.53100586,0.0
24888,-0.58285666,-3.7457433,-1.3844604,2.7346802,-0.21558838,1.6981567,0.0
24889,-0.9672861,-4.165906,-1.5843964,2.7346802,-0.21558838,1.6981567,0.0
24890,-0.9672861,-4.165906,-1.5843964,3.2062135,-1.0959961,2.0125122,0.0
24891,-1.0558481,-1.04564,-0.85128784,3.2062135,-1.0959961,2.0125122,0.0
24892,-1.0558481,-1.04564,-0.85128784,1.7268311,-1.0492676,1.7756836,0.0
24893,-0.2698617,2.1961174,0.15852356,1.7268311,-1.0492676,1.7756836,0.0
24894,-0.2698617,2.1961174,0.15852356,0.49383545,-0.6446411,1.99552,0.0
24895,-0.011751175,2.3631563,0.84095764,0.49383545,-0.6446411,1.99552,0.0
24896,-0.011751175,2.3631563,0.84095764,1.6694825,-0.51932377,2.1282716,0.0
24897,-0.40348053,1.4889259,1.9951172,1.6694825,-0.51932377,2.1282716,0.0
24898,-0.40348053,1.4889259,1.9951172,2.8398194,-0.72004396,2.1346436,0.0
24899,-0.60491323,2.310245,3.716568,2.8398194,-0.72004396,2.1346436,0.0
24900,-0.60491323,2.310245,3.716568,2.444751,-0.2548828,2.0199463,0.0
24901,-0.6320019,3.7712793,4.1061554,2.444751,-0.2548828,2.0199463,0.0
24902,-0.6320019,3.7712793,4.1061554,1.8436524,-0.070092775,1.6843506,0.0
24903,-0.46834564,4.0034857,2.0448456,1.8436524,-0.070092775,1.6843506,0.0
24904,-0.46834564,4.0034857,2.0448456,2.0178223,-0.47684327,1.3742431,0.0
24905,0.10634136,3.2771902,-0.44577026,2.0178223,-0.47684327,1.3742431,0.0
24906,0.10634136,3.2771902,-0.44577026,1.9647217,-0.7763306,1.3455689,0.0
24907,0.67784643,2.2140617,-1.4687805,1.9647217,-0.7763306,1.3455689,0.0
24908,0.67784643,2.2140617,-1.4687805,1.3083985,-1.0694458,1.1862671,0.0
24909,1.1389809,1.133688,-0.9158325,1.3083985,-1.0694458,1.1862671,0.0
24910,1.1389809,1.133688,-0.9158325,0.72323,-1.1873292,1.2765381,0.0
24911,1.3420196,0.6576948,0.7671509,0.72323,-1.1873292,1.2765381,0.0
24912,1.3420196,0.6576948,0.7671509,0.04460449,-0.9505005,1.1469727,0.0
24913,0.75332785,0.9499111,2.4800415,0.04460449,-0.9505005,1.1469727,0.0
24914,0.75332785,0.9499111,2.4800415,-0.047790527,-0.61702883,0.8857178,0.0
24915,-0.49113655,1.5818157,3.1313782,-0.047790527,-0.61702883,0.8857178,0.0
24916,-0.49113655,1.5818157,3.1313782,-1.0747559,-0.07327881,0.4885254,0.0
24917,-1.3243179,2.1182728,2.8861237,-1.0747559,-0.07327881,0.4885254,0.0
24918,-1.3243179,2.1182728,2.8861237,-2.6900756,0.58623046,0.14655761,0.0
24919,-0.9878602,2.4842548,2.5520782,-2.6900756,0.58623046,0.14655761,0.0
24920,-0.9878602,2.4842548,2.5520782,-4.439209,1.3710572,-0.107263185,0.0
24921,-0.38197517,2.142128,1.2756195,-4.439209,1.3710572,-0.107263185,0.0
24922,-0.38197517,2.142128,1.2756195,-4.715332,1.4379638,-0.13806152,0.0
24923,-0.6101818,0.8977356,-1.5736237,-4.715332,1.4379638,-0.13806152,0.0
24924,-0.6101818,0.8977356,-1.5736237,-3.5471191,0.94412845,0.115759276,0.0
24925,-1.2993879,-0.74952316,-3.749298,-3.5471191,0.94412845,0.115759276,0.0
24926,-1.2993879,-0.74952316,-3.749298,-1.7778076,0.3462158,0.45135498,0.0
24927,-1.6323452,-2.1119108,-3.4889526,-1.7778076,0.3462158,0.45135498,0.0
24928,-1.6323452,-2.1119108,-3.4889526,-0.3440918,-0.24957275,0.41312256,0.0
24929,-1.5428143,-2.4972677,-1.9394684,-0.3440918,-0.24957275,0.41312256,0.0
24930,-1.5428143,-2.4972677,-1.9394684,0.5161377,-0.6488892,0.41524658,0.0
24931,-1.3307724,-2.0766106,-0.7255249,0.5161377,-0.6488892,0.41524658,0.0
24932,-1.3307724,-2.0766106,-0.7255249,1.0205933,-0.88359374,0.4056885,0.0
24933,-1.1828432,-1.1215668,-0.4328003,1.0205933,-0.88359374,0.4056885,0.0
24934,-1.1828432,-1.1215668,-0.4328003,1.0280274,-1.1937011,0.43754885,0.0
24935,-0.835093,-0.038757324,-0.62654114,1.0280274,-1.1937011,0.43754885,0.0
24936,-0.835093,-0.038757324,-0.62654114,0.7317261,-1.2404298,0.49383545,0.0
24937,-0.08882666,0.39012432,-0.8494415,0.7317261,-1.2404298,0.49383545,0.0
24938,-0.08882666,0.39012432,-0.8494415,0.56392825,-1.179895,0.56392825,0.0
24939,0.8827591,1.2517605,-0.8686981,0.56392825,-1.179895,0.56392825,0.0
24940,0.8827591,1.2517605,-0.8686981,-0.74447024,-1.2181275,0.0053100586,0.0
24941,1.84975,2.0901775,0.31036377,-0.74447024,-1.2181275,0.0053100586,0.0
24942,1.84975,2.0901775,0.31036377,-0.9483765,-0.42055663,-0.11682129,0.0
24943,1.8171291,1.1837139,1.8273468,-0.9483765,-0.42055663,-0.11682129,0.0
24944,1.8171291,1.1837139,1.8273468,0.80181885,-0.37701416,-0.20921631,0.0
24945,1.0406909,-0.16219616,1.9221344,0.80181885,-0.37701416,-0.20921631,0.0
24946,1.0406909,-0.16219616,1.9221344,1.1363525,-0.22196046,-0.33878174,0.0
24947,0.5994353,-0.8310995,1.660492,1.1363525,-0.22196046,-0.33878174,0.0
24948,0.5994353,-0.8310995,1.660492,1.5431031,-0.013806152,-0.32072756,0.0
24949,0.2933545,-0.29521465,1.5888977,1.5431031,-0.013806152,-0.32072756,0.0
24950,0.2933545,-0.29521465,1.5888977,1.8181641,-0.3419678,-0.43117675,0.0
24951,0.26300383,0.9796972,1.3090363,1.8181641,-0.3419678,-0.43117675,0.0
24952,0.26300383,0.9796972,1.3090363,1.2043213,-0.14761963,-0.5097656,0.0
24953,0.64855003,1.2305956,1.1030273,1.2043213,-0.14761963,-0.5097656,0.0
24954,0.64855003,1.2305956,1.1030273,1.0630738,-0.043542482,-0.6223389,0.0
24955,0.89963865,0.42556572,0.8033905,1.0630738,-0.043542482,-0.6223389,0.0
24956,0.89963865,0.42556572,0.8033905,1.2138795,-0.08496094,-0.6425171,0.0
24957,0.9026823,-0.23311901,0.25282288,1.2138795,-0.08496094,-0.6425171,0.0
24958,0.9026823,-0.23311901,0.25282288,1.2977784,-0.19753419,-0.52888185,0.0
24959,0.97339106,0.019462585,-0.17567444,1.2977784,-0.19753419,-0.52888185,0.0
24960,0.97339106,0.019462585,-0.17567444,0.4980835,-0.1444336,-0.45878908,0.0
24961,1.1651754,0.74633217,-0.23277283,0.4980835,-0.1444336,-0.45878908,0.0
24962,1.1651754,0.74633217,-0.23277283,-0.452417,-0.16142578,-0.56392825,0.0
24963,1.1651754,0.74633217,-0.23277283,-0.452417,-0.16142578,-0.56392825,0.0
24964,1.2847648,1.1826372,-0.23887634,-0.452417,-0.16142578,-0.56392825,0.0
24965,1.2847648,1.1826372,-0.23887634,-0.9451904,-0.19434814,-0.7657105,0.0
24966,1.3258343,1.3645906,-0.39598083,-0.9451904,-0.19434814,-0.7657105,0.0
24967,1.3258343,1.3645906,-0.39598083,-1.270166,-0.22514649,-1.0460815,0.0
24968,1.3335068,1.4144993,-0.5720215,-1.270166,-0.22514649,-1.0460815,0.0
24969,1.3335068,1.4144993,-0.5720215,-1.5197388,-0.24744873,-1.3795532,0.0
24970,1.2567225,1.1633015,-0.52645874,-1.5197388,-0.24744873,-1.3795532,0.0
24971,1.2567225,1.1633015,-0.52645874,-1.6641724,-0.32178956,-1.7374512,0.0
24972,1.1300483,0.6242075,-0.2567749,-1.6641724,-0.32178956,-1.7374512,0.0
24973,1.1300483,0.6242075,-0.2567749,-1.8946289,-0.3982544,-2.1484497,0.0
24974,0.99656796,-0.0077142715,-0.12060547,-1.8946289,-0.3982544,-2.1484497,0.0
24975,0.99656796,-0.0077142715,-0.12060547,-2.0252564,-0.43861085,-2.532898,0.0
24976,0.7635875,-0.47986603,-0.40290833,-2.0252564,-0.43861085,-2.532898,0.0
24977,0.7635875,-0.47986603,-0.40290833,-2.3024414,-0.53737795,-2.8599975,0.0
24978,0.47262526,-0.63253784,-1.1594849,-2.3024414,-0.53737795,-2.8599975,0.0
24979,0.47262526,-0.63253784,-1.1594849,-2.9577026,-0.6605713,-3.169043,0.0
24980,0.42358375,-0.52978516,-2.283371,-2.9577026,-0.6605713,-3.169043,0.0
24981,0.42358375,-0.52978516,-2.283371,-3.706421,-0.8315552,-3.6490724,0.0
24982,0.8091185,-0.14449406,-3.6222992,-3.706421,-0.8315552,-3.6490724,0.0
24983,0.8091185,-0.14449406,-3.6222992,-4.523108,-1.0641358,-4.2947755,0.0
24984,1.7616259,0.38386726,-4.82605,-4.523108,-1.0641358,-4.2947755,0.0
24985,1.7616259,0.38386726,-4.82605,-5.182617,-1.1427246,-5.06261,0.0
24986,3.3015494,0.4684105,-5.516678,-5.182617,-1.1427246,-5.06261,0.0
24987,3.3015494,0.4684105,-5.516678,-5.5670657,-1.2521118,-5.673267,0.0
24988,5.152421,-0.15642357,-5.653839,-5.5670657,-1.2521118,-5.673267,0.0
24989,5.152421,-0.15642357,-5.653839,-5.673267,-1.3391968,-6.1331177,0.0
24990,7.0566416,-1.1139088,-5.369858,-5.673267,-1.3391968,-6.1331177,0.0
24991,7.0566416,-1.1139088,-5.369858,-5.854871,-1.3168945,-6.5802245,0.0
24992,9.086634,-2.0755014,-4.824234,-5.854871,-1.3168945,-6.5802245,0.0
24993,9.086634,-2.0755014,-4.824234,-6.2934813,-1.0959961,-6.788379,0.0
24994,11.144344,-3.1431284,-4.176651,-6.2934813,-1.0959961,-6.788379,0.0
24995,11.144344,-3.1431284,-4.176651,-6.6651855,-0.37701416,-6.85741,0.0
24996,11.824314,-4.3135386,-3.5507355,-6.6651855,-0.37701416,-6.85741,0.0
24997,11.824314,-4.3135386,-3.5507355,-6.084265,0.5331299,-6.3147216,0.0
24998,9.340934,-4.750037,-3.0539703,-6.084265,0.5331299,-6.3147216,0.0
24999,9.340934,-4.750037,-3.0539703,-5.080664,1.0046631,-5.1242065,0.0
25000,4.1911306,-3.9028497,-2.5343323,-5.080664,1.0046631,-5.1242065,0.0
25001,4.1911306,-3.9028497,-2.5343323,-4.067505,0.97067875,-3.725537,0.0
25002,-0.45877838,-1.3109517,-1.6704865,-4.067505,0.97067875,-3.725537,0.0
25003,-0.45877838,-1.3109517,-1.6704865,-3.0320435,0.7508423,-2.3937745,0.0
25004,-1.2945862,3.1859312,-0.84840393,-3.0320435,0.7508423,-2.3937745,0.0
25005,-1.2945862,3.1859312,-0.84840393,-1.7894897,0.25806886,-1.6567383,0.0
25006,1.1463985,6.226345,-0.9599762,-1.7894897,0.25806886,-1.6567383,0.0
25007,1.1463985,6.226345,-0.9599762,-0.8687256,-0.3345337,-0.8963379,0.0
25008,3.188322,4.866953,-1.8190002,-0.8687256,-0.3345337,-0.8963379,0.0
25009,3.188322,4.866953,-1.8190002,0.4725952,-0.26868898,-0.6690674,0.0
25010,2.655943,1.362483,-2.5438232,0.4725952,-0.26868898,-0.6690674,0.0
25011,2.655943,1.362483,-2.5438232,1.1586548,0.10513916,-1.0110352,0.0
25012,0.29401684,-1.1216593,-2.7982788,1.1586548,0.10513916,-1.0110352,0.0
25013,0.29401684,-1.1216593,-2.7982788,0.8517334,0.087084964,-0.80181885,0.0
25014,-1.6642494,-2.0439224,-2.7125092,0.8517334,0.087084964,-0.80181885,0.0
25015,-1.6642494,-2.0439224,-2.7125092,-0.025488282,-0.047790527,-0.35471192,0.0
25016,-2.0095854,-1.8788023,-2.25531,-0.025488282,-0.047790527,-0.35471192,0.0
25017,-2.0095854,-1.8788023,-2.25531,-0.7423462,-0.032922365,-0.45135498,0.0
25018,-1.4461575,-0.911355,-1.4594421,-0.7423462,-0.032922365,-0.45135498,0.0
25019,-1.4461575,-0.911355,-1.4594421,-0.7338501,0.040356446,-0.30373535,0.0
25020,-1.151494,0.44944382,-0.5831146,-0.7338501,0.040356446,-0.30373535,0.0
25021,-1.151494,0.44944382,-0.5831146,-0.81243896,0.107263185,-0.22196046,0.0
25022,-1.5455971,1.6495094,0.19677734,-0.81243896,0.107263185,-0.22196046,0.0
25023,-1.5455971,1.6495094,0.19677734,-0.9802368,0.06584473,-0.1083252,0.0
25024,-2.2957554,2.1528225,0.77493286,-0.9802368,0.06584473,-0.1083252,0.0
25025,-2.2957554,2.1528225,0.77493286,-0.83898926,-0.08602295,0.1444336,0.0
25026,-2.8267288,2.0970259,1.0839386,-0.83898926,-0.08602295,0.1444336,0.0
25027,-2.8267288,2.0970259,1.0839386,-0.6552612,-0.19328614,0.32178956,0.0
25028,-2.8078308,1.7821617,1.1720734,-0.6552612,-0.19328614,0.32178956,0.0
25029,-2.8078308,1.7821617,1.1720734,-0.35683593,-0.26868898,0.46834716,0.0
25030,-2.4123049,1.4529142,1.0775299,-0.35683593,-0.26868898,0.46834716,0.0
25031,-2.4123049,1.4529142,1.0775299,-0.020178223,-0.43967286,0.68712157,0.0
25032,-1.8267069,1.1430931,0.7815857,-0.020178223,-0.43967286,0.68712157,0.0
25033,-1.8267069,1.1430931,0.7815857,0.2527588,-0.5076416,0.8687256,0.0
25034,-1.046998,0.76373005,0.35775757,0.2527588,-0.5076416,0.8687256,0.0
25035,-1.046998,0.76373005,0.35775757,0.59260255,-0.59472656,1.0057251,0.0
25036,-0.13011551,0.33313942,-0.06071472,0.59260255,-0.59472656,1.0057251,0.0
25037,-0.13011551,0.33313942,-0.06071472,0.96430665,-0.59472656,1.1013062,0.0
25038,0.8120699,-0.060124397,-0.421463,0.96430665,-0.59472656,1.1013062,0.0
25039,0.8120699,-0.060124397,-0.421463,1.2234375,-0.5692383,1.1384766,0.0
25040,1.676341,-0.38563633,-0.58303833,1.2234375,-0.5692383,1.1384766,0.0
25041,1.676341,-0.38563633,-0.58303833,1.3413209,-0.45454103,1.0959961,0.0
25042,2.2108612,-0.5905037,-0.4807129,1.3413209,-0.45454103,1.0959961,0.0
25043,2.2108612,-0.5905037,-0.4807129,1.3083985,-0.24744873,1.0301514,0.0
25044,2.2224846,-0.5306673,-0.1847229,1.3083985,-0.24744873,1.0301514,0.0
25045,2.2224846,-0.5306673,-0.1847229,1.0280274,-0.027612304,0.998291,0.0
25046,1.8744965,-0.18614292,0.17030334,1.0280274,-0.027612304,0.998291,0.0
25047,1.8744965,-0.18614292,0.17030334,0.61065674,0.17841797,1.0482056,0.0
25048,1.3872433,0.36194992,0.4387207,0.61065674,0.17841797,1.0482056,0.0
25049,1.3872433,0.36194992,0.4387207,0.038232423,0.3982544,1.1990112,0.0
25050,0.8544483,0.9081993,0.56100464,0.038232423,0.3982544,1.1990112,0.0
25051,0.8544483,0.9081993,0.56100464,-0.5607422,0.5171997,1.44646,0.0
25052,0.64461803,1.2268763,0.488739,-0.5607422,0.5171997,1.44646,0.0
25053,0.64461803,1.2268763,0.488739,-1.1204224,0.5140137,1.5951416,0.0
25054,1.0232258,1.2935371,0.23121643,-1.1204224,0.5140137,1.5951416,0.0
25055,1.0232258,1.2935371,0.23121643,-1.6737305,0.52250975,1.6885986,0.0
25056,1.2839499,1.0825844,-0.020645142,-1.6737305,0.52250975,1.6885986,0.0
25057,1.2839499,1.0825844,-0.020645142,-1.9987061,0.48215333,1.724707,0.0
25058,0.5855093,0.5762358,-0.0027313232,-1.9987061,0.48215333,1.724707,0.0
25059,0.5855093,0.5762358,-0.0027313232,-1.7629395,0.20496826,1.6185058,0.0
25060,-0.7632456,-0.0022678375,0.39657593,-1.7629395,0.20496826,1.6185058,0.0
25061,-0.7632456,-0.0022678375,0.39657593,-1.0343994,-0.16142578,1.5622193,0.0
25062,-1.8620615,-0.41216564,1.026825,-1.0343994,-0.16142578,1.5622193,0.0
25063,-1.8620615,-0.41216564,1.026825,0.13806152,-0.53525394,1.5770874,0.0
25064,-2.2291517,-0.5125456,1.5368347,0.13806152,-0.53525394,1.5770874,0.0
25065,-2.2291517,-0.5125456,1.5368347,1.4252198,-0.7954468,1.6004517,0.0
25066,-1.9013147,-0.163064,1.6853485,1.4252198,-0.7954468,1.6004517,0.0
25067,-1.9013147,-0.163064,1.6853485,2.18562,-0.6956177,1.720459,0.0
25068,-1.3029251,0.37203884,1.6101227,2.18562,-0.6956177,1.720459,0.0
25069,-1.3029251,0.37203884,1.6101227,2.3895264,-0.33028564,1.8659546,0.0
25070,-0.9454527,0.78703594,1.2190704,2.3895264,-0.33028564,1.8659546,0.0
25071,-0.9454527,0.78703594,1.2190704,2.069861,0.011682129,1.899939,0.0
25072,-1.0497456,1.189004,0.37823486,2.069861,0.011682129,1.899939,0.0
25073,-1.0497456,1.189004,0.37823486,1.0322754,0.2824951,1.7724975,0.0
25074,-1.4392834,1.3977127,-0.38450623,1.0322754,0.2824951,1.7724975,0.0
25075,-1.4392834,1.3977127,-0.38450623,0.028674318,0.4258667,1.536731,0.0
25076,-1.820054,1.2117863,-0.5805054,0.028674318,0.4258667,1.536731,0.0
25077,-1.820054,1.2117863,-0.5805054,-0.48321533,0.4895874,1.2414917,0.0
25078,-2.054346,0.8651438,-0.29171753,-0.48321533,0.4895874,1.2414917,0.0
25079,-2.054346,0.8651438,-0.29171753,-0.80394286,0.54693604,0.9122681,0.0
25080,-2.0665722,0.5312872,0.03199768,-0.80394286,0.54693604,0.9122681,0.0
25081,-2.0665722,0.5312872,0.03199768,-0.9505005,0.55968016,0.59260255,0.0
25082,-1.8411722,0.21588707,0.08491516,-0.9505005,0.55968016,0.59260255,0.0
25083,-1.8411722,0.21588707,0.08491516,-0.99510497,0.5533081,0.24744873,0.0
25084,-1.4793224,-0.017280579,-0.045684814,-0.99510497,0.5533081,0.24744873,0.0
25085,-1.4793224,-0.017280579,-0.045684814,-1.0216553,0.5278198,-0.118945315,0.0
25086,-1.0754504,-0.1479187,-0.16567993,-1.0216553,0.5278198,-0.118945315,0.0
25087,-1.0754504,-0.1479187,-0.16567993,-1.0715698,0.46516114,-0.5331299,0.0
25088,-0.60138845,-0.18405724,-0.20671082,-1.0715698,0.46516114,-0.5331299,0.0
25089,-0.60138845,-0.18405724,-0.20671082,-1.2117554,0.42268068,-0.9632446,0.0
25090,-0.08390617,-0.16384697,-0.19831848,-1.2117554,0.42268068,-0.9632446,0.0
25091,-0.08390617,-0.16384697,-0.19831848,-1.4220337,0.41418457,-1.3806152,0.0
25092,0.26648092,-0.135643,-0.17549133,-1.4220337,0.41418457,-1.3806152,0.0
25093,0.26648092,-0.135643,-0.17549133,-1.6418701,0.42055663,-1.7353271,0.0
25094,0.39969635,-0.07830238,-0.16572571,-1.6418701,0.42055663,-1.7353271,0.0
25095,0.39969635,-0.07830238,-0.16572571,-1.8786987,0.44498292,-2.001892,0.0
25096,0.44940805,0.03639412,-0.18458557,-1.8786987,0.44498292,-2.001892,0.0
25097,0.44940805,0.03639412,-0.18458557,-2.0380006,0.46728516,-2.2036743,0.0
25098,0.61146736,0.2084732,-0.24177551,-2.0380006,0.46728516,-2.2036743,0.0
25099,0.61146736,0.2084732,-0.24177551,-2.1335816,0.49171144,-2.3215578,0.0
25100,1.0061178,0.39977455,-0.3886261,-2.1335816,0.49171144,-2.3215578,0.0
25101,1.0061178,0.39977455,-0.3886261,-1.988086,0.54693604,-2.3141236,0.0
25102,1.4188957,0.67055225,-0.62789917,-1.988086,0.54693604,-2.3141236,0.0
25103,1.4188957,0.67055225,-0.62789917,-1.9657837,0.6637573,-2.2196045,0.0
25104,1.7288179,1.0040207,-0.8778534,-1.9657837,0.6637573,-2.2196045,0.0
25105,1.7288179,1.0040207,-0.8778534,-2.1272094,0.5968506,-2.1197755,0.0
25106,2.5930643,1.190424,-1.1358185,-2.1272094,0.5968506,-2.1197755,0.0
25107,2.5930643,1.190424,-1.1358185,-2.3852785,0.49277344,-2.0677369,0.0
25108,4.491602,1.0748615,-1.3233032,-2.3852785,0.49277344,-2.0677369,0.0
25109,4.491602,1.0748615,-1.3233032,-2.5615723,0.51188964,-1.8871949,0.0
25110,6.243245,0.5870743,-1.3176422,-2.5615723,0.51188964,-1.8871949,0.0
25111,6.243245,0.5870743,-1.3176422,-2.4160767,0.82836914,-1.5218629,0.0
25112,5.484233,0.093206406,-1.0924072,-2.4160767,0.82836914,-1.5218629,0.0
25113,5.484233,0.093206406,-1.0924072,-1.9997681,1.0099732,-1.0513916,0.0
25114,2.1633987,0.1666317,-0.6837921,-1.9997681,1.0099732,-1.0513916,0.0
25115,2.1633987,0.1666317,-0.6837921,-1.359375,0.71154785,-0.3982544,0.0
25116,-0.6952944,0.97524834,-0.11505127,-1.359375,0.71154785,-0.3982544,0.0
25117,-0.6952944,0.97524834,-0.11505127,-0.9133301,0.3982544,0.22302246,0.0
25118,-1.2974586,2.038023,0.4236145,-0.9133301,0.3982544,0.22302246,0.0
25119,-1.2974586,2.038023,0.4236145,-0.8782837,0.30267334,0.67437744,0.0
25120,-0.6147251,2.6133537,0.6375427,-0.8782837,0.30267334,0.67437744,0.0
25121,-0.6147251,2.6133537,0.6375427,-1.0397094,0.31329346,1.0482056,0.0
25122,-0.16883087,2.4433937,0.566452,-1.0397094,0.31329346,1.0482056,0.0
25123,-0.16883087,2.4433937,0.566452,-1.3232666,0.2984253,1.3391968,0.0
25124,-0.4063778,1.8463402,0.52659607,-1.3232666,0.2984253,1.3391968,0.0
25125,-0.4063778,1.8463402,0.52659607,-1.4857544,0.26444092,1.5930176,0.0
25126,-0.9980879,1.2441864,0.6770477,-1.4857544,0.26444092,1.5930176,0.0
25127,-0.9980879,1.2441864,0.6770477,-1.359375,0.22302246,1.7735596,0.0
25128,-1.4399128,0.8828869,0.8568268,-1.359375,0.22302246,1.7735596,0.0
25129,-1.4399128,0.8828869,0.8568268,-1.0556396,0.20709229,1.8521484,0.0
25130,-1.4100971,0.8004265,0.87838745,-1.0556396,0.20709229,1.8521484,0.0
25131,-1.4100971,0.8004265,0.87838745,-0.80606693,0.26550293,1.8277222,0.0
25132,-0.9372091,0.85085106,0.7590332,-0.80606693,0.26550293,1.8277222,0.0
25133,-0.9372091,0.85085106,0.7590332,-0.58410645,0.38444826,1.8255981,0.0
25134,-0.2796383,0.89827156,0.56222534,-0.58410645,0.38444826,1.8255981,0.0
25135,-0.2796383,0.89827156,0.56222534,-0.5140137,0.59260255,1.7416992,0.0
25136,-0.2796383,0.89827156,0.56222534,-0.5140137,0.59260255,1.7416992,107.0
25137,0.3099928,0.97353745,0.33572388,-0.5140137,0.59260255,1.7416992,107.0
25138,0.3099928,0.97353745,0.33572388,-0.7083618,0.83686525,1.5537232,107.0
25139,0.6830034,1.0442352,0.16415405,-0.7083618,0.83686525,1.5537232,107.0
25140,0.6830034,1.0442352,0.16415405,-0.9770508,1.0715698,1.3126465,107.0
25141,0.8231001,1.0523682,0.13731384,-0.9770508,1.0715698,1.3126465,107.0
25142,0.8231001,1.0523682,0.13731384,-1.2850342,1.3190186,1.0588257,107.0
25143,0.8458586,1.0450935,0.31462097,-1.2850342,1.3190186,1.0588257,107.0
25144,0.8458586,1.0450935,0.31462097,-1.6418701,1.5770874,0.76464844,107.0
25145,0.8222923,0.9942169,0.61872864,-1.6418701,1.5770874,0.76464844,107.0
25146,0.8222923,0.9942169,0.61872864,-1.8213501,1.8022339,0.48321533,107.0
25147,0.8370819,0.9254265,0.8864136,-1.8213501,1.8022339,0.48321533,107.0
25148,0.8370819,0.9254265,0.8864136,-1.9116211,1.9732178,0.18160401,107.0
25149,1.056714,0.9041958,1.0093384,-1.9116211,1.9732178,0.18160401,107.0
25150,1.056714,0.9041958,1.0093384,-2.095349,2.170752,-0.15717773,107.0
25151,1.3076639,0.90392303,0.9946594,-2.095349,2.170752,-0.15717773,107.0
25152,1.3076639,0.90392303,0.9946594,-2.337488,2.3874023,-0.45560303,107.0
25153,1.1894054,0.9120674,0.947876,-2.337488,2.3874023,-0.45560303,107.0
25154,1.1894054,0.9120674,0.947876,-2.6465333,2.5456421,-0.68924564,107.0
25155,0.9079819,0.9278469,0.9711609,-2.6465333,2.5456421,-0.68924564,107.0
25156,0.9079819,0.9278469,0.9711609,-2.8684938,2.5902467,-0.901648,107.0
25157,1.2581606,0.8045826,1.0117798,-2.8684938,2.5902467,-0.901648,107.0
25158,1.2581606,0.8045826,1.0117798,-2.9300904,2.5721924,-1.2499878,107.0
25159,2.322898,0.45361328,1.0201874,-2.9300904,2.5721924,-1.2499878,107.0
25160,2.322898,0.45361328,1.0201874,-3.1085083,2.6008668,-1.5685914,107.0
25161,3.0602722,-0.0062503815,1.115509,-3.1085083,2.6008668,-1.5685914,107.0
25162,3.0602722,-0.0062503815,1.115509,-3.624646,2.6635253,-1.7512573,107.0
25163,2.6103153,-0.053180695,1.5295563,-3.624646,2.6635253,-1.7512573,107.0
25164,2.6103153,-0.053180695,1.5295563,-3.9528077,2.6677735,-1.7831177,107.0
25165,1.0356407,-0.62602806,2.625061,-3.9528077,2.6677735,-1.7831177,107.0
25166,1.0356407,-0.62602806,2.625061,-4.4869995,2.4946656,-1.5197388,107.0
25167,0.015415192,-0.49401093,3.392105,-4.4869995,2.4946656,-1.5197388,107.0
25168,0.015415192,-0.49401093,3.392105,-4.425403,2.3842163,-1.3614991,107.0
25169,-1.8973236,-0.50218964,5.1184387,-4.425403,2.3842163,-1.3614991,107.0
25170,-1.8973236,-0.50218964,5.1184387,-3.6873047,2.1123414,-0.83686525,107.0
25171,-2.0233269,-0.43582153,5.1383057,-3.6873047,2.1123414,-0.83686525,107.0
25172,-2.0233269,-0.43582153,5.1383057,-3.2954223,2.071985,-0.7083618,107.0
25173,-2.198825,-0.389843,5.059784,-3.2954223,2.071985,-0.7083618,107.0
25174,-2.198825,-0.389843,5.059784,-2.5583863,2.2440307,-0.31966552,107.0
25175,-1.9109402,-0.41556168,4.325897,-2.5583863,2.2440307,-0.31966552,107.0
25176,-1.9109402,-0.41556168,4.325897,-2.5307739,2.34386,-0.2442627,107.0
25177,-1.6472454,-1.0399075,2.785843,-2.5307739,2.34386,-0.2442627,107.0
25178,-1.6472454,-1.0399075,2.785843,-2.5838745,2.5636964,-0.047790527,107.0
25179,-1.444273,-1.3253231,2.3879852,-2.5838745,2.5636964,-0.047790527,107.0
25180,-1.444273,-1.3253231,2.3879852,-2.618921,2.6210449,0.028674318,107.0
25181,-1.5612297,-2.208561,2.0141907,-2.618921,2.6210449,0.028674318,107.0
25182,-1.5612297,-2.208561,2.0141907,-2.6040528,2.7622926,0.31966552,107.0
25183,-1.6552219,-2.1952286,2.1484222,-2.6040528,2.7622926,0.31966552,107.0
25184,-1.6552219,-2.1952286,2.1484222,-2.5498903,2.7750366,0.42905274,107.0
25185,-2.5045605,-2.401617,2.7631073,-2.5498903,2.7750366,0.42905274,107.0
25186,-2.5045605,-2.401617,2.7631073,-2.2142944,2.709192,0.74659425,107.0
25187,-2.470811,-2.2788372,2.9196014,-2.2142944,2.709192,0.74659425,107.0
25188,-2.470811,-2.2788372,2.9196014,-2.073047,2.6879518,0.8442993,107.0
25189,-2.8078012,-2.3329945,3.6694794,-2.073047,2.6879518,0.8442993,107.0
25190,-2.8078012,-2.3329945,3.6694794,-1.5484132,2.536084,1.085376,107.0
25191,-2.538063,-2.091175,3.386444,-1.5484132,2.536084,1.085376,107.0
25192,-2.538063,-2.091175,3.386444,-1.3848633,2.4734254,1.1257324,107.0
25193,-2.3846493,-1.8169098,3.0347595,-1.3848633,2.4734254,1.1257324,107.0
25194,-2.3846493,-1.8169098,3.0347595,-1.1108643,2.360852,1.2138795,107.0
25195,-2.1725883,-1.4985962,2.4396515,-1.1108643,2.360852,1.2138795,107.0
25196,-2.1725883,-1.4985962,2.4396515,-0.9420044,2.257837,1.3094605,107.0
25197,-2.1056366,-1.1990719,1.8145142,-0.9420044,2.257837,1.3094605,107.0
25198,-2.1056366,-1.1990719,1.8145142,-0.7986328,2.1218994,1.3827393,107.0
25199,-2.3022099,-0.9613323,1.4329224,-0.7986328,2.1218994,1.3827393,107.0
25200,-2.3022099,-0.9613323,1.4329224,-0.51932377,1.9604737,1.4209718,107.0
25201,-2.8852372,-0.76844406,1.4011383,-0.51932377,1.9604737,1.4209718,107.0
25202,-2.8852372,-0.76844406,1.4011383,-0.012744141,1.6801026,1.4135376,107.0
25203,-2.608861,-0.60689354,1.2134247,-0.012744141,1.6801026,1.4135376,107.0
25204,-2.608861,-0.60689354,1.2134247,0.1359375,1.5877075,1.3859253,107.0
25205,-2.4925451,-0.40105438,1.1003265,0.1359375,1.5877075,1.3859253,107.0
25206,-2.4925451,-0.40105438,1.1003265,0.35577393,1.4613281,1.3243287,107.0
25207,-2.4290333,-0.21259212,1.0458374,0.35577393,1.4613281,1.3243287,107.0
25208,-2.4290333,-0.21259212,1.0458374,0.5511841,1.3466309,1.3200806,107.0
25209,-2.4451919,-0.049297333,1.0148468,0.5511841,1.3466309,1.3200806,107.0
25210,-2.4451919,-0.049297333,1.0148468,0.6839356,1.1894531,1.3381348,107.0
25211,-2.2312632,0.13592815,0.8901062,0.6839356,1.1894531,1.3381348,107.0
25212,-2.2312632,0.13592815,0.8901062,0.724292,1.0545777,1.2999023,107.0
25213,-1.7032723,0.3137722,0.7540283,0.724292,1.0545777,1.2999023,107.0
25214,-1.7032723,0.3137722,0.7540283,0.7168579,0.9589966,1.2627319,107.0
25215,-1.2064047,0.44662285,0.6310425,0.7168579,0.9589966,1.2627319,107.0
25216,-1.2064047,0.44662285,0.6310425,0.67331547,0.85704345,1.2340577,107.0
25217,-0.97929597,0.48534966,0.40997314,0.67331547,0.85704345,1.2340577,107.0
25218,-0.97929597,0.48534966,0.40997314,0.7476563,0.7412842,1.1979493,107.0
25219,-0.7683246,0.5875721,0.19412231,0.7476563,0.7412842,1.1979493,107.0
25220,-0.7683246,0.5875721,0.19412231,0.7763306,0.6616333,1.1257324,107.0
25221,-0.55690813,0.87243843,0.14524841,0.7763306,0.6616333,1.1257324,107.0
25222,-0.55690813,0.87243843,0.14524841,0.6403931,0.6085327,1.0588257,107.0
25223,-0.6813786,1.0757217,0.12489319,0.6403931,0.6085327,1.0588257,107.0
25224,-0.6813786,1.0757217,0.12489319,0.46728516,0.48427734,1.0290893,107.0
25225,-0.6813786,1.0757217,0.12489319,0.46728516,0.48427734,1.0290893,106.0
25226,-0.9397197,1.0229797,0.0013580322,0.46728516,0.48427734,1.0290893,106.0
25227,-0.9397197,1.0229797,0.0013580322,0.44710693,0.34090576,1.0375855,106.0
25228,-0.7306087,0.9622059,-0.20858765,0.44710693,0.34090576,1.0375855,106.0
25229,-0.7306087,0.9622059,-0.20858765,0.4619751,0.18054199,1.0227174,106.0
25230,0.0450418,1.001833,-0.42234802,0.4619751,0.18054199,1.0227174,106.0
25231,0.0450418,1.001833,-0.42234802,0.2803711,0.093457036,0.7965088,106.0
25232,1.1996932,0.77702713,-0.52867126,0.2803711,0.093457036,0.7965088,106.0
25233,1.1996932,0.77702713,-0.52867126,0.098767094,0.023364259,0.43967286,106.0
25234,2.5492687,0.025491714,-0.61299133,0.098767094,0.023364259,0.43967286,106.0
25235,2.5492687,0.025491714,-0.61299133,-0.10089111,-0.08814698,0.08814698,106.0
25236,3.8604355,-0.89385223,-0.7701874,-0.10089111,-0.08814698,0.08814698,106.0
25237,3.8604355,-0.89385223,-0.7701874,-0.37807617,-0.16992188,-0.33134767,106.0
25238,4.612152,-1.3184643,-1.1049194,-0.37807617,-0.16992188,-0.33134767,106.0
25239,4.612152,-1.3184643,-1.1049194,-0.73703617,-0.2516968,-0.5787964,106.0
25240,4.5223875,-1.0923576,-1.7080688,-0.73703617,-0.2516968,-0.5787964,106.0
25241,4.5223875,-1.0923576,-1.7080688,-0.88996583,-0.542688,-0.540564,106.0
25242,4.1725492,-0.48371315,-2.2343292,-0.88996583,-0.542688,-0.540564,106.0
25243,4.1725492,-0.48371315,-2.2343292,-0.6265869,-0.97067875,-0.5692383,106.0
25244,4.0766745,0.49331474,-2.2831879,-0.6265869,-0.97067875,-0.5692383,106.0
25245,4.0766745,0.49331474,-2.2831879,-0.11363526,-1.350879,-0.4895874,106.0
25246,3.8385372,1.7913685,-1.9638977,-0.11363526,-1.350879,-0.4895874,106.0
25247,3.8385372,1.7913685,-1.9638977,0.16248779,-1.8192261,-0.41099855,106.0
25248,3.049944,2.8529549,-1.5521698,0.16248779,-1.8192261,-0.41099855,106.0
25249,3.049944,2.8529549,-1.5521698,0.18372802,-2.2854493,-0.46516114,106.0
25250,2.0811052,3.199747,-1.1254883,0.18372802,-2.2854493,-0.46516114,106.0
25251,2.0811052,3.199747,-1.1254883,-0.121069334,-2.7421143,-0.77314454,106.0
25252,1.3898964,2.8337593,-0.69252014,-0.121069334,-2.7421143,-0.77314454,106.0
25253,1.3898964,2.8337593,-0.69252014,-0.6435791,-3.1212525,-1.2351197,106.0
25254,0.9559479,1.9459496,-0.23532104,-0.6435791,-3.1212525,-1.2351197,106.0
25255,0.9559479,1.9459496,-0.23532104,-1.0460815,-3.4196777,-1.8383423,106.0
25256,0.70910645,0.9149742,0.5830231,-1.0460815,-3.4196777,-1.8383423,106.0
25257,0.70910645,0.9149742,0.5830231,-0.9791748,-3.3931274,-2.4670532,106.0
25258,0.72115517,0.06708717,1.9181213,-0.9791748,-3.3931274,-2.4670532,106.0
25259,0.72115517,0.06708717,1.9181213,-0.4980835,-3.0256715,-2.9672608,106.0
25260,0.86181164,-0.43249893,2.7093353,-0.4980835,-3.0256715,-2.9672608,106.0
25261,0.86181164,-0.43249893,2.7093353,-0.1720459,-2.5711305,-3.3379028,106.0
25262,0.98951054,-0.33888245,1.0815277,-0.1720459,-2.5711305,-3.3379028,106.0
25263,0.98951054,-0.33888245,1.0815277,-0.68074954,-2.2822633,-3.793506,106.0
25264,0.7168894,-0.05662918,-0.03211975,-0.68074954,-2.2822633,-3.793506,106.0
25265,0.7168894,-0.05662918,-0.03211975,-1.0365235,-2.2886353,-3.899707,106.0
25266,0.8428345,0.14732361,-1.3483124,-1.0365235,-2.2886353,-3.899707,106.0
25267,0.8428345,0.14732361,-1.3483124,-2.1877441,-2.1962402,-4.070691,106.0
25268,1.3865232,-0.22393799,-0.7922516,-2.1877441,-2.1962402,-4.070691,106.0
25269,1.3865232,-0.22393799,-0.7922516,-3.3771973,-1.718335,-4.050513,106.0
25270,1.8724632,-1.2006111,1.0765228,-3.3771973,-1.718335,-4.050513,106.0
25271,1.8724632,-1.2006111,1.0765228,-4.081311,-0.9505005,-3.9336915,106.0
25272,2.0454197,-2.3108063,2.4900055,-4.081311,-0.9505005,-3.9336915,106.0
25273,2.0454197,-2.3108063,2.4900055,-3.9485595,-0.42374268,-3.7680175,106.0
25274,1.876936,-3.1159782,2.4004822,-3.9485595,-0.42374268,-3.7680175,106.0
25275,1.876936,-3.1159782,2.4004822,-3.61615,0.32178956,-3.5821655,106.0
25276,0.8593855,-3.1474705,1.4728699,-3.61615,0.32178956,-3.5821655,106.0
25277,0.8593855,-3.1474705,1.4728699,-4.1375976,0.8591675,-2.985315,106.0
25278,-0.70912266,-2.8593216,0.85795593,-4.1375976,0.8591675,-2.985315,106.0
25279,-0.70912266,-2.8593216,0.85795593,-3.7234132,0.9674927,-2.1059692,106.0
25280,-1.8375006,-2.335041,0.7110748,-3.7234132,0.9674927,-2.1059692,106.0
25281,-1.8375006,-2.335041,0.7110748,-2.0029542,0.9674927,-1.1321045,106.0
25282,-2.3496752,-0.91329575,0.4264984,-2.0029542,0.9674927,-1.1321045,106.0
25283,-2.3496752,-0.91329575,0.4264984,-0.6796875,0.9409424,-0.37807617,106.0
25284,-2.391862,0.9239292,-0.25601196,-0.6796875,0.9409424,-0.37807617,106.0
25285,-2.391862,0.9239292,-0.25601196,0.12850343,0.8241211,0.015930176,106.0
25286,-2.0427628,2.2761307,-1.0437012,0.12850343,0.8241211,0.015930176,106.0
25287,-2.0427628,2.2761307,-1.0437012,0.16567384,0.817749,0.40462646,106.0
25288,-1.7726383,2.490448,-1.5254974,0.16567384,0.817749,0.40462646,106.0
25289,-1.7726383,2.490448,-1.5254974,0.11044922,0.80819094,0.75296634,106.0
25290,-1.8060741,1.791235,-1.614212,0.11044922,0.80819094,0.75296634,106.0
25291,-1.8060741,1.791235,-1.614212,-0.010620117,0.85598147,0.99298096,106.0
25292,-1.9188833,1.0089283,-1.4593353,-0.010620117,0.85598147,0.99298096,106.0
25293,-1.9188833,1.0089283,-1.4593353,-0.11469727,0.90270996,1.1660889,106.0
25294,-1.9211054,0.60512924,-1.227417,-0.11469727,0.90270996,1.1660889,106.0
25295,-1.9211054,0.60512924,-1.227417,-0.271875,0.93350834,1.2914063,106.0
25296,-1.746027,0.52544785,-1.0599213,-0.271875,0.93350834,1.2914063,106.0
25297,-1.746027,0.52544785,-1.0599213,-0.42799073,0.9505005,1.3530029,106.0
25298,-1.3015947,0.57914734,-1.0439911,-0.42799073,0.9505005,1.3530029,106.0
25299,-1.3015947,0.57914734,-1.0439911,-0.59260255,0.93775636,1.364685,106.0
25300,-0.5715742,0.59747314,-1.1526947,-0.59260255,0.93775636,1.364685,106.0
25301,-0.5715742,0.59747314,-1.1526947,-0.7614624,0.9218262,1.2744141,106.0
25302,0.26007462,0.4796276,-1.2490082,-0.7614624,0.9218262,1.2744141,106.0
25303,0.26007462,0.4796276,-1.2490082,-0.8687256,0.8846558,1.0513916,106.0
25304,0.7858181,0.2244854,-1.175705,-0.8687256,0.8846558,1.0513916,106.0
25305,0.7858181,0.2244854,-1.175705,-0.9143921,0.82836914,0.81243896,106.0
25306,0.7024584,-0.11070633,-0.8819275,-0.9143921,0.82836914,0.81243896,106.0
25307,0.7024584,-0.11070633,-0.8819275,-0.9717407,0.70942384,0.54375,106.0
25308,0.05706024,-0.4153099,-0.44706726,-0.9717407,0.70942384,0.54375,106.0
25309,0.05706024,-0.4153099,-0.44706726,-0.9451904,0.5235718,0.3334717,106.0
25310,-0.77925396,-0.5590191,0.053741455,-0.9451904,0.5235718,0.3334717,106.0
25311,-0.77925396,-0.5590191,0.053741455,-0.7784546,0.26762697,0.16036378,106.0
25312,-1.3360739,-0.5129509,0.51301575,-0.7784546,0.26762697,0.16036378,106.0
25313,-1.3360739,-0.5129509,0.51301575,-0.4694092,-0.08920898,-0.052038576,106.0
25314,-1.4230337,-0.33073425,0.8215637,-0.4694092,-0.08920898,-0.052038576,106.0
25315,-1.4230337,-0.33073425,0.8215637,-0.10195313,-0.452417,-0.24107666,106.0
25316,-1.2146235,-0.13040733,0.95713806,-0.10195313,-0.452417,-0.24107666,106.0
25317,-1.2146235,-0.13040733,0.95713806,0.22196046,-0.8262451,-0.41206056,106.0
25318,-0.87082005,-0.009550095,1.0628815,0.22196046,-0.8262451,-0.41206056,106.0
25319,-0.87082005,-0.009550095,1.0628815,0.46834716,-1.2383057,-0.6085327,106.0
25320,-0.24443436,-0.09155083,1.3608398,0.46834716,-1.2383057,-0.6085327,106.0
25321,-0.24443436,-0.09155083,1.3608398,0.59472656,-1.6174439,-0.8050049,106.0
25322,0.76061726,-0.46639252,2.1598358,0.59472656,-1.6174439,-0.8050049,106.0
25323,0.76061726,-0.46639252,2.1598358,1.177771,-1.9169312,-0.95368654,106.0
25324,1.7158184,-1.131073,3.6560974,1.177771,-1.9169312,-0.95368654,106.0
25325,1.7158184,-1.131073,3.6560974,1.9201173,-1.7693115,-0.95793456,106.0
25326,2.0182476,-1.6558342,5.2647095,1.9201173,-1.7693115,-0.95793456,106.0
25327,2.0182476,-1.6558342,5.2647095,1.9201173,-1.7693115,-0.95793456,106.0
25328,2.0182476,-1.6558342,5.2647095,1.5144287,-1.354065,-0.78164065,106.0
25329,1.4688826,-1.5164032,5.5614014,1.5144287,-1.354065,-0.78164065,106.0
25330,1.4688826,-1.5164032,5.5614014,-0.26019287,-0.6669434,-0.36427003,106.0
25331,0.5658407,-1.147852,4.25383,-0.26019287,-0.6669434,-0.36427003,106.0
25332,0.5658407,-1.147852,4.25383,-0.9791748,0.2516968,0.2442627,106.0
25333,-0.12678337,-1.4070873,2.5258026,-0.9791748,0.2516968,0.2442627,106.0
25334,-0.12678337,-1.4070873,2.5258026,-1.0301514,1.1682129,0.9897949,106.0
25335,-0.93904877,-1.2070541,0.8755951,-1.0301514,1.1682129,0.9897949,106.0
25336,-0.93904877,-1.2070541,0.8755951,-1.6376221,1.2393677,1.075818,106.0
25337,-1.7155704,-0.13507652,-1.0535736,-1.6376221,1.2393677,1.075818,106.0
25338,-1.7155704,-0.13507652,-1.0535736,-1.532483,1.2436157,0.85704345,106.0
25339,-1.8294506,0.70916367,-2.7949066,-1.532483,1.2436157,0.85704345,106.0
25340,-1.8294506,0.70916367,-2.7949066,-1.0567017,1.1352905,0.41524658,106.0
25341,-1.4253035,1.121664,-3.4801178,-1.0567017,1.1352905,0.41524658,106.0
25342,-1.4253035,1.121664,-3.4801178,-0.62340087,0.9611206,0.09770508,106.0
25343,-0.92482567,0.87947273,-3.2421722,-0.62340087,0.9611206,0.09770508,106.0
25344,-0.92482567,0.87947273,-3.2421722,-0.0053100586,0.8050049,-0.14337158,106.0
25345,-0.61006355,0.2412014,-2.6092377,-0.0053100586,0.8050049,-0.14337158,106.0
25346,-0.61006355,0.2412014,-2.6092377,0.21134034,0.64782715,-0.29736328,106.0
25347,-0.51375866,-0.2568798,-1.8500214,0.21134034,0.64782715,-0.29736328,106.0
25348,-0.51375866,-0.2568798,-1.8500214,0.33028564,0.4725952,-0.42374268,106.0
25349,-0.4213581,-0.3412094,-1.1052246,0.33028564,0.4725952,-0.42374268,106.0
25350,-0.4213581,-0.3412094,-1.1052246,0.3791382,0.29205322,-0.51932377,106.0
25351,-0.18152046,-0.120220184,-0.49839783,0.3791382,0.29205322,-0.51932377,106.0
25352,-0.18152046,-0.120220184,-0.49839783,0.3727661,0.10938721,-0.55968016,106.0
25353,0.14578724,0.18451309,-0.10549927,0.3727661,0.10938721,-0.55968016,106.0
25354,0.14578724,0.18451309,-0.10549927,0.35152587,-0.021240234,-0.5766724,106.0
25355,0.35575294,0.4599762,0.049575806,0.35152587,-0.021240234,-0.5766724,106.0
25356,0.35575294,0.4599762,0.049575806,0.2793091,-0.13699952,-0.54906005,106.0
25357,0.31276417,0.63070107,-0.014022827,0.2793091,-0.13699952,-0.54906005,106.0
25358,0.31276417,0.63070107,-0.014022827,0.2538208,-0.23682861,-0.4704712,106.0
25359,0.100979805,0.6196251,-0.21734619,0.2538208,-0.23682861,-0.4704712,106.0
25360,0.100979805,0.6196251,-0.21734619,0.2899292,-0.32497558,-0.35789797,106.0
25361,-0.05814457,0.4745083,-0.4190216,0.2899292,-0.32497558,-0.35789797,106.0
25362,-0.05814457,0.4745083,-0.4190216,0.3334717,-0.41206056,-0.25063476,106.0
25363,0.040104866,0.3013115,-0.5470886,0.3334717,-0.41206056,-0.25063476,106.0
25364,0.040104866,0.3013115,-0.5470886,0.3717041,-0.4725952,-0.1539917,106.0
25365,0.3220129,0.22028542,-0.64178467,0.3717041,-0.4725952,-0.1539917,106.0
25366,0.3220129,0.22028542,-0.64178467,0.3334717,-0.4895874,-0.06478272,106.0
25367,0.5670347,0.24182892,-0.7536926,0.3334717,-0.4895874,-0.06478272,106.0
25368,0.5670347,0.24182892,-0.7536926,0.058410645,-0.5140137,0.026550293,106.0
25369,0.7085228,-0.11041832,-0.7516632,0.058410645,-0.5140137,0.026550293,106.0
25370,0.7085228,-0.11041832,-0.7516632,-0.20921631,-0.49489745,0.21027832,106.0
25371,0.616086,-1.105278,-0.49058533,-0.20921631,-0.49489745,0.21027832,106.0
25372,0.616086,-1.105278,-0.49058533,-0.022302246,-0.5076416,0.48109132,106.0
25373,0.32430172,-2.2506409,-0.16941833,-0.022302246,-0.5076416,0.48109132,106.0
25374,0.32430172,-2.2506409,-0.16941833,0.38869628,-0.6711914,0.89208984,106.0
25375,0.29999352,-3.1310558,-0.10002136,0.38869628,-0.6711914,0.89208984,106.0
25376,0.29999352,-3.1310558,-0.10002136,1.1246704,-0.903772,1.5091187,106.0
25377,0.728117,-3.720336,-0.112716675,1.1246704,-0.903772,1.5091187,106.0
25378,0.728117,-3.720336,-0.112716675,2.4628053,-0.9388184,2.2015502,106.0
25379,1.2740345,-3.9904165,0.006515503,2.4628053,-0.9388184,2.2015502,106.0
25380,1.2740345,-3.9904165,0.006515503,3.877405,-0.9218262,3.078772,106.0
25381,1.7014904,-3.5054188,0.25448608,3.877405,-0.9218262,3.078772,106.0
25382,1.7014904,-3.5054188,0.25448608,3.8593507,-0.5161377,3.9538696,106.0
25383,1.7506332,-2.3387585,0.56207275,3.8593507,-0.5161377,3.9538696,106.0
25384,1.7506332,-2.3387585,0.56207275,2.7962768,-0.007434082,4.4009767,106.0
25385,1.2181091,-1.4517441,0.5210724,2.7962768,-0.007434082,4.4009767,106.0
25386,1.2181091,-1.4517441,0.5210724,2.899292,0.13381349,4.4965577,106.0
25387,0.6706295,-0.78156185,0.099624634,2.899292,0.13381349,4.4965577,106.0
25388,0.6706295,-0.78156185,0.099624634,3.440918,0.36639404,4.7684326,106.0
25389,0.5807047,0.4073429,-0.47399902,3.440918,0.36639404,4.7684326,106.0
25390,0.5807047,0.4073429,-0.47399902,4.3616824,0.54375,4.9107423,106.0
25391,0.7051525,2.1205282,-1.0208588,4.3616824,0.54375,4.9107423,106.0
25392,0.7051525,2.1205282,-1.0208588,4.9160523,0.5936646,4.8406496,106.0
25393,0.7010355,3.6679192,-1.3018494,4.9160523,0.5936646,4.8406496,106.0
25394,0.7010355,3.6679192,-1.3018494,4.817285,0.71154785,4.5146117,106.0
25395,0.37061882,4.4663057,-1.4386444,4.817285,0.71154785,4.5146117,106.0
25396,0.37061882,4.4663057,-1.4386444,4.420093,0.6414551,4.0303345,106.0
25397,-0.077809334,4.3993626,-1.5019226,4.420093,0.6414551,4.0303345,106.0
25398,-0.077809334,4.3993626,-1.5019226,3.7754517,0.44816896,3.519507,106.0
25399,-0.27443027,3.6790485,-1.4180145,3.7754517,0.44816896,3.519507,106.0
25400,-0.27443027,3.6790485,-1.4180145,3.3039186,0.26975098,2.9661987,106.0
25401,-0.23023796,2.628334,-1.3048248,3.3039186,0.26975098,2.9661987,106.0
25402,-0.23023796,2.628334,-1.3048248,2.879114,0.20603028,2.8270752,106.0
25403,-0.1985588,2.109394,-1.2243805,2.879114,0.20603028,2.8270752,106.0
25404,-0.1985588,2.109394,-1.2243805,2.9460206,-0.087084964,2.4628053,106.0
25405,-0.2697239,2.2734413,-1.1410522,2.9460206,-0.087084964,2.4628053,106.0
25406,-0.2697239,2.2734413,-1.1410522,2.9502685,-0.3058594,2.0295045,106.0
25407,-0.48313808,2.4006863,-1.075592,2.9502685,-0.3058594,2.0295045,106.0
25408,-0.48313808,2.4006863,-1.075592,2.969385,-0.62977296,1.5080566,106.0
25409,-0.6696892,2.3892746,-0.8036194,2.969385,-0.62977296,1.5080566,106.0
25410,-0.6696892,2.3892746,-0.8036194,2.3173096,-0.725354,0.98448485,106.0
25411,-0.4224701,2.1221008,-0.3782196,2.3173096,-0.725354,0.98448485,106.0
25412,-0.4224701,2.1221008,-0.3782196,1.7555054,-0.7041138,0.68499756,106.0
25413,0.15410137,1.5637455,-0.11947632,1.7555054,-0.7041138,0.68499756,106.0
25414,0.15410137,1.5637455,-0.11947632,1.4772583,-0.78164065,0.42905274,106.0
25415,0.7680197,1.0858974,-0.15348816,1.4772583,-0.78164065,0.42905274,106.0
25416,0.7680197,1.0858974,-0.15348816,0.9897949,-0.8262451,0.21240234,106.0
25417,1.3629627,0.96985435,-0.44950867,0.9897949,-0.8262451,0.21240234,106.0
25418,1.3629627,0.96985435,-0.44950867,0.32603762,-0.9366943,-0.015930176,106.0
25419,1.8865128,1.0723934,-1.1224518,0.32603762,-0.9366943,-0.015930176,106.0
25420,1.8865128,1.0723934,-1.1224518,-0.39400634,-0.93563235,-0.12213135,106.0
25421,2.3421078,0.7009697,-1.2679291,-0.39400634,-0.93563235,-0.12213135,106.0
25422,2.3421078,0.7009697,-1.2679291,0.121069334,-0.4980835,-0.16036378,106.0
25423,2.4863815,0.36000633,0.5136261,0.121069334,-0.4980835,-0.16036378,106.0
25424,2.4863815,0.36000633,0.5136261,0.7848267,-0.44498292,-0.18479005,106.0
25425,1.9736509,0.5370884,2.3136597,0.7848267,-0.44498292,-0.18479005,106.0
25426,1.9736509,0.5370884,2.3136597,-0.1444336,-0.2803711,-0.047790527,106.0
25427,0.16832542,0.50963974,3.5618591,-0.1444336,-0.2803711,-0.047790527,106.0
25428,0.16832542,0.50963974,3.5618591,-0.7657105,0.41843262,-0.27399904,106.0
25429,0.16832542,0.50963974,3.5618591,-0.7657105,0.41843262,-0.27399904,120.0
25430,-2.6001415,-0.7310085,4.9339447,-0.7657105,0.41843262,-0.27399904,120.0
25431,-2.6001415,-0.7310085,4.9339447,-0.83474123,0.63826907,0.0361084,120.0
25432,-4.6323595,-2.2366867,4.893997,-0.83474123,0.63826907,0.0361084,120.0
25433,-4.6323595,-2.2366867,4.893997,-0.7062378,0.6414551,0.02442627,120.0
25434,-4.5413857,-1.791853,2.8964539,-0.7062378,0.6414551,0.02442627,120.0
25435,-4.5413857,-1.791853,2.8964539,-0.24638672,0.41206056,0.028674318,120.0
25436,-2.56326,-0.13704681,0.21136475,-0.24638672,0.41206056,0.028674318,120.0
25437,-2.56326,-0.13704681,0.21136475,0.039294433,0.2527588,-0.0053100586,120.0
25438,-0.3800764,0.79629517,-1.5587616,0.039294433,0.2527588,-0.0053100586,120.0
25439,-0.3800764,0.79629517,-1.5587616,0.17629395,-0.032922365,0.0063720704,120.0
25440,0.61095333,0.74279785,-2.0842133,0.17629395,-0.032922365,0.0063720704,120.0
25441,0.61095333,0.74279785,-2.0842133,0.16885987,-0.24107666,-0.03079834,120.0
25442,0.54710007,0.1907959,-1.7930298,0.16885987,-0.24107666,-0.03079834,120.0
25443,0.54710007,0.1907959,-1.7930298,0.20390625,-0.34727785,-0.04141846,120.0
25444,0.1884737,-0.33668137,-1.0903931,0.20390625,-0.34727785,-0.04141846,120.0
25445,0.1884737,-0.33668137,-1.0903931,0.2814331,-0.38763428,-0.035046387,120.0
25446,-0.14400864,-0.37685204,-0.38069153,0.2814331,-0.38763428,-0.035046387,120.0
25447,-0.14400864,-0.37685204,-0.38069153,0.19328614,-0.3802002,-0.107263185,120.0
25448,-0.21120262,-0.013504028,-0.016860962,0.19328614,-0.3802002,-0.107263185,120.0
25449,-0.21120262,-0.013504028,-0.016860962,-0.012744141,-0.27399904,-0.25806886,120.0
25450,0.247859,0.1605587,-0.24162292,-0.012744141,-0.27399904,-0.25806886,120.0
25451,0.247859,0.1605587,-0.24162292,-0.20284425,-0.24107666,-0.31435546,120.0
25452,0.82845116,-0.46858788,-0.45100403,-0.20284425,-0.24107666,-0.31435546,120.0
25453,0.82845116,-0.46858788,-0.45100403,-0.15823975,0.012744141,-0.04460449,120.0
25454,0.7480879,-1.1879444,-0.21125793,-0.15823975,0.012744141,-0.04460449,120.0
25455,0.7480879,-1.1879444,-0.21125793,-0.035046387,-0.08071289,0.07540283,120.0
25456,0.10017967,-0.7904663,0.15957642,-0.035046387,-0.08071289,0.07540283,120.0
25457,0.10017967,-0.7904663,0.15957642,-0.23364258,-0.011682129,-0.032922365,120.0
25458,-0.2916336,0.088171005,0.4625244,-0.23364258,-0.011682129,-0.032922365,120.0
25459,-0.2916336,0.088171005,0.4625244,-0.3175415,0.0637207,-0.09133301,120.0
25460,-0.18624878,0.48778534,0.5356598,-0.3175415,0.0637207,-0.09133301,120.0
25461,-0.18624878,0.48778534,0.5356598,-0.20178223,0.060534667,-0.09770508,120.0
25462,-0.043994904,0.50149536,0.414917,-0.20178223,0.060534667,-0.09770508,120.0
25463,-0.043994904,0.50149536,0.414917,-0.16248779,0.008496094,-0.10089111,120.0
25464,0.033273697,0.4619751,0.1586914,-0.16248779,0.008496094,-0.10089111,120.0
25465,0.033273697,0.4619751,0.1586914,-0.18903808,-0.09239502,-0.19222413,120.0
25466,0.20562267,0.5031986,-0.15008545,-0.18903808,-0.09239502,-0.19222413,120.0
25467,0.20562267,0.5031986,-0.15008545,-0.21027832,-0.06159668,-0.29205322,120.0
25468,0.36437607,0.5571251,-0.31378174,-0.21027832,-0.06159668,-0.29205322,120.0
25469,0.36437607,0.5571251,-0.31378174,-0.18903808,-0.07965088,-0.38232422,120.0
25470,0.3946991,0.49383354,-0.3167572,-0.18903808,-0.07965088,-0.38232422,120.0
25471,0.3946991,0.49383354,-0.3167572,-0.14761963,-0.09770508,-0.4428589,120.0
25472,0.34038067,0.40285492,-0.412323,-0.14761963,-0.09770508,-0.4428589,120.0
25473,0.34038067,0.40285492,-0.412323,-0.18903808,-0.22302246,-0.5649902,120.0
25474,0.24275112,0.40701294,-0.56814575,-0.18903808,-0.22302246,-0.5649902,120.0
25475,0.24275112,0.40701294,-0.56814575,-0.40356445,-0.20072022,-0.6839356,120.0
25476,0.16657639,0.34525108,-0.36358643,-0.40356445,-0.20072022,-0.6839356,120.0
25477,0.16657639,0.34525108,-0.36358643,-0.53737795,-0.16354981,-0.7519043,120.0
25478,0.17608356,0.21720505,-0.2237854,-0.53737795,-0.16354981,-0.7519043,120.0
25479,0.17608356,0.21720505,-0.2237854,-0.6637573,-0.26868898,-0.8442993,120.0
25480,0.19693375,0.17417908,-0.47398376,-0.6637573,-0.26868898,-0.8442993,120.0
25481,0.19693375,0.17417908,-0.47398376,-0.61278075,-0.27612305,-0.8973999,120.0
25482,0.17566204,0.17967606,-0.56022644,-0.61278075,-0.27612305,-0.8973999,120.0
25483,0.17566204,0.17967606,-0.56022644,-0.6117188,-0.37382814,-0.901648,120.0
25484,0.0656023,0.24200821,-0.52008057,-0.6117188,-0.37382814,-0.901648,120.0
25485,0.0656023,0.24200821,-0.52008057,-0.7614624,-0.5809204,-1.0120972,120.0
25486,-0.15242577,0.28159523,-0.57307434,-0.7614624,-0.5809204,-1.0120972,120.0
25487,-0.15242577,0.28159523,-0.57307434,-0.7678345,-0.69986576,-1.1459106,120.0
25488,-0.34390163,0.33715248,-0.47828674,-0.7678345,-0.69986576,-1.1459106,120.0
25489,-0.34390163,0.33715248,-0.47828674,-0.8092529,-0.83898926,-1.3434448,120.0
25490,-0.3668213,0.48095322,-0.29664612,-0.8092529,-0.83898926,-1.3434448,120.0
25491,-0.3668213,0.48095322,-0.29664612,-1.0014771,-0.9802368,-1.5515991,120.0
25492,-0.34765625,0.5704937,-0.47999573,-1.0014771,-0.9802368,-1.5515991,120.0
25493,-0.34765625,0.5704937,-0.47999573,-1.2213135,-1.1490967,-1.8394043,120.0
25494,-0.37517166,0.41439056,-0.7716522,-1.2213135,-1.1490967,-1.8394043,120.0
25495,-0.37517166,0.41439056,-0.7716522,-1.3285767,-1.2499878,-1.9657837,120.0
25496,-0.27547836,0.10442543,-0.5418091,-1.3285767,-1.2499878,-1.9657837,120.0
25497,-0.27547836,0.10442543,-0.5418091,-1.5675293,-1.3710572,-2.0741088,120.0
25498,-0.020090103,-0.10469246,0.1479187,-1.5675293,-1.3710572,-2.0741088,120.0
25499,-0.020090103,-0.10469246,0.1479187,-1.8213501,-1.3625611,-2.263147,120.0
25500,0.23362255,-0.31523514,0.9569702,-1.8213501,-1.3625611,-2.263147,120.0
25501,0.23362255,-0.31523514,0.9569702,-1.9668458,-1.2404298,-2.3289917,120.0
25502,0.36678123,-0.66560364,1.5866394,-1.9668458,-1.2404298,-2.3289917,120.0
25503,0.36678123,-0.66560364,1.5866394,-2.34917,-1.1013062,-2.2875733,120.0
25504,0.26019764,-0.95588493,1.7471924,-2.34917,-1.1013062,-2.2875733,120.0
25505,0.26019764,-0.95588493,1.7471924,-2.899292,-1.0184692,-2.261023,120.0
25506,-0.039022446,-1.0032692,1.461731,-2.899292,-1.0184692,-2.261023,120.0
25507,-0.039022446,-1.0032692,1.461731,-3.4249878,-0.94625247,-2.2079225,120.0
25508,-0.32108593,-0.83929825,0.9104309,-3.4249878,-0.94625247,-2.2079225,120.0
25509,-0.32108593,-0.83929825,0.9104309,-3.8147461,-0.87615967,-2.2079225,120.0
25510,-0.44440556,-0.4678135,0.17204285,-3.8147461,-0.87615967,-2.2079225,120.0
25511,-0.44440556,-0.4678135,0.17204285,-4.1089234,-0.81668705,-2.3343017,120.0
25512,-0.30349827,-0.16447449,-0.7405548,-4.1089234,-0.81668705,-2.3343017,120.0
25513,-0.30349827,-0.16447449,-0.7405548,-3.6565063,-0.6775635,-2.6093628,120.0
25514,0.0776968,-0.27275467,-1.5725403,-3.6565063,-0.6775635,-2.6093628,120.0
25515,0.0776968,-0.27275467,-1.5725403,-2.0029542,-0.7412842,-2.7718506,120.0
25516,0.0776968,-0.27275467,-1.5725403,-2.0029542,-0.7412842,-2.7718506,130.0
25517,0.486022,-0.245327,-1.8148193,-2.0029542,-0.7412842,-2.7718506,130.0
25518,0.486022,-0.245327,-1.8148193,-0.62977296,-0.8889038,-2.7899048,130.0
25519,0.7319813,0.33111954,-1.4489899,-0.62977296,-0.8889038,-2.7899048,130.0
25520,0.7319813,0.33111954,-1.4489899,-0.29948732,-0.9197022,-2.5859985,130.0
25521,0.7258682,0.8131008,-0.84202576,-0.29948732,-0.9197022,-2.5859985,130.0
25522,0.7258682,0.8131008,-0.84202576,-0.49277344,-0.80394286,-2.3980224,130.0
25523,0.5100031,0.8345146,-0.2184143,-0.49277344,-0.80394286,-2.3980224,130.0
25524,0.5100031,0.8345146,-0.2184143,-0.85704345,-0.54906005,-2.151636,130.0
25525,0.12503052,0.6254978,0.3723755,-0.85704345,-0.54906005,-2.151636,130.0
25526,0.12503052,0.6254978,0.3723755,-1.4347779,-0.36533204,-1.8553345,130.0
25527,-0.27853966,0.26377678,0.88923645,-1.4347779,-0.36533204,-1.8553345,130.0
25528,-0.27853966,0.26377678,0.88923645,-2.1027832,-0.2177124,-1.5091187,130.0
25529,-0.51925564,-0.57234,1.3167725,-2.1027832,-0.2177124,-1.5091187,130.0
25530,-0.51925564,-0.57234,1.3167725,-2.2196045,-0.0361084,-1.0598878,130.0
25531,-0.6735592,-1.7160645,1.6080322,-2.2196045,-0.0361084,-1.0598878,130.0
25532,-0.6735592,-1.7160645,1.6080322,-1.5930176,0.010620117,-0.59897465,130.0
25533,-0.771965,-2.3314457,1.6392365,-1.5930176,0.010620117,-0.59897465,130.0
25534,-0.771965,-2.3314457,1.6392365,-0.9526245,-0.020178223,-0.19328614,130.0
25535,-0.6646185,-2.1368256,1.2427673,-0.9526245,-0.020178223,-0.19328614,130.0
25536,-0.6646185,-2.1368256,1.2427673,-0.3695801,0.012744141,0.33028564,130.0
25537,-0.4468193,-1.6754513,0.61997986,-0.3695801,0.012744141,0.33028564,130.0
25538,-0.4468193,-1.6754513,0.61997986,-0.060534667,0.093457036,0.8666016,130.0
25539,-0.31495094,-1.4488335,0.112838745,-0.060534667,0.093457036,0.8666016,130.0
25540,-0.31495094,-1.4488335,0.112838745,0.27612305,0.18054199,1.3073364,130.0
25541,-0.2278881,-1.3425636,-0.21595764,0.27612305,0.18054199,1.3073364,130.0
25542,-0.2278881,-1.3425636,-0.21595764,0.5129517,0.24107666,1.6832886,130.0
25543,0.013685226,-1.0715485,-0.3759613,0.5129517,0.24107666,1.6832886,130.0
25544,0.013685226,-1.0715485,-0.3759613,0.49383545,0.35471192,2.090039,130.0
25545,0.48975658,-0.8262081,-0.4659729,0.49383545,0.35471192,2.090039,130.0
25546,0.48975658,-0.8262081,-0.4659729,0.71579593,0.40993652,2.4904175,130.0
25547,1.0221157,-0.80706024,-0.6184082,0.71579593,0.40993652,2.4904175,130.0
25548,1.0221157,-0.80706024,-0.6184082,1.3731812,0.47684327,2.9226563,130.0
25549,1.4563885,-0.9115906,-0.72454834,1.3731812,0.47684327,2.9226563,130.0
25550,1.4563885,-0.9115906,-0.72454834,1.8617066,0.55968016,3.439856,130.0
25551,1.7233629,-0.9312496,-0.73620605,1.8617066,0.55968016,3.439856,130.0
25552,1.7233629,-0.9312496,-0.73620605,2.2408447,0.71579593,3.8253663,130.0
25553,1.7300949,-0.79626846,-0.6903229,2.2408447,0.71579593,3.8253663,130.0
25554,1.7300949,-0.79626846,-0.6903229,2.6794555,0.8527954,3.978296,130.0
25555,1.4705505,-0.5558872,-0.5678711,2.6794555,0.8527954,3.978296,130.0
25556,1.4705505,-0.5558872,-0.5678711,2.9173462,0.99510497,4.1206055,130.0
25557,1.1226435,-0.20819855,-0.41500854,2.9173462,0.99510497,4.1206055,130.0
25558,1.1226435,-0.20819855,-0.41500854,3.155237,1.0906861,4.12273,130.0
25559,0.7973938,0.18793297,-0.15414429,3.155237,1.0906861,4.12273,130.0
25560,0.7973938,0.18793297,-0.15414429,3.1403687,1.2244996,4.253357,130.0
25561,0.4713745,0.5566826,-0.08905029,3.1403687,1.2244996,4.253357,130.0
25562,0.4713745,0.5566826,-0.08905029,3.164795,1.2552979,4.0929933,130.0
25563,0.040442467,1.1479092,-0.5113678,3.164795,1.2552979,4.0929933,130.0
25564,0.040442467,1.1479092,-0.5113678,3.0808961,1.1437867,3.802002,130.0
25565,-0.42306614,1.8031292,-0.9662781,3.0808961,1.1437867,3.802002,130.0
25566,-0.42306614,1.8031292,-0.9662781,3.1562989,1.0715698,3.5694215,130.0
25567,-0.6337776,2.202282,-0.93595886,3.1562989,1.0715698,3.5694215,130.0
25568,-0.6337776,2.202282,-0.93595886,2.8440673,0.9568726,3.2497559,130.0
25569,-0.49219036,2.4023285,-0.609848,2.8440673,0.9568726,3.2497559,130.0
25570,-0.49219036,2.4023285,-0.609848,2.5573242,0.81031495,2.806897,130.0
25571,-0.35810757,2.4191532,-0.41000366,2.5573242,0.81031495,2.806897,130.0
25572,-0.35810757,2.4191532,-0.41000366,2.267395,0.70092773,2.3619142,130.0
25573,-0.36171722,2.0544014,-0.341156,2.267395,0.70092773,2.3619142,130.0
25574,-0.36171722,2.0544014,-0.341156,2.0241945,0.5363159,1.992334,130.0
25575,-0.2996645,1.3766499,-0.2374115,2.0241945,0.5363159,1.992334,130.0
25576,-0.2996645,1.3766499,-0.2374115,1.5866455,0.38869628,1.6716064,130.0
25577,-0.21357155,0.7992325,-0.061309814,1.5866455,0.38869628,1.6716064,130.0
25578,-0.21357155,0.7992325,-0.061309814,1.0524536,0.20178223,1.3784913,130.0
25579,-0.17071056,0.3615055,0.13716125,1.0524536,0.20178223,1.3784913,130.0
25580,-0.17071056,0.3615055,0.13716125,0.59472656,0.12850343,1.0970582,130.0
25581,-0.17929363,-0.1509552,0.3860321,0.59472656,0.12850343,1.0970582,130.0
25582,-0.17929363,-0.1509552,0.3860321,0.4970215,0.058410645,0.9197022,130.0
25583,-0.30687523,-0.57954216,0.6875305,0.4970215,0.058410645,0.9197022,130.0
25584,-0.30687523,-0.57954216,0.6875305,0.5076416,-0.0010620117,0.7391602,130.0
25585,-0.56752205,-0.6086159,0.9052429,0.5076416,-0.0010620117,0.7391602,130.0
25586,-0.56752205,-0.6086159,0.9052429,0.25594482,-0.06690674,0.5511841,130.0
25587,-0.8216448,-0.45978165,0.9662628,0.25594482,-0.06690674,0.5511841,130.0
25588,-0.8216448,-0.45978165,0.9662628,0.0021240234,-0.06796875,0.37595215,130.0
25589,-0.928215,-0.5156021,0.9514313,0.0021240234,-0.06796875,0.37595215,130.0
25590,-0.928215,-0.5156021,0.9514313,-0.08071289,-0.06690674,0.28461915,130.0
25591,-0.9624939,-0.7309513,1.0191803,-0.08071289,-0.06690674,0.28461915,130.0
25592,-0.9624939,-0.7309513,1.0191803,-0.013806152,-0.07327881,0.2177124,130.0
25593,-0.9814577,-0.8723583,1.2126312,-0.013806152,-0.07327881,0.2177124,130.0
25594,-0.9814577,-0.8723583,1.2126312,0.09451904,-0.081774905,0.14761963,130.0
25595,-0.95949554,-0.78985596,1.3513489,0.09451904,-0.081774905,0.14761963,130.0
25596,-0.95949554,-0.78985596,1.3513489,0.07327881,-0.053100586,0.057348635,130.0
25597,-0.9243593,-0.53969765,1.2391052,0.07327881,-0.053100586,0.057348635,130.0
25598,-0.9243593,-0.53969765,1.2391052,-0.026550293,-0.050976563,0.0031860352,130.0
25599,-0.8944683,-0.3185253,0.8694,-0.026550293,-0.050976563,0.0031860352,130.0
25600,-0.8944683,-0.3185253,0.8694,-0.081774905,-0.04248047,-0.057348635,130.0
25601,-0.8185415,-0.34082985,0.52952576,-0.081774905,-0.04248047,-0.057348635,130.0
25602,-0.8185415,-0.34082985,0.52952576,0.05522461,-0.028674318,-0.04991455,130.0
25603,-0.64331055,-0.48624992,0.41493225,0.05522461,-0.028674318,-0.04991455,130.0
25604,-0.64331055,-0.48624992,0.41493225,0.07540283,-0.023364259,-0.06690674,130.0
25605,-0.4354,-0.5160141,0.3879547,0.07540283,-0.023364259,-0.06690674,130.0
25606,-0.4354,-0.5160141,0.3879547,0.03079834,0.032922365,-0.052038576,130.0
25607,-0.30981922,-0.53471184,0.2883606,0.03079834,0.032922365,-0.052038576,130.0
25608,-0.30981922,-0.53471184,0.2883606,0.05522461,0.052038576,-0.03079834,130.0
25609,-0.26150227,-0.5093498,0.14691162,0.05522461,0.052038576,-0.03079834,130.0
25610,-0.26150227,-0.5093498,0.14691162,0.057348635,0.059472658,-0.010620117,130.0
25611,-0.23708344,-0.4179039,-0.026901245,0.057348635,0.059472658,-0.010620117,130.0
25612,-0.23708344,-0.4179039,-0.026901245,0.07646485,0.059472658,0.004248047,130.0
25613,-0.22310257,-0.2919407,-0.24943542,0.07646485,0.059472658,0.004248047,130.0
25614,-0.22310257,-0.2919407,-0.24943542,0.09239502,0.023364259,0.009558106,130.0
25615,-0.19117737,-0.17398262,-0.31684875,0.09239502,0.023364259,0.009558106,130.0
25616,-0.19117737,-0.17398262,-0.31684875,0.08920898,0.019116212,0.026550293,130.0
25617,-0.19117737,-0.17398262,-0.31684875,0.14337158,0.022302246,0.04460449,130.0
25618,-0.11427021,-0.1918354,-0.090774536,0.14337158,0.022302246,0.04460449,130.0
25619,-0.041330338,-0.22862816,0.1614685,0.14337158,0.022302246,0.04460449,130.0
25620,-0.041330338,-0.22862816,0.1614685,0.10513916,0.008496094,0.032922365,130.0
25621,-0.013081551,-0.14590263,0.18673706,0.10513916,0.008496094,0.032922365,130.0
25622,-0.013081551,-0.14590263,0.18673706,0.020178223,-0.0021240234,0.04248047,130.0
25623,0.02632618,0.13668251,-0.04525757,0.020178223,-0.0021240234,0.04248047,130.0
25624,0.02632618,0.13668251,-0.04525757,-0.08920898,-0.0361084,-0.009558106,130.0
25625,0.02632618,0.13668251,-0.04525757,-0.08920898,-0.0361084,-0.009558106,137.0
25626,-0.5355921,1.1253128,-0.35414124,-0.08920898,-0.0361084,-0.009558106,137.0
25627,-0.5355921,1.1253128,-0.35414124,-0.11682129,-0.008496094,-0.0180542,137.0
25628,-0.34252453,0.69566154,-0.29156494,-0.11682129,-0.008496094,-0.0180542,137.0
25629,-0.34252453,0.69566154,-0.29156494,0.022302246,-0.021240234,0.014868164,137.0
25630,-0.27182293,0.14787483,-0.053604126,0.022302246,-0.021240234,0.014868164,137.0
25631,-0.27182293,0.14787483,-0.053604126,0.124255374,-0.03717041,0.045666505,137.0
25632,-0.2321186,0.025600433,-0.006713867,0.124255374,-0.03717041,0.045666505,137.0
25633,-0.2321186,0.025600433,-0.006713867,0.046728518,-0.07965088,0.045666505,137.0
25634,-0.15828991,0.22019958,-0.10684204,0.046728518,-0.07965088,0.045666505,137.0
25635,-0.15828991,0.22019958,-0.10684204,-0.022302246,-0.057348635,0.05522461,137.0
25636,-0.06369305,0.30631065,-0.12409973,-0.022302246,-0.057348635,0.05522461,137.0
25637,-0.06369305,0.30631065,-0.12409973,0.029736329,-0.047790527,0.06584473,137.0
25638,-0.014039993,0.20582771,-0.080581665,0.029736329,-0.047790527,0.06584473,137.0
25639,-0.014039993,0.20582771,-0.080581665,0.03186035,-0.027612304,0.08071289,137.0
25640,-0.05688572,-0.013242722,-0.008926392,0.03186035,-0.027612304,0.08071289,137.0
25641,-0.05688572,-0.013242722,-0.008926392,0.10301514,-0.038232423,0.1444336,137.0
25642,-0.15725231,-0.15182877,0.10990906,0.10301514,-0.038232423,0.1444336,137.0
25643,-0.15725231,-0.15182877,0.10990906,0.13699952,-0.04991455,0.19647217,137.0
25644,-0.2112627,-0.0337677,0.20631409,0.13699952,-0.04991455,0.19647217,137.0
25645,-0.2112627,-0.0337677,0.20631409,0.060534667,-0.04885254,0.21877442,137.0
25646,-0.20527744,0.24700928,0.16534424,0.060534667,-0.04885254,0.21877442,137.0
25647,-0.20527744,0.24700928,0.16534424,0.0021240234,-0.04885254,0.20709229,137.0
25648,-0.17276669,0.45491982,0.01586914,0.0021240234,-0.04885254,0.20709229,137.0
25649,-0.17276669,0.45491982,0.01586914,0.010620117,-0.029736329,0.18160401,137.0
25650,-0.17273521,0.47501945,-0.06617737,0.010620117,-0.029736329,0.18160401,137.0
25651,-0.17273521,0.47501945,-0.06617737,0.027612304,-0.020178223,0.15611573,137.0
25652,-0.21290684,0.46921158,-0.0115356445,0.027612304,-0.020178223,0.15611573,137.0
25653,-0.21290684,0.46921158,-0.0115356445,-0.028674318,-0.0053100586,0.095581055,137.0
25654,-0.29556942,0.5292759,0.101882935,-0.028674318,-0.0053100586,0.095581055,137.0
25655,-0.29556942,0.5292759,0.101882935,-0.06903076,0.015930176,0.020178223,137.0
25656,-0.4450493,0.5121174,0.2025299,-0.06903076,0.015930176,0.020178223,137.0
25657,-0.4450493,0.5121174,0.2025299,-0.039294433,0.012744141,-0.03717041,137.0
25658,-0.6230564,0.36803246,0.21801758,-0.039294433,0.012744141,-0.03717041,137.0
25659,-0.6230564,0.36803246,0.21801758,0.07327881,-0.0021240234,-0.08283692,137.0
25660,-0.862154,0.2303505,0.07209778,0.07327881,-0.0021240234,-0.08283692,137.0
25661,-0.862154,0.2303505,0.07209778,0.20496826,-0.043542482,-0.08814698,137.0
25662,-1.2179337,0.14818382,-0.2582245,0.20496826,-0.043542482,-0.08814698,137.0
25663,-1.2179337,0.14818382,-0.2582245,0.3345337,-0.15823975,-0.16567384,137.0
25664,-1.2354679,0.12887383,-0.48664856,0.3345337,-0.15823975,-0.16567384,137.0
25665,-1.2354679,0.12887383,-0.48664856,0.35577393,-0.2347046,-0.24001466,137.0
25666,-1.204268,0.31085014,-1.4394073,0.35577393,-0.2347046,-0.24001466,137.0
25667,-1.204268,0.31085014,-1.4394073,-0.0722168,-0.68287355,-0.62977296,137.0
25668,-1.204268,0.31085014,-1.4394073,-0.49489745,-0.97067875,-0.76677245,137.0
25669,-0.8874016,0.5200062,-1.6625366,-0.49489745,-0.97067875,-0.76677245,137.0
25670,0.15542316,1.8044815,-3.5684662,-0.49489745,-0.97067875,-0.76677245,137.0
25671,0.15542316,1.8044815,-3.5684662,-2.4553711,-1.7809937,-1.4846925,137.0
25672,0.60823727,1.8228092,-3.1284332,-2.4553711,-1.7809937,-1.4846925,137.0
25673,0.60823727,1.8228092,-3.1284332,-1.901001,-1.4868164,-1.6248779,137.0
25674,2.9007502,-0.7158375,1.0541382,-1.901001,-1.4868164,-1.6248779,137.0
25675,2.9007502,-0.7158375,1.0541382,-1.177771,-0.9494385,-1.1278565,137.0
25676,2.9109201,-1.9800072,3.0128326,-1.177771,-0.9494385,-1.1278565,137.0
25677,2.9109201,-1.9800072,3.0128326,-1.448584,-0.56605226,-1.3689331,137.0
25678,2.6873913,-2.784958,4.012512,-1.448584,-0.56605226,-1.3689331,137.0
25679,2.6873913,-2.784958,4.012512,-5.872925,-0.4248047,-0.99085695,137.0
25680,1.5626326,-0.49884033,1.9464264,-5.872925,-0.4248047,-0.99085695,137.0
25681,1.5626326,-0.49884033,1.9464264,-7.0241456,-0.4885254,-1.264856,137.0
25682,-0.43496513,4.8429565,-4.1696014,-7.0241456,-0.4885254,-1.264856,137.0
25683,-0.43496513,4.8429565,-4.1696014,-6.0216064,-0.49064943,-1.1809571,137.0
25684,-0.7226429,2.6154423,-3.04068,-6.0216064,-0.49064943,-1.1809571,137.0
25685,-0.7226429,2.6154423,-3.04068,-5.0180054,-0.52250975,-1.3009644,137.0
25686,-0.2449112,-6.6512012,1.0794525,-5.0180054,-0.52250975,-1.3009644,137.0
25687,-0.2449112,-6.6512012,1.0794525,-3.355957,-0.48746338,-0.8878418,137.0
25688,0.23738384,-7.3080826,1.700592,-3.355957,-0.48746338,-0.8878418,137.0
25689,0.23738384,-7.3080826,1.700592,-2.442627,-0.4895874,-0.9494385,137.0
25690,0.8708639,-6.0157413,1.2097778,-2.442627,-0.4895874,-0.9494385,137.0
25691,0.8708639,-6.0157413,1.2097778,-2.3449218,-0.36320803,-1.0503296,137.0
25692,0.78472805,-2.9610424,-0.3191986,-2.3449218,-0.36320803,-1.0503296,137.0
25693,0.78472805,-2.9610424,-0.3191986,-1.5898316,-0.11151123,-0.7327881,137.0
25694,1.087841,-1.3993645,-1.5578461,-1.5898316,-0.11151123,-0.7327881,137.0
25695,1.087841,-1.3993645,-1.5578461,0.67225343,-0.24532472,-0.88253176,137.0
25696,2.7325897,-1.1697607,-0.87216187,0.67225343,-0.24532472,-0.88253176,137.0
25697,2.7325897,-1.1697607,-0.87216187,1.2383057,0.3058594,-0.4609131,137.0
25698,2.6347046,-0.06683922,2.416504,1.2383057,0.3058594,-0.4609131,137.0
25699,2.6347046,-0.06683922,2.416504,0.35789797,0.4248047,0.043542482,137.0
25700,1.3425655,0.3315754,2.4741058,0.35789797,0.4248047,0.043542482,137.0
25701,1.3425655,0.3315754,2.4741058,0.24532472,0.4704712,0.08814698,137.0
25702,-0.99761486,0.23545074,1.0537415,0.24532472,0.4704712,0.08814698,137.0
25703,-0.99761486,0.23545074,1.0537415,0.42161867,0.52888185,-0.12213135,137.0
25704,-1.268734,0.12625122,0.17623901,0.42161867,0.52888185,-0.12213135,137.0
25705,-1.268734,0.12625122,0.17623901,0.38444826,0.5628662,-0.20496826,137.0
25706,-1.3417206,0.14665604,-0.8413086,0.38444826,0.5628662,-0.20496826,137.0
25707,-1.3417206,0.14665604,-0.8413086,0.33984375,0.634021,-0.24213867,137.0
25708,-0.9557495,0.4167633,-0.8006439,0.33984375,0.634021,-0.24213867,137.0
25709,-0.9557495,0.4167633,-0.8006439,0.21877442,0.6988037,-0.21346436,137.0
25710,-0.9557495,0.4167633,-0.8006439,0.0053100586,0.71791995,-0.24744873,137.0
25711,-0.63614464,0.6555176,-0.100234985,0.0053100586,0.71791995,-0.24744873,137.0
25712,-0.41448212,0.6172371,0.65867615,0.0053100586,0.71791995,-0.24744873,137.0
25713,-0.41448212,0.6172371,0.65867615,-0.04991455,0.7126099,-0.2262085,137.0
25714,-0.19419575,0.34266663,1.035965,-0.04991455,0.7126099,-0.2262085,137.0
25715,-0.19419575,0.34266663,1.035965,0.004248047,0.6680054,-0.18691407,137.0
25716,-0.17481518,0.21455002,1.0802917,0.004248047,0.6680054,-0.18691407,137.0
25717,-0.17481518,0.21455002,1.0802917,0.015930176,0.5628662,-0.21983643,137.0
25718,-0.2635584,0.26527977,0.9691162,0.015930176,0.5628662,-0.21983643,137.0
25719,-0.2635584,0.26527977,0.9691162,-0.053100586,0.5671143,-0.23258057,137.0
25720,-0.27678967,0.25802422,0.62846375,-0.053100586,0.5671143,-0.23258057,137.0
25721,-0.27678967,0.25802422,0.62846375,0.21027832,0.56392825,-0.11044922,137.0
25722,-0.41180038,0.39295578,0.19892883,0.21027832,0.56392825,-0.11044922,137.0
25723,-0.41180038,0.39295578,0.19892883,0.3727661,0.5564942,-0.1709839,137.0
25724,-0.41180038,0.39295578,0.19892883,0.3727661,0.5564942,-0.1709839,138.0
25725,-0.54134274,0.625864,-0.1733551,0.3727661,0.5564942,-0.1709839,138.0
25726,-0.54134274,0.625864,-0.1733551,0.49064943,0.634021,-0.15930176,138.0
25727,-0.58627224,0.60668564,-0.5268707,0.49064943,0.634021,-0.15930176,138.0
25728,-0.58627224,0.60668564,-0.5268707,0.63933104,0.5957886,0.004248047,138.0
25729,-0.7195673,0.6379719,-0.8019867,0.63933104,0.5957886,0.004248047,138.0
25730,-0.7195673,0.6379719,-0.8019867,0.8400513,0.48746338,-0.07965088,138.0
25731,-0.5383854,0.7959862,-0.7305145,0.8400513,0.48746338,-0.07965088,138.0
25732,-0.5383854,0.7959862,-0.7305145,0.59260255,0.50870365,0.04460449,138.0
25733,-0.100361824,0.77044296,-0.4221344,0.59260255,0.50870365,0.04460449,138.0
25734,-0.100361824,0.77044296,-0.4221344,0.68924564,0.52038574,0.2623169,138.0
25735,-0.09763527,0.63415146,-0.06817627,0.68924564,0.52038574,0.2623169,138.0
25736,-0.09763527,0.63415146,-0.06817627,1.0004151,0.58198243,0.27718505,138.0
25737,-0.45454884,0.43012428,0.2642975,1.0004151,0.58198243,0.27718505,138.0
25738,-0.45454884,0.43012428,0.2642975,1.5069946,0.56817627,0.41737062,138.0
25739,-0.80166435,0.51208115,0.42578125,1.5069946,0.56817627,0.41737062,138.0
25740,-0.80166435,0.51208115,0.42578125,1.9094971,0.50445557,0.32709962,138.0
25741,-0.93763256,0.89770126,0.38232422,1.9094971,0.50445557,0.32709962,138.0
25742,-0.93763256,0.89770126,0.38232422,1.7671875,0.47578126,0.3536499,138.0
25743,-0.95445156,1.2242775,0.089920044,1.7671875,0.47578126,0.3536499,138.0
25744,-0.95445156,1.2242775,0.089920044,1.2882203,0.37595215,0.27399904,138.0
25745,-0.9591913,1.3450222,-0.25286865,1.2882203,0.37595215,0.27399904,138.0
25746,-0.9591913,1.3450222,-0.25286865,0.9505005,0.3525879,0.24320069,138.0
25747,-0.9533396,1.274126,-0.43190002,0.9505005,0.3525879,0.24320069,138.0
25748,-0.9533396,1.274126,-0.43190002,1.0609497,0.24957275,0.1901001,138.0
25749,-0.79393387,1.216383,-0.34985352,1.0609497,0.24957275,0.1901001,138.0
25750,-0.79393387,1.216383,-0.34985352,1.1469727,0.2803711,0.22727051,138.0
25751,-0.42925072,1.249754,0.0076904297,1.1469727,0.2803711,0.22727051,138.0
25752,-0.42925072,1.249754,0.0076904297,0.87403566,0.19647217,0.19434814,138.0
25753,-0.03289032,1.2185783,0.34303284,0.87403566,0.19647217,0.19434814,138.0
25754,-0.03289032,1.2185783,0.34303284,0.52038574,0.17416993,0.31010744,138.0
25755,-0.03289032,1.2185783,0.34303284,0.51826173,0.22408448,0.25806886,138.0
25756,0.1479187,1.0261192,0.48460388,0.51826173,0.22408448,0.25806886,138.0
25757,0.044128418,0.6055527,0.5545807,0.51826173,0.22408448,0.25806886,138.0
25758,0.044128418,0.6055527,0.5545807,0.52250975,0.16142578,0.3462158,138.0
25759,-0.10120869,0.38726234,0.5036621,0.52250975,0.16142578,0.3462158,138.0
25760,-0.10120869,0.38726234,0.5036621,0.5140137,0.09133301,0.2824951,138.0
25761,-0.1617403,0.6049385,0.35020447,0.5140137,0.09133301,0.2824951,138.0
25762,-0.1617403,0.6049385,0.35020447,0.38763428,0.04248047,0.23895264,138.0
25763,-0.1617403,0.6049385,0.35020447,0.3175415,-0.02442627,0.24744873,138.0
25764,-0.12951374,0.69717216,0.1421051,0.3175415,-0.02442627,0.24744873,138.0
25765,-0.060300827,0.54250336,-0.08253479,0.3175415,-0.02442627,0.24744873,138.0
25766,-0.060300827,0.54250336,-0.08253479,0.26868898,-0.06903076,0.23045655,138.0
25767,0.001490593,0.36780357,-0.18998718,0.26868898,-0.06903076,0.23045655,138.0
25768,0.001490593,0.36780357,-0.18998718,0.2793091,-0.059472658,0.2262085,138.0
25769,0.1520834,0.20783043,-0.14996338,0.2793091,-0.059472658,0.2262085,138.0
25770,0.1520834,0.20783043,-0.14996338,0.23151855,-0.06478272,0.23151855,138.0
25771,0.26965237,0.09677124,-0.027923584,0.23151855,-0.06478272,0.23151855,138.0
25772,0.26965237,0.09677124,-0.027923584,0.16036378,-0.05522461,0.16567384,138.0
25773,0.26965237,0.09677124,-0.027923584,0.25594482,-0.050976563,0.08814698,138.0
25774,0.24497032,0.07460785,0.037643433,0.25594482,-0.050976563,0.08814698,138.0
25775,0.2498703,-0.04695511,0.018188477,0.25594482,-0.050976563,0.08814698,138.0
25776,0.2498703,-0.04695511,0.018188477,0.13275146,-0.053100586,0.04248047,138.0
25777,0.2883234,-0.37068176,0.009994507,0.13275146,-0.053100586,0.04248047,138.0
25778,0.2883234,-0.37068176,0.009994507,0.07752686,-0.052038576,-0.019116212,138.0
25779,0.2863226,-0.6408329,0.1638031,0.07752686,-0.052038576,-0.019116212,138.0
25780,0.2863226,-0.6408329,0.1638031,-0.015930176,-0.07434082,-0.057348635,138.0
25781,0.2834406,-0.58172226,0.39735413,-0.015930176,-0.07434082,-0.057348635,138.0
25782,0.2834406,-0.58172226,0.39735413,-0.14761963,-0.083898924,-0.1083252,138.0
25783,0.27958488,-0.28416443,0.4716339,-0.14761963,-0.083898924,-0.1083252,138.0
25784,0.27958488,-0.28416443,0.4716339,-0.2793091,-0.1178833,-0.15611573,138.0
25785,0.26341438,-0.06754112,0.28585815,-0.2793091,-0.1178833,-0.15611573,138.0
25786,0.26341438,-0.06754112,0.28585815,-0.30054933,-0.12956543,-0.16992188,138.0
25787,0.32845592,-0.07948494,0.11399841,-0.30054933,-0.12956543,-0.16992188,138.0
25788,0.32845592,-0.07948494,0.11399841,-0.059472658,-0.10620117,-0.090270996,138.0
25789,0.36430264,-0.012990952,0.09611511,-0.059472658,-0.10620117,-0.090270996,138.0
25790,0.36430264,-0.012990952,0.09611511,0.053100586,-0.1359375,-0.11469727,138.0
25791,0.27932072,0.28134346,0.03843689,0.053100586,-0.1359375,-0.11469727,138.0
25792,0.27932072,0.28134346,0.03843689,0.026550293,-0.118945315,-0.08814698,138.0
25793,0.2573433,0.4178238,-0.17727661,0.026550293,-0.118945315,-0.08814698,138.0
25794,0.2573433,0.4178238,-0.17727661,-0.10089111,-0.057348635,-0.06796875,138.0
25795,0.29491234,0.1766777,-0.44577026,-0.10089111,-0.057348635,-0.06796875,138.0
25796,0.29491234,0.1766777,-0.44577026,-0.039294433,0.058410645,-0.040356446,138.0
25797,0.28452587,-0.24676895,-0.5597992,-0.039294433,0.058410645,-0.040356446,138.0
25798,0.28452587,-0.24676895,-0.5597992,0.081774905,0.15505372,0.020178223,138.0
25799,0.28452587,-0.24676895,-0.5597992,0.06478272,0.21346436,-0.026550293,138.0
25800,0.17561913,-0.34671974,-0.544754,0.06478272,0.21346436,-0.026550293,138.0
25801,-0.027668953,-0.061885834,-0.5360718,0.06478272,0.21346436,-0.026550293,138.0
25802,-0.027668953,-0.061885834,-0.5360718,0.0637207,0.26975098,-0.095581055,138.0
25803,-0.2406044,0.11618996,-0.47683716,0.0637207,0.26975098,-0.095581055,138.0
25804,-0.2406044,0.11618996,-0.47683716,-0.009558106,0.29311523,-0.1359375,138.0
25805,-0.38369465,0.120759964,-0.3503723,-0.009558106,0.29311523,-0.1359375,138.0
25806,-0.38369465,0.120759964,-0.3503723,0.039294433,0.31116945,-0.19328614,138.0
25807,-0.41349888,0.12407303,-0.15493774,0.039294433,0.31116945,-0.19328614,138.0
25808,-0.41349888,0.12407303,-0.15493774,0.0722168,0.31329346,-0.19222413,138.0
25809,-0.30599403,0.14452171,0.03970337,0.0722168,0.31329346,-0.19222413,138.0
25810,-0.30599403,0.14452171,0.03970337,0.10513916,0.33771974,-0.21346436,138.0
25811,-0.14084053,0.17910576,0.15560913,0.10513916,0.33771974,-0.21346436,138.0
25812,-0.14084053,0.17910576,0.15560913,0.1263794,0.362146,-0.1709839,138.0
25813,-0.06170845,0.19095421,0.18678284,0.1263794,0.362146,-0.1709839,138.0
25814,-0.06170845,0.19095421,0.18678284,0.1359375,0.40250245,-0.15930176,138.0
25815,-0.10257721,0.12449074,0.13346863,0.1359375,0.40250245,-0.15930176,138.0
25816,-0.10257721,0.12449074,0.13346863,0.16992188,0.4364868,-0.14868164,138.0
25817,-0.2182188,0.06504631,0.066345215,0.16992188,0.4364868,-0.14868164,138.0
25818,-0.2182188,0.06504631,0.066345215,0.17523193,0.4364868,-0.17947999,138.0
25819,-0.37639427,0.14478683,0.06843567,0.17523193,0.4364868,-0.17947999,138.0
25820,-0.37639427,0.14478683,0.06843567,0.115759276,0.4619751,-0.23045655,138.0
25821,-0.50875664,0.2384491,0.11936951,0.115759276,0.4619751,-0.23045655,138.0
25822,-0.50875664,0.2384491,0.11936951,0.07646485,0.47790527,-0.25594482,138.0
25823,-0.50101185,0.27319336,0.13027954,0.07646485,0.47790527,-0.25594482,138.0
25824,-0.50101185,0.27319336,0.13027954,0.035046387,0.47790527,-0.26550293,138.0
25825,-0.35504532,0.25236893,0.046539307,0.035046387,0.47790527,-0.26550293,138.0
25826,-0.35504532,0.25236893,0.046539307,-0.012744141,0.5065796,-0.24957275,138.0
25827,-0.35504532,0.25236893,0.046539307,-0.012744141,0.5065796,-0.24957275,124.0
25828,-0.13669682,0.015810013,-0.047027588,-0.012744141,0.5065796,-0.24957275,124.0
25829,-0.13669682,0.015810013,-0.047027588,0.081774905,0.5649902,-0.1720459,124.0
25830,0.0481987,-0.322361,-0.03665161,0.081774905,0.5649902,-0.1720459,124.0
25831,0.0481987,-0.322361,-0.03665161,0.26019287,0.5915405,-0.10195313,124.0
25832,0.08169842,-0.5303879,0.10520935,0.26019287,0.5915405,-0.10195313,124.0
25833,0.08169842,-0.5303879,0.10520935,0.56392825,0.6467652,0.04141846,124.0
25834,-0.09242916,-0.38174438,0.26585388,0.56392825,0.6467652,0.04141846,124.0
25835,-0.09242916,-0.38174438,0.26585388,0.6903076,0.62764895,0.012744141,124.0
25836,-0.35960007,0.12448883,0.36442566,0.6903076,0.62764895,0.012744141,124.0
25837,-0.35960007,0.12448883,0.36442566,0.5150757,0.64782715,-0.040356446,124.0
25838,-0.5875826,0.56749916,0.39692688,0.5150757,0.64782715,-0.040356446,124.0
25839,-0.5875826,0.56749916,0.39692688,0.33240968,0.61915284,-0.107263185,124.0
25840,-0.7623024,0.72354126,0.33399963,0.33240968,0.61915284,-0.107263185,124.0
25841,-0.7623024,0.72354126,0.33399963,0.22939454,0.58304447,-0.1731079,124.0
25842,-0.85608196,0.7309208,0.11758423,0.22939454,0.58304447,-0.1731079,124.0
25843,-0.85608196,0.7309208,0.11758423,0.17841797,0.46516114,-0.27506104,124.0
25844,-0.8722191,0.82927895,-0.22076416,0.17841797,0.46516114,-0.27506104,124.0
25845,-0.8722191,0.82927895,-0.22076416,0.18266602,0.34727785,-0.38763428,124.0
25846,-0.77066374,0.97384834,-0.42216492,0.18266602,0.34727785,-0.38763428,124.0
25847,-0.77066374,0.97384834,-0.42216492,0.26762697,0.24107666,-0.5129517,124.0
25848,-0.5875759,0.87623405,-0.18359375,0.26762697,0.24107666,-0.5129517,124.0
25849,-0.5875759,0.87623405,-0.18359375,0.30267334,0.14974366,-0.6786255,124.0
25850,-0.39541483,0.41394997,0.3375702,0.30267334,0.14974366,-0.6786255,124.0
25851,-0.39541483,0.41394997,0.3375702,0.24532472,0.1083252,-0.6956177,124.0
25852,-0.29066038,-0.09640312,0.6807251,0.24532472,0.1083252,-0.6956177,124.0
25853,-0.29066038,-0.09640312,0.6807251,0.30479738,0.11044922,-0.6287109,124.0
25854,-0.31382704,-0.13555717,0.80467224,0.30479738,0.11044922,-0.6287109,124.0
25855,-0.31382704,-0.13555717,0.80467224,0.37807617,0.115759276,-0.62127686,124.0
25856,-0.41207266,0.1982193,0.80992126,0.37807617,0.115759276,-0.62127686,124.0
25857,-0.41207266,0.1982193,0.80992126,0.19222413,0.15186767,-0.6180908,124.0
25858,-0.5643749,0.5022888,0.6197052,0.19222413,0.15186767,-0.6180908,124.0
25859,-0.5643749,0.5022888,0.6197052,0.06796875,0.16036378,-0.630835,124.0
25860,-0.6732769,0.6707401,0.28222656,0.06796875,0.16036378,-0.630835,124.0
25861,-0.6732769,0.6707401,0.28222656,0.04460449,0.15930176,-0.67225343,124.0
25862,-0.6715927,0.6066742,0.012069702,0.04460449,0.15930176,-0.67225343,124.0
25863,-0.6715927,0.6066742,0.012069702,0.083898924,0.18479005,-0.6711914,124.0
25864,-0.65878296,0.3409176,0.009048462,0.083898924,0.18479005,-0.6711914,124.0
25865,-0.65878296,0.3409176,0.009048462,0.107263185,0.18479005,-0.67650145,124.0
25866,-0.6864748,-0.12942696,0.29081726,0.107263185,0.18479005,-0.67650145,124.0
25867,-0.6864748,-0.12942696,0.29081726,0.0361084,0.23682861,-0.60322267,124.0
25868,-0.7060771,-0.59021187,0.5118103,0.0361084,0.23682861,-0.60322267,124.0
25869,-0.7060771,-0.59021187,0.5118103,0.058410645,0.29205322,-0.5341919,124.0
25870,-0.7105284,-0.54352,0.3761444,0.058410645,0.29205322,-0.5341919,124.0
25871,-0.7105284,-0.54352,0.3761444,0.23258057,0.32816163,-0.5331299,124.0
25872,-0.62373257,-0.30567932,0.120269775,0.23258057,0.32816163,-0.5331299,124.0
25873,-0.62373257,-0.30567932,0.120269775,0.23258057,0.37807617,-0.47896728,124.0
25874,-0.28668165,-0.33452225,0.025756836,0.23258057,0.37807617,-0.47896728,124.0
25875,-0.28668165,-0.33452225,0.025756836,0.21027832,0.49277344,-0.38338622,124.0
25876,0.03313017,-0.24835587,0.021118164,0.21027832,0.49277344,-0.38338622,124.0
25877,0.03313017,-0.24835587,0.021118164,0.040356446,0.5936646,-0.39400634,124.0
25878,-0.027206898,0.110630035,-0.057556152,0.040356446,0.5936646,-0.39400634,124.0
25879,-0.027206898,0.110630035,-0.057556152,-0.2262085,0.5872925,-0.38869628,124.0
25880,-0.24589872,0.47784805,-0.50154114,-0.2262085,0.5872925,-0.38869628,124.0
25881,-0.24589872,0.47784805,-0.50154114,-0.33771974,0.52038574,-0.3695801,124.0
25882,-0.382998,0.5923252,-1.0209198,-0.33771974,0.52038574,-0.3695801,124.0
25883,-0.382998,0.5923252,-1.0209198,-0.24001466,0.53525394,-0.34090576,124.0
25884,-0.5305805,0.34893227,-0.9391937,-0.24001466,0.53525394,-0.34090576,124.0
25885,-0.5305805,0.34893227,-0.9391937,-0.10301514,0.47896728,-0.28355715,124.0
25886,-0.6505141,0.0801239,-0.35269165,-0.10301514,0.47896728,-0.28355715,124.0
25887,-0.6505141,0.0801239,-0.35269165,-0.16779785,0.40144044,-0.25913087,124.0
25888,-0.73402214,0.15206337,0.15863037,-0.16779785,0.40144044,-0.25913087,124.0
25889,-0.73402214,0.15206337,0.15863037,-0.46622315,0.36639404,-0.26762697,124.0
25890,-0.90773773,0.33764267,0.37504578,-0.46622315,0.36639404,-0.26762697,124.0
25891,-0.90773773,0.33764267,0.37504578,-0.7604004,0.31329346,-0.27718505,124.0
25892,-1.1194029,0.3498268,0.39389038,-0.7604004,0.31329346,-0.27718505,124.0
25893,-1.1194029,0.3498268,0.39389038,-0.7975708,0.18479005,-0.29099122,124.0
25894,-1.2052026,0.18297386,0.53897095,-0.7975708,0.18479005,-0.29099122,124.0
25895,-1.2052026,0.18297386,0.53897095,-0.93775636,0.1274414,-0.37595215,124.0
25896,-1.0562031,-0.14115715,0.66082764,-0.93775636,0.1274414,-0.37595215,124.0
25897,-1.0562031,-0.14115715,0.66082764,-0.77102053,0.14549561,-0.39188233,124.0
25898,-0.85870767,-0.4909153,0.38008118,-0.77102053,0.14549561,-0.39188233,124.0
25899,-0.85870767,-0.4909153,0.38008118,-0.34727785,0.14230958,-0.4248047,124.0
25900,-0.8329623,-0.39519882,0.14857483,-0.34727785,0.14230958,-0.4248047,124.0
25901,-0.8329623,-0.39519882,0.14857483,-0.07327881,0.028674318,-0.56605226,124.0
25902,-0.68302035,-0.078071594,0.3243866,-0.07327881,0.028674318,-0.56605226,124.0
25903,-0.68302035,-0.078071594,0.3243866,-0.22302246,0.12531738,-0.6488892,124.0
25904,-0.3446951,-0.27843666,0.51631165,-0.22302246,0.12531738,-0.6488892,124.0
25905,-0.3446951,-0.27843666,0.51631165,-0.18797608,0.19116211,-0.5766724,124.0
25906,-0.20474768,-0.722847,0.48857117,-0.18797608,0.19116211,-0.5766724,124.0
25907,-0.20474768,-0.722847,0.48857117,-0.20178223,0.17523193,-0.55543214,124.0
25908,-0.21569014,-0.7354679,0.20687866,-0.20178223,0.17523193,-0.55543214,124.0
25909,-0.21569014,-0.7354679,0.20687866,-0.47684327,0.1529297,-0.5713623,124.0
25910,-0.21508145,-0.36912346,-0.14837646,-0.47684327,0.1529297,-0.5713623,124.0
25911,-0.21508145,-0.36912346,-0.14837646,-0.9589966,0.13381349,-0.5915405,124.0
25912,-0.2563913,-0.108407974,-0.28077698,-0.9589966,0.13381349,-0.5915405,124.0
25913,-0.2563913,-0.108407974,-0.28077698,-1.2967163,0.18266602,-0.56605226,124.0
25914,-0.2563913,-0.108407974,-0.28077698,-0.92713624,0.19116211,-0.5671143,124.0
25915,-0.24170971,-0.25839233,-0.17214966,-0.92713624,0.19116211,-0.5671143,124.0
25916,-0.12063837,-0.5874138,-0.013137817,-0.92713624,0.19116211,-0.5671143,124.0
25917,-0.12063837,-0.5874138,-0.013137817,-0.4609131,0.19434814,-0.53950197,124.0
25918,-0.034230232,-0.5563698,-0.019882202,-0.4609131,0.19434814,-0.53950197,124.0
25919,-0.034230232,-0.5563698,-0.019882202,-0.26868898,0.1996582,-0.5246338,124.0
25920,-0.03935933,-0.072525024,-0.16340637,-0.26868898,0.1996582,-0.5246338,124.0
25921,-0.03935933,-0.072525024,-0.16340637,-0.23682861,0.21027832,-0.5150757,124.0
25922,-0.113640785,0.38042068,-0.25794983,-0.23682861,0.21027832,-0.5150757,124.0
25923,-0.113640785,0.38042068,-0.25794983,-0.06584473,0.23364258,-0.5055176,124.0
25924,-0.10825896,0.4377098,-0.27894592,-0.06584473,0.23364258,-0.5055176,124.0
25925,-0.10825896,0.4377098,-0.27894592,0.10195313,0.20072022,-0.53737795,124.0
25926,0.010951519,0.27677917,-0.31541443,0.10195313,0.20072022,-0.53737795,124.0
25927,0.010951519,0.27677917,-0.31541443,0.13168946,0.13381349,-0.5214478,124.0
25928,0.010951519,0.27677917,-0.31541443,0.13168946,0.13381349,-0.5214478,113.0
25929,0.1093595,0.2355957,-0.24806213,0.13168946,0.13381349,-0.5214478,113.0
25930,0.1093595,0.2355957,-0.24806213,0.0637207,0.13699952,-0.4800293,113.0
25931,0.13178682,0.30994797,0.0119018555,0.0637207,0.13699952,-0.4800293,113.0
25932,0.13178682,0.30994797,0.0119018555,0.1529297,0.26125488,-0.41524658,113.0
25933,-0.0018091202,0.16983414,0.30166626,0.1529297,0.26125488,-0.41524658,113.0
25934,-0.0018091202,0.16983414,0.30166626,0.36851808,0.32178956,-0.362146,113.0
25935,-0.31331253,-0.21425438,0.52890015,0.36851808,0.32178956,-0.362146,113.0
25936,-0.31331253,-0.21425438,0.52890015,0.5171997,0.2527588,-0.39400634,113.0
25937,-0.4953766,-0.5248585,0.75154114,0.5171997,0.2527588,-0.39400634,113.0
25938,-0.4953766,-0.5248585,0.75154114,0.52675784,0.22514649,-0.42055663,113.0
25939,-0.35385728,-0.55984116,0.96269226,0.52675784,0.22514649,-0.42055663,113.0
25940,-0.35385728,-0.55984116,0.96269226,0.44923097,0.2793091,-0.40993652,113.0
25941,-0.35385728,-0.55984116,0.96269226,0.31223145,0.43967286,-0.43011475,113.0
25942,-0.134099,-0.40650368,1.0323944,0.31223145,0.43967286,-0.43011475,113.0
25943,-0.07142711,-0.16757393,0.86634827,0.31223145,0.43967286,-0.43011475,113.0
25944,-0.07142711,-0.16757393,0.86634827,0.032922365,0.5607422,-0.47471926,113.0
25945,-0.1325934,0.020298004,0.54489136,0.032922365,0.5607422,-0.47471926,113.0
25946,-0.1325934,0.020298004,0.54489136,-0.29099122,0.68074954,-0.5894165,113.0
25947,-0.21360636,0.03912735,0.19927979,-0.29099122,0.68074954,-0.5894165,113.0
25948,-0.21360636,0.03912735,0.19927979,-0.58410645,0.7625244,-0.80606693,113.0
25949,-0.37031126,-0.05192566,-0.18026733,-0.58410645,0.7625244,-0.80606693,113.0
25950,-0.37031126,-0.05192566,-0.18026733,-0.9133301,0.77951664,-1.1055542,113.0
25951,-0.7370205,-0.3741207,-0.57748413,-0.9133301,0.77951664,-1.1055542,113.0
25952,-0.7370205,-0.3741207,-0.57748413,-1.0906861,0.7657105,-1.2914063,113.0
25953,-1.3596604,-0.9647865,-0.7489166,-1.0906861,0.7657105,-1.2914063,113.0
25954,-1.3596604,-0.9647865,-0.7489166,-1.1066163,0.5851685,-1.4974365,113.0
25955,-2.013815,-1.6257858,-0.5932312,-1.1066163,0.5851685,-1.4974365,113.0
25956,-2.013815,-1.6257858,-0.5932312,-0.93563235,0.3971924,-1.5112427,113.0
25957,-2.3442917,-2.1458683,-0.15545654,-0.93563235,0.3971924,-1.5112427,113.0
25958,-2.3442917,-2.1458683,-0.15545654,-0.631897,0.28780517,-1.3052124,113.0
25959,-2.3442917,-2.1458683,-0.15545654,-0.5214478,0.17416993,-0.94412845,113.0
25960,-2.2422056,-2.1552086,0.21110535,-0.5214478,0.17416993,-0.94412845,113.0
25961,-1.8464258,-1.4330788,0.2833557,-0.5214478,0.17416993,-0.94412845,113.0
25962,-1.8464258,-1.4330788,0.2833557,-0.40356445,0.14549561,-0.68499756,113.0
25963,-1.2267745,-0.29101753,0.30046082,-0.40356445,0.14549561,-0.68499756,113.0
25964,-1.2267745,-0.29101753,0.30046082,-0.3695801,0.15930176,-0.58198243,113.0
25965,-0.39940047,0.6943474,0.15090942,-0.3695801,0.15930176,-0.58198243,113.0
25966,-0.39940047,0.6943474,0.15090942,-0.40462646,0.18479005,-0.49171144,113.0
25967,0.399132,1.276083,-0.20127869,-0.40462646,0.18479005,-0.49171144,113.0
25968,0.399132,1.276083,-0.20127869,-0.2166504,0.1720459,-0.44604492,113.0
25969,0.962958,1.4752979,-0.41456604,-0.2166504,0.1720459,-0.44604492,113.0
25970,0.962958,1.4752979,-0.41456604,-0.10513916,0.22727051,-0.48321533,113.0
25971,1.2715383,1.2726936,-0.25907898,-0.10513916,0.22727051,-0.48321533,113.0
25972,1.2715383,1.2726936,-0.25907898,-0.38338622,0.38338622,-0.6149048,113.0
25973,1.3132634,0.82392883,0.0848999,-0.38338622,0.38338622,-0.6149048,113.0
25974,1.3132634,0.82392883,0.0848999,-0.66269535,0.5649902,-0.6977417,113.0
25975,1.0374272,0.101148605,0.17527771,-0.66269535,0.5649902,-0.6977417,113.0
25976,1.0374272,0.101148605,0.17527771,-0.7720825,0.6818115,-0.62977296,113.0
25977,0.53245634,-0.7844124,-0.17651367,-0.7720825,0.6818115,-0.62977296,113.0
25978,0.53245634,-0.7844124,-0.17651367,-0.6818115,0.6605713,-0.51082766,113.0
25979,0.045325458,-1.1870384,-0.8829346,-0.6818115,0.6605713,-0.51082766,113.0
25980,0.045325458,-1.1870384,-0.8829346,-0.41418457,0.5076416,-0.42905274,113.0
25981,-0.40507263,-0.69184303,-1.8886261,-0.41418457,0.5076416,-0.42905274,113.0
25982,-0.40507263,-0.69184303,-1.8886261,-0.32709962,0.2347046,-0.5522461,113.0
25983,-0.8800029,-0.35149765,-2.8146667,-0.32709962,0.2347046,-0.5522461,113.0
25984,-0.8800029,-0.35149765,-2.8146667,0.5692383,-0.059472658,-0.26019287,113.0
25985,-1.3430892,-0.6564903,-3.0452423,0.5692383,-0.059472658,-0.26019287,113.0
25986,-1.3430892,-0.6564903,-3.0452423,1.2552979,-0.45560303,-0.32922363,113.0
25987,-1.6922693,-0.92084694,-2.3924866,1.2552979,-0.45560303,-0.32922363,113.0
25988,-1.6922693,-0.92084694,-2.3924866,1.8298463,-0.83049315,-0.20496826,113.0
25989,-1.8794868,-0.895174,-1.0184326,1.8298463,-0.83049315,-0.20496826,113.0
25990,-1.8794868,-0.895174,-1.0184326,1.6503662,-1.1629028,-0.13168946,113.0
25991,-1.8434942,-0.3701687,0.46473694,1.6503662,-1.1629028,-0.13168946,113.0
25992,-1.8434942,-0.3701687,0.46473694,0.8878418,-1.3466309,-0.095581055,113.0
25993,-1.7146757,0.65675735,1.5252075,0.8878418,-1.3466309,-0.095581055,113.0
25994,-1.7146757,0.65675735,1.5252075,0.32816163,-1.3126465,-0.26550293,113.0
25995,-1.7903562,1.96381,2.0016937,0.32816163,-1.3126465,-0.26550293,113.0
25996,-1.7903562,1.96381,2.0016937,-0.095581055,-1.0715698,-0.7317261,113.0
25997,-2.0877538,2.749197,1.8409424,-0.095581055,-1.0715698,-0.7317261,113.0
25998,-2.0877538,2.749197,1.8409424,-0.69986576,-1.0046631,-1.2914063,113.0
25999,-2.3166995,2.6168976,1.2138062,-0.69986576,-1.0046631,-1.2914063,113.0
26000,-2.3166995,2.6168976,1.2138062,-1.6057618,-1.2266235,-1.811792,113.0
26001,-1.816824,1.610035,0.9682312,-1.6057618,-1.2266235,-1.811792,113.0
26002,-1.816824,1.610035,0.9682312,-2.8398194,-1.4740723,-2.2981935,113.0
26003,-1.816824,1.610035,0.9682312,-3.5927856,-1.5972656,-2.7442384,113.0
26004,-0.040519714,-0.2295742,1.9723663,-3.5927856,-1.5972656,-2.7442384,113.0
26005,2.8870423,-2.893425,3.6873322,-3.5927856,-1.5972656,-2.7442384,113.0
26006,2.8870423,-2.893425,3.6873322,-3.530127,-1.4560181,-2.8302612,113.0
26007,5.9919825,-5.47978,4.5670166,-3.530127,-1.4560181,-2.8302612,113.0
26008,5.9919825,-5.47978,4.5670166,-3.0978882,-1.1894531,-2.6444092,113.0
26009,8.073005,-6.5311985,4.2390594,-3.0978882,-1.1894531,-2.6444092,113.0
26010,8.073005,-6.5311985,4.2390594,-2.7453003,-0.7412842,-2.2514648,113.0
26011,8.073005,-6.5311985,4.2390594,-1.7024049,-0.19222413,-1.6471802,113.0
26012,8.357257,-6.2792683,3.3417969,-1.7024049,-0.19222413,-1.6471802,113.0
26013,6.47936,-5.35497,2.3921967,-1.7024049,-0.19222413,-1.6471802,113.0
26014,6.47936,-5.35497,2.3921967,-0.83049315,0.1274414,-0.8666016,113.0
26015,3.127531,-3.6446571,1.4155426,-0.83049315,0.1274414,-0.8666016,113.0
26016,3.127531,-3.6446571,1.4155426,-0.4630371,0.34940186,-0.18585205,113.0
26017,0.062291145,-1.4894934,0.3950348,-0.4630371,0.34940186,-0.18585205,113.0
26018,0.062291145,-1.4894934,0.3950348,-0.14868164,0.6265869,0.32497558,113.0
26019,-1.4044762,0.25642776,-0.57522583,-0.14868164,0.6265869,0.32497558,113.0
26020,-1.4044762,0.25642776,-0.57522583,0.15186767,0.8591675,0.5501221,113.0
26021,-1.5715303,1.1250267,-1.5384827,0.15186767,0.8591675,0.5501221,113.0
26022,-1.5715303,1.1250267,-1.5384827,0.14549561,1.0205933,0.632959,113.0
26023,-1.4604471,1.2579432,-2.4049683,0.14549561,1.0205933,0.632959,113.0
26024,-1.4604471,1.2579432,-2.4049683,0.047790527,1.0471436,0.724292,113.0
26025,-1.5425396,1.0813427,-2.9197693,0.047790527,1.0471436,0.724292,113.0
26026,-1.5425396,1.0813427,-2.9197693,-0.016992187,0.91120607,0.77314454,113.0
26027,-1.6455064,1.0017433,-3.027649,-0.016992187,0.91120607,0.77314454,113.0
26028,-1.6455064,1.0017433,-3.027649,-0.029736329,0.6956177,0.6924316,113.0
26029,-1.6455064,1.0017433,-3.027649,0.0021240234,0.452417,0.48427734,113.0
26030,-1.5574207,1.121769,-2.8996124,0.0021240234,0.452417,0.48427734,113.0
26031,-1.3121965,1.418045,-2.6305237,0.0021240234,0.452417,0.48427734,113.0
26032,-1.3121965,1.418045,-2.6305237,0.087084964,0.270813,0.2548828,113.0
26033,-1.3121965,1.418045,-2.6305237,0.087084964,0.270813,0.2548828,106.0
26034,-0.90243053,1.7503662,-2.0712585,0.087084964,0.270813,0.2548828,106.0
26035,-0.90243053,1.7503662,-2.0712585,0.35789797,0.33240968,0.046728518,106.0
26036,-0.2896446,1.4645023,-1.3152924,0.35789797,0.33240968,0.046728518,106.0
26037,-0.2896446,1.4645023,-1.3152924,0.48746338,0.6202149,0.16992188,106.0
26038,-0.2896446,1.4645023,-1.3152924,0.36320803,0.72323,0.2538208,106.0
26039,0.18254209,0.41903877,-0.89704895,0.36320803,0.72323,0.2538208,106.0
26040,0.18961287,-0.39522552,-1.0562286,0.36320803,0.72323,0.2538208,106.0
26041,0.18961287,-0.39522552,-1.0562286,-0.08602295,0.7604004,0.24532472,106.0
26042,-0.06804848,-0.33945847,-1.3745575,-0.08602295,0.7604004,0.24532472,106.0
26043,-0.06804848,-0.33945847,-1.3745575,-0.29099122,0.7391602,0.20709229,106.0
26044,-0.31416786,0.20952415,-1.370758,-0.29099122,0.7391602,0.20709229,106.0
26045,-0.31416786,0.20952415,-1.370758,-0.43754885,0.68499756,0.03186035,106.0
26046,-0.38136363,0.6168499,-1.0217438,-0.43754885,0.68499756,0.03186035,106.0
26047,-0.38136363,0.6168499,-1.0217438,-0.5012695,0.62127686,-0.115759276,106.0
26048,-0.24365294,0.63526344,-0.6223297,-0.5012695,0.62127686,-0.115759276,106.0
26049,-0.24365294,0.63526344,-0.6223297,-0.50445557,0.5734863,-0.24638672,106.0
26050,-0.089880824,0.4333458,-0.28269958,-0.50445557,0.5734863,-0.24638672,106.0
26051,-0.089880824,0.4333458,-0.28269958,-0.4619751,0.5479981,-0.3982544,106.0
26052,0.04845667,0.16037178,0.19671631,-0.4619751,0.5479981,-0.3982544,106.0
26053,0.04845667,0.16037178,0.19671631,-0.29311523,0.6425171,-0.56180423,106.0
26054,0.16829407,-0.042369843,0.7967682,-0.29311523,0.6425171,-0.56180423,106.0
26055,0.16829407,-0.042369843,0.7967682,-0.29417726,0.7434082,-0.79119873,106.0
26056,0.1279335,-0.0803318,1.019455,-0.29417726,0.7434082,-0.79119873,106.0
26057,0.1279335,-0.0803318,1.019455,-0.6425171,0.9409424,-0.99085695,106.0
26058,-0.14640808,-0.09928703,0.5839844,-0.6425171,0.9409424,-0.99085695,106.0
26059,-0.14640808,-0.09928703,0.5839844,-1.177771,1.1469727,-1.1490967,106.0
26060,-0.44113767,-0.34830284,0.04949951,-1.177771,1.1469727,-1.1490967,106.0
26061,-0.44113767,-0.34830284,0.04949951,-1.174585,1.5951416,-1.263794,106.0
26062,-0.6536181,-0.673296,0.1063385,-1.174585,1.5951416,-1.263794,106.0
26063,-0.6536181,-0.673296,0.1063385,-0.81668705,1.7565674,-1.4018555,106.0
26064,-0.92975485,-0.8876972,0.5442047,-0.81668705,1.7565674,-1.4018555,106.0
26065,-0.92975485,-0.8876972,0.5442047,-0.9483765,1.8266602,-1.4708862,106.0
26066,-1.3419118,-1.8175068,1.3040924,-0.9483765,1.8266602,-1.4708862,106.0
26067,-1.3419118,-1.8175068,1.3040924,0.23045655,2.0464966,-1.1894531,106.0
26068,-2.1758976,-3.7843285,3.1272278,0.23045655,2.0464966,-1.1894531,106.0
26069,-2.1758976,-3.7843285,3.1272278,2.2950075,1.9392334,-0.5278198,106.0
26070,-3.6975784,-4.560995,5.8264008,2.2950075,1.9392334,-0.5278198,106.0
26071,-3.6975784,-4.560995,5.8264008,4.0855594,1.3721192,-0.541626,106.0
26072,-4.88078,-2.274785,7.5834656,4.0855594,1.3721192,-0.541626,106.0
26073,-4.88078,-2.274785,7.5834656,4.691968,1.4188477,-0.47365722,106.0
26074,-4.5355444,1.2871418,6.5898743,4.691968,1.4188477,-0.47365722,106.0
26075,-4.5355444,1.2871418,6.5898743,4.6526732,1.81073,-0.4364868,106.0
26076,-3.2167902,3.8922987,3.40271,4.6526732,1.81073,-0.4364868,106.0
26077,-3.2167902,3.8922987,3.40271,4.099365,2.2249146,-0.5872925,106.0
26078,-1.9215035,5.060006,0.04434204,4.099365,2.2249146,-0.5872925,106.0
26079,-1.9215035,5.060006,0.04434204,3.260376,2.4320068,-0.9568726,106.0
26080,-1.0572591,4.6056957,-2.954544,3.260376,2.4320068,-0.9568726,106.0
26081,-1.0572591,4.6056957,-2.954544,2.4139526,2.3789062,-1.269104,106.0
26082,-0.6316838,2.8853378,-5.5419617,2.4139526,2.3789062,-1.269104,106.0
26083,-0.6316838,2.8853378,-5.5419617,2.3141236,2.0125122,-1.6747925,106.0
