,accx,accy,accz,gyrox,gyroy,gyroz,heart rate
22331,open,open,open,open,open,open,open
22332,1.6997354,-0.5261078,-1.8661346,-1.3296387,0.08071289,-0.20178223,172.0
22333,1.6997354,-0.5261078,-1.8661346,-0.725354,0.2623169,-0.37701416,172.0
22334,1.6997354,-0.5261078,-1.8661346,0.07646485,-0.060534667,-0.32391357,172.0
22335,1.3894026,-0.4267702,-1.4836426,0.07646485,-0.060534667,-0.32391357,172.0
22336,1.1336901,-0.34557915,-1.1799469,0.07646485,-0.060534667,-0.32391357,172.0
22337,1.1336901,-0.34557915,-1.1799469,0.070092775,-0.010620117,-0.2538208,172.0
22338,-0.32039165,-1.0386457,-0.39770508,0.070092775,-0.010620117,-0.2538208,172.0
22339,-0.32039165,-1.0386457,-0.39770508,-0.08496094,-0.03186035,-0.04991455,172.0
22340,-0.32151103,-0.6996536,0.032485962,-0.08496094,-0.03186035,-0.04991455,172.0
22341,-0.32151103,-0.6996536,0.032485962,-0.15611573,0.0063720704,-0.15611573,172.0
22342,-0.4049871,-0.6026058,0.36213684,-0.15611573,0.0063720704,-0.15611573,172.0
22343,-0.4049871,-0.6026058,0.36213684,-0.18691407,-0.0021240234,-0.032922365,172.0
22344,-0.47043753,-0.57092667,0.40849304,-0.18691407,-0.0021240234,-0.032922365,172.0
22345,-0.47043753,-0.57092667,0.40849304,-0.2888672,-0.078588866,-0.06265869,172.0
22346,-0.34431887,-0.527298,0.19999695,-0.2888672,-0.078588866,-0.06265869,172.0
22347,-0.34431887,-0.527298,0.19999695,-0.28674316,-0.10513916,-0.06796875,172.0
22348,-0.0488317,-0.43561935,-0.061447144,-0.28674316,-0.10513916,-0.06796875,172.0
22349,-0.0488317,-0.43561935,-0.061447144,-0.19753419,-0.08602295,-0.14230958,172.0
22350,0.25249958,-0.2852745,-0.18359375,-0.19753419,-0.08602295,-0.14230958,172.0
22351,0.25249958,-0.2852745,-0.18359375,-0.07434082,-0.053100586,-0.17735596,172.0
22352,0.25249958,-0.2852745,-0.18359375,0.009558106,-0.03079834,-0.19541016,172.0
22353,0.44534683,-0.07154274,-0.121536255,0.009558106,-0.03079834,-0.19541016,172.0
22354,0.49540114,0.13850594,0.012435913,0.009558106,-0.03079834,-0.19541016,172.0
22355,0.49540114,0.13850594,0.012435913,0.0021240234,-0.020178223,-0.18691407,172.0
22356,0.39407492,0.15489674,0.10449219,0.0021240234,-0.020178223,-0.18691407,172.0
22357,0.39407492,0.15489674,0.10449219,0.035046387,-0.004248047,-0.10301514,172.0
22358,0.1462903,-0.07837677,0.1648407,0.035046387,-0.004248047,-0.10301514,172.0
22359,0.1462903,-0.07837677,0.1648407,0.12956543,-0.010620117,-0.04885254,172.0
22360,0.1462903,-0.07837677,0.1648407,0.13062744,-0.05522461,-0.06478272,172.0
22361,-0.06164217,-0.2599678,0.22201538,0.13062744,-0.05522461,-0.06478272,172.0
22362,-0.13382292,-0.23329163,0.21179199,0.13062744,-0.05522461,-0.06478272,172.0
22363,-0.13382292,-0.23329163,0.21179199,0.07965088,-0.09133301,-0.06690674,172.0
22364,-0.17685819,-0.11376953,0.14242554,0.07965088,-0.09133301,-0.06690674,172.0
22365,-0.17685819,-0.11376953,0.14242554,0.17629395,-0.058410645,-0.027612304,172.0
22366,-0.21557093,0.031079292,0.13996887,0.17629395,-0.058410645,-0.027612304,172.0
22367,-0.21557093,0.031079292,0.13996887,0.09664307,-0.098767094,-0.008496094,172.0
22368,-0.15561104,0.1138525,0.19252014,0.09664307,-0.098767094,-0.008496094,172.0
22369,-0.15561104,0.1138525,0.19252014,-0.045666505,-0.19116211,-0.06265869,172.0
22370,-0.15561104,0.1138525,0.19252014,-0.025488282,-0.19541016,-0.16885987,172.0
22371,0.040928602,0.103630066,0.11552429,-0.025488282,-0.19541016,-0.16885987,172.0
22372,0.26999855,0.12313843,-0.08047485,-0.025488282,-0.19541016,-0.16885987,172.0
22373,0.26999855,0.12313843,-0.08047485,0.021240234,-0.1985962,-0.18797608,172.0
22374,0.41396022,0.15799618,-0.25341797,0.021240234,-0.1985962,-0.18797608,172.0
22375,0.41396022,0.15799618,-0.25341797,0.06584473,-0.20072022,-0.22514649,172.0
22376,0.45525265,0.14177799,-0.32580566,0.06584473,-0.20072022,-0.22514649,172.0
22377,0.45525265,0.14177799,-0.32580566,0.15186767,-0.17629395,-0.22302246,172.0
22378,0.41740036,0.16344643,-0.29525757,0.15186767,-0.17629395,-0.22302246,172.0
22379,0.41740036,0.16344643,-0.29525757,0.19541016,-0.18160401,-0.14124756,172.0
22380,0.3243134,0.1496172,-0.19914246,0.19541016,-0.18160401,-0.14124756,172.0
22381,0.3243134,0.1496172,-0.19914246,0.1529297,-0.20178223,-0.0998291,172.0
22382,0.19544935,0.050797462,-0.13238525,0.1529297,-0.20178223,-0.0998291,172.0
22383,0.19544935,0.050797462,-0.13238525,0.1274414,-0.1985962,-0.083898924,172.0
22384,0.090929985,0.01608944,-0.097976685,0.1274414,-0.1985962,-0.083898924,172.0
22385,0.090929985,0.01608944,-0.097976685,0.0722168,-0.18797608,-0.090270996,172.0
22386,0.0353539,0.07462692,-0.07362366,0.0722168,-0.18797608,-0.090270996,172.0
22387,0.0353539,0.07462692,-0.07362366,-0.033984374,-0.1996582,-0.093457036,172.0
22388,0.028038979,0.063425064,-0.029388428,-0.033984374,-0.1996582,-0.093457036,172.0
22389,0.028038979,0.063425064,-0.029388428,-0.115759276,-0.21452637,-0.10301514,172.0
22390,0.085199594,-0.06481171,-0.0037078857,-0.115759276,-0.21452637,-0.10301514,172.0
22391,0.085199594,-0.06481171,-0.0037078857,-0.12319336,-0.2166504,-0.11469727,172.0
22392,0.20795465,-0.16604614,-0.023773193,-0.12319336,-0.2166504,-0.11469727,172.0
22393,0.20795465,-0.16604614,-0.023773193,-0.07115479,-0.17523193,-0.12213135,172.0
22394,0.330719,-0.10637188,-0.044189453,-0.07115479,-0.17523193,-0.12213135,172.0
22395,0.330719,-0.10637188,-0.044189453,-0.06690674,-0.124255374,-0.13168946,172.0
22396,0.330719,-0.10637188,-0.044189453,-0.13381349,-0.08920898,-0.12850343,172.0
22397,0.36252427,0.060837746,-0.008590698,-0.13381349,-0.08920898,-0.12850343,172.0
22398,0.30203104,0.16677284,0.075668335,-0.13381349,-0.08920898,-0.12850343,172.0
22399,0.30203104,0.16677284,0.075668335,-0.19328614,-0.083898924,-0.13699952,172.0
22400,0.20916629,0.074323654,0.12145996,-0.19328614,-0.083898924,-0.13699952,172.0
22401,0.20916629,0.074323654,0.12145996,-0.20496826,-0.07434082,-0.16248779,172.0
22402,0.17379045,-0.057032585,0.085754395,-0.20496826,-0.07434082,-0.16248779,172.0
22403,0.17379045,-0.057032585,0.085754395,-0.1274414,-0.035046387,-0.14124756,172.0
22404,0.17379045,-0.057032585,0.085754395,-0.08814698,-0.025488282,-0.13381349,172.0
22405,0.16255522,-0.11141014,0.07835388,-0.08814698,-0.025488282,-0.13381349,172.0
22406,0.123952866,-0.15337372,0.10256958,-0.08814698,-0.025488282,-0.13381349,172.0
22407,0.123952866,-0.15337372,0.10256958,-0.026550293,-0.011682129,-0.16673584,172.0
22408,0.14014125,-0.08549118,0.10247803,-0.026550293,-0.011682129,-0.16673584,172.0
22409,0.14014125,-0.08549118,0.10247803,0.029736329,0.038232423,-0.13806152,172.0
22410,0.13205934,0.13783264,0.102630615,0.029736329,0.038232423,-0.13806152,172.0
22411,0.13205934,0.13783264,0.102630615,-0.04141846,0.04141846,-0.09664307,172.0
22412,0.048958063,0.23607254,0.09501648,-0.04141846,0.04141846,-0.09664307,172.0
22413,0.048958063,0.23607254,0.09501648,-0.16248779,0.004248047,-0.093457036,172.0
22414,0.009479046,0.08395004,-0.0058135986,-0.16248779,0.004248047,-0.093457036,172.0
22415,0.009479046,0.08395004,-0.0058135986,-0.16567384,0.014868164,-0.083898924,172.0
22416,0.04436302,-0.0952425,-0.14523315,-0.16567384,0.014868164,-0.083898924,172.0
22417,0.04436302,-0.0952425,-0.14523315,-0.107263185,0.05522461,-0.06265869,172.0
22418,0.05304408,-0.07040787,-0.24783325,-0.107263185,0.05522461,-0.06265869,172.0
22419,0.05304408,-0.07040787,-0.24783325,-0.15505372,0.09239502,-0.03186035,172.0
22420,0.018424034,0.12917137,-0.32461548,-0.15505372,0.09239502,-0.03186035,172.0
22421,0.018424034,0.12917137,-0.32461548,-0.3536499,0.12000733,0.022302246,172.0
22422,-0.038837433,0.35366726,-0.40940857,-0.3536499,0.12000733,0.022302246,172.0
22423,-0.038837433,0.35366726,-0.40940857,-0.72960204,0.13168946,0.13381349,172.0
22424,-0.07623601,0.5135975,-0.5218506,-0.72960204,0.13168946,0.13381349,172.0
22425,-0.07623601,0.5135975,-0.5218506,-1.260608,0.07965088,0.29099122,172.0
22426,-0.037234068,0.41893387,-0.7481842,-1.260608,0.07965088,0.29099122,172.0
22427,-0.037234068,0.41893387,-0.7481842,-1.7735596,0.026550293,0.47896728,172.0
22428,0.095225096,0.15459347,-0.98114014,-1.7735596,0.026550293,0.47896728,172.0
22429,0.095225096,0.15459347,-0.98114014,-2.3799684,0.04991455,0.6180908,172.0
22430,0.17499614,0.16564274,-0.98950195,-2.3799684,0.04991455,0.6180908,172.0
22431,0.17499614,0.16564274,-0.98950195,-3.2019653,-0.0541626,0.90908206,172.0
22432,0.1645453,0.37711906,-0.98394775,-3.2019653,-0.0541626,0.90908206,172.0
22433,0.1645453,0.37711906,-0.98394775,-4.4413333,-0.32178956,1.2021973,172.0
22434,0.21034718,-0.35642242,-1.4504089,-4.4413333,-0.32178956,1.2021973,172.0
22435,0.21034718,-0.35642242,-1.4504089,-5.707251,-0.6531372,1.2287476,172.0
22436,0.34064102,-2.861102,-2.1687927,-5.707251,-0.6531372,1.2287476,172.0
22437,0.34064102,-2.861102,-2.1687927,-5.7592897,-1.0545777,1.1947632,172.0
22438,0.5857818,-6.147707,-2.3896484,-5.7592897,-1.0545777,1.1947632,172.0
22439,0.5857818,-6.147707,-2.3896484,-4.1917605,-0.9218262,1.2839721,172.0
22440,0.90829825,-7.6300793,-1.8768616,-4.1917605,-0.9218262,1.2839721,172.0
22441,0.90829825,-7.6300793,-1.8768616,-2.552014,-0.37701416,1.5505371,172.0
22442,0.81750774,-6.166026,-0.97039795,-2.552014,-0.37701416,1.5505371,172.0
22443,0.81750774,-6.166026,-0.97039795,-2.5913086,-0.3451538,1.6949707,172.0
22444,0.029225945,-4.1814785,-0.5567627,-2.5913086,-0.3451538,1.6949707,172.0
22445,0.029225945,-4.1814785,-0.5567627,-3.79032,-0.84111327,1.4167236,172.0
22446,-0.86546206,-4.1688766,-1.1681671,-3.79032,-0.84111327,1.4167236,172.0
22447,-0.86546206,-4.1688766,-1.1681671,-4.1301637,-1.1469727,1.1034302,172.0
22448,-1.0574331,-5.4345765,-2.184372,-4.1301637,-1.1469727,1.1034302,172.0
22449,-1.0574331,-5.4345765,-2.184372,-2.4606812,-1.2032593,1.0269654,172.0
22450,-0.40733576,-5.6506157,-2.7752838,-2.4606812,-1.2032593,1.0269654,172.0
22451,-0.40733576,-5.6506157,-2.7752838,-0.20178223,-0.47684327,0.97280276,172.0
22452,0.13853574,-3.9944673,-2.6620026,-0.20178223,-0.47684327,0.97280276,172.0
22453,0.13853574,-3.9944673,-2.6620026,0.73597413,-0.48427734,0.7306641,172.0
22454,-0.0736928,-2.0894094,-2.1250305,0.73597413,-0.48427734,0.7306641,172.0
22455,-0.0736928,-2.0894094,-2.1250305,1.6673584,-0.3993164,0.52888185,172.0
22456,-0.39913988,-0.7302313,-1.2240753,1.6673584,-0.3993164,0.52888185,172.0
22457,-0.39913988,-0.7302313,-1.2240753,2.5987427,0.004248047,0.61915284,172.0
22458,-0.6577885,0.16593695,-0.19186401,2.5987427,0.004248047,0.61915284,172.0
22459,-0.6577885,0.16593695,-0.19186401,3.2370117,-0.0541626,0.76358646,172.0
22460,-1.1337137,0.3092754,0.3986969,3.2370117,-0.0541626,0.76358646,172.0
22461,-1.1337137,0.3092754,0.3986969,3.7382812,0.070092775,0.63720703,172.0
22462,-1.6334481,0.92906094,0.8310394,3.7382812,0.070092775,0.63720703,172.0
22463,-1.6334481,0.92906094,0.8310394,3.892273,0.35577393,0.8358032,172.0
22464,-2.0714068,2.6258783,1.335556,3.892273,0.35577393,0.8358032,172.0
22465,-2.0714068,2.6258783,1.335556,2.6762695,0.22833252,0.8878418,172.0
22466,-2.3455167,3.8902044,1.4591827,2.6762695,0.22833252,0.8878418,172.0
22467,-2.3455167,3.8902044,1.4591827,1.3689331,-0.1083252,0.72641605,172.0
22468,-1.9202123,3.7446709,0.8742981,1.3689331,-0.1083252,0.72641605,172.0
22469,-1.9202123,3.7446709,0.8742981,0.79226077,-0.093457036,0.74871826,172.0
22470,-1.0376225,3.1996064,0.16075134,0.79226077,-0.093457036,0.74871826,172.0
22471,-1.0376225,3.1996064,0.16075134,0.630835,0.016992187,1.083252,172.0
22472,-0.5626054,3.0972342,-0.07067871,0.630835,0.016992187,1.083252,172.0
22473,-0.5626054,3.0972342,-0.07067871,-0.0010620117,0.0180542,1.2053833,172.0
22474,-0.58056545,2.9446573,-0.066207886,-0.0010620117,0.0180542,1.2053833,172.0
22475,-0.58056545,2.9446573,-0.066207886,-1.0365235,-0.052038576,1.1289185,172.0
22476,-0.69254065,2.1632824,-0.2086029,-1.0365235,-0.052038576,1.1289185,172.0
22477,-0.69254065,2.1632824,-0.2086029,-1.1968873,-0.18160401,1.178833,172.0
22478,-0.7388468,1.0282087,-0.54486084,-1.1968873,-0.18160401,1.178833,172.0
22479,-0.7388468,1.0282087,-0.54486084,-0.5979126,-0.008496094,1.3381348,172.0
22480,-0.86505175,0.33114815,-0.6949158,-0.5979126,-0.008496094,1.3381348,172.0
22481,-0.86505175,0.33114815,-0.6949158,-0.15717773,0.08496094,1.4177856,172.0
22482,-1.151514,0.19390965,-0.3946991,-0.15717773,0.08496094,1.4177856,172.0
22483,-1.151514,0.19390965,-0.3946991,-0.06478272,0.14337158,1.3753052,172.0
22484,-1.4668655,0.2479868,0.13298035,-0.06478272,0.14337158,1.3753052,172.0
22485,-1.4668655,0.2479868,0.13298035,-0.23895264,0.107263185,1.3275146,172.0
22486,-1.7417789,0.3254528,0.47720337,-0.23895264,0.107263185,1.3275146,172.0
22487,-1.7417789,0.3254528,0.47720337,-0.35046387,-0.014868164,1.3423828,172.0
22488,-1.8875637,0.37031078,0.7178955,-0.35046387,-0.014868164,1.3423828,172.0
22489,-1.8875637,0.37031078,0.7178955,-0.38975832,-0.06265869,1.3126465,172.0
22490,-1.8144822,0.21083641,0.82496643,-0.38975832,-0.06265869,1.3126465,172.0
22491,-1.8144822,0.21083641,0.82496643,-0.5798584,-0.21452637,1.0099732,172.0
22492,-1.6980095,-0.13213634,0.28945923,-0.5798584,-0.21452637,1.0099732,172.0
22493,-1.6980095,-0.13213634,0.28945923,-0.20072022,-0.14868164,0.89208984,172.0
22494,-1.6373997,-0.15194893,-0.36427307,-0.20072022,-0.14868164,0.89208984,172.0
22495,-1.6373997,-0.15194893,-0.36427307,0.67225343,-0.098767094,0.9770508,172.0
22496,-1.6904497,0.5753403,-0.21646118,0.67225343,-0.098767094,0.9770508,172.0
22497,-1.6904497,0.5753403,-0.21646118,0.70198977,-0.052038576,0.90908206,172.0
22498,-1.9335728,1.816205,0.67562866,0.70198977,-0.052038576,0.90908206,172.0
22499,-1.9335728,1.816205,0.67562866,-0.49277344,-0.26975098,0.8400513,172.0
22500,-2.453621,3.6393414,1.3777466,-0.49277344,-0.26975098,0.8400513,172.0
22501,-2.453621,3.6393414,1.3777466,-2.617859,-0.60322267,1.5091187,172.0
22502,-3.2422667,3.6266708,1.213501,-2.617859,-0.60322267,1.5091187,172.0
22503,-3.2422667,3.6266708,1.213501,-3.8359864,-1.2563599,1.1267945,172.0
22504,-3.063466,-0.09601498,1.0736847,-3.8359864,-1.2563599,1.1267945,172.0
22505,-3.063466,-0.09601498,1.0736847,-3.449414,-1.3211426,-0.019116212,172.0
22506,-0.38111877,-3.0778742,1.1761627,-3.449414,-1.3211426,-0.019116212,172.0
22507,-0.38111877,-3.0778742,1.1761627,-2.2928834,-0.6244629,0.5012695,172.0
22508,2.864295,-2.853303,0.7853699,-2.2928834,-0.6244629,0.5012695,172.0
22509,2.864295,-2.853303,0.7853699,-2.8472536,-0.8963379,1.0089111,172.0
22510,3.4429379,-2.4515514,0.10101318,-2.8472536,-0.8963379,1.0089111,172.0
22511,3.4429379,-2.4515514,0.10101318,-1.9317993,-0.89846194,0.9451904,172.0
22512,2.2960005,-2.6203232,-0.8413696,-1.9317993,-0.89846194,0.9451904,172.0
22513,2.2960005,-2.6203232,-0.8413696,-1.4071655,-0.3079834,0.721106,172.0
22514,1.5576372,-0.9783993,-1.7961578,-1.4071655,-0.3079834,0.721106,172.0
22515,1.5576372,-0.9783993,-1.7961578,-1.722583,-0.22833252,1.2117554,172.0
22516,0.8243809,0.84936047,-2.4833527,-1.722583,-0.22833252,1.2117554,172.0
22517,0.8243809,0.84936047,-2.4833527,-2.4118288,-0.16036378,1.2361816,172.0
22518,-0.07386875,0.41313076,-2.829544,-2.4118288,-0.16036378,1.2361816,172.0
22519,-0.07386875,0.41313076,-2.829544,-2.5010376,-0.27506104,0.9366943,172.0
22520,-0.19074726,-1.1518688,-2.7113495,-2.5010376,-0.27506104,0.9366943,172.0
22521,-0.19074726,-1.1518688,-2.7113495,-1.6896607,-0.17735596,0.6903076,172.0
22522,0.09474087,-1.5692244,-2.3252563,-1.6896607,-0.17735596,0.6903076,172.0
22523,0.09474087,-1.5692244,-2.3252563,-1.632312,-0.15717773,0.93350834,172.0
22524,0.1056509,-0.5701008,-1.7671051,-1.632312,-0.15717773,0.93350834,172.0
22525,0.1056509,-0.5701008,-1.7671051,-2.5307739,-0.37701416,0.80394286,172.0
22526,0.041002274,-0.23363209,-1.4528656,-2.5307739,-0.37701416,0.80394286,172.0
22527,0.041002274,-0.23363209,-1.4528656,-3.5014527,-0.5957886,0.8336792,172.0
22528,0.1794939,-1.1120281,-2.2263489,-3.5014527,-0.5957886,0.8336792,172.0
22529,0.1794939,-1.1120281,-2.2263489,-4.0908694,-0.4715332,0.83686525,172.0
22530,0.45148087,-1.7139754,-3.3295746,-4.0908694,-0.4715332,0.83686525,172.0
22531,0.45148087,-1.7139754,-3.3295746,-3.8434205,-0.21558838,0.89846194,172.0
22532,0.039260864,-1.1674452,-3.0187836,-3.8434205,-0.21558838,0.89846194,172.0
22533,0.039260864,-1.1674452,-3.0187836,-4.0303345,-0.3536499,1.1618408,172.0
22534,-1.6933594,-1.1978965,-1.4445343,-4.0303345,-0.3536499,1.1618408,172.0
22535,-1.6933594,-1.1978965,-1.4445343,-3.9644897,-1.080066,1.1374146,172.0
22536,-3.4413576,-4.5665083,-1.0809021,-3.9644897,-1.080066,1.1374146,172.0
22537,-3.4413576,-4.5665083,-1.0809021,-2.262085,-0.4980835,0.03186035,172.0
22538,-2.8918438,-6.424325,-1.6896057,-2.262085,-0.4980835,0.03186035,172.0
22539,-2.8918438,-6.424325,-1.6896057,0.271875,-0.49489745,-0.6149048,172.0
22540,-0.44278336,-2.7761664,-1.359314,0.271875,-0.49489745,-0.6149048,172.0
22541,-0.44278336,-2.7761664,-1.359314,-0.009558106,-0.10301514,-0.06159668,172.0
22542,0.4954443,1.0433612,-1.1005249,-0.009558106,-0.10301514,-0.06159668,172.0
22543,0.4954443,1.0433612,-1.1005249,-0.5033936,0.008496094,0.46516114,172.0
22544,-0.61582756,1.599679,-0.85040283,-0.5033936,0.008496094,0.46516114,172.0
22545,-0.61582756,1.599679,-0.85040283,-0.23045655,-0.19541016,-0.18691407,172.0
22546,-0.49533558,0.96680355,-0.87506104,-0.23045655,-0.19541016,-0.18691407,172.0
22547,-0.49533558,0.96680355,-0.87506104,-0.26868898,-0.27399904,-0.37701416,172.0
22548,0.7880449,0.9516411,-1.7478943,-0.26868898,-0.27399904,-0.37701416,172.0
22549,0.7880449,0.9516411,-1.7478943,0.26868898,-0.087084964,0.1529297,172.0
22550,0.42228222,0.64718914,-2.1377563,0.26868898,-0.087084964,0.1529297,172.0
22551,0.42228222,0.64718914,-2.1377563,0.24320069,-0.18585205,0.21027832,172.0
22552,-1.1257124,0.11358881,-1.4570923,0.24320069,-0.18585205,0.21027832,172.0
22553,-1.1257124,0.11358881,-1.4570923,0.043542482,-0.40993652,-0.20496826,172.0
22554,-1.3894005,0.10388374,-0.102767944,0.043542482,-0.40993652,-0.20496826,172.0
22555,-1.3894005,0.10388374,-0.102767944,0.012744141,-0.45878908,-0.070092775,172.0
22556,-0.21432781,0.052968025,1.2272186,0.012744141,-0.45878908,-0.070092775,172.0
22557,-0.21432781,0.052968025,1.2272186,0.79119873,-0.2623169,0.081774905,172.0
22558,0.75923824,0.08702755,1.4708252,0.79119873,-0.2623169,0.081774905,172.0
22559,0.75923824,0.08702755,1.4708252,1.2223755,-0.15080567,0.08071289,172.0
22560,0.85508347,0.87637234,0.7822418,1.2223755,-0.15080567,0.08071289,172.0
22561,0.85508347,0.87637234,0.7822418,0.8400513,-0.20390625,0.118945315,172.0
22562,0.18051434,1.2155023,0.20315552,0.8400513,-0.20390625,0.118945315,172.0
22563,0.18051434,1.2155023,0.20315552,0.4343628,-0.31116945,0.1529297,172.0
22564,-0.35865307,0.5772724,0.035858154,0.4343628,-0.31116945,0.1529297,172.0
22565,-0.35865307,0.5772724,0.035858154,0.4343628,-0.31116945,0.1529297,0.0
22566,-0.35865307,0.5772724,0.035858154,0.6669434,-0.3695801,-0.0031860352,0.0
22567,0.0033493042,-0.014268398,0.3157959,0.6669434,-0.3695801,-0.0031860352,0.0
22568,0.0033493042,-0.014268398,0.3157959,0.84748536,-0.4056885,-0.0722168,0.0
22569,0.6017637,0.08227444,0.7941437,0.84748536,-0.4056885,-0.0722168,0.0
22570,0.6017637,0.08227444,0.7941437,0.92713624,-0.41737062,0.08920898,0.0
22571,0.63083744,0.42952824,1.1038208,0.92713624,-0.41737062,0.08920898,0.0
22572,0.63083744,0.42952824,1.1038208,0.8973999,-0.5341919,-0.008496094,0.0
22573,0.25186253,0.48007298,1.2489166,0.8973999,-0.5341919,-0.008496094,0.0
22574,0.25186253,0.48007298,1.2489166,0.71579593,-0.63614506,-0.09239502,0.0
22575,0.13636589,0.35637283,1.2834473,0.71579593,-0.63614506,-0.09239502,0.0
22576,0.13636589,0.35637283,1.2834473,0.59047854,-0.8251831,-0.053100586,0.0
22577,0.35115814,-0.087631226,1.3370667,0.59047854,-0.8251831,-0.053100586,0.0
22578,0.35115814,-0.087631226,1.3370667,0.8209351,-0.905896,0.03717041,0.0
22579,0.5991392,-0.7586794,1.7238464,0.8209351,-0.905896,0.03717041,0.0
22580,0.5991392,-0.7586794,1.7238464,1.5133667,-1.1671509,0.14124756,0.0
22581,0.72910404,-1.1849952,2.5638275,1.5133667,-1.1671509,0.14124756,0.0
22582,0.72910404,-1.1849952,2.5638275,2.433069,-1.264856,0.20709229,0.0
22583,0.57343197,-1.3028545,3.491684,2.433069,-1.264856,0.20709229,0.0
22584,0.57343197,-1.3028545,3.491684,3.6395142,-1.4050416,0.3791382,0.0
22585,0.37874126,-0.9677839,4.165039,3.6395142,-1.4050416,0.3791382,0.0
22586,0.37874126,-0.9677839,4.165039,5.0222535,-1.5016845,0.5501221,0.0
22587,0.7022724,0.007071495,4.147049,5.0222535,-1.5016845,0.5501221,0.0
22588,0.7022724,0.007071495,4.147049,6.164978,-1.3466309,0.5363159,0.0
22589,1.3756981,1.6482964,3.300766,6.164978,-1.3466309,0.5363159,0.0
22590,1.3756981,1.6482964,3.300766,6.8510375,-1.1501588,0.73809814,0.0
22591,1.7019625,3.747397,1.7228088,6.8510375,-1.1501588,0.73809814,0.0
22592,1.7019625,3.747397,1.7228088,6.4389772,-0.6754395,1.1650269,0.0
22593,1.2794895,7.104021,-1.1275482,6.4389772,-0.6754395,1.1650269,0.0
22594,1.2794895,7.104021,-1.1275482,2.6773317,0.60322267,1.8489624,0.0
22595,0.24120617,10.170937,-3.0270386,2.6773317,0.60322267,1.8489624,0.0
22596,0.24120617,10.170937,-3.0270386,-1.2276856,-0.817749,1.9764038,0.0
22597,-1.0256386,7.742035,-1.2402191,-1.2276856,-0.817749,1.9764038,0.0
22598,-1.0256386,7.742035,-1.2402191,-1.1607789,-1.4135376,1.6928467,0.0
22599,-1.3105621,1.4351807,2.1701202,-1.1607789,-1.4135376,1.6928467,0.0
22600,-1.3105621,1.4351807,2.1701202,0.38444826,-0.81881106,1.1586548,0.0
22601,-0.49868202,-1.0794916,4.0531006,0.38444826,-0.81881106,1.1586548,0.0
22602,-0.49868202,-1.0794916,4.0531006,0.19753419,-0.7975708,2.3268678,0.0
22603,0.16453075,0.88836,3.8459167,0.19753419,-0.7975708,2.3268678,0.0
22604,0.16453075,0.88836,3.8459167,-1.2786621,-1.171399,2.552014,0.0
22605,0.5372515,2.7153149,2.745407,-1.2786621,-1.171399,2.552014,0.0
22606,0.5372515,2.7153149,2.745407,-2.2780151,-1.8818848,2.4851074,0.0
22607,0.8163252,2.685667,2.2734528,-2.2780151,-1.8818848,2.4851074,0.0
22608,0.8163252,2.685667,2.2734528,-2.1080933,-2.167566,3.2062135,0.0
22609,1.1430626,0.7851677,2.1326447,-2.1080933,-2.167566,3.2062135,0.0
22610,1.1430626,0.7851677,2.1326447,-2.357666,-2.6348512,3.2147095,0.0
22611,2.129941,-1.5012236,1.1672974,-2.357666,-2.6348512,3.2147095,0.0
22612,2.129941,-1.5012236,1.1672974,-2.608301,-2.704944,3.1382446,0.0
22613,3.1882544,-2.5971336,0.2549286,-2.608301,-2.704944,3.1382446,0.0
22614,3.1882544,-2.5971336,0.2549286,-2.0932252,-2.5477662,3.5619874,0.0
22615,3.0416312,-3.0951633,0.31907654,-2.0932252,-2.5477662,3.5619874,0.0
22616,3.0416312,-3.0951633,0.31907654,-1.6365601,-2.5020998,3.177539,0.0
22617,2.5847454,-3.4308062,1.1698456,-1.6365601,-2.5020998,3.177539,0.0
22618,2.5847454,-3.4308062,1.1698456,-2.079419,-2.7909667,2.5095336,0.0
22619,3.070714,-2.9173012,2.635849,-2.079419,-2.7909667,2.5095336,0.0
22620,3.070714,-2.9173012,2.635849,-4.70365,-3.6034057,1.7353271,0.0
22621,3.8127723,-3.157095,2.4518738,-4.70365,-3.6034057,1.7353271,0.0
22622,3.8127723,-3.157095,2.4518738,-6.86803,-4.9447265,0.70305175,0.0
22623,4.918321,-5.4069014,-0.31004333,-6.86803,-4.9447265,0.70305175,0.0
22624,4.918321,-5.4069014,-0.31004333,-5.1305785,-4.7482543,-0.1996582,0.0
22625,6.9538097,-6.1982265,-2.72818,-5.1305785,-4.7482543,-0.1996582,0.0
22626,6.9538097,-6.1982265,-2.72818,-1.2393677,-3.812622,-0.6711914,0.0
22627,8.147631,-3.1595821,-3.1222534,-1.2393677,-3.812622,-0.6711914,0.0
22628,8.147631,-3.1595821,-3.1222534,1.0004151,-3.1924074,-0.7083618,0.0
22629,7.263234,1.1546583,-2.7333527,1.0004151,-3.1924074,-0.7083618,0.0
22630,7.263234,1.1546583,-2.7333527,1.7523193,-3.259314,-0.7880127,0.0
22631,6.2229896,3.2673674,-3.0906982,1.7523193,-3.259314,-0.7880127,0.0
22632,6.2229896,3.2673674,-3.0906982,2.614673,-2.451123,-1.3689331,0.0
22633,6.1521955,4.056509,-3.7032928,2.614673,-2.451123,-1.3689331,0.0
22634,6.1521955,4.056509,-3.7032928,3.2964845,-1.5473511,-1.3328247,0.0
22635,5.956375,5.4104176,-3.1528778,3.2964845,-1.5473511,-1.3328247,0.0
22636,5.956375,5.4104176,-3.1528778,2.9598267,-1.0620117,-1.3052124,0.0
22637,4.9393435,6.8582783,-1.4323578,2.9598267,-1.0620117,-1.3052124,0.0
22638,4.9393435,6.8582783,-1.4323578,2.7707887,-0.5214478,-0.98236084,0.0
22639,3.1533794,7.897621,0.472641,2.7707887,-0.5214478,-0.98236084,0.0
22640,3.1533794,7.897621,0.472641,2.3119996,-0.22302246,-0.6616333,0.0
22641,1.1896229,7.9605293,1.9631805,2.3119996,-0.22302246,-0.6616333,0.0
22642,1.1896229,7.9605293,1.9631805,1.1660889,-0.25063476,-0.17841797,0.0
22643,-0.28552055,6.7648354,3.4322357,1.1660889,-0.25063476,-0.17841797,0.0
22644,-0.28552055,6.7648354,3.4322357,-0.38657227,-0.5320679,0.3175415,0.0
22645,-0.6246567,3.1050682,4.199051,-0.38657227,-0.5320679,0.3175415,0.0
22646,-0.6246567,3.1050682,4.199051,0.9759888,0.12850343,1.1607789,0.0
22647,0.013201714,-2.2637348,3.0289001,0.9759888,0.12850343,1.1607789,0.0
22648,0.013201714,-2.2637348,3.0289001,3.0522218,-0.23151855,0.52675784,0.0
22649,1.0904808,-3.4546642,-0.35221863,3.0522218,-0.23151855,0.52675784,0.0
22650,1.0904808,-3.4546642,-0.35221863,2.34386,1.809668,0.44179687,0.0
22651,1.29498,-0.63074875,-3.79747,2.34386,1.809668,0.44179687,0.0
22652,1.29498,-0.63074875,-3.79747,0.87191164,1.809668,1.4230957,0.0
22653,1.29498,-0.63074875,-3.79747,2.992749,3.4632204,1.9413575,0.0
22654,-0.98988247,2.7768955,-4.8594513,2.992749,3.4632204,1.9413575,0.0
22655,-3.8353386,6.1706505,-3.441391,2.992749,3.4632204,1.9413575,0.0
22656,-3.8353386,6.1706505,-3.441391,3.7595215,4.087683,2.717688,0.0
22657,-5.776352,7.7705536,0.11911011,3.7595215,4.087683,2.717688,0.0
22658,-5.776352,7.7705536,0.11911011,3.075586,3.9581177,2.8270752,0.0
22659,-6.875366,6.910034,3.9668274,3.075586,3.9581177,2.8270752,0.0
22660,-6.875366,6.910034,3.9668274,2.0210083,3.9921021,3.434546,0.0
22661,-7.8512945,0.6254387,7.5525665,2.0210083,3.9921021,3.434546,0.0
22662,-7.8512945,0.6254387,7.5525665,1.5229248,2.0581787,2.6390991,0.0
22663,-9.081072,-8.042337,8.721832,1.5229248,2.0581787,2.6390991,0.0
22664,-9.081072,-8.042337,8.721832,0.10407715,3.270996,0.8963379,0.0
22665,-6.5887594,-5.726986,7.639099,0.10407715,3.270996,0.8963379,0.0
22666,-6.5887594,-5.726986,7.639099,0.51082766,1.44646,2.5477662,0.0
22667,-3.3883536,-1.089035,6.3913727,0.51082766,1.44646,2.5477662,0.0
22668,-3.3883536,-1.089035,6.3913727,-0.39294434,0.6796875,1.9275513,0.0
22669,1.1199812,3.1604614,2.408966,-0.39294434,0.6796875,1.9275513,0.0
22670,1.1199812,3.1604614,2.408966,-0.39294434,0.6796875,1.9275513,0.0
22671,1.1199812,3.1604614,2.408966,0.7869507,0.8219971,2.8748658,0.0
22672,0.4672252,2.1825314,-0.21031189,0.7869507,0.8219971,2.8748658,0.0
22673,0.4672252,2.1825314,-0.21031189,1.3795532,1.2627319,2.6571534,0.0
22674,-2.3974357,5.0080357,-2.796341,1.3795532,1.2627319,2.6571534,0.0
22675,-2.3974357,5.0080357,-2.796341,-0.6425171,0.06478272,2.9269044,0.0
22676,-2.0517254,5.0091248,-2.4228516,-0.6425171,0.06478272,2.9269044,0.0
22677,-2.0517254,5.0091248,-2.4228516,-1.991272,-0.28355715,2.9385865,0.0
22678,-0.46381688,-0.07899094,-3.512558,-1.991272,-0.28355715,2.9385865,0.0
22679,-0.46381688,-0.07899094,-3.512558,-2.2153566,0.19328614,2.9938111,0.0
22680,0.26659298,-1.2774258,-1.8854065,-2.2153566,0.19328614,2.9938111,0.0
22681,0.26659298,-1.2774258,-1.8854065,-0.68499756,-0.004248047,3.5184448,0.0
22682,2.541973,-2.9336967,5.953476,-0.68499756,-0.004248047,3.5184448,0.0
22683,2.541973,-2.9336967,5.953476,-0.59472656,-1.7151489,2.262085,0.0
22684,3.7788544,-3.8656826,5.9560394,-0.59472656,-1.7151489,2.262085,0.0
22685,3.7788544,-3.8656826,5.9560394,-1.9371094,-2.163318,2.3247437,0.0
22686,5.1001587,-4.3103447,-2.9981842,-1.9371094,-2.163318,2.3247437,0.0
22687,5.1001587,-4.3103447,-2.9981842,2.182434,-0.8092529,3.0054932,0.0
22688,2.7392824,-1.435091,-6.0574646,2.182434,-0.8092529,3.0054932,0.0
22689,2.7392824,-1.435091,-6.0574646,4.253357,1.1267945,4.0398927,0.0
22690,-2.6344166,9.261839,-6.296173,4.253357,1.1267945,4.0398927,0.0
22691,-2.6344166,9.261839,-6.296173,-2.5052857,-0.9197022,2.6741455,0.0
22692,-2.0489762,7.535179,-2.960617,-2.5052857,-0.9197022,2.6741455,0.0
22693,-2.0489762,7.535179,-2.960617,-4.715332,-1.4942505,2.6401613,0.0
22694,-0.5685144,-5.6005306,3.2258453,-4.715332,-1.4942505,2.6401613,0.0
22695,-0.5685144,-5.6005306,3.2258453,0.99085695,-0.07752686,2.4829834,0.0
22696,-0.1237202,-7.1910095,3.3836823,0.99085695,-0.07752686,2.4829834,0.0
22697,-0.1237202,-7.1910095,3.3836823,2.2387207,0.5787964,2.076233,0.0
22698,1.2970444,1.6363754,0.42131042,2.2387207,0.5787964,2.076233,0.0
22699,1.2970444,1.6363754,0.42131042,-0.06265869,-0.31116945,1.989148,0.0
22700,1.4860609,5.026018,-1.2900391,-0.06265869,-0.31116945,1.989148,0.0
22701,1.4860609,5.026018,-1.2900391,-1.1013062,-0.3695801,2.1442018,0.0
22702,0.9045713,5.0222054,-3.052124,-1.1013062,-0.3695801,2.1442018,0.0
22703,0.9045713,5.0222054,-3.052124,-1.3668091,-0.052038576,2.0188844,0.0
22704,-0.18864769,-1.5738487,-1.1525269,-1.3668091,-0.052038576,2.0188844,0.0
22705,-0.18864769,-1.5738487,-1.1525269,-1.0343994,0.24320069,1.4007934,0.0
22706,-0.1439724,-4.377804,1.5749359,-1.0343994,0.24320069,1.4007934,0.0
22707,-0.1439724,-4.377804,1.5749359,-0.66269535,0.32072756,1.1607789,0.0
22708,0.2523148,-2.011118,2.2897186,-0.66269535,0.32072756,1.1607789,0.0
22709,0.2523148,-2.011118,2.2897186,-0.38551027,0.19753419,1.6333741,0.0
22710,-0.36013544,-0.6035366,0.7266693,-0.38551027,0.19753419,1.6333741,0.0
22711,-0.36013544,-0.6035366,0.7266693,-0.6966797,0.26550293,0.78376466,0.0
22712,-0.38367718,-1.1527996,0.17988586,-0.6966797,0.26550293,0.78376466,0.0
22713,-0.38367718,-1.1527996,0.17988586,-0.5055176,0.42799073,0.9430664,0.0
22714,0.018229127,-1.8046608,-0.05970764,-0.5055176,0.42799073,0.9430664,0.0
22715,0.018229127,-1.8046608,-0.05970764,-0.32603762,0.49064943,0.81987303,0.0
22716,0.5302205,-1.2480621,-0.014556885,-0.32603762,0.49064943,0.81987303,0.0
22717,0.5302205,-1.2480621,-0.014556885,-0.6818115,0.21877442,0.90270996,0.0
22718,0.6571109,-0.65658,-0.4610443,-0.6818115,0.21877442,0.90270996,0.0
22719,0.6571109,-0.65658,-0.4610443,-0.6414551,0.1985962,0.7657105,0.0
22720,0.61482453,-0.510273,-0.8614044,-0.6414551,0.1985962,0.7657105,0.0
22721,0.61482453,-0.510273,-0.8614044,-0.6616333,0.2081543,0.81987303,0.0
22722,0.41091478,-0.6738548,-0.68515015,-0.6616333,0.2081543,0.81987303,0.0
22723,0.41091478,-0.6738548,-0.68515015,-0.7540283,0.08814698,0.7338501,0.0
22724,0.1136806,-0.99228287,-0.15875244,-0.7540283,0.08814698,0.7338501,0.0
22725,0.1136806,-0.99228287,-0.15875244,-0.631897,-0.0010620117,0.69136965,0.0
22726,-0.04161167,-1.1816807,0.099853516,-0.631897,-0.0010620117,0.69136965,0.0
22727,-0.04161167,-1.1816807,0.099853516,-0.725354,-0.115759276,0.47365722,0.0
22728,0.08637619,-1.2447338,-0.144104,-0.725354,-0.115759276,0.47365722,0.0
22729,0.08637619,-1.2447338,-0.144104,-0.9281983,-0.20072022,0.40037844,0.0
22730,0.4071014,-1.3537216,-0.40538025,-0.9281983,-0.20072022,0.40037844,0.0
22731,0.4071014,-1.3537216,-0.40538025,-1.0450195,-0.24001466,0.29417726,0.0
22732,0.6890234,-1.6671944,-0.03477478,-1.0450195,-0.24001466,0.29417726,0.0
22733,0.6890234,-1.6671944,-0.03477478,-1.1480347,-0.32391357,0.27293703,0.0
22734,0.7808573,-2.2825356,0.7305145,-1.1480347,-0.32391357,0.27293703,0.0
22735,0.7808573,-2.2825356,0.7305145,-1.0715698,-0.39613038,0.1720459,0.0
22736,0.85799885,-2.6386757,0.829422,-1.0715698,-0.39613038,0.1720459,0.0
22737,0.85799885,-2.6386757,0.829422,-0.8326172,-0.23682861,0.05522461,0.0
22738,1.0830178,-1.9295197,0.03868103,-0.8326172,-0.23682861,0.05522461,0.0
22739,1.0830178,-1.9295197,0.03868103,-0.52038574,0.040356446,0.18797608,0.0
22740,1.0789387,-0.8252201,-0.5284729,-0.52038574,0.040356446,0.18797608,0.0
22741,1.0789387,-0.8252201,-0.5284729,-0.14655761,0.22833252,0.3706421,0.0
22742,0.5073037,-0.56359386,-0.12489319,-0.14655761,0.22833252,0.3706421,0.0
22743,0.5073037,-0.56359386,-0.12489319,0.1359375,0.2623169,0.26550293,0.0
22744,-0.26827812,-0.6617279,0.8726196,0.1359375,0.2623169,0.26550293,0.0
22745,-0.26827812,-0.6617279,0.8726196,0.21558838,0.37701416,0.1731079,0.0
22746,-0.84637284,-0.3493042,1.6526489,0.21558838,0.37701416,0.1731079,0.0
22747,-0.84637284,-0.3493042,1.6526489,-0.23258057,0.012744141,0.107263185,0.0
22748,-0.8718004,-0.36091328,1.3916473,-0.23258057,0.012744141,0.107263185,0.0
22749,-0.8718004,-0.36091328,1.3916473,-0.30054933,-0.06903076,-0.362146,0.0
22750,-0.2609048,-0.7692852,0.29412842,-0.30054933,-0.06903076,-0.362146,0.0
22751,-0.2609048,-0.7692852,0.29412842,-0.18797608,0.012744141,-0.070092775,0.0
22752,0.34569502,-0.93123627,-0.6905365,-0.18797608,0.012744141,-0.070092775,0.0
22753,0.34569502,-0.93123627,-0.6905365,-0.3695801,0.029736329,-0.0722168,0.0
22754,0.5119076,-1.1982241,-0.9443207,-0.3695801,0.029736329,-0.0722168,0.0
22755,0.5119076,-1.1982241,-0.9443207,-0.4970215,0.06796875,-0.081774905,0.0
22756,0.37021947,-1.262681,-0.51234436,-0.4970215,0.06796875,-0.081774905,0.0
22757,0.37021947,-1.262681,-0.51234436,-0.14868164,0.33240968,0.008496094,0.0
22758,0.19539428,-0.48132324,-0.082092285,-0.14868164,0.33240968,0.008496094,0.0
22759,0.19539428,-0.48132324,-0.082092285,-0.18054199,0.28674316,-0.004248047,0.0
22760,-0.0051226616,0.41496563,-0.030685425,-0.18054199,0.28674316,-0.004248047,0.0
22761,-0.0051226616,0.41496563,-0.030685425,-0.22939454,0.24213867,0.11682129,0.0
22762,-0.18196678,0.55323696,-0.1763916,-0.22939454,0.24213867,0.11682129,0.0
22763,-0.18196678,0.55323696,-0.1763916,-0.1709839,0.24957275,0.13806152,0.0
22764,-0.2703781,-0.08476639,-0.22676086,-0.1709839,0.24957275,0.13806152,0.0
22765,-0.2703781,-0.08476639,-0.22676086,-0.36108398,0.14018555,0.14974366,0.0
22766,-0.26464224,-0.7474518,-0.27711487,-0.36108398,0.14018555,0.14974366,0.0
22767,-0.26464224,-0.7474518,-0.27711487,-0.23258057,0.26019287,0.04885254,0.0
22768,-0.09331775,-0.4230833,-0.3447876,-0.23258057,0.26019287,0.04885254,0.0
22769,-0.09331775,-0.4230833,-0.3447876,-0.019116212,0.3154175,0.0021240234,0.0
22770,-0.09743261,0.36260796,-0.36190796,-0.019116212,0.3154175,0.0021240234,0.0
22771,-0.09743261,0.36260796,-0.36190796,-0.045666505,0.10195313,-0.008496094,0.0
22772,-0.37530947,0.5987654,-0.40394592,-0.045666505,0.10195313,-0.008496094,0.0
22773,-0.37530947,0.5987654,-0.40394592,0.11363526,0.02442627,-0.1178833,0.0
22774,-0.50900006,0.23002625,-0.38755798,0.11363526,0.02442627,-0.1178833,0.0
22775,-0.50900006,0.23002625,-0.38755798,0.012744141,-0.11257324,-0.21346436,0.0
22776,-0.50900006,0.23002625,-0.38755798,0.012744141,-0.11257324,-0.21346436,0.0
22777,-0.3660257,0.018676758,-0.11123657,0.012744141,-0.11257324,-0.21346436,0.0
22778,-0.3660257,0.018676758,-0.11123657,0.07115479,-0.15611573,-0.16885987,0.0
22779,-0.07009101,-0.15754318,0.29077148,0.07115479,-0.15611573,-0.16885987,0.0
22780,-0.07009101,-0.15754318,0.29077148,-0.32922363,-0.4725952,-0.13168946,0.0
22781,0.18392968,-0.82743835,0.31217957,-0.32922363,-0.4725952,-0.13168946,0.0
22782,0.18392968,-0.82743835,0.31217957,-0.57454836,-0.4991455,-0.010620117,0.0
22783,0.4242189,-1.1616945,-0.03996277,-0.57454836,-0.4991455,-0.010620117,0.0
22784,0.4242189,-1.1616945,-0.03996277,-0.54375,-0.4895874,0.098767094,0.0
22785,0.5871413,-0.7394142,-0.24583435,-0.54375,-0.4895874,0.098767094,0.0
22786,0.5871413,-0.7394142,-0.24583435,-0.38975832,-0.45772704,0.17416993,0.0
22787,0.68996453,0.0116176605,-0.17434692,-0.38975832,-0.45772704,0.17416993,0.0
22788,0.68996453,0.0116176605,-0.17434692,-0.2888672,-0.3462158,0.13381349,0.0
22789,0.75589013,0.48114395,-0.075668335,-0.2888672,-0.3462158,0.13381349,0.0
22790,0.75589013,0.48114395,-0.075668335,-0.36108398,-0.41099855,0.10620117,0.0
22791,0.6485598,-0.016880035,-0.08439636,-0.36108398,-0.41099855,0.10620117,0.0
22792,0.6485598,-0.016880035,-0.08439636,-0.34727785,-0.34833986,0.013806152,0.0
22793,0.43504667,-0.73804,-0.044143677,-0.34727785,-0.34833986,0.013806152,0.0
22794,0.43504667,-0.73804,-0.044143677,-0.0637207,-0.19753419,-0.027612304,0.0
22795,0.3308866,-0.5193386,0.08972168,-0.0637207,-0.19753419,-0.027612304,0.0
22796,0.3308866,-0.5193386,0.08972168,-0.016992187,-0.2347046,0.04885254,0.0
22797,0.54439664,0.32105255,-0.08029175,-0.016992187,-0.2347046,0.04885254,0.0
22798,0.54439664,0.32105255,-0.08029175,-0.33771974,-0.22196046,0.04141846,0.0
22799,1.0161572,0.37367535,-0.3814087,-0.33771974,-0.22196046,0.04141846,0.0
22800,1.0161572,0.37367535,-0.3814087,-0.22939454,-0.3154175,0.0998291,0.0
22801,1.0827255,-0.8735199,-0.17053223,-0.22939454,-0.3154175,0.0998291,0.0
22802,1.0827255,-0.8735199,-0.17053223,0.6265869,-0.04248047,0.17416993,0.0
22803,0.3713317,-1.5889158,0.65989685,0.6265869,-0.04248047,0.17416993,0.0
22804,0.3713317,-1.5889158,0.65989685,1.0120972,0.19116211,0.36745605,0.0
22805,-0.7379689,-0.53189945,1.7690735,1.0120972,0.19116211,0.36745605,0.0
22806,-0.7379689,-0.53189945,1.7690735,-0.06903076,-0.21877442,0.32497558,0.0
22807,-1.0551333,0.57692146,1.6507416,-0.06903076,-0.21877442,0.32497558,0.0
22808,-1.0551333,0.57692146,1.6507416,-0.83049315,-0.5331299,-0.047790527,0.0
22809,-0.25914574,0.3776865,0.13560486,-0.83049315,-0.5331299,-0.047790527,0.0
22810,-0.25914574,0.3776865,0.13560486,-0.74871826,-0.39294434,0.016992187,0.0
22811,0.5849564,0.29367733,-0.94236755,-0.74871826,-0.39294434,0.016992187,0.0
22812,0.5849564,0.29367733,-0.94236755,-0.016992187,-0.2347046,0.18585205,0.0
22813,0.8856411,0.5014334,-1.2109985,-0.016992187,-0.2347046,0.18585205,0.0
22814,0.8856411,0.5014334,-1.2109985,-0.14549561,-0.44073486,-0.10301514,0.0
22815,0.6958175,-0.510767,-1.4368744,-0.14549561,-0.44073486,-0.10301514,0.0
22816,0.6958175,-0.510767,-1.4368744,0.17735596,-0.34090576,-0.13806152,0.0
22817,0.31385612,-1.8998489,-1.5161743,0.17735596,-0.34090576,-0.13806152,0.0
22818,0.31385612,-1.8998489,-1.5161743,1.2574219,0.25063476,-0.3090454,0.0
22819,0.053843737,-1.2573185,-0.78886414,1.2574219,0.25063476,-0.3090454,0.0
22820,0.053843737,-1.2573185,-0.78886414,1.63125,0.5798584,-0.4067505,0.0
22821,0.11033583,1.3034592,0.3560791,1.63125,0.5798584,-0.4067505,0.0
22822,0.11033583,1.3034592,0.3560791,0.9143921,0.3154175,-0.47471926,0.0
22823,0.44890118,2.4993706,0.4928131,0.9143921,0.3154175,-0.47471926,0.0
22824,0.44890118,2.4993706,0.4928131,0.72004396,0.08496094,-0.36745605,0.0
22825,0.5885887,0.39513874,-0.5707245,0.72004396,0.08496094,-0.36745605,0.0
22826,0.5885887,0.39513874,-0.5707245,1.7640015,0.63933104,-1.1076783,0.0
22827,0.040682793,0.020712852,-0.84013367,1.7640015,0.63933104,-1.1076783,0.0
22828,0.040682793,0.020712852,-0.84013367,3.7287233,1.9572877,-1.0227174,0.0
22829,-0.55649185,5.007806,0.4940338,3.7287233,1.9572877,-1.0227174,0.0
22830,-0.55649185,5.007806,0.4940338,2.3151855,1.3784913,-0.5479981,0.0
22831,-0.9067292,7.4249096,1.6524963,2.3151855,1.3784913,-0.5479981,0.0
22832,-0.9067292,7.4249096,1.6524963,0.63720703,0.5522461,-0.40037844,0.0
22833,-1.7243214,3.2414532,1.4329834,0.63720703,0.5522461,-0.40037844,0.0
22834,-1.7243214,3.2414532,1.4329834,2.0040162,1.2032593,-0.630835,0.0
22835,-2.4805436,-0.30196762,0.73857117,2.0040162,1.2032593,-0.630835,0.0
22836,-2.4805436,-0.30196762,0.73857117,1.7533814,1.0705079,-0.48533937,0.0
22837,-2.0522451,0.6109772,-0.055786133,1.7533814,1.0705079,-0.48533937,0.0
22838,-2.0522451,0.6109772,-0.055786133,0.85704345,0.7625244,-0.46409914,0.0
22839,-0.6400384,2.5329704,-0.74642944,0.85704345,0.7625244,-0.46409914,0.0
22840,-0.6400384,2.5329704,-0.74642944,0.66481936,0.6818115,-0.12213135,0.0
22841,0.20855045,2.2278538,-1.0921326,0.66481936,0.6818115,-0.12213135,0.0
22842,0.20855045,2.2278538,-1.0921326,1.0715698,0.8878418,-0.010620117,0.0
22843,-0.25979543,1.3423672,-0.70362854,1.0715698,0.8878418,-0.010620117,0.0
22844,-0.25979543,1.3423672,-0.70362854,1.5229248,1.0651978,0.1444336,0.0
22845,-1.4804804,1.6001396,0.41958618,1.5229248,1.0651978,0.1444336,0.0
22846,-1.4804804,1.6001396,0.41958618,0.5543701,0.6754395,0.5171997,0.0
22847,-2.16279,1.8568459,0.6516113,0.5543701,0.6754395,0.5171997,0.0
22848,-2.16279,1.8568459,0.6516113,-0.050976563,0.5777344,0.4630371,0.0
22849,-1.693025,1.6084633,0.1905365,-0.050976563,0.5777344,0.4630371,0.0
22850,-1.693025,1.6084633,0.1905365,0.4630371,0.7423462,0.56605226,0.0
22851,-1.6485851,1.2094154,0.6907501,0.4630371,0.7423462,0.56605226,0.0
22852,-1.6485851,1.2094154,0.6907501,0.6977417,0.72641605,0.63720703,0.0
22853,-2.5599937,1.4459019,2.3806305,0.6977417,0.72641605,0.63720703,0.0
22854,-2.5599937,1.4459019,2.3806305,0.07752686,0.32072756,0.5809204,0.0
22855,-2.7763886,1.7293777,3.0258026,0.07752686,0.32072756,0.5809204,0.0
22856,-2.7763886,1.7293777,3.0258026,-1.4209718,-0.4248047,0.22408448,0.0
22857,-1.6580372,0.3946724,1.268158,-1.4209718,-0.4248047,0.22408448,0.0
22858,-1.6580372,0.3946724,1.268158,-0.901648,-0.32285157,0.090270996,0.0
22859,-0.16309965,-1.0071983,-0.16983032,-0.901648,-0.32285157,0.090270996,0.0
22860,-0.16309965,-1.0071983,-0.16983032,-0.6149048,-0.3419678,0.08283692,0.0
22861,0.91460085,-0.8689041,0.5940857,-0.6149048,-0.3419678,0.08283692,0.0
22862,0.91460085,-0.8689041,0.5940857,-1.44115,-0.8952759,0.115759276,0.0
22863,0.93564796,-0.5738449,1.6879272,-1.44115,-0.8952759,0.115759276,0.0
22864,0.93564796,-0.5738449,1.6879272,-1.9848999,-1.2829102,0.2081543,0.0
22865,-0.017033339,-0.9656315,1.1721039,-1.9848999,-1.2829102,0.2081543,0.0
22866,-0.017033339,-0.9656315,1.1721039,-2.7644165,-1.635498,0.24107666,0.0
22867,-0.6642004,-1.0653152,-0.6252289,-2.7644165,-1.635498,0.24107666,0.0
22868,-0.6642004,-1.0653152,-0.6252289,-2.879114,-1.5770874,0.07540283,0.0
22869,-0.16114545,-0.42105103,-1.9487762,-2.879114,-1.5770874,0.07540283,0.0
22870,-0.16114545,-0.42105103,-1.9487762,-3.2911744,-1.6832886,0.22727051,0.0
22871,1.0862448,-0.469532,-2.1105042,-3.2911744,-1.6832886,0.22727051,0.0
22872,1.0862448,-0.469532,-2.1105042,-3.7287233,-1.8266602,0.24744873,0.0
22873,2.5483294,-2.5716705,-3.1275787,-3.7287233,-1.8266602,0.24744873,0.0
22874,2.5483294,-2.5716705,-3.1275787,-3.2837403,-1.7608155,0.06584473,0.0
22875,4.141154,-5.332716,-5.1568146,-3.2837403,-1.7608155,0.06584473,0.0
22876,4.141154,-5.332716,-5.1568146,-0.10301514,-0.79119873,0.011682129,0.0
22877,4.7859945,-5.68087,-4.3791504,-0.10301514,-0.79119873,0.011682129,0.0
22878,4.7859945,-5.68087,-4.3791504,1.364685,0.107263185,0.25806886,0.0
22879,3.091381,-3.1023865,-0.5995941,1.364685,0.107263185,0.25806886,0.0
22880,3.091381,-3.1023865,-0.5995941,1.5643433,0.07540283,0.635083,0.0
22881,0.5215912,-0.41495323,2.0634766,1.5643433,0.07540283,0.635083,0.0
22882,0.5215912,-0.41495323,2.0634766,0.5150757,-0.26337892,0.15717773,0.0
22883,-0.7678709,0.36642647,1.8978882,0.5150757,-0.26337892,0.15717773,0.0
22884,-0.7678709,0.36642647,1.8978882,-0.12213135,-0.31010744,0.15611573,0.0
22885,-1.0593529,-0.5958843,0.5292816,-0.12213135,-0.31010744,0.15611573,0.0
22886,-1.0593529,-0.5958843,0.5292816,-0.10407715,-0.26550293,0.34090576,0.0
22887,-1.3957001,-1.9815292,-0.12072754,-0.10407715,-0.26550293,0.34090576,0.0
22888,-1.3957001,-1.9815292,-0.12072754,0.022302246,-0.23895264,0.039294433,0.0
22889,-1.0968335,-1.915411,0.44236755,0.022302246,-0.23895264,0.039294433,0.0
22890,-1.0968335,-1.915411,0.44236755,0.09451904,-0.17629395,-0.1731079,0.0
22891,0.7004018,-0.21022224,1.5096893,0.09451904,-0.17629395,-0.1731079,0.0
22892,0.7004018,-0.21022224,1.5096893,-0.48640138,-0.3812622,-0.15186767,0.0
22893,2.6932805,0.5601187,1.6157379,-0.48640138,-0.3812622,-0.15186767,0.0
22894,2.6932805,0.5601187,1.6157379,-0.62764895,-0.6860596,0.11257324,0.0
22895,3.186607,-0.58883095,0.5084381,-0.62764895,-0.6860596,0.11257324,0.0
22896,3.186607,-0.58883095,0.5084381,0.4333008,-0.2516968,0.07752686,0.0
22897,2.6608334,-1.6100664,0.032424927,0.4333008,-0.2516968,0.07752686,0.0
22898,2.6608334,-1.6100664,0.032424927,0.7720825,0.04885254,-0.4619751,0.0
22899,2.3956833,-0.8380289,1.1060486,0.7720825,0.04885254,-0.4619751,0.0
22900,2.3956833,-0.8380289,1.1060486,0.60216063,-0.121069334,-0.5384399,0.0
22901,2.4012146,0.6106558,2.001236,0.60216063,-0.121069334,-0.5384399,0.0
22902,2.4012146,0.6106558,2.001236,0.6754395,-0.3451538,-0.41737062,0.0
22903,2.2490482,1.2402945,0.5677185,0.6754395,-0.3451538,-0.41737062,0.0
22904,2.2490482,1.2402945,0.5677185,0.9409424,-0.07327881,-0.88040775,0.0
22905,2.1287308,2.1047726,-2.461975,0.9409424,-0.07327881,-0.88040775,0.0
22906,2.1287308,2.1047726,-2.461975,1.5558472,0.85385746,-0.98129886,0.0
22907,1.9035826,3.9928398,-3.6967316,1.5558472,0.85385746,-0.98129886,0.0
22908,1.9035826,3.9928398,-3.6967316,2.0571167,1.3360108,-0.6446411,0.0
22909,0.74961185,4.9983006,-2.2888794,2.0571167,1.3360108,-0.6446411,0.0
22910,0.74961185,4.9983006,-2.2888794,1.7661256,1.3381348,-0.19541016,0.0
22911,-0.99600124,3.3775482,-0.62405396,1.7661256,1.3381348,-0.19541016,0.0
22912,-0.99600124,3.3775482,-0.62405396,1.3710572,1.449646,-0.53525394,0.0
22913,-2.256054,0.37503624,-0.3912201,1.3710572,1.449646,-0.53525394,0.0
22914,-2.256054,0.37503624,-0.3912201,1.4199097,1.8733886,-0.54693604,0.0
22915,-3.1754851,-1.3554764,-1.1694946,1.4199097,1.8733886,-0.54693604,0.0
22916,-3.1754851,-1.3554764,-1.1694946,1.9402955,2.1930542,-0.3430298,0.0
22917,-4.913728,-1.8618469,-0.21598816,1.9402955,2.1930542,-0.3430298,0.0
22918,-4.913728,-1.8618469,-0.21598816,1.7671875,2.3119996,-1.4039795,0.0
22919,-7.5419326,-0.59228516,2.6728363,1.7671875,2.3119996,-1.4039795,0.0
22920,-7.5419326,-0.59228516,2.6728363,1.9424194,1.9158691,0.040356446,0.0
22921,-8.144117,1.5294933,3.3322144,1.9424194,1.9158691,0.040356446,0.0
22922,-8.144117,1.5294933,3.3322144,0.9122681,1.2945923,-2.0443726,0.0
22923,-4.8888535,2.3297596,0.74269104,0.9122681,1.2945923,-2.0443726,0.0
22924,-4.8888535,2.3297596,0.74269104,1.4209718,1.7905518,-1.720459,0.0
22925,-0.7260854,2.948988,-2.113678,1.4209718,1.7905518,-1.720459,0.0
22926,-0.7260854,2.948988,-2.113678,2.1973023,2.1611938,-0.817749,0.0
22927,0.95163906,2.9197369,-2.7414856,2.1973023,2.1611938,-0.817749,0.0
22928,0.95163906,2.9197369,-2.7414856,2.4734254,1.99552,-0.7540283,0.0
22929,-0.29552472,2.3679066,-1.3768005,2.4734254,1.99552,-0.7540283,0.0
22930,-0.29552472,2.3679066,-1.3768005,2.4351928,1.8617066,-0.41418457,0.0
22931,-2.6072817,3.5803223,0.17411804,2.4351928,1.8617066,-0.41418457,0.0
22932,-2.6072817,3.5803223,0.17411804,2.3289917,1.5006226,-0.12956543,0.0
22933,-4.1060157,4.93672,1.2160187,2.3289917,1.5006226,-0.12956543,0.0
22934,-4.1060157,4.93672,1.2160187,1.1937011,0.73597413,-0.3345337,0.0
22935,-4.1060157,4.93672,1.2160187,1.1937011,0.73597413,-0.3345337,101.0
22936,-4.3902326,3.806921,1.3661499,1.1937011,0.73597413,-0.3345337,101.0
22937,-4.3902326,3.806921,1.3661499,0.7784546,0.42055663,-0.33878174,101.0
22938,-3.4740148,2.1985645,0.85913086,0.7784546,0.42055663,-0.33878174,101.0
22939,-3.4740148,2.1985645,0.85913086,0.36427003,0.04141846,-0.3971924,101.0
22940,-1.6366215,1.6854267,-0.0024108887,0.36427003,0.04141846,-0.3971924,101.0
22941,-1.6366215,1.6854267,-0.0024108887,-0.24532472,-0.16885987,-0.24213867,101.0
22942,0.3318162,1.1163826,-0.9972992,-0.24532472,-0.16885987,-0.24213867,101.0
22943,0.3318162,1.1163826,-0.9972992,0.070092775,-0.025488282,-0.22196046,101.0
22944,1.5025258,0.36852074,-0.96606445,0.070092775,-0.025488282,-0.22196046,101.0
22945,1.5025258,0.36852074,-0.96606445,0.5479981,0.19541016,0.009558106,101.0
22946,1.0413151,0.7058754,-0.2565155,0.5479981,0.19541016,0.009558106,101.0
22947,1.0413151,0.7058754,-0.2565155,0.6818115,0.12319336,0.020178223,101.0
22948,-0.28498983,1.4403954,0.06625366,0.6818115,0.12319336,0.020178223,101.0
22949,-0.28498983,1.4403954,0.06625366,0.6988037,0.098767094,-0.070092775,101.0
22950,-0.9380994,1.3849335,0.2845459,0.6988037,0.098767094,-0.070092775,101.0
22951,-0.9380994,1.3849335,0.2845459,0.48746338,0.0053100586,0.0031860352,101.0
22952,-0.78719854,0.7893448,0.46653748,0.48746338,0.0053100586,0.0031860352,101.0
22953,-0.78719854,0.7893448,0.46653748,-0.27506104,-0.25806886,0.07327881,101.0
22954,-0.2760601,0.43883705,-0.0076141357,-0.27506104,-0.25806886,0.07327881,101.0
22955,-0.2760601,0.43883705,-0.0076141357,-0.7062378,-0.3451538,0.19328614,101.0
22956,0.35003805,0.9521179,-1.0142365,-0.7062378,-0.3451538,0.19328614,101.0
22957,0.35003805,0.9521179,-1.0142365,-1.002539,-0.30267334,0.29948732,101.0
22958,0.61130476,1.4259148,-1.514801,-1.002539,-0.30267334,0.29948732,101.0
22959,0.61130476,1.4259148,-1.514801,-0.7858887,-0.20390625,0.39506838,101.0
22960,0.29541588,0.2293663,-0.19337463,-0.7858887,-0.20390625,0.39506838,101.0
22961,0.29541588,0.2293663,-0.19337463,-0.99298096,-0.3355957,0.30479738,101.0
22962,0.12753153,-1.9760418,2.095581,-0.99298096,-0.3355957,0.30479738,101.0
22963,0.12753153,-1.9760418,2.095581,-1.5494751,-0.6138428,0.25063476,101.0
22964,0.43262815,-3.0634499,3.0537567,-1.5494751,-0.6138428,0.25063476,101.0
22965,0.43262815,-3.0634499,3.0537567,-2.2004883,-1.0620117,0.12850343,101.0
22966,0.7340174,-2.316616,2.012558,-2.2004883,-1.0620117,0.12850343,101.0
22967,0.7340174,-2.316616,2.012558,-2.7569826,-1.2595459,0.17416993,101.0
22968,0.8763499,-1.4001808,0.41171265,-2.7569826,-1.2595459,0.17416993,101.0
22969,0.8763499,-1.4001808,0.41171265,-2.7601686,-1.449646,0.087084964,101.0
22970,0.90306973,-1.5698776,-0.7025757,-2.7601686,-1.449646,0.087084964,101.0
22971,0.90306973,-1.5698776,-0.7025757,-2.160132,-1.1852051,0.35577393,101.0
22972,1.0329418,-1.9011784,-1.1815643,-2.160132,-1.1852051,0.35577393,101.0
22973,1.0329418,-1.9011784,-1.1815643,-1.4634522,-0.9547486,0.16779785,101.0
22974,1.5000718,-1.9883747,-0.74497986,-1.4634522,-0.9547486,0.16779785,101.0
22975,1.5000718,-1.9883747,-0.74497986,-1.0545777,-0.8496094,0.11151123,101.0
22976,1.8617885,-2.213894,0.13504028,-1.0545777,-0.8496094,0.11151123,101.0
22977,1.8617885,-2.213894,0.13504028,-0.6988037,-0.814563,0.24320069,101.0
22978,1.7479391,-2.4041977,0.6572571,-0.6988037,-0.814563,0.24320069,101.0
22979,1.7479391,-2.4041977,0.6572571,-0.72960204,-0.80394286,0.095581055,101.0
22980,1.4786127,-2.0116272,0.66127014,-0.72960204,-0.80394286,0.095581055,101.0
22981,1.4786127,-2.0116272,0.66127014,-0.69986576,-0.7880127,0.058410645,101.0
22982,1.2691572,-1.2645645,0.50868225,-0.69986576,-0.7880127,0.058410645,101.0
22983,1.2691572,-1.2645645,0.50868225,-0.7604004,-0.77102053,0.10513916,101.0
22984,1.0451354,-0.95905113,0.4299469,-0.7604004,-0.77102053,0.10513916,101.0
22985,1.0451354,-0.95905113,0.4299469,-1.0046631,-0.8326172,0.19434814,101.0
22986,0.8910644,-1.591423,0.2730255,-1.0046631,-0.8326172,0.19434814,101.0
22987,0.8910644,-1.591423,0.2730255,-0.9494385,-0.83686525,0.10938721,101.0
22988,1.0554907,-2.264021,-0.2266388,-0.9494385,-0.83686525,0.10938721,101.0
22989,1.0554907,-2.264021,-0.2266388,-0.80819094,-0.65632325,0.14974366,101.0
22990,1.4584551,-2.1138535,-0.73883057,-0.80819094,-0.65632325,0.14974366,101.0
22991,1.4584551,-2.1138535,-0.73883057,-0.6244629,-0.4970215,0.17629395,101.0
22992,1.5360024,-1.5991383,-0.4504242,-0.6244629,-0.4970215,0.17629395,101.0
22993,1.5360024,-1.5991383,-0.4504242,-0.4428589,-0.32709962,0.27506104,101.0
22994,1.0561578,-1.0812511,0.6886444,-0.4428589,-0.32709962,0.27506104,101.0
22995,1.0561578,-1.0812511,0.6886444,-0.66269535,-0.37701416,0.26550293,101.0
22996,0.401335,-0.7272568,1.6528931,-0.66269535,-0.37701416,0.26550293,101.0
22997,0.401335,-0.7272568,1.6528931,-1.0556396,-0.6064087,0.26762697,101.0
22998,0.09514026,-1.1846981,1.3897095,-1.0556396,-0.6064087,0.26762697,101.0
22999,0.09514026,-1.1846981,1.3897095,-1.2255615,-0.79332274,0.0063720704,101.0
23000,0.2769789,-1.9266644,0.286438,-1.2255615,-0.79332274,0.0063720704,101.0
23001,0.2769789,-1.9266644,0.286438,-0.84111327,-0.5628662,-0.043542482,101.0
23002,0.6513072,-1.817173,-0.45941162,-0.84111327,-0.5628662,-0.043542482,101.0
23003,0.6513072,-1.817173,-0.45941162,-0.6064087,-0.42799073,-0.22408448,101.0
23004,0.8691659,-1.4116249,-0.41593933,-0.6064087,-0.42799073,-0.22408448,101.0
23005,0.8691659,-1.4116249,-0.41593933,-0.51082766,-0.2824951,-0.33878174,101.0
23006,0.7940632,-0.8677025,-0.030303955,-0.51082766,-0.2824951,-0.33878174,101.0
23007,0.7940632,-0.8677025,-0.030303955,-0.3727661,-0.16992188,-0.1731079,101.0
23008,0.46424222,0.16460228,0.27711487,-0.3727661,-0.16992188,-0.1731079,101.0
23009,0.46424222,0.16460228,0.27711487,-0.4619751,-0.2166504,-0.38763428,101.0
23010,-0.0895071,0.25184822,0.633728,-0.4619751,-0.2166504,-0.38763428,101.0
23011,-0.0895071,0.25184822,0.633728,-1.0386475,-0.6414551,-0.8750977,101.0
23012,-0.38249433,-1.1800518,0.06088257,-1.0386475,-0.6414551,-0.8750977,101.0
23013,-0.38249433,-1.1800518,0.06088257,-0.8814697,-0.62552494,-1.0237793,101.0
23014,0.647923,-2.120018,-2.1371002,-0.8814697,-0.62552494,-1.0237793,101.0
23015,0.647923,-2.120018,-2.1371002,0.41737062,0.09451904,-1.2106934,101.0
23016,1.9219029,-1.4717464,-2.8229675,0.41737062,0.09451904,-1.2106934,101.0
23017,1.9219029,-1.4717464,-2.8229675,0.8857178,0.46728516,-0.7582764,101.0
23018,1.5345316,0.07146835,-1.0461884,0.8857178,0.46728516,-0.7582764,101.0
23019,1.5345316,0.07146835,-1.0461884,0.630835,0.24957275,-0.26444092,101.0
23020,0.27768636,0.7210903,0.1038208,0.630835,0.24957275,-0.26444092,101.0
23021,0.27768636,0.7210903,0.1038208,-0.15930176,-0.118945315,-1.083252,101.0
23022,-0.4316839,0.11428642,-0.07191467,-0.15930176,-0.118945315,-1.083252,101.0
23023,-0.4316839,0.11428642,-0.07191467,0.47896728,0.3812622,-1.0821899,101.0
23024,-0.6403301,-0.22810268,0.10517883,0.47896728,0.3812622,-1.0821899,101.0
23025,-0.6403301,-0.22810268,0.10517883,0.5299439,0.38975832,-1.2149414,101.0
23026,-0.6793294,0.1941042,0.96102905,0.5299439,0.38975832,-1.2149414,101.0
23027,-0.6793294,0.1941042,0.96102905,0.17416993,0.15505372,-1.1618408,101.0
23028,-0.46204257,0.5853367,1.1980743,0.17416993,0.15505372,-1.1618408,101.0
23029,-0.46204257,0.5853367,1.1980743,0.087084964,-0.0053100586,-1.2945923,101.0
23030,-0.11043,0.6246166,0.613678,0.087084964,-0.0053100586,-1.2945923,101.0
23031,-0.11043,0.6246166,0.613678,0.32285157,0.095581055,-1.4613281,101.0
23032,-0.11043,0.6246166,0.613678,0.32285157,0.095581055,-1.4613281,101.0
23033,-0.11342943,0.87823296,0.18888855,0.32285157,0.095581055,-1.4613281,101.0
23034,-0.11342943,0.87823296,0.18888855,0.59897465,0.19328614,-1.5335449,101.0
23035,-0.61147106,1.1487904,0.3179779,0.59897465,0.19328614,-1.5335449,101.0
23036,-0.61147106,1.1487904,0.3179779,0.5246338,0.052038576,-1.8532104,101.0
23037,-1.0669723,0.76805496,0.65234375,0.5246338,0.052038576,-1.8532104,101.0
23038,-1.0669723,0.76805496,0.65234375,0.5320679,-0.058410645,-2.3258057,101.0
23039,-1.2000989,0.69491386,0.66444397,0.5320679,-0.058410645,-2.3258057,101.0
23040,-1.2000989,0.69491386,0.66444397,1.0099732,0.11257324,-2.5732543,101.0
23041,-0.7480308,1.8704567,0.5131378,1.0099732,0.11257324,-2.5732543,101.0
23042,-0.7480308,1.8704567,0.5131378,0.79969484,0.04141846,-2.885486,101.0
23043,0.97639227,3.526102,0.58625793,0.79969484,0.04141846,-2.885486,101.0
23044,0.97639227,3.526102,0.58625793,-0.023364259,-0.3430298,-2.5615723,101.0
23045,2.2747905,3.079914,0.3300476,-0.023364259,-0.3430298,-2.5615723,101.0
23046,2.2747905,3.079914,0.3300476,-1.0747559,-0.6711914,-2.0486207,101.0
23047,0.9759115,1.2637119,0.21168518,-1.0747559,-0.6711914,-2.0486207,101.0
23048,0.9759115,1.2637119,0.21168518,-1.0322754,-0.41099855,-1.5792115,101.0
23049,-1.6518514,2.111971,1.6212769,-1.0322754,-0.41099855,-1.5792115,101.0
23050,-1.6518514,2.111971,1.6212769,-4.0929933,-1.2988404,-0.6988037,101.0
23051,-3.6161466,3.4301033,2.589981,-4.0929933,-1.2988404,-0.6988037,101.0
23052,-3.6161466,3.4301033,2.589981,-9.289416,-2.5732543,-0.43967286,101.0
23053,-3.3700047,0.65278625,0.11010742,-9.289416,-2.5732543,-0.43967286,101.0
23054,-3.3700047,0.65278625,0.11010742,-13.087171,-3.539685,-1.5664673,101.0
23055,0.123063564,-4.4609985,-4.58786,-13.087171,-3.539685,-1.5664673,101.0
23056,0.123063564,-4.4609985,-4.58786,-15.329078,-4.71427,-1.9137452,101.0
23057,6.270863,-7.8743153,-9.635727,-15.329078,-4.71427,-1.9137452,101.0
23058,6.270863,-7.8743153,-9.635727,-15.076319,-5.368469,-0.73809814,101.0
23059,14.971622,-8.899526,-13.641006,-15.076319,-5.368469,-0.73809814,101.0
23060,14.971622,-8.899526,-13.641006,-11.243518,-3.2932985,-2.0348146,101.0
23061,21.56132,-7.69998,-14.610153,-11.243518,-3.2932985,-2.0348146,101.0
23062,21.56132,-7.69998,-14.610153,-5.686011,-1.9498535,-2.1303957,101.0
23063,18.764973,-4.94862,-12.352524,-5.686011,-1.9498535,-2.1303957,101.0
23064,18.764973,-4.94862,-12.352524,0.61702883,0.0010620117,0.48640138,101.0
23065,8.936014,-0.95529556,-9.890686,0.61702883,0.0010620117,0.48640138,101.0
23066,8.936014,-0.95529556,-9.890686,2.4521852,2.095349,2.3321779,101.0
23067,-0.18745613,1.7218237,-11.5889435,2.4521852,2.095349,2.3321779,101.0
23068,-0.18745613,1.7218237,-11.5889435,-0.996167,4.145032,3.3007324,101.0
23069,-5.222536,-1.7074528,-14.272186,-0.996167,4.145032,3.3007324,101.0
23070,-5.222536,-1.7074528,-14.272186,-2.524402,5.438562,3.8115602,101.0
23071,-9.118251,-10.033297,-11.943329,-2.524402,5.438562,3.8115602,101.0
23072,-9.118251,-10.033297,-11.943329,0.98236084,6.124622,4.776929,101.0
23073,-13.323628,-16.05857,-5.9421234,0.98236084,6.124622,4.776929,101.0
23074,-13.323628,-16.05857,-5.9421234,5.6881347,6.700232,2.437317,101.0
23075,-16.288445,-14.421467,0.4632721,5.6881347,6.700232,2.437317,101.0
23076,-16.288445,-14.421467,0.4632721,4.343628,6.2690554,0.07434082,101.0
23077,-16.681597,-6.013113,8.044052,4.343628,6.2690554,0.07434082,101.0
23078,-16.681597,-6.013113,8.044052,-1.7480713,3.8243043,0.30373535,101.0
23079,-13.970778,1.456404,12.107376,-1.7480713,3.8243043,0.30373535,101.0
23080,-13.970778,1.456404,12.107376,0.10089111,3.3931274,1.6365601,101.0
23081,-8.962719,2.282848,7.900284,0.10089111,3.3931274,1.6365601,101.0
23082,-8.962719,2.282848,7.900284,1.5983276,1.5802735,0.12850343,101.0
23083,-2.809702,1.722604,3.192093,1.5983276,1.5802735,0.12850343,101.0
23084,-2.809702,1.722604,3.192093,0.47684327,1.9392334,0.3971924,101.0
23085,3.6099656,1.366157,1.2107849,0.47684327,1.9392334,0.3971924,101.0
23086,3.6099656,1.366157,1.2107849,-1.8808228,1.8776368,0.635083,101.0
23087,7.4058924,-2.2994328,-0.030258179,-1.8808228,1.8776368,0.635083,101.0
23088,7.4058924,-2.2994328,-0.030258179,-1.0556396,1.4974365,0.6605713,101.0
23089,6.456318,-5.109639,0.22871399,-1.0556396,1.4974365,0.6605713,101.0
23090,6.456318,-5.109639,0.22871399,1.3030884,1.3158325,0.5171997,101.0
23091,2.2472935,-2.2704139,0.8248291,1.3030884,1.3158325,0.5171997,101.0
23092,2.2472935,-2.2704139,0.8248291,0.8358032,1.4836304,0.33028564,101.0
23093,-1.8350755,2.328078,0.81269836,0.8358032,1.4836304,0.33028564,101.0
23094,-1.8350755,2.328078,0.81269836,-0.1444336,1.7109009,0.29630128,101.0
23095,-3.0528994,2.8247428,1.0089417,-0.1444336,1.7109009,0.29630128,101.0
23096,-3.0528994,2.8247428,1.0089417,-0.09133301,1.8733886,0.10407715,101.0
23097,-1.9918433,0.24115407,1.2647552,-0.09133301,1.8733886,0.10407715,101.0
23098,-1.9918433,0.24115407,1.2647552,0.3334717,1.9944581,0.038232423,101.0
23099,-1.2341607,-1.2443691,1.1442413,0.3334717,1.9944581,0.038232423,101.0
23100,-1.2341607,-1.2443691,1.1442413,0.9143921,2.0188844,0.043542482,101.0
23101,-0.88135934,-0.28579068,0.51130676,0.9143921,2.0188844,0.043542482,101.0
23102,-0.88135934,-0.28579068,0.51130676,0.38869628,2.0496826,-0.2899292,101.0
23103,-0.35483122,0.41425073,-0.30976868,0.38869628,2.0496826,-0.2899292,101.0
23104,-0.35483122,0.41425073,-0.30976868,0.26656494,1.9827759,-0.16567384,101.0
23105,-0.003152132,-0.0626179,-0.13717651,0.26656494,1.9827759,-0.16567384,101.0
23106,-0.003152132,-0.0626179,-0.13717651,0.9451904,1.8489624,-0.41099855,101.0
23107,-0.0664866,0.06565273,0.50798035,0.9451904,1.8489624,-0.41099855,101.0
23108,-0.0664866,0.06565273,0.50798035,0.6000366,1.6970948,-0.44498292,101.0
23109,-0.17800617,0.4622512,0.7492676,0.6000366,1.6970948,-0.44498292,101.0
23110,-0.17800617,0.4622512,0.7492676,0.3706421,1.7788696,-0.47578126,101.0
23111,0.14366674,0.15437126,0.62054443,0.3706421,1.7788696,-0.47578126,101.0
23112,0.14366674,0.15437126,0.62054443,0.4343628,2.0401247,-0.48215333,101.0
23113,0.38594174,-0.45742345,0.7985687,0.4343628,2.0401247,-0.48215333,101.0
23114,0.38594174,-0.45742345,0.7985687,0.6701294,1.9944581,-0.31223145,101.0
23115,0.2528696,-0.74959356,1.1381378,0.6701294,1.9944581,-0.31223145,101.0
23116,0.2528696,-0.74959356,1.1381378,0.7954468,1.9997681,-0.46622315,101.0
23117,0.06668782,-0.38583207,1.0707245,0.7954468,1.9997681,-0.46622315,101.0
23118,0.06668782,-0.38583207,1.0707245,0.8517334,2.0942872,-0.24532472,101.0
23119,-0.21710873,-0.05645621,0.75398254,0.8517334,2.0942872,-0.24532472,101.0
23120,-0.21710873,-0.05645621,0.75398254,1.2160034,2.3194337,-0.32816163,101.0
23121,-0.56337214,-0.21187639,0.96173096,1.2160034,2.3194337,-0.32816163,101.0
23122,-0.56337214,-0.21187639,0.96173096,1.5558472,2.4925416,-0.46516114,101.0
23123,-0.65039253,-0.58839756,2.6444397,1.5558472,2.4925416,-0.46516114,101.0
23124,-0.65039253,-0.58839756,2.6444397,2.4054565,2.366162,-0.634021,101.0
23125,-0.18037271,-0.91517603,4.316208,2.4054565,2.366162,-0.634021,101.0
23126,-0.18037271,-0.91517603,4.316208,3.8136842,2.35979,-1.0482056,101.0
23127,0.5528331,-0.6792356,3.95607,3.8136842,2.35979,-1.0482056,101.0
23128,0.5528331,-0.6792356,3.95607,4.059009,2.5721924,-1.2807862,101.0
23129,0.59015465,0.7283767,2.603897,4.059009,2.5721924,-1.2807862,101.0
23130,0.59015465,0.7283767,2.603897,4.3776126,2.6359131,-1.0683838,101.0
23131,-0.1749587,2.9367664,2.0852509,4.3776126,2.6359131,-1.0683838,101.0
23132,-0.1749587,2.9367664,2.0852509,4.776929,2.4033325,-1.4082276,101.0
23133,-0.75955915,4.856725,2.7467499,4.776929,2.4033325,-1.4082276,101.0
23134,-0.75955915,4.856725,2.7467499,5.183679,1.9413575,-1.5792115,101.0
23135,-0.23449063,5.6379194,3.2096252,5.183679,1.9413575,-1.5792115,101.0
23136,-0.23449063,5.6379194,3.2096252,5.0052614,1.7416992,-1.8723267,101.0
23137,0.7761893,5.052657,2.2102203,5.0052614,1.7416992,-1.8723267,101.0
23138,0.7761893,5.052657,2.2102203,4.912866,1.6641724,-1.5154908,101.0
23139,1.0046062,3.559423,1.1961975,4.912866,1.6641724,-1.5154908,101.0
23140,1.0046062,3.559423,1.1961975,5.25271,1.9116211,-1.4984986,101.0
23141,0.3247788,2.6814742,2.1344757,5.25271,1.9116211,-1.4984986,101.0
23142,0.3247788,2.6814742,2.1344757,3.982544,1.630188,-1.6493043,101.0
23143,-0.39422965,3.0820932,3.542633,3.982544,1.630188,-1.6493043,101.0
23144,-0.39422965,3.0820932,3.542633,3.5598633,1.4687623,-1.722583,101.0
23145,-0.74393606,3.8679085,3.3442535,3.5598633,1.4687623,-1.722583,101.0
23146,-0.74393606,3.8679085,3.3442535,3.797754,1.2404298,-1.4071655,101.0
23147,-0.74393606,3.8679085,3.3442535,3.797754,1.2404298,-1.4071655,104.0
23148,-1.1198316,4.6223297,2.2519226,3.797754,1.2404298,-1.4071655,104.0
23149,-1.1198316,4.6223297,2.2519226,4.088745,1.363623,-1.2510499,104.0
23150,-1.2000158,5.147253,1.3531494,4.088745,1.363623,-1.2510499,104.0
23151,-1.2000158,5.147253,1.3531494,3.8423584,1.3731812,-1.4602661,104.0
23152,-0.4994414,5.022209,1.1626587,3.8423584,1.3731812,-1.4602661,104.0
23153,-0.4994414,5.022209,1.1626587,2.6571534,1.4358399,-1.6917847,104.0
23154,-0.1655078,4.283929,1.3570862,2.6571534,1.4358399,-1.6917847,104.0
23155,-0.1655078,4.283929,1.3570862,2.5042236,1.3774292,-1.175647,104.0
23156,-1.2081385,4.037031,1.2610168,2.5042236,1.3774292,-1.175647,104.0
23157,-1.2081385,4.037031,1.2610168,2.794153,1.7586914,-0.62340087,104.0
23158,-2.6347117,5.117625,0.79333496,2.794153,1.7586914,-0.62340087,104.0
23159,-2.6347117,5.117625,0.79333496,0.9834229,1.5218629,-0.44923097,104.0
23160,-3.1587949,4.8687096,0.077804565,0.9834229,1.5218629,-0.44923097,104.0
23161,-3.1587949,4.8687096,0.077804565,-0.6467652,0.9685547,-0.62340087,104.0
23162,-2.4455662,1.8012791,-0.6833801,-0.6467652,0.9685547,-0.62340087,104.0
23163,-2.4455662,1.8012791,-0.6833801,0.26975098,1.6439942,-0.5055176,104.0
23164,-1.7689896,-0.8482704,-0.5647278,0.26975098,1.6439942,-0.5055176,104.0
23165,-1.7689896,-0.8482704,-0.5647278,-0.5851685,1.6832886,-0.28355715,104.0
23166,-2.6131897,-4.80546,-0.20021057,-0.5851685,1.6832886,-0.28355715,104.0
23167,-2.6131897,-4.80546,-0.20021057,-2.7474244,0.31116945,-1.6365601,104.0
23168,-3.4517946,-9.249959,-0.0071258545,-2.7474244,0.31116945,-1.6365601,104.0
23169,-3.4517946,-9.249959,-0.0071258545,-2.5562623,1.6078857,-2.8408813,104.0
23170,-2.5805154,-6.658366,2.0119476,-2.5562623,1.6078857,-2.8408813,104.0
23171,-2.5805154,-6.658366,2.0119476,-1.6811646,1.0248413,-0.86341554,104.0
23172,-2.3224573,-0.3409996,3.305069,-1.6811646,1.0248413,-0.86341554,104.0
23173,-2.3224573,-0.3409996,3.305069,-2.8578737,-0.24957275,-0.817749,104.0
23174,-2.9118357,1.6151886,1.3791656,-2.8578737,-0.24957275,-0.817749,104.0
23175,-2.9118357,1.6151886,1.3791656,-3.535437,0.06584473,-1.9625977,104.0
23176,-1.7677383,0.8353882,-1.5998993,-3.535437,0.06584473,-1.9625977,104.0
23177,-1.7677383,0.8353882,-1.5998993,-3.4589722,0.13487549,-1.4846925,104.0
23178,0.861969,-0.624341,-2.8415527,-3.4589722,0.13487549,-1.4846925,104.0
23179,0.861969,-0.624341,-2.8415527,-3.2423217,-0.035046387,-1.5229248,104.0
23180,2.349841,-2.978074,-1.9895325,-3.2423217,-0.035046387,-1.5229248,104.0
23181,2.349841,-2.978074,-1.9895325,-1.8330323,0.727478,-1.3168945,104.0
23182,1.6638088,-3.0549927,-1.0447845,-1.8330323,0.727478,-1.3168945,104.0
23183,1.6638088,-3.0549927,-1.0447845,-2.890796,0.8867798,-0.9653687,104.0
23184,0.25614452,-0.8922243,-1.3549347,-2.890796,0.8867798,-0.9653687,104.0
23185,0.25614452,-0.8922243,-1.3549347,-3.9166992,0.85598147,-1.0683838,104.0
23186,-0.09938145,-1.3097878,-2.666275,-3.9166992,0.85598147,-1.0683838,104.0
23187,-0.09938145,-1.3097878,-2.666275,-3.165857,0.9653687,-1.1023682,104.0
23188,0.13023663,-2.699442,-3.1610718,-3.165857,0.9653687,-1.1023682,104.0
23189,0.13023663,-2.699442,-3.1610718,-2.1930542,1.2191895,-0.91014403,104.0
23190,0.25067425,-6.4387407,-2.9172516,-2.1930542,1.2191895,-0.91014403,104.0
23191,0.25067425,-6.4387407,-2.9172516,1.0067872,1.9190552,-0.8071289,104.0
23192,-0.2478981,-5.0080237,-2.0404205,1.0067872,1.9190552,-0.8071289,104.0
23193,-0.2478981,-5.0080237,-2.0404205,1.0110352,1.9615357,-0.6860596,104.0
23194,-1.1487455,-0.36656332,-1.1025543,1.0110352,1.9615357,-0.6860596,104.0
23195,-1.1487455,-0.36656332,-1.1025543,-0.4343628,1.4900025,-0.7869507,104.0
23196,-0.7787008,0.29368782,-1.1972809,-0.4343628,1.4900025,-0.7869507,104.0
23197,-0.7787008,0.29368782,-1.1972809,-0.25913087,1.4390259,-0.7062378,104.0
23198,0.66320896,-1.1444564,-2.5233612,-0.25913087,1.4390259,-0.7062378,104.0
23199,0.66320896,-1.1444564,-2.5233612,0.41949463,1.4613281,-0.52888185,104.0
23200,0.9591198,-1.631959,-2.4624481,0.41949463,1.4613281,-0.52888185,104.0
23201,0.9591198,-1.631959,-2.4624481,0.4630371,1.4230957,-0.47578126,104.0
23202,0.82354546,-1.724659,-2.536972,0.4630371,1.4230957,-0.47578126,104.0
23203,0.82354546,-1.724659,-2.536972,0.5278198,1.0354614,-0.33240968,104.0
23204,0.2616558,-1.2931061,-2.3321838,0.5278198,1.0354614,-0.33240968,104.0
23205,0.2616558,-1.2931061,-2.3321838,0.7763306,0.88040775,-0.2803711,104.0
23206,-0.6206436,-1.2615356,-2.3823242,0.7763306,0.88040775,-0.2803711,104.0
23207,-0.6206436,-1.2615356,-2.3823242,1.7841797,1.1660889,-0.32178956,104.0
23208,-0.36586285,-0.84768057,-1.4867401,1.7841797,1.1660889,-0.32178956,104.0
23209,-0.36586285,-0.84768057,-1.4867401,2.0008302,1.2393677,-0.27399904,104.0
23210,0.08084488,0.5378833,-0.031829834,2.0008302,1.2393677,-0.27399904,104.0
23211,0.08084488,0.5378833,-0.031829834,1.8340943,0.9685547,0.057348635,104.0
23212,-0.2810154,1.3577967,0.94325256,1.8340943,0.9685547,0.057348635,104.0
23213,-0.2810154,1.3577967,0.94325256,1.7459472,0.5384399,-0.13168946,104.0
23214,-1.3010693,0.101789,1.331665,1.7459472,0.5384399,-0.13168946,104.0
23215,-1.3010693,0.101789,1.331665,2.9109743,0.47578126,-0.2899292,104.0
23216,-1.681468,-0.48694038,1.5313873,2.9109743,0.47578126,-0.2899292,104.0
23217,-1.681468,-0.48694038,1.5313873,4.721704,0.6945557,-0.028674318,104.0
23218,-1.2312098,1.4376206,2.1579285,4.721704,0.6945557,-0.028674318,104.0
23219,-1.2312098,1.4376206,2.1579285,4.1885743,0.37701416,0.0010620117,104.0
23220,-0.9048414,2.9995227,3.1706085,4.1885743,0.37701416,0.0010620117,104.0
23221,-0.9048414,2.9995227,3.1706085,2.6815796,-0.08602295,-0.36851808,104.0
23222,-0.49839687,2.5034266,3.041565,2.6815796,-0.08602295,-0.36851808,104.0
23223,-0.49839687,2.5034266,3.041565,1.3296387,-0.26550293,-0.41737062,104.0
23224,-0.0398798,1.3483105,1.5052795,1.3296387,-0.26550293,-0.41737062,104.0
23225,-0.0398798,1.3483105,1.5052795,1.4602661,-0.27399904,-0.18797608,104.0
23226,0.6069269,1.6578841,-0.06919861,1.4602661,-0.27399904,-0.18797608,104.0
23227,0.6069269,1.6578841,-0.06919861,0.22089843,-0.046728518,-0.18903808,104.0
23228,0.8343334,1.8943982,0.17857361,0.22089843,-0.046728518,-0.18903808,104.0
23229,0.8343334,1.8943982,0.17857361,-0.22833252,-0.31966552,-0.07752686,104.0
23230,0.821434,1.1217442,0.76390076,-0.22833252,-0.31966552,-0.07752686,104.0
23231,0.821434,1.1217442,0.76390076,0.4322388,-0.13062744,-0.06265869,104.0
23232,0.3586979,0.53700733,0.6631775,0.4322388,-0.13062744,-0.06265869,104.0
23233,0.3586979,0.53700733,0.6631775,0.46409914,-0.05522461,0.11044922,104.0
23234,-0.34285164,0.5622225,0.56869507,0.46409914,-0.05522461,0.11044922,104.0
23235,-0.34285164,0.5622225,0.56869507,0.14124756,-0.28674316,-0.06584473,104.0
23236,-0.2756729,0.9968853,0.7792816,0.14124756,-0.28674316,-0.06584473,104.0
23237,-0.2756729,0.9968853,0.7792816,0.2527588,-0.26762697,-0.045666505,104.0
23238,-0.2756729,0.9968853,0.7792816,0.2527588,-0.26762697,-0.045666505,110.0
23239,0.49015522,0.9196396,1.019577,0.2527588,-0.26762697,-0.045666505,110.0
23240,0.49015522,0.9196396,1.019577,0.32391357,-0.16461182,0.047790527,110.0
23241,0.9128275,0.4822569,1.1031342,0.32391357,-0.16461182,0.047790527,110.0
23242,0.9128275,0.4822569,1.1031342,0.270813,-0.12956543,0.008496094,110.0
23243,0.8325691,0.38027573,0.9794159,0.270813,-0.12956543,0.008496094,110.0
23244,0.8325691,0.38027573,0.9794159,0.51082766,-0.013806152,-0.022302246,110.0
23245,1.0483551,0.98075867,0.7260895,0.51082766,-0.013806152,-0.022302246,110.0
23246,1.0483551,0.98075867,0.7260895,0.7476563,0.1731079,0.025488282,110.0
23247,1.0352659,1.0126829,0.17196655,0.7476563,0.1731079,0.025488282,110.0
23248,1.0352659,1.0126829,0.17196655,1.0205933,0.19434814,0.17947999,110.0
23249,-0.83377457,-0.115659714,-0.34542847,1.0205933,0.19434814,0.17947999,110.0
23250,-0.83377457,-0.115659714,-0.34542847,1.1193603,0.4248047,0.47365722,110.0
23251,-2.8994656,0.20230865,0.005203247,1.1193603,0.4248047,0.47365722,110.0
23252,-2.8994656,0.20230865,0.005203247,0.18691407,0.095581055,0.1720459,110.0
23253,-2.4990644,1.0028019,0.44795227,0.18691407,0.095581055,0.1720459,110.0
23254,-2.4990644,1.0028019,0.44795227,-0.49064943,-0.27612305,-0.18797608,110.0
23255,-0.9797077,0.5378132,0.5556946,-0.49064943,-0.27612305,-0.18797608,110.0
23256,-0.9797077,0.5378132,0.5556946,0.22939454,-0.014868164,0.16354981,110.0
23257,-0.1468277,0.38108063,1.037384,0.22939454,-0.014868164,0.16354981,110.0
23258,-0.1468277,0.38108063,1.037384,-0.10089111,-0.26444092,-0.020178223,110.0
23259,0.33215904,0.35277748,1.6260071,-0.10089111,-0.26444092,-0.020178223,110.0
23260,0.33215904,0.35277748,1.6260071,-0.3090454,-0.4088745,-0.23895264,110.0
23261,0.9220867,-0.05073738,1.8725891,-0.3090454,-0.4088745,-0.23895264,110.0
23262,0.9220867,-0.05073738,1.8725891,-0.03717041,-0.3791382,-0.23258057,110.0
23263,0.9230089,-0.2851944,1.9883728,-0.03717041,-0.3791382,-0.23258057,110.0
23264,0.9230089,-0.2851944,1.9883728,0.41524658,-0.542688,-0.38444826,110.0
23265,0.102189064,-0.3005066,2.5480804,0.41524658,-0.542688,-0.38444826,110.0
23266,0.102189064,-0.3005066,2.5480804,0.8995239,-0.86978763,-0.6711914,110.0
23267,-0.7270498,-0.3197508,3.0306244,0.8995239,-0.86978763,-0.6711914,110.0
23268,-0.7270498,-0.3197508,3.0306244,0.9324463,-1.4284058,-1.1395386,110.0
23269,-0.8333492,-0.20965862,2.0085602,0.9324463,-1.4284058,-1.1395386,110.0
23270,-0.8333492,-0.20965862,2.0085602,1.3763672,-1.6036377,-1.4931885,110.0
23271,-0.22527313,0.4742899,0.05961609,1.3763672,-1.6036377,-1.4931885,110.0
23272,-0.22527313,0.4742899,0.05961609,2.0369384,-1.5962037,-1.2999023,110.0
23273,0.8137388,1.206007,-0.98872375,2.0369384,-1.5962037,-1.2999023,110.0
23274,0.8137388,1.206007,-0.98872375,1.634436,-1.6439942,-1.6684204,110.0
23275,2.1926775,1.5299301,-1.0508118,1.634436,-1.6439942,-1.6684204,110.0
23276,2.1926775,1.5299301,-1.0508118,1.0174073,-1.6089478,-1.6907227,110.0
23277,4.000004,1.8609066,-1.0962524,1.0174073,-1.6089478,-1.6907227,110.0
23278,4.000004,1.8609066,-1.0962524,0.7051758,-1.3328247,-1.5186768,110.0
23279,5.9384794,2.6429853,-1.5628967,0.7051758,-1.3328247,-1.5186768,110.0
23280,5.9384794,2.6429853,-1.5628967,0.2984253,-0.904834,-0.9611206,110.0
23281,7.3527246,3.738083,-2.1582947,0.2984253,-0.904834,-0.9611206,110.0
23282,7.3527246,3.738083,-2.1582947,-0.41737062,-0.45029297,-0.095581055,110.0
23283,7.2644916,3.4742556,-2.2610931,-0.41737062,-0.45029297,-0.095581055,110.0
23284,7.2644916,3.4742556,-2.2610931,-1.1044922,-0.12531738,0.6945557,110.0
23285,5.1169767,0.9318466,-1.5232544,-1.1044922,-0.12531738,0.6945557,110.0
23286,5.1169767,0.9318466,-1.5232544,-1.0694458,0.3090454,1.1395386,110.0
23287,1.8039329,-2.1174622,-1.024704,-1.0694458,0.3090454,1.1395386,110.0
23288,1.8039329,-2.1174622,-1.024704,-1.6843506,0.6531372,1.4145997,110.0
23289,-0.8505182,-3.8650389,-1.1237183,-1.6843506,0.6531372,1.4145997,110.0
23290,-0.8505182,-3.8650389,-1.1237183,-2.7739747,1.0354614,0.9876709,110.0
23291,-1.7103462,-3.817543,-0.9561615,-2.7739747,1.0354614,0.9876709,110.0
23292,-1.7103462,-3.817543,-0.9561615,-4.6505494,0.99722904,0.9303223,110.0
23293,-1.9515657,-3.1532784,-0.6585846,-4.6505494,0.99722904,0.9303223,110.0
23294,-1.9515657,-3.1532784,-0.6585846,-4.775867,0.2824951,1.170337,110.0
23295,-3.0537696,-3.6158113,-1.1013336,-4.775867,0.2824951,1.170337,110.0
23296,-3.0537696,-3.6158113,-1.1013336,-2.265271,0.4715332,1.4039795,110.0
23297,-4.0801497,-2.0563211,-2.2408447,-2.265271,0.4715332,1.4039795,110.0
23298,-4.0801497,-2.0563211,-2.2408447,-0.91014403,1.0428956,2.627417,110.0
23299,-3.8269372,1.8610344,-2.1804657,-0.91014403,1.0428956,2.627417,110.0
23300,-3.8269372,1.8610344,-2.1804657,-2.5902467,0.65632325,2.264209,110.0
23301,-3.429738,0.26259422,1.5962219,-2.5902467,0.65632325,2.264209,110.0
23302,-3.429738,0.26259422,1.5962219,-0.1263794,-0.9897949,1.539917,110.0
23303,-2.6291418,-6.6818066,5.091263,-0.1263794,-0.9897949,1.539917,110.0
23304,-2.6291418,-6.6818066,5.091263,0.7657105,1.2075074,0.32709962,110.0
23305,-0.9682059,-4.8224354,4.5697327,0.7657105,1.2075074,0.32709962,110.0
23306,-0.9682059,-4.8224354,4.5697327,-1.7480713,0.18054199,1.8404664,110.0
23307,-0.38724804,3.0509014,2.341385,-1.7480713,0.18054199,1.8404664,110.0
23308,-0.38724804,3.0509014,2.341385,-1.4114136,-0.60959476,0.29099122,110.0
23309,-1.3189173,3.6276836,-1.2029266,-1.4114136,-0.60959476,0.29099122,110.0
23310,-1.3189173,3.6276836,-1.2029266,-1.8447144,-0.12850343,0.09451904,110.0
23311,-1.6039495,2.2290878,-5.2281494,-1.8447144,-0.12850343,0.09451904,110.0
23312,-1.6039495,2.2290878,-5.2281494,-1.99552,0.80819094,1.0152832,110.0
23313,-1.0694141,3.3761415,-6.6168823,-1.99552,0.80819094,1.0152832,110.0
23314,-1.0694141,3.3761415,-6.6168823,-2.902478,0.3993164,0.7965088,110.0
23315,-1.0699596,-1.1576805,-3.777298,-2.902478,0.3993164,0.7965088,110.0
23316,-1.0699596,-1.1576805,-3.777298,-3.8689086,-0.4598511,-0.4619751,110.0
23317,-0.62739086,-8.986814,0.012054443,-3.8689086,-0.4598511,-0.4619751,110.0
23318,-0.62739086,-8.986814,0.012054443,-2.3682861,0.035046387,0.04885254,110.0
23319,0.40499687,-7.8407326,0.50138855,-2.3682861,0.035046387,0.04885254,110.0
23320,0.40499687,-7.8407326,0.50138855,-2.151636,-0.25063476,0.39506838,110.0
23321,-0.022499084,-0.88302326,-1.6968231,-2.151636,-0.25063476,0.39506838,110.0
23322,-0.022499084,-0.88302326,-1.6968231,-4.15459,-0.7497803,0.19541016,110.0
23323,-1.096283,1.6365013,-3.2676697,-4.15459,-0.7497803,0.19541016,110.0
23324,-1.096283,1.6365013,-3.2676697,-4.782239,-0.903772,-0.40250245,110.0
23325,-1.0711308,-1.6252961,-2.9196625,-4.782239,-0.903772,-0.40250245,110.0
23326,-1.0711308,-1.6252961,-2.9196625,-2.884424,-1.1236085,-0.21877442,110.0
23327,-0.75281525,-5.320525,-2.0335999,-2.884424,-1.1236085,-0.21877442,110.0
23328,-0.75281525,-5.320525,-2.0335999,-0.8846558,-0.27612305,-0.39082032,110.0
23329,-0.26919556,-3.8403678,-2.0594788,-0.8846558,-0.27612305,-0.39082032,110.0
23330,-0.26919556,-3.8403678,-2.0594788,0.41206056,0.058410645,-0.71367186,110.0
23331,0.72085,0.03678775,-2.2003937,0.41206056,0.058410645,-0.71367186,110.0
23332,0.72085,0.03678775,-2.2003937,-0.33134767,-0.021240234,-0.38869628,110.0
23333,1.0878496,0.44948626,-2.2117004,-0.33134767,-0.021240234,-0.38869628,110.0
23334,1.0878496,0.44948626,-2.2117004,-0.32497558,0.032922365,-0.0361084,110.0
23335,0.47734737,-1.2668269,-2.6706238,-0.32497558,0.032922365,-0.0361084,110.0
23336,0.47734737,-1.2668269,-2.6706238,0.5957886,0.053100586,-0.18585205,110.0
23337,-0.3316965,-0.9554169,-2.6262512,0.5957886,0.053100586,-0.18585205,110.0
23338,-0.3316965,-0.9554169,-2.6262512,0.54587406,-0.17629395,0.03186035,110.0
23339,-0.75395584,1.021018,-1.495285,0.54587406,-0.17629395,0.03186035,110.0
23340,-0.75395584,1.021018,-1.495285,-0.40250245,-0.47684327,0.07327881,110.0
23341,-0.42734623,1.4498589,-0.4840393,-0.40250245,-0.47684327,0.07327881,110.0
23342,-0.42734623,1.4498589,-0.4840393,-0.48215333,-0.59897465,-0.040356446,110.0
23343,0.3999195,-0.25009823,0.09082031,-0.48215333,-0.59897465,-0.040356446,110.0
23344,0.3999195,-0.25009823,0.09082031,0.8209351,-0.29311523,0.07965088,110.0
23345,0.49662018,-1.4467218,0.75102234,0.8209351,-0.29311523,0.07965088,110.0
23346,0.49662018,-1.4467218,0.75102234,1.0779419,-0.23789063,0.15080567,110.0
23347,0.49662018,-1.4467218,0.75102234,1.0779419,-0.23789063,0.15080567,110.0
23348,-0.39065552,-0.2047162,1.0605316,1.0779419,-0.23789063,0.15080567,110.0
23349,-0.39065552,-0.2047162,1.0605316,0.68287355,-0.33771974,-0.0063720704,110.0
23350,-0.739172,1.7974696,0.6930237,0.68287355,-0.33771974,-0.0063720704,110.0
23351,-0.739172,1.7974696,0.6930237,0.29205322,-0.5713623,-0.012744141,110.0
23352,0.122797966,1.6011226,0.1945343,0.29205322,-0.5713623,-0.012744141,110.0
23353,0.122797966,1.6011226,0.1945343,0.26868898,-0.7519043,0.07646485,110.0
23354,0.85619736,-0.33547163,0.06336975,0.26868898,-0.7519043,0.07646485,110.0
23355,0.85619736,-0.33547163,0.06336975,1.0620117,-0.68924564,0.1529297,110.0
23356,0.5243015,-0.8141413,0.24165344,1.0620117,-0.68924564,0.1529297,110.0
23357,0.5243015,-0.8141413,0.24165344,1.1533448,-0.71154785,0.271875,110.0
23358,-0.10669422,0.52456594,0.872818,1.1533448,-0.71154785,0.271875,110.0
23359,-0.10669422,0.52456594,0.872818,0.8421753,-1.1671509,0.33665773,110.0
23360,-0.26185703,1.0655634,1.7348785,0.8421753,-1.1671509,0.33665773,110.0
23361,-0.26185703,1.0655634,1.7348785,0.7604004,-1.4719483,0.2984253,110.0
23362,0.004088402,0.4578097,2.2223206,0.7604004,-1.4719483,0.2984253,110.0
23363,0.004088402,0.4578097,2.2223206,1.3455689,-1.5016845,0.33240968,110.0
23364,0.4861927,0.26558852,2.4322662,1.3455689,-1.5016845,0.33240968,110.0
23365,0.4861927,0.26558852,2.4322662,1.8011719,-1.5951416,0.41843262,110.0
23366,0.7549696,0.55210686,2.6971436,1.8011719,-1.5951416,0.41843262,110.0
23367,0.7549696,0.55210686,2.6971436,1.8330323,-1.7140869,0.64995116,110.0
23368,0.86092186,0.52443695,2.852951,1.8330323,-1.7140869,0.64995116,110.0
23369,0.86092186,0.52443695,2.852951,1.8606446,-1.6832886,0.88996583,110.0
23370,1.3077683,0.26990366,2.7123566,1.8606446,-1.6832886,0.88996583,110.0
23371,1.3077683,0.26990366,2.7123566,2.531836,-1.447522,0.97280276,110.0
23372,1.6201401,0.65394783,2.4416046,2.531836,-1.447522,0.97280276,110.0
23373,1.6201401,0.65394783,2.4416046,3.245508,-1.0322754,1.2914063,110.0
23374,1.1522279,1.8943377,2.3200684,3.245508,-1.0322754,1.2914063,110.0
23375,1.1522279,1.8943377,2.3200684,3.1286867,-0.8857178,1.6004517,110.0
23376,0.43354988,3.2636147,2.274994,3.1286867,-0.8857178,1.6004517,110.0
23377,0.43354988,3.2636147,2.274994,2.5222778,-0.93138427,1.6801026,110.0
23378,0.21952057,3.7470121,2.0066528,2.5222778,-0.93138427,1.6801026,110.0
23379,0.21952057,3.7470121,2.0066528,2.0634887,-0.9324463,1.6843506,110.0
23380,0.493793,3.3520164,1.523941,2.0634887,-0.9324463,1.6843506,110.0
23381,0.493793,3.3520164,1.523941,2.084729,-0.70942384,1.7066529,110.0
23382,0.86553,3.0445404,1.7380981,2.084729,-0.70942384,1.7066529,110.0
23383,0.86553,3.0445404,1.7380981,2.7548585,-0.4056885,1.6599244,110.0
23384,1.0138717,3.8102417,2.3734894,2.7548585,-0.4056885,1.6599244,110.0
23385,1.0138717,3.8102417,2.3734894,1.8330323,0.10513916,1.7735596,110.0
23386,0.77619743,5.7270756,2.6837006,1.8330323,0.10513916,1.7735596,110.0
23387,0.77619743,5.7270756,2.6837006,0.88996583,-0.5331299,2.1962402,110.0
23388,-0.14151764,5.558979,2.2777405,0.88996583,-0.5331299,2.1962402,110.0
23389,-0.14151764,5.558979,2.2777405,1.26698,-0.2623169,2.2026124,110.0
23390,-1.4869814,2.3072052,1.3078613,1.26698,-0.2623169,2.2026124,110.0
23391,-1.4869814,2.3072052,1.3078613,0.9154541,-0.059472658,1.6471802,110.0
23392,-2.2685523,0.0402956,0.6990814,0.9154541,-0.059472658,1.6471802,110.0
23393,-2.2685523,0.0402956,0.6990814,0.6786255,0.014868164,1.6248779,110.0
23394,-2.0798197,0.417161,0.6532135,0.6786255,0.014868164,1.6248779,110.0
23395,-2.0798197,0.417161,0.6532135,0.26337892,-0.1529297,1.5877075,110.0
23396,-1.4194956,1.2988901,0.5887146,0.26337892,-0.1529297,1.5877075,110.0
23397,-1.4194956,1.2988901,0.5887146,0.25806886,-0.21983643,1.5951416,110.0
23398,-1.2509527,1.0474491,0.7011566,0.25806886,-0.21983643,1.5951416,110.0
23399,-1.2509527,1.0474491,0.7011566,0.12956543,-0.6042847,1.6970948,110.0
23400,-1.515789,0.8463707,1.1685486,0.12956543,-0.6042847,1.6970948,110.0
23401,-1.515789,0.8463707,1.1685486,0.04885254,-0.7986328,1.4262818,110.0
23402,-0.94095135,2.0644503,1.6605835,0.04885254,-0.7986328,1.4262818,110.0
23403,-0.94095135,2.0644503,1.6605835,-0.5214478,-1.1575928,1.6684204,110.0
23404,0.2141943,1.1332741,3.0095978,-0.5214478,-1.1575928,1.6684204,110.0
23405,0.2141943,1.1332741,3.0095978,-2.1144655,-2.1229615,0.8782837,110.0
23406,1.6669731,-2.758811,4.0130005,-2.1144655,-2.1229615,0.8782837,110.0
23407,1.6669731,-2.758811,4.0130005,-2.18562,-2.3587282,-0.052038576,110.0
23408,4.039499,-4.8872375,3.0816498,-2.18562,-2.3587282,-0.052038576,110.0
23409,4.039499,-4.8872375,3.0816498,-1.7714356,-2.1643798,-0.28674316,110.0
23410,6.198811,-4.070751,1.0670929,-1.7714356,-2.1643798,-0.28674316,110.0
23411,6.198811,-4.070751,1.0670929,-1.4815063,-2.088977,-0.74447024,110.0
23412,7.02559,-1.5468111,-1.0000916,-1.4815063,-2.088977,-0.74447024,110.0
23413,7.02559,-1.5468111,-1.0000916,-0.6138428,-1.7480713,-1.1416626,110.0
23414,6.8551645,1.6204605,-2.4557953,-0.6138428,-1.7480713,-1.1416626,110.0
23415,6.8551645,1.6204605,-2.4557953,-0.21983643,-1.4199097,-1.1639649,110.0
23416,6.2632694,4.6033506,-3.4931946,-0.21983643,-1.4199097,-1.1639649,110.0
23417,6.2632694,4.6033506,-3.4931946,-0.093457036,-1.1363525,-1.2871583,110.0
23418,5.41805,5.9260035,-3.6319275,-0.093457036,-1.1363525,-1.2871583,110.0
23419,5.41805,5.9260035,-3.6319275,-0.2538208,-0.97386473,-1.1310425,110.0
23420,3.901957,4.998274,-2.4038696,-0.2538208,-0.97386473,-1.1310425,110.0
23421,3.901957,4.998274,-2.4038696,-0.45666504,-0.9324463,-0.99510497,110.0
23422,2.2200763,3.9312,-0.8355713,-0.45666504,-0.9324463,-0.99510497,110.0
23423,2.2200763,3.9312,-0.8355713,0.74871826,-0.85385746,-0.7858887,110.0
23424,1.2459831,3.8037853,0.16067505,0.74871826,-0.85385746,-0.7858887,110.0
23425,1.2459831,3.8037853,0.16067505,1.4623902,-0.62977296,-0.18479005,110.0
23426,0.5633881,4.405346,0.48428345,1.4623902,-0.62977296,-0.18479005,110.0
23427,0.5633881,4.405346,0.48428345,0.4428589,-0.4715332,0.7880127,110.0
23428,-0.4314673,4.4019012,0.96839905,0.4428589,-0.4715332,0.7880127,110.0
23429,-0.4314673,4.4019012,0.96839905,-1.2903442,-0.88359374,1.2393677,110.0
23430,-1.1302936,2.6683598,1.6249084,-1.2903442,-0.88359374,1.2393677,110.0
23431,-1.1302936,2.6683598,1.6249084,-1.893567,-1.1533448,1.5739014,110.0
23432,-0.7812369,0.4231758,1.2587891,-1.893567,-1.1533448,1.5739014,110.0
23433,-0.7812369,0.4231758,1.2587891,-1.0662597,-1.0991821,2.7803466,110.0
23434,-0.35957193,-1.528904,0.20384216,-1.0662597,-1.0991821,2.7803466,110.0
23435,-0.35957193,-1.528904,0.20384216,0.81243896,-0.4895874,3.983606,110.0
23436,-1.1993275,-2.9474392,0.2034607,0.81243896,-0.4895874,3.983606,110.0
23437,-1.1993275,-2.9474392,0.2034607,1.6875366,-0.14018555,3.618274,110.0
23438,-2.487709,-2.8727589,1.457962,1.6875366,-0.14018555,3.618274,110.0
23439,-2.487709,-2.8727589,1.457962,0.8867798,-0.2888672,3.5173829,110.0
23440,-2.756305,-1.4279556,2.2507324,0.8867798,-0.2888672,3.5173829,110.0
23441,-2.756305,-1.4279556,2.2507324,-0.75509036,-0.3706421,3.617212,110.0
23442,-2.7300684,0.23760414,1.5758209,-0.75509036,-0.3706421,3.617212,110.0
23443,-2.7300684,0.23760414,1.5758209,-1.4082276,-0.4056885,4.1025515,110.0
23444,-2.7300684,0.23760414,1.5758209,-1.4082276,-0.4056885,4.1025515,110.0
23445,-3.6159396,-1.1744671,0.89149475,-1.4082276,-0.4056885,4.1025515,110.0
23446,-3.6159396,-1.1744671,0.89149475,-1.4581422,-0.96218264,3.5577393,110.0
23447,-4.075393,-6.5653057,1.1732941,-1.4581422,-0.96218264,3.5577393,110.0
23448,-4.075393,-6.5653057,1.1732941,-0.63720703,-1.1968873,1.3891114,110.0
23449,-1.8149533,-8.93043,1.5207367,-0.63720703,-1.1968873,1.3891114,110.0
23450,-1.8149533,-8.93043,1.5207367,0.66269535,-0.61702883,2.0072021,110.0
23451,1.8473783,-4.740487,1.343811,0.66269535,-0.61702883,2.0072021,110.0
23452,1.8473783,-4.740487,1.343811,0.5713623,-0.34833986,2.35979,110.0
23453,3.3235202,0.6210995,0.88972473,0.5713623,-0.34833986,2.35979,110.0
23454,3.3235202,0.6210995,0.88972473,0.30479738,-0.61065674,1.9795898,110.0
23455,2.4684598,2.3919106,0.18183899,0.30479738,-0.61065674,1.9795898,110.0
23456,2.4684598,2.3919106,0.18183899,0.54693604,-0.41949463,2.0008302,110.0
23457,1.5366209,1.9706326,-0.7003479,0.54693604,-0.41949463,2.0008302,110.0
23458,1.5366209,1.9706326,-0.7003479,0.46516114,-0.17523193,2.0974731,110.0
23459,0.8838866,1.7433023,-1.0935364,0.46516114,-0.17523193,2.0974731,110.0
23460,0.8838866,1.7433023,-1.0935364,-0.1444336,-0.29311523,2.3820922,110.0
23461,-0.26879406,1.1693859,-0.92671204,-0.1444336,-0.29311523,2.3820922,110.0
23462,-0.26879406,1.1693859,-0.92671204,1.2584839,-0.60216063,2.4606812,110.0
23463,-1.021029,0.7802839,-0.01600647,1.2584839,-0.60216063,2.4606812,110.0
23464,-1.021029,0.7802839,-0.01600647,1.9647217,0.035046387,2.0624268,110.0
23465,-0.28923523,2.7773285,1.2713776,1.9647217,0.035046387,2.0624268,110.0
23466,-0.28923523,2.7773285,1.2713776,0.92713624,-0.44816896,2.8153932,110.0
23467,1.0072837,4.4459343,2.064499,0.92713624,-0.44816896,2.8153932,110.0
23468,1.0072837,4.4459343,2.064499,-0.29205322,-1.2457398,2.9991212,110.0
23469,1.5644329,2.0403538,1.940628,-0.29205322,-1.2457398,2.9991212,110.0
23470,1.5644329,2.0403538,1.940628,-0.2803711,-1.3137085,2.8313234,110.0
23471,1.2433677,-1.5609417,0.63435364,-0.2803711,-1.3137085,2.8313234,110.0
23472,1.2433677,-1.5609417,0.63435364,0.28355715,-0.9260742,2.4649293,110.0
23473,0.9069988,-2.060936,-1.3832703,0.28355715,-0.9260742,2.4649293,110.0
23474,0.9069988,-2.060936,-1.3832703,0.13275146,-0.5787964,2.362976,110.0
23475,0.93947846,0.72592163,-2.9268494,0.13275146,-0.5787964,2.362976,110.0
23476,0.93947846,0.72592163,-2.9268494,-0.047790527,-0.2984253,2.3916504,110.0
23477,0.57575274,2.6004028,-2.1141663,-0.047790527,-0.2984253,2.3916504,110.0
23478,0.57575274,2.6004028,-2.1141663,0.5883545,-0.62977296,2.4978516,110.0
23479,-0.8237362,1.2038937,0.46264648,0.5883545,-0.62977296,2.4978516,110.0
23480,-0.8237362,1.2038937,0.46264648,1.6641724,-0.10407715,2.0507448,110.0
23481,-1.7021286,0.2488823,1.7594147,1.6641724,-0.10407715,2.0507448,110.0
23482,-1.7021286,0.2488823,1.7594147,0.74871826,-0.18479005,1.6461182,110.0
23483,-0.79611456,0.94642067,0.17755127,0.74871826,-0.18479005,1.6461182,110.0
23484,-0.79611456,0.94642067,0.17755127,-0.7975708,-0.80181885,1.6747925,110.0
23485,0.6379008,0.37259102,-2.4764862,-0.7975708,-0.80181885,1.6747925,110.0
23486,0.6379008,0.37259102,-2.4764862,0.012744141,-0.25063476,1.4443359,110.0
23487,1.135101,-0.7275257,-2.240036,0.012744141,-0.25063476,1.4443359,110.0
23488,1.135101,-0.7275257,-2.240036,1.536731,0.06903076,1.6864747,110.0
23489,0.32828343,-0.72268295,0.4702301,1.536731,0.06903076,1.6864747,110.0
23490,0.32828343,-0.72268295,0.4702301,0.98129886,-0.28461915,1.7894897,110.0
23491,-0.50851583,-0.05700302,1.4561462,0.98129886,-0.28461915,1.7894897,110.0
23492,-0.50851583,-0.05700302,1.4561462,0.17841797,-0.62977296,1.5197388,110.0
23493,-0.107459635,0.41467667,0.017349243,0.17841797,-0.62977296,1.5197388,110.0
23494,-0.107459635,0.41467667,0.017349243,0.05522461,-0.3982544,1.4698242,110.0
23495,0.7148746,0.79278946,-0.9776764,0.05522461,-0.3982544,1.4698242,110.0
23496,0.7148746,0.79278946,-0.9776764,0.3695801,-0.10620117,1.6992188,110.0
23497,0.8626834,1.0750523,-0.18811035,0.3695801,-0.10620117,1.6992188,110.0
23498,0.8626834,1.0750523,-0.18811035,0.19541016,-0.2623169,1.7746216,110.0
23499,0.6301614,0.6499462,0.70729065,0.19541016,-0.2623169,1.7746216,110.0
23500,0.6301614,0.6499462,0.70729065,0.090270996,-0.51082766,1.5877075,110.0
23501,0.42086494,0.40270805,0.33961487,0.090270996,-0.51082766,1.5877075,110.0
23502,0.42086494,0.40270805,0.33961487,0.5766724,-0.3717041,1.6238159,110.0
23503,0.12270272,1.0163441,-0.48527527,0.5766724,-0.3717041,1.6238159,110.0
23504,0.12270272,1.0163441,-0.48527527,0.37595215,-0.3791382,1.9562256,110.0
23505,-0.06593692,1.235342,-0.69625854,0.37595215,-0.3791382,1.9562256,110.0
23506,-0.06593692,1.235342,-0.69625854,-0.43011475,-0.64570314,1.9466676,110.0
23507,0.3161347,0.7725506,-0.24661255,-0.43011475,-0.64570314,1.9466676,110.0
23508,0.3161347,0.7725506,-0.24661255,-0.4322388,-0.60216063,1.9413575,110.0
23509,1.3166773,0.14684868,0.14112854,-0.4322388,-0.60216063,1.9413575,110.0
23510,1.3166773,0.14684868,0.14112854,-0.9834229,-0.6138428,1.7905518,110.0
23511,2.2214694,-0.3979988,-0.1156311,-0.9834229,-0.6138428,1.7905518,110.0
23512,2.2214694,-0.3979988,-0.1156311,-0.45666504,-0.6775635,1.7342652,110.0
23513,2.350918,-0.5466099,-1.3048401,-0.45666504,-0.6775635,1.7342652,110.0
23514,2.350918,-0.5466099,-1.3048401,0.87615967,0.21452637,1.5303589,110.0
23515,1.7882662,0.23184013,-1.3062744,0.87615967,0.21452637,1.5303589,110.0
23516,1.7882662,0.23184013,-1.3062744,0.8952759,0.725354,1.5898316,110.0
23517,0.5025122,1.9202862,2.021881,0.8952759,0.725354,1.5898316,110.0
23518,0.5025122,1.9202862,2.021881,-1.0333375,0.059472658,1.8436524,110.0
23519,-1.321562,1.6570053,3.9826508,-1.0333375,0.059472658,1.8436524,110.0
23520,-1.321562,1.6570053,3.9826508,-1.5282348,-0.26975098,2.2684572,110.0
23521,-2.098119,-1.5516777,1.8186188,-1.5282348,-0.26975098,2.2684572,110.0
23522,-2.098119,-1.5516777,1.8186188,-1.3763672,-0.08814698,0.905896,110.0
23523,-0.42530918,-3.3252048,-0.68562317,-1.3763672,-0.08814698,0.905896,110.0
23524,-0.42530918,-3.3252048,-0.68562317,-0.51932377,0.34090576,0.72004396,110.0
23525,2.1277459,-2.0583096,-1.0074615,-0.51932377,0.34090576,0.72004396,110.0
23526,2.1277459,-2.0583096,-1.0074615,0.1359375,0.4619751,1.3678712,110.0
23527,2.7651362,-1.0591717,0.047348022,0.1359375,0.4619751,1.3678712,110.0
23528,2.7651362,-1.0591717,0.047348022,0.7434082,0.5341919,1.1501588,110.0
23529,1.5643916,-0.97057915,0.14422607,0.7434082,0.5341919,1.1501588,110.0
23530,1.5643916,-0.97057915,0.14422607,1.4145997,1.0545777,0.71367186,110.0
23531,0.35302687,0.2711563,-0.96217346,1.4145997,1.0545777,0.71367186,110.0
23532,0.35302687,0.2711563,-0.96217346,1.2414917,1.3434448,0.9505005,110.0
23533,-0.5984502,1.844305,-1.3414459,1.2414917,1.3434448,0.9505005,110.0
23534,-0.5984502,1.844305,-1.3414459,0.7072998,1.1671509,1.3954834,110.0
23535,-1.5984745,1.164299,-0.46237183,0.7072998,1.1671509,1.3954834,110.0
23536,-1.5984745,1.164299,-0.46237183,0.6595093,1.0004151,1.1108643,110.0
23537,-2.0087235,-0.2231636,0.64556885,0.6595093,1.0004151,1.1108643,110.0
23538,-2.0087235,-0.2231636,0.64556885,1.174585,1.1724609,0.8400513,110.0
23539,-1.7772303,0.49390602,1.0199127,1.174585,1.1724609,0.8400513,110.0
23540,-1.7772303,0.49390602,1.0199127,0.6775635,0.8952759,1.1459106,110.0
23541,-1.8103707,2.0892773,0.7788391,0.6775635,0.8952759,1.1459106,110.0
23542,-1.8103707,2.0892773,0.7788391,-0.10195313,0.5628662,1.1905152,110.0
23543,-2.287652,2.3392944,0.68818665,-0.10195313,0.5628662,1.1905152,110.0
23544,-2.287652,2.3392944,0.68818665,-0.77739257,0.2262085,1.0078491,110.0
23545,-2.4592354,1.2840214,0.48260498,-0.77739257,0.2262085,1.0078491,110.0
23546,-2.4592354,1.2840214,0.48260498,-1.3147706,-0.18266602,0.817749,110.0
23547,-1.6379206,-0.24590302,-0.47079468,-1.3147706,-0.18266602,0.817749,110.0
23548,-1.6379206,-0.24590302,-0.47079468,-1.3498169,-0.21558838,0.50870365,110.0
23549,-1.6379206,-0.24590302,-0.47079468,-1.3498169,-0.21558838,0.50870365,110.0
23550,-0.28998736,-1.3728447,-1.1674957,-1.3498169,-0.21558838,0.50870365,110.0
23551,-0.28998736,-1.3728447,-1.1674957,-0.9770508,-0.14761963,0.70092773,110.0
23552,0.44177723,-1.469553,-0.7364197,-0.9770508,-0.14761963,0.70092773,110.0
23553,0.44177723,-1.469553,-0.7364197,-0.6446411,-0.14549561,0.69349366,110.0
23554,0.4365517,-0.9186363,-0.13850403,-0.6446411,-0.14549561,0.69349366,110.0
23555,0.4365517,-0.9186363,-0.13850403,-0.7317261,-0.20709229,0.4980835,110.0
23556,0.22282535,-0.4911232,-0.0632782,-0.7317261,-0.20709229,0.4980835,110.0
23557,0.22282535,-0.4911232,-0.0632782,-0.59260255,-0.1274414,0.4322388,110.0
23558,-0.12540182,-0.44231224,-0.09663391,-0.59260255,-0.1274414,0.4322388,110.0
23559,-0.12540182,-0.44231224,-0.09663391,-0.23789063,-0.019116212,0.3536499,110.0
23560,-0.45543623,-0.6231003,0.13186646,-0.23789063,-0.019116212,0.3536499,110.0
23561,-0.45543623,-0.6231003,0.13186646,-0.18054199,-0.06796875,0.12531738,110.0
23562,-0.51939046,-0.74889565,0.41748047,-0.18054199,-0.06796875,0.12531738,110.0
23563,-0.51939046,-0.74889565,0.41748047,-0.0998291,-0.057348635,0.1083252,110.0
23564,-0.2689426,-0.8096142,0.23222351,-0.0998291,-0.057348635,0.1083252,110.0
23565,-0.2689426,-0.8096142,0.23222351,-0.014868164,-0.045666505,-0.08071289,110.0
23566,0.24324438,-0.93499565,-0.18603516,-0.014868164,-0.045666505,-0.08071289,110.0
23567,0.24324438,-0.93499565,-0.18603516,0.32497558,0.15505372,-0.07965088,110.0
23568,0.6317293,-0.72730446,-0.13117981,0.32497558,0.15505372,-0.07965088,110.0
23569,0.6317293,-0.72730446,-0.13117981,0.36745605,0.19222413,-0.06265869,110.0
23570,0.3240114,-0.14304924,0.25831604,0.36745605,0.19222413,-0.06265869,110.0
23571,0.3240114,-0.14304924,0.25831604,0.14549561,0.0722168,0.10407715,110.0
23572,-0.33093983,0.35468864,0.4714508,0.14549561,0.0722168,0.10407715,110.0
23573,-0.33093983,0.35468864,0.4714508,-0.18691407,-0.022302246,-0.14018555,110.0
23574,-0.489288,0.621727,0.4283905,-0.18691407,-0.022302246,-0.14018555,110.0
23575,-0.489288,0.621727,0.4283905,-0.5777344,-0.15505372,-0.08496094,110.0
23576,-0.1835935,0.3539009,0.31704712,-0.5777344,-0.15505372,-0.08496094,110.0
23577,-0.1835935,0.3539009,0.31704712,-0.8750977,-0.36427003,-0.15823975,110.0
23578,0.25982687,-0.6581402,0.19502258,-0.8750977,-0.36427003,-0.15823975,110.0
23579,0.25982687,-0.6581402,0.19502258,-0.8421753,-0.40037844,-0.34833986,110.0
23580,0.8002809,-1.2940292,-0.20968628,-0.8421753,-0.40037844,-0.34833986,110.0
23581,0.8002809,-1.2940292,-0.20968628,-0.56817627,-0.24957275,-0.3175415,110.0
23582,1.1740505,-0.94641685,-0.7332001,-0.56817627,-0.24957275,-0.3175415,110.0
23583,1.1740505,-0.94641685,-0.7332001,-0.35683593,-0.1985962,-0.24957275,110.0
23584,1.0428293,-0.4731369,-1.1058807,-0.35683593,-0.1985962,-0.24957275,110.0
23585,1.0428293,-0.4731369,-1.1058807,0.11044922,0.007434082,-0.11151123,110.0
23586,0.5057845,-0.5573063,-1.065445,0.11044922,0.007434082,-0.11151123,110.0
23587,0.5057845,-0.5573063,-1.065445,0.64570314,0.14974366,-0.24851075,110.0
23588,-0.03224981,-0.81876945,-0.43811035,0.64570314,0.14974366,-0.24851075,110.0
23589,-0.03224981,-0.81876945,-0.43811035,0.7072998,0.18903808,-0.22939454,110.0
23590,-0.14591706,-0.39219856,0.35191345,0.7072998,0.18903808,-0.22939454,110.0
23591,-0.14591706,-0.39219856,0.35191345,0.36320803,0.22833252,-0.3175415,110.0
23592,-0.0160501,0.3868389,0.94729614,0.36320803,0.22833252,-0.3175415,110.0
23593,-0.0160501,0.3868389,0.94729614,-0.5957886,-0.12850343,-0.050976563,110.0
23594,-0.077940226,0.42736626,0.7946472,-0.5957886,-0.12850343,-0.050976563,110.0
23595,-0.077940226,0.42736626,0.7946472,-0.811377,-0.09770508,-0.15505372,110.0
23596,-0.09665394,-0.022193909,0.24609375,-0.811377,-0.09770508,-0.15505372,110.0
23597,-0.09665394,-0.022193909,0.24609375,-1.3041505,-0.0998291,-0.07434082,110.0
23598,0.18576276,-0.29247475,0.113479614,-1.3041505,-0.0998291,-0.07434082,110.0
23599,0.18576276,-0.29247475,0.113479614,-1.7831177,-0.13699952,0.0063720704,110.0
23600,0.55730164,-0.8042679,-0.06466675,-1.7831177,-0.13699952,0.0063720704,110.0
23601,0.55730164,-0.8042679,-0.06466675,-1.7863038,-0.14230958,0.013806152,110.0
23602,0.7261026,-1.955512,-0.57473755,-1.7863038,-0.14230958,0.013806152,110.0
23603,0.7261026,-1.955512,-0.57473755,-0.1178833,0.10089111,0.022302246,110.0
23604,0.34437084,-2.5786066,-0.48461914,-0.1178833,0.10089111,0.022302246,110.0
23605,0.34437084,-2.5786066,-0.48461914,-0.090270996,0.21346436,0.098767094,110.0
23606,-0.30967176,-1.5141678,0.14567566,-0.090270996,0.21346436,0.098767094,110.0
23607,-0.30967176,-1.5141678,0.14567566,-0.34833986,-0.060534667,0.011682129,110.0
23608,-0.49093807,-0.44411087,0.10420227,-0.34833986,-0.060534667,0.011682129,110.0
23609,-0.49093807,-0.44411087,0.10420227,-0.632959,-0.22939454,-0.23045655,110.0
23610,0.020567417,-0.22669983,-0.6647186,-0.632959,-0.22939454,-0.23045655,110.0
23611,0.020567417,-0.22669983,-0.6647186,-0.5012695,-0.08920898,-0.09239502,110.0
23612,0.71251106,-0.48726845,-0.8947296,-0.5012695,-0.08920898,-0.09239502,110.0
23613,0.71251106,-0.48726845,-0.8947296,-0.09770508,-0.07752686,-0.1444336,110.0
23614,0.69549716,-0.9647293,-0.111953735,-0.09770508,-0.07752686,-0.1444336,110.0
23615,0.69549716,-0.9647293,-0.111953735,0.04991455,-0.046728518,0.09451904,110.0
23616,0.098109245,-0.93208694,0.7068329,0.04991455,-0.046728518,0.09451904,110.0
23617,0.098109245,-0.93208694,0.7068329,-0.18054199,-0.18266602,-0.07115479,110.0
23618,-0.24412012,-0.3536167,0.7595215,-0.18054199,-0.18266602,-0.07115479,110.0
23619,-0.24412012,-0.3536167,0.7595215,-0.4322388,-0.31010744,-0.12850343,110.0
23620,-0.0479939,0.16422653,0.069747925,-0.4322388,-0.31010744,-0.12850343,110.0
23621,-0.0479939,0.16422653,0.069747925,-0.5915405,-0.3536499,-0.083898924,110.0
23622,0.43676353,0.15542984,-0.7520447,-0.5915405,-0.3536499,-0.083898924,110.0
23623,0.43676353,0.15542984,-0.7520447,-0.5012695,-0.26125488,-0.14124756,110.0
23624,0.77552164,-0.40649033,-0.8951111,-0.5012695,-0.26125488,-0.14124756,110.0
23625,0.77552164,-0.40649033,-0.8951111,-0.12000733,-0.14868164,-0.032922365,110.0
23626,0.6542187,-0.9691124,-0.20298767,-0.12000733,-0.14868164,-0.032922365,110.0
23627,0.6542187,-0.9691124,-0.20298767,0.047790527,-0.098767094,0.021240234,110.0
23628,0.17476654,-0.98036766,0.61572266,0.047790527,-0.098767094,0.021240234,110.0
23629,0.17476654,-0.98036766,0.61572266,-0.08602295,-0.1731079,0.04141846,110.0
23630,-0.1846497,-0.46941376,0.824646,-0.08602295,-0.1731079,0.04141846,110.0
23631,-0.1846497,-0.46941376,0.824646,-0.34090576,-0.29099122,0.0021240234,110.0
23632,-0.18001962,0.06461811,0.3209839,-0.34090576,-0.29099122,0.0021240234,110.0
23633,-0.18001962,0.06461811,0.3209839,-0.45772704,-0.35577393,0.043542482,110.0
23634,0.052896023,0.13422585,-0.33795166,-0.45772704,-0.35577393,0.043542482,110.0
23635,0.052896023,0.13422585,-0.33795166,-0.48640138,-0.35789797,0.011682129,110.0
23636,0.3262279,-0.21545887,-0.5915985,-0.48640138,-0.35789797,0.011682129,110.0
23637,0.3262279,-0.21545887,-0.5915985,-0.43967286,-0.3090454,0.012744141,110.0
23638,0.49300146,-0.5365391,-0.45907593,-0.43967286,-0.3090454,0.012744141,110.0
23639,0.49300146,-0.5365391,-0.45907593,-0.41418457,-0.28568116,0.011682129,110.0
23640,0.5430951,-0.640584,-0.32643127,-0.41418457,-0.28568116,0.011682129,110.0
23641,0.5430951,-0.640584,-0.32643127,-0.31010744,-0.24957275,-0.03186035,110.0
23642,0.50679064,-0.62529755,-0.36320496,-0.31010744,-0.24957275,-0.03186035,110.0
23643,0.50679064,-0.62529755,-0.36320496,-0.16461182,-0.19116211,-0.019116212,110.0
23644,0.3357792,-0.5324402,-0.36143494,-0.16461182,-0.19116211,-0.019116212,110.0
23645,0.3357792,-0.5324402,-0.36143494,-0.023364259,-0.14974366,-0.027612304,110.0
23646,0.105805874,-0.4237919,-0.14718628,-0.023364259,-0.14974366,-0.027612304,110.0
23647,0.105805874,-0.4237919,-0.14718628,-0.013806152,-0.13806152,-0.059472658,110.0
23648,0.013160467,-0.31099415,0.10700989,-0.013806152,-0.13806152,-0.059472658,110.0
23649,0.013160467,-0.31099415,0.10700989,-0.03079834,-0.16142578,-0.098767094,110.0
23650,0.115777254,-0.07535744,0.039520264,-0.03079834,-0.16142578,-0.098767094,110.0
23651,0.115777254,-0.07535744,0.039520264,-0.047790527,-0.10089111,-0.09239502,110.0
23652,0.28720188,0.26835155,-0.26002502,-0.047790527,-0.10089111,-0.09239502,110.0
23653,0.28720188,0.26835155,-0.26002502,-0.019116212,-0.06478272,-0.039294433,110.0
23654,0.27719784,0.3291216,-0.3356781,-0.019116212,-0.06478272,-0.039294433,110.0
23655,0.27719784,0.3291216,-0.3356781,-0.019116212,-0.06478272,-0.039294433,109.0
23656,0.27719784,0.3291216,-0.3356781,0.029736329,-0.0361084,0.012744141,109.0
23657,0.06195593,-0.08058739,-0.08306885,0.029736329,-0.0361084,0.012744141,109.0
23658,0.06195593,-0.08058739,-0.08306885,0.057348635,-0.008496094,-0.02442627,109.0
23659,-0.008418798,-0.41313934,0.2414093,0.057348635,-0.008496094,-0.02442627,109.0
23660,-0.008418798,-0.41313934,0.2414093,0.0361084,-0.015930176,-0.090270996,109.0
23661,0.12431955,-0.32170963,0.35188293,0.0361084,-0.015930176,-0.090270996,109.0
23662,0.12431955,-0.32170963,0.35188293,-0.0053100586,-0.059472658,-0.05628662,109.0
23663,0.16812015,-0.0016784668,0.21562195,-0.0053100586,-0.059472658,-0.05628662,109.0
23664,0.16812015,-0.0016784668,0.21562195,-0.029736329,-0.07965088,-0.038232423,109.0
23665,-0.06508899,0.13198185,0.054763794,-0.029736329,-0.07965088,-0.038232423,109.0
23666,-0.06508899,0.13198185,0.054763794,0.015930176,-0.14230958,-0.03186035,109.0
23667,-0.44198823,-0.1341734,0.009719849,0.015930176,-0.14230958,-0.03186035,109.0
23668,-0.44198823,-0.1341734,0.009719849,0.057348635,-0.16992188,-0.045666505,109.0
23669,-0.45250416,-0.22121811,-0.044509888,0.057348635,-0.16992188,-0.045666505,109.0
23670,-0.45250416,-0.22121811,-0.044509888,0.118945315,-0.16673584,-0.10195313,109.0
23671,0.32015014,0.276371,-0.21409607,0.118945315,-0.16673584,-0.10195313,109.0
23672,0.32015014,0.276371,-0.21409607,-0.2166504,-0.21983643,-0.3069214,109.0
23673,1.1645308,0.6837797,-0.47355652,-0.2166504,-0.21983643,-0.3069214,109.0
23674,1.1645308,0.6837797,-0.47355652,-0.23364258,-0.21558838,0.04460449,109.0
23675,1.1149132,0.41335678,-0.545578,-0.23364258,-0.21558838,0.04460449,109.0
23676,1.1149132,0.41335678,-0.545578,-0.058410645,-0.08920898,-0.0010620117,109.0
23677,0.32309532,-0.15387249,-0.29756165,-0.058410645,-0.08920898,-0.0010620117,109.0
23678,0.32309532,-0.15387249,-0.29756165,-0.011682129,-0.047790527,0.052038576,109.0
23679,-0.57986593,-0.6750393,0.13896179,-0.011682129,-0.047790527,0.052038576,109.0
23680,-0.57986593,-0.6750393,0.13896179,0.043542482,-0.14337158,0.08602295,109.0
23681,-0.90052605,-0.9852829,0.5715332,0.043542482,-0.14337158,0.08602295,109.0
23682,-0.90052605,-0.9852829,0.5715332,0.078588866,-0.18372802,-0.12531738,109.0
23683,-0.28314066,-0.40114117,0.6675873,0.078588866,-0.18372802,-0.12531738,109.0
23684,-0.28314066,-0.40114117,0.6675873,-0.08071289,-0.270813,-0.093457036,109.0
23685,0.8527844,0.8357887,0.26820374,-0.08071289,-0.270813,-0.093457036,109.0
23686,0.8527844,0.8357887,0.26820374,-0.40356445,-0.3727661,-0.11044922,109.0
23687,1.527894,1.214407,-0.39186096,-0.40356445,-0.3727661,-0.11044922,109.0
23688,1.527894,1.214407,-0.39186096,-0.48746338,-0.3525879,0.07434082,109.0
23689,1.2649298,0.19197273,-0.7764435,-0.48746338,-0.3525879,0.07434082,109.0
23690,1.2649298,0.19197273,-0.7764435,-0.19328614,-0.22727051,-0.033984374,109.0
23691,0.5400934,-1.0414534,-0.3551941,-0.19328614,-0.22727051,-0.033984374,109.0
23692,0.5400934,-1.0414534,-0.3551941,0.30161133,-0.12000733,-0.09133301,109.0
23693,-0.11333561,-1.445651,0.6255188,0.30161133,-0.12000733,-0.09133301,109.0
23694,-0.11333561,-1.445651,0.6255188,0.6881836,-0.115759276,-0.13062744,109.0
23695,-0.41192102,-0.82142544,1.272644,0.6881836,-0.115759276,-0.13062744,109.0
23696,-0.41192102,-0.82142544,1.272644,0.53950197,-0.06265869,-0.078588866,109.0
23697,-0.301656,0.5236206,0.9024658,0.53950197,-0.06265869,-0.078588866,109.0
23698,-0.301656,0.5236206,0.9024658,-0.4067505,-0.30479738,0.035046387,109.0
23699,0.14889717,1.6157341,-0.2584381,-0.4067505,-0.30479738,0.035046387,109.0
23700,0.14889717,1.6157341,-0.2584381,-0.74871826,-0.4885254,0.05522461,109.0
23701,1.0841694,1.4651709,-1.0222015,-0.74871826,-0.4885254,0.05522461,109.0
23702,1.0841694,1.4651709,-1.0222015,-0.6265869,-0.36745605,-0.14655761,109.0
23703,1.7635756,-0.40313148,-0.8801727,-0.6265869,-0.36745605,-0.14655761,109.0
23704,1.7635756,-0.40313148,-0.8801727,-0.2347046,-0.42161867,0.13168946,109.0
23705,1.617672,-1.295186,-0.5081787,-0.2347046,-0.42161867,0.13168946,109.0
23706,1.617672,-1.295186,-0.5081787,0.20496826,-0.16354981,-0.0361084,109.0
23707,1.6968231,-1.1912518,0.6817169,0.20496826,-0.16354981,-0.0361084,109.0
23708,1.6968231,-1.1912518,0.6817169,0.8889038,0.10301514,-0.14761963,109.0
23709,1.4160643,-0.026731491,0.92578125,0.8889038,0.10301514,-0.14761963,109.0
23710,1.4160643,-0.026731491,0.92578125,0.58304447,-0.04460449,0.014868164,109.0
23711,0.37683344,0.4072647,0.94236755,0.58304447,-0.04460449,0.014868164,109.0
23712,0.37683344,0.4072647,0.94236755,1.179895,-0.15186767,-0.4609131,109.0
23713,-0.028745651,-0.2928772,0.40794373,1.179895,-0.15186767,-0.4609131,109.0
23714,-0.028745651,-0.2928772,0.40794373,1.9137452,-0.013806152,-0.6637573,109.0
23715,-0.68237114,-1.0179443,-1.7533875,1.9137452,-0.013806152,-0.6637573,109.0
23716,-0.68237114,-1.0179443,-1.7533875,3.0947022,0.8485474,-0.9324463,109.0
23717,-0.9951401,0.46842003,-1.7915192,3.0947022,0.8485474,-0.9324463,109.0
23718,-0.9951401,0.46842003,-1.7915192,2.8769898,0.64995116,-0.9154541,109.0
23719,-2.4641294,4.3219776,-0.67826843,2.8769898,0.64995116,-0.9154541,109.0
23720,-2.4641294,4.3219776,-0.67826843,1.7013428,0.29948732,-1.265918,109.0
23721,-1.3051901,5.304982,-0.084350586,1.7013428,0.29948732,-1.265918,109.0
23722,-1.3051901,5.304982,-0.084350586,1.2032593,0.45135498,-1.1076783,109.0
23723,0.63974667,4.8220253,-0.12528992,1.2032593,0.45135498,-1.1076783,109.0
23724,0.63974667,4.8220253,-0.12528992,0.9674927,0.5628662,-0.38869628,109.0
23725,0.86516666,3.789091,-0.042999268,0.9674927,0.5628662,-0.38869628,109.0
23726,0.86516666,3.789091,-0.042999268,1.0301514,0.6701294,-0.1359375,109.0
23727,-0.5841851,2.291624,0.2736206,1.0301514,0.6701294,-0.1359375,109.0
23728,-0.5841851,2.291624,0.2736206,0.88253176,0.82730716,-0.04885254,109.0
23729,-1.2014666,1.8550892,0.17578125,0.88253176,0.82730716,-0.04885254,109.0
23730,-1.2014666,1.8550892,0.17578125,0.79119873,0.8644776,0.035046387,109.0
23731,-1.8364174,1.5083637,-0.26565552,0.79119873,0.8644776,0.035046387,109.0
23732,-1.8364174,1.5083637,-0.26565552,0.91757816,1.081128,0.13062744,109.0
23733,-1.9742851,1.2475967,-0.692688,0.91757816,1.081128,0.13062744,109.0
23734,-1.9742851,1.2475967,-0.692688,1.0471436,1.3997315,0.2793091,109.0
23735,-2.14122,1.3942451,-1.0480957,1.0471436,1.3997315,0.2793091,109.0
23736,-2.14122,1.3942451,-1.0480957,0.6701294,1.6418701,0.38763428,109.0
23737,-2.4504273,2.0328522,-0.6960907,0.6701294,1.6418701,0.38763428,109.0
23738,-2.4504273,2.0328522,-0.6960907,0.0180542,1.4921265,0.77102053,109.0
23739,-2.7310085,1.7894897,0.40625,0.0180542,1.4921265,0.77102053,109.0
23740,-2.7310085,1.7894897,0.40625,-0.43967286,0.9324463,0.634021,109.0
23741,-2.5633101,-0.28446007,0.09364319,-0.43967286,0.9324463,0.634021,109.0
23742,-2.5633101,-0.28446007,0.09364319,-0.8527954,1.3200806,0.058410645,109.0
23743,-1.7654552,-1.3488579,-1.2229156,-0.8527954,1.3200806,0.058410645,109.0
23744,-1.7654552,-1.3488579,-1.2229156,-0.5161377,1.632312,0.7890747,109.0
23745,-1.0061021,-0.5267067,0.68156433,-0.5161377,1.632312,0.7890747,109.0
23746,-1.0061021,-0.5267067,0.68156433,1.1437867,1.5962037,0.85491943,109.0
23747,-0.62277716,-0.12706566,5.618973,1.1437867,1.5962037,0.85491943,109.0
23748,-0.62277716,-0.12706566,5.618973,0.9802368,1.0036011,0.08283692,109.0
23749,0.20956637,-0.07582283,7.2505646,0.9802368,1.0036011,0.08283692,109.0
23750,0.20956637,-0.07582283,7.2505646,-1.3986695,0.38338622,0.62977296,109.0
23751,1.3902972,-0.2716198,2.5917358,-1.3986695,0.38338622,0.62977296,109.0
23752,1.3902972,-0.2716198,2.5917358,-1.4815063,0.59260255,0.2824951,109.0
23753,1.2848085,-0.59280777,-3.8730774,-1.4815063,0.59260255,0.2824951,109.0
23754,1.2848085,-0.59280777,-3.8730774,1.1193603,1.4836304,0.635083,109.0
23755,-0.46608633,0.2139492,-6.7366943,1.1193603,1.4836304,0.635083,109.0
23756,-0.46608633,0.2139492,-6.7366943,2.3226197,1.9753418,0.45772704,109.0
23757,-2.8183525,2.6236382,-5.2930756,2.3226197,1.9753418,0.45772704,109.0
23758,-2.8183525,2.6236382,-5.2930756,2.4171388,2.1346436,0.89846194,109.0
23759,-4.213618,5.206089,-1.6488647,2.4171388,2.1346436,0.89846194,109.0
23760,-4.213618,5.206089,-1.6488647,2.8217652,2.1293335,0.8814697,109.0
23761,-4.5543537,5.653347,1.9077148,2.8217652,2.1293335,0.8814697,109.0
23762,-4.5543537,5.653347,1.9077148,2.272705,1.7289551,0.86341554,109.0
23763,-4.7420063,4.231941,3.5198364,2.272705,1.7289551,0.86341554,109.0
23764,-4.7420063,4.231941,3.5198364,1.9211792,1.173523,0.4364868,109.0
23765,-4.2654066,2.3963318,3.1406097,1.9211792,1.173523,0.4364868,109.0
23766,-4.2654066,2.3963318,3.1406097,1.5622193,0.6265869,0.032922365,109.0
23767,-3.1762657,0.7530899,1.754242,1.5622193,0.6265869,0.032922365,109.0
23768,-3.1762657,0.7530899,1.754242,0.9855469,0.107263185,-0.07327881,109.0
23769,-2.0724335,0.0391407,-0.06668091,0.9855469,0.107263185,-0.07327881,109.0
23770,-2.0724335,0.0391407,-0.06668091,0.07646485,-0.20603028,-0.087084964,109.0
23771,-0.22583008,0.7281494,-1.377655,0.07646485,-0.20603028,-0.087084964,109.0
23772,-0.22583008,0.7281494,-1.377655,0.07646485,-0.20603028,-0.087084964,108.0
23773,-0.22583008,0.7281494,-1.377655,-0.06584473,-0.16248779,-0.11363526,108.0
23774,1.4234371,0.88079834,-0.86828613,-0.06584473,-0.16248779,-0.11363526,108.0
23775,1.4234371,0.88079834,-0.86828613,-0.32178956,-0.24213867,0.20603028,108.0
23776,1.2465992,-0.736536,0.46029663,-0.32178956,-0.24213867,0.20603028,108.0
23777,1.2465992,-0.736536,0.46029663,-0.7391602,-0.41206056,0.053100586,108.0
23778,0.7106581,-1.8538055,0.68074036,-0.7391602,-0.41206056,0.053100586,108.0
23779,0.7106581,-1.8538055,0.68074036,-0.7763306,-0.452417,0.083898924,108.0
23780,0.7605796,-0.94753456,0.032196045,-0.7763306,-0.452417,0.083898924,108.0
23781,0.7605796,-0.94753456,0.032196045,-0.8857178,-0.4980835,0.22408448,108.0
23782,0.7950239,0.26704407,-0.16009521,-0.8857178,-0.4980835,0.22408448,108.0
23783,0.7950239,0.26704407,-0.16009521,-1.1937011,-0.7805786,0.15823975,108.0
23784,0.45697832,0.18115234,0.410141,-1.1937011,-0.7805786,0.15823975,108.0
23785,0.45697832,0.18115234,0.410141,-1.2043213,-1.080066,-0.06903076,108.0
23786,0.33031654,-0.5457382,0.7889252,-1.2043213,-1.080066,-0.06903076,108.0
23787,0.33031654,-0.5457382,0.7889252,-1.3052124,-1.2584839,-0.16461182,108.0
23788,1.139009,-0.55091095,0.22750854,-1.3052124,-1.2584839,-0.16461182,108.0
23789,1.139009,-0.55091095,0.22750854,-1.4730103,-1.2446778,-0.07115479,108.0
23790,1.9828382,-0.44376755,-0.699234,-1.4730103,-1.2446778,-0.07115479,108.0
23791,1.9828382,-0.44376755,-0.699234,-1.3880494,-1.0683838,0.05522461,108.0
23792,1.6899571,-0.8582382,-0.92658997,-1.3880494,-1.0683838,0.05522461,108.0
23793,1.6899571,-0.8582382,-0.92658997,-0.9685547,-0.814563,0.1444336,108.0
23794,0.79976845,-1.3843937,0.018814087,-0.9685547,-0.814563,0.1444336,108.0
23795,0.79976845,-1.3843937,0.018814087,-0.9505005,-0.8591675,0.032922365,108.0
23796,0.34207296,-1.8772049,1.4473267,-0.9505005,-0.8591675,0.032922365,108.0
23797,0.34207296,-1.8772049,1.4473267,-0.9876709,-1.0609497,-0.11469727,108.0
23798,0.5287974,-1.9227829,2.2873993,-0.9876709,-1.0609497,-0.11469727,108.0
23799,0.5287974,-1.9227829,2.2873993,-1.1044922,-1.4273437,-0.47684327,108.0
23800,0.99491286,-1.9058285,2.2538757,-1.1044922,-1.4273437,-0.47684327,108.0
23801,0.99491286,-1.9058285,2.2538757,-1.5165528,-1.7841797,-0.72004396,108.0
23802,1.2574294,-2.1755047,1.5258636,-1.5165528,-1.7841797,-0.72004396,108.0
23803,1.2574294,-2.1755047,1.5258636,-1.8882569,-2.0125122,-0.8326172,108.0
23804,1.190465,-2.0143166,0.5196991,-1.8882569,-2.0125122,-0.8326172,108.0
23805,1.190465,-2.0143166,0.5196991,-2.078357,-2.073047,-0.95368654,108.0
23806,1.3840127,-1.4337196,-0.95617676,-2.078357,-2.073047,-0.95368654,108.0
23807,1.3840127,-1.4337196,-0.95617676,-2.3948364,-1.9753418,-0.97280276,108.0
23808,2.0179646,-0.981472,-3.9535217,-2.3948364,-1.9753418,-0.97280276,108.0
23809,2.0179646,-0.981472,-3.9535217,-1.62594,-1.0524536,-0.50233155,108.0
23810,2.7829998,-0.45903015,-5.7087555,-1.62594,-1.0524536,-0.50233155,108.0
23811,2.7829998,-0.45903015,-5.7087555,-0.55755615,-0.2623169,-0.69986576,108.0
23812,3.3401449,-0.20126915,-3.454193,-0.55755615,-0.2623169,-0.69986576,108.0
23813,3.3401449,-0.20126915,-3.454193,0.2357666,0.20496826,-0.7412842,108.0
23814,3.0397062,-1.5280819,1.5192261,0.2357666,0.20496826,-0.7412842,108.0
23815,3.0397062,-1.5280819,1.5192261,-0.20284425,0.07115479,-0.30054933,108.0
23816,1.8844507,-3.6246014,4.7155457,-0.20284425,0.07115479,-0.30054933,108.0
23817,1.8844507,-3.6246014,4.7155457,-1.1490967,-0.36002198,-0.51826173,108.0
23818,0.790666,-3.8525372,2.704422,-1.1490967,-0.36002198,-0.51826173,108.0
23819,0.790666,-3.8525372,2.704422,-0.540564,0.083898924,-0.46622315,108.0
23820,0.3788097,-1.4325294,-1.1261292,-0.540564,0.083898924,-0.46622315,108.0
23821,0.3788097,-1.4325294,-1.1261292,0.1444336,0.31966552,-0.8028809,108.0
23822,0.55801606,0.8224945,-2.665619,0.1444336,0.31966552,-0.8028809,108.0
23823,0.55801606,0.8224945,-2.665619,-0.0361084,0.2177124,-0.9717407,108.0
23824,0.66782403,0.037231445,-1.3355255,-0.0361084,0.2177124,-0.9717407,108.0
23825,0.66782403,0.037231445,-1.3355255,0.12850343,0.26868898,-0.53950197,108.0
23826,-0.4076476,-2.974121,2.0175629,0.12850343,0.26868898,-0.53950197,108.0
23827,-0.4076476,-2.974121,2.0175629,0.078588866,0.13806152,-0.58410645,108.0
23828,-0.7930126,-2.557129,2.123352,0.078588866,0.13806152,-0.58410645,108.0
23829,-0.7930126,-2.557129,2.123352,-0.21027832,-0.011682129,-0.46409914,108.0
23830,-1.0829086,-1.0882816,1.5775452,-0.21027832,-0.011682129,-0.46409914,108.0
23831,-1.0829086,-1.0882816,1.5775452,-0.8219971,-0.37489015,-0.64995116,108.0
23832,-0.5417664,-0.016194344,0.8304596,-0.8219971,-0.37489015,-0.64995116,108.0
23833,-0.5417664,-0.016194344,0.8304596,-1.0492676,-0.6786255,-0.7943848,108.0
23834,0.15419674,-0.44921017,0.95202637,-1.0492676,-0.6786255,-0.7943848,108.0
23835,0.15419674,-0.44921017,0.95202637,-1.1246704,-0.9143921,-0.83474123,108.0
23836,0.6882378,-0.97853374,1.4347229,-1.1246704,-0.9143921,-0.83474123,108.0
23837,0.6882378,-0.97853374,1.4347229,-1.0375855,-1.1267945,-0.9430664,108.0
23838,1.1510909,-0.36528587,1.6127167,-1.0375855,-1.1267945,-0.9430664,108.0
23839,1.1510909,-0.36528587,1.6127167,-1.085376,-1.5101807,-0.8814697,108.0
23840,1.6170397,0.17814445,1.0098724,-1.085376,-1.5101807,-0.8814697,108.0
23841,1.6170397,0.17814445,1.0098724,-1.6620483,-1.9349854,-0.8687256,108.0
23842,2.1461341,-0.14939117,-0.8863983,-1.6620483,-1.9349854,-0.8687256,108.0
23843,2.1461341,-0.14939117,-0.8863983,-2.1558838,-1.9222412,-1.0906861,108.0
23844,2.8091316,-0.23273373,-3.5279236,-2.1558838,-1.9222412,-1.0906861,108.0
23845,2.8091316,-0.23273373,-3.5279236,-2.2142944,-1.6004517,-1.0067872,108.0
23846,3.1657867,-0.49145985,-5.232498,-2.2142944,-1.6004517,-1.0067872,108.0
23847,3.1657867,-0.49145985,-5.232498,-2.2344728,-1.4623902,-0.8644776,108.0
23848,2.4015627,-2.3664837,-5.46286,-2.2344728,-1.4623902,-0.8644776,108.0
23849,2.4015627,-2.3664837,-5.46286,-2.071985,-0.70305175,-1.2935303,108.0
23850,0.65367174,-4.296666,-4.969467,-2.071985,-0.70305175,-1.2935303,108.0
23851,0.65367174,-4.296666,-4.969467,-0.61278075,0.2357666,-1.4379638,108.0
23852,-0.6098995,-3.486906,-3.732605,-0.61278075,0.2357666,-1.4379638,108.0
23853,-0.6098995,-3.486906,-3.732605,1.0237793,1.0152832,-1.6567383,108.0
23854,-1.2715988,-0.46368217,-1.1702423,1.0237793,1.0152832,-1.6567383,108.0
23855,-1.2715988,-0.46368217,-1.1702423,0.9547486,0.9866089,-1.4719483,108.0
23856,-1.7389464,1.8610001,1.8102722,0.9547486,0.9866089,-1.4719483,108.0
23857,-1.7389464,1.8610001,1.8102722,-0.118945315,0.3419678,-1.3774292,108.0
23858,-0.8936477,1.9900446,3.330719,-0.118945315,0.3419678,-1.3774292,108.0
23859,-0.8936477,1.9900446,3.330719,-1.2977784,-0.16248779,-1.2956543,108.0
23860,1.2191396,0.31848812,2.6487732,-1.2977784,-0.16248779,-1.2956543,108.0
23861,1.2191396,0.31848812,2.6487732,-1.4358399,-0.13168946,-1.4273437,108.0
23862,2.8579779,-1.6419992,0.5643616,-1.4358399,-0.13168946,-1.4273437,108.0
23863,2.8579779,-1.6419992,0.5643616,-0.1178833,0.40356445,-1.8202881,108.0
23864,3.361248,-1.5721817,-1.0487823,-0.1178833,0.40356445,-1.8202881,108.0
23865,3.361248,-1.5721817,-1.0487823,1.2627319,1.2128174,-2.0220704,108.0
23866,2.9784393,0.44042397,-0.6301727,1.2627319,1.2128174,-2.0220704,108.0
23867,2.9784393,0.44042397,-0.6301727,1.2499878,1.2223755,-1.62594,108.0
23868,1.5801759,0.88507843,1.103714,1.2499878,1.2223755,-1.62594,108.0
23869,1.5801759,0.88507843,1.103714,0.2888672,0.8889038,-1.6864747,108.0
23870,-0.17628908,-0.8028259,2.1791382,0.2888672,0.8889038,-1.6864747,108.0
23871,-0.17628908,-0.8028259,2.1791382,0.61065674,1.083252,-2.0942872,108.0
23872,-0.8263588,-0.6574831,2.1053772,0.61065674,1.083252,-2.0942872,108.0
23873,-0.8263588,-0.6574831,2.1053772,0.904834,1.2829102,-2.253589,108.0
23874,-0.62469816,2.5616112,2.026474,0.904834,1.2829102,-2.253589,108.0
23875,-0.62469816,2.5616112,2.026474,0.7965088,1.1490967,-1.9753418,108.0
23876,-1.6350126,5.9072475,2.4690247,0.7965088,1.1490967,-1.9753418,108.0
23877,-1.6350126,5.9072475,2.4690247,0.7965088,1.1490967,-1.9753418,106.0
23878,-1.6350126,5.9072475,2.4690247,-0.4364868,0.64782715,-1.171399,106.0
23879,-3.5296412,7.119194,3.239563,-0.4364868,0.64782715,-1.171399,106.0
23880,-3.5296412,7.119194,3.239563,-3.3665771,-0.90058595,-0.59472656,106.0
23881,-3.767939,4.640545,2.5299072,-3.3665771,-0.90058595,-0.59472656,106.0
23882,-3.767939,4.640545,2.5299072,-7.1027346,-2.2886353,-0.83474123,106.0
23883,-1.5206499,-1.4901886,-0.78453064,-7.1027346,-2.2886353,-0.83474123,106.0
23884,-1.5206499,-1.4901886,-0.78453064,-7.7314453,-2.989563,-1.896753,106.0
23885,3.005929,-7.2180414,-3.6863556,-7.7314453,-2.989563,-1.896753,106.0
23886,3.005929,-7.2180414,-3.6863556,-6.7257204,-3.8136842,-1.8043579,106.0
23887,8.993501,-6.4560375,-4.523468,-6.7257204,-3.8136842,-1.8043579,106.0
23888,8.993501,-6.4560375,-4.523468,-6.8329835,-2.5498903,-0.9611206,106.0
23889,13.248536,-0.40727425,-6.685852,-6.8329835,-2.5498903,-0.9611206,106.0
23890,13.248536,-0.40727425,-6.685852,-8.344226,-3.4302979,-0.6956177,106.0
23891,12.418751,2.4264145,-10.4322815,-8.344226,-3.4302979,-0.6956177,106.0
23892,12.418751,2.4264145,-10.4322815,-9.051526,-2.069861,-0.26019287,106.0
