,accx,accy,accz,gyrox,gyroy,gyroz,heart rate
14814,run,run,run,run,run,run,run
14815,-0.019246817,-0.089782715,0.022640228,-0.1529297,-0.0031860352,0.0031860352,68.0
14816,-0.016215324,-0.070259094,0.018112183,-0.1529297,-0.0031860352,0.0031860352,68.0
14817,-0.013790131,-0.054649353,0.0153923035,-0.1529297,-0.0031860352,0.0031860352,68.0
14818,-0.013790131,-0.054649353,0.0153923035,-0.03717041,-0.007434082,0.02442627,68.0
14819,-0.013253689,-0.047554016,0.010215759,-0.03717041,-0.007434082,0.02442627,68.0
14820,-0.013253689,-0.047554016,0.010215759,-0.020178223,0.0053100586,0.023364259,68.0
14821,-0.40033674,0.13678741,0.15304565,-0.020178223,0.0053100586,0.023364259,68.0
14822,-0.40033674,0.13678741,0.15304565,-0.007434082,0.0053100586,0.004248047,68.0
14823,-0.37142897,0.14767456,0.038158417,-0.007434082,0.0053100586,0.004248047,68.0
14824,-0.37142897,0.14767456,0.038158417,-0.020178223,0.010620117,-0.004248047,68.0
14825,-0.3025751,0.1632309,0.037742615,-0.020178223,0.010620117,-0.004248047,68.0
14826,-0.3025751,0.1632309,0.037742615,-0.03186035,0.03186035,0.009558106,68.0
14827,-0.21659613,0.09083557,0.04484558,-0.03186035,0.03186035,0.009558106,68.0
14828,-0.21659613,0.09083557,0.04484558,-0.043542482,0.023364259,0.03186035,68.0
14829,-0.1727643,0.03353119,0.025779724,-0.043542482,0.023364259,0.03186035,68.0
14830,-0.1727643,0.03353119,0.025779724,-0.015930176,0.012744141,0.008496094,68.0
14831,-0.19979596,0.0065612793,0.01626587,-0.015930176,0.012744141,0.008496094,68.0
14832,-0.19979596,0.0065612793,0.01626587,-0.010620117,0.011682129,0.0063720704,68.0
14833,-0.21313262,0.016685486,0.013076782,-0.010620117,0.011682129,0.0063720704,68.0
14834,-0.21313262,0.016685486,0.013076782,-0.029736329,-0.004248047,0.020178223,68.0
14835,-0.19179511,0.00818634,-0.0017318726,-0.029736329,-0.004248047,0.020178223,68.0
14836,-0.19179511,0.00818634,-0.0017318726,-0.045666505,-0.020178223,-0.004248047,68.0
14837,-0.19179511,0.00818634,-0.0017318726,-0.025488282,-0.016992187,-0.009558106,68.0
14838,-0.1683898,-0.028495789,-0.011554718,-0.025488282,-0.016992187,-0.009558106,68.0
14839,-0.12494612,-0.048614502,0.00825119,-0.025488282,-0.016992187,-0.009558106,68.0
14840,-0.12494612,-0.048614502,0.00825119,-0.007434082,-0.013806152,-0.021240234,68.0
14841,-0.055377007,-0.038864136,0.00655365,-0.007434082,-0.013806152,-0.021240234,68.0
14842,-0.055377007,-0.038864136,0.00655365,-0.019116212,-0.004248047,-0.033984374,68.0
14843,-0.019912004,-0.050186157,-0.013912201,-0.019116212,-0.004248047,-0.033984374,68.0
14844,-0.019912004,-0.050186157,-0.013912201,-0.06584473,0.010620117,-0.04991455,68.0
14845,-0.032982826,-0.12988281,-0.018127441,-0.06584473,0.010620117,-0.04991455,68.0
14846,-0.032982826,-0.12988281,-0.018127441,0.11363526,-0.059472658,0.2442627,68.0
14847,0.05955124,-0.16578674,-0.043136597,0.11363526,-0.059472658,0.2442627,68.0
14848,0.05955124,-0.16578674,-0.043136597,0.053100586,0.0010620117,0.025488282,68.0
14849,0.003720045,-0.10507965,-0.13842773,0.053100586,0.0010620117,0.025488282,68.0
14850,0.003720045,-0.10507965,-0.13842773,-0.0180542,0.025488282,0.07646485,68.0
14851,-0.10285902,-0.03744507,-0.10040283,-0.0180542,0.025488282,0.07646485,68.0
14852,-0.10285902,-0.03744507,-0.10040283,-0.12319336,0.05522461,0.06903076,68.0
14853,-2.3174286E-4,-0.021057129,0.22063065,-0.12319336,0.05522461,0.06903076,68.0
14854,-2.3174286E-4,-0.021057129,0.22063065,-0.15080567,0.10301514,0.16779785,68.0
14855,0.06354761,-0.07341766,0.48618698,-0.15080567,0.10301514,0.16779785,68.0
14856,0.06354761,-0.07341766,0.48618698,-0.07752686,0.1709839,0.115759276,68.0
14857,0.0062093735,-0.09729767,0.45550156,-0.07752686,0.1709839,0.115759276,68.0
14858,0.0062093735,-0.09729767,0.45550156,-0.0180542,0.18691407,0.13275146,68.0
14859,-0.12758851,-0.029754639,0.3293152,-0.0180542,0.18691407,0.13275146,68.0
14860,-0.12758851,-0.029754639,0.3293152,-0.03186035,0.2177124,0.14230958,68.0
14861,-0.23430967,0.059005737,0.27809906,-0.03186035,0.2177124,0.14230958,68.0
14862,-0.23430967,0.059005737,0.27809906,-0.052038576,0.2347046,0.14549561,68.0
14863,-0.3005948,0.08003998,0.17328644,-0.052038576,0.2347046,0.14549561,68.0
14864,-0.3005948,0.08003998,0.17328644,-0.04141846,0.24638672,0.18372802,68.0
14865,-0.3306613,-0.0017547607,-0.044418335,-0.04141846,0.24638672,0.18372802,68.0
14866,-0.3306613,-0.0017547607,-0.044418335,-0.029736329,0.2442627,0.21240234,68.0
14867,-0.34253216,-0.13319397,-0.18663406,-0.029736329,0.2442627,0.21240234,68.0
14868,-0.34253216,-0.13319397,-0.18663406,-0.06159668,0.26444092,0.2548828,68.0
14869,-0.34808588,-0.22255707,-0.19941711,-0.06159668,0.26444092,0.2548828,68.0
14870,-0.34808588,-0.22255707,-0.19941711,-0.04460449,0.2984253,0.270813,68.0
14871,-0.3401265,-0.29730988,-0.17553711,-0.04460449,0.2984253,0.270813,68.0
14872,-0.3401265,-0.29730988,-0.17553711,-0.098767094,0.3334717,0.36002198,68.0
14873,-0.32487202,-0.3944397,-0.13996506,-0.098767094,0.3334717,0.36002198,68.0
14874,-0.32487202,-0.3944397,-0.13996506,-0.16461182,0.35895997,0.4970215,68.0
14875,-0.3835914,-0.49552155,-0.11013031,-0.16461182,0.35895997,0.4970215,68.0
14876,-0.3835914,-0.49552155,-0.11013031,-0.22939454,0.41099855,0.6531372,68.0
14877,-0.5439825,-0.6368103,-0.035259247,-0.22939454,0.41099855,0.6531372,68.0
14878,-0.5439825,-0.6368103,-0.035259247,-0.26550293,0.53737795,0.7965088,68.0
14879,-0.68315935,-0.8164673,0.14985657,-0.26550293,0.53737795,0.7965088,68.0
14880,-0.68315935,-0.8164673,0.14985657,-0.39188233,0.6467652,1.1586548,68.0
14881,-0.839777,-1.1162033,0.20977783,-0.39188233,0.6467652,1.1586548,68.0
14882,-0.839777,-1.1162033,0.20977783,-0.38869628,0.6977417,1.260608,68.0
14883,-1.103365,-1.2509613,-0.004688263,-0.38869628,0.6977417,1.260608,68.0
14884,-1.103365,-1.2509613,-0.004688263,-0.16673584,0.6467652,1.176709,68.0
14885,-1.3462296,-1.0338974,-0.13748932,-0.16673584,0.6467652,1.176709,68.0
14886,-1.3462296,-1.0338974,-0.13748932,-0.3175415,0.7062378,1.6843506,68.0
14887,-1.6178164,-0.7073822,-0.15350723,-0.3175415,0.7062378,1.6843506,68.0
14888,-1.6178164,-0.7073822,-0.15350723,-0.1996582,0.53525394,1.7077149,68.0
14889,-1.6178164,-0.7073822,-0.15350723,-0.2516968,0.31010744,1.6609863,68.0
14890,-1.9155178,-0.6552353,-0.3179474,-0.2516968,0.31010744,1.6609863,68.0
14891,-2.1407638,-1.16008,-0.80101395,-0.2516968,0.31010744,1.6609863,68.0
14892,-2.1407638,-1.16008,-0.80101395,-0.4609131,0.09664307,1.5749635,68.0
14893,-2.2239394,-1.7656403,-1.6270065,-0.4609131,0.09664307,1.5749635,68.0
14894,-2.2239394,-1.7656403,-1.6270065,-0.5033936,-0.24744873,1.5558472,68.0
14895,-1.8804336,-1.9662476,-2.4301453,-0.5033936,-0.24744873,1.5558472,68.0
14896,-1.8804336,-1.9662476,-2.4301453,-0.70092773,-0.68712157,1.7278931,68.0
14897,-1.2014294,-1.5402603,-2.6721954,-0.70092773,-0.68712157,1.7278931,68.0
14898,-1.2014294,-1.5402603,-2.6721954,-0.7890747,-0.89421386,2.1346436,68.0
14899,-0.47997856,-0.54047394,-2.135048,-0.7890747,-0.89421386,2.1346436,68.0
14900,-0.47997856,-0.54047394,-2.135048,-0.44816896,-1.2531738,2.3905885,68.0
14901,0.14380026,0.31238556,-1.0213089,-0.44816896,-1.2531738,2.3905885,68.0
14902,0.14380026,0.31238556,-1.0213089,-0.62552494,-1.1937011,1.6811646,68.0
14903,0.525856,0.47158813,0.13894653,-0.62552494,-1.1937011,1.6811646,68.0
14904,0.525856,0.47158813,0.13894653,-0.5671143,-1.4517701,1.9859619,68.0
14905,0.7000551,0.5257187,0.7934952,-0.5671143,-1.4517701,1.9859619,68.0
14906,0.7000551,0.5257187,0.7934952,-0.54906005,-1.6100098,1.9243653,68.0
14907,0.68654585,0.64656067,0.95450974,-0.54906005,-1.6100098,1.9243653,68.0
14908,0.68654585,0.64656067,0.95450974,-0.6573853,-1.6503662,1.5845215,68.0
14909,0.53543043,0.6631088,1.019783,-0.6573853,-1.6503662,1.5845215,68.0
14910,0.53543043,0.6631088,1.019783,-0.4619751,-1.8309082,1.5664673,68.0
14911,0.6982541,0.45124054,1.0806122,-0.4619751,-1.8309082,1.5664673,68.0
14912,1.116086,0.14376831,1.1124,-0.4619751,-1.8309082,1.5664673,68.0
14913,1.116086,0.14376831,1.1124,-0.38232422,-1.989148,1.4645141,68.0
14914,1.116086,0.14376831,1.1124,-0.39188233,-2.1293335,1.363623,68.0
14915,1.4794044,0.21744537,0.97151184,-0.39188233,-2.1293335,1.363623,68.0
14916,1.4794044,0.21744537,0.97151184,-0.33240968,-2.167566,1.173523,68.0
14917,1.7856841,0.58517456,0.469532,-0.33240968,-2.167566,1.173523,68.0
14918,1.7856841,0.58517456,0.469532,-0.1529297,-1.9700317,0.9589966,68.0
14919,2.1039505,0.73017883,-0.06694031,-0.1529297,-1.9700317,0.9589966,68.0
14920,2.1039505,0.73017883,-0.06694031,0.16673584,-1.9594116,0.814563,68.0
14921,2.4084902,0.4079666,-0.17144775,0.16673584,-1.9594116,0.814563,68.0
14922,2.4084902,0.4079666,-0.17144775,0.3164795,-2.0082643,0.6595093,68.0
14923,2.5409036,0.009735107,-0.12776184,0.3164795,-2.0082643,0.6595093,68.0
14924,2.5409036,0.009735107,-0.12776184,0.19328614,-2.0295045,0.4609131,68.0
14925,2.4723468,-0.0565567,-0.3122177,0.19328614,-2.0295045,0.4609131,68.0
14926,2.4723468,-0.0565567,-0.3122177,0.083898924,-2.0072021,0.2814331,68.0
14927,2.3319547,0.13832092,-0.48485565,0.083898924,-2.0072021,0.2814331,68.0
14928,2.3319547,0.13832092,-0.48485565,-0.09451904,-2.071985,0.098767094,68.0
14929,2.3516233,0.33016205,-0.32199097,-0.09451904,-2.071985,0.098767094,68.0
14930,2.3516233,0.33016205,-0.32199097,-0.43967286,-1.9817139,-0.1539917,68.0
14931,2.6407223,0.1865387,-0.028148651,-0.43967286,-1.9817139,-0.1539917,68.0
14932,2.6407223,0.1865387,-0.028148651,-0.6956177,-2.0358765,-0.5363159,68.0
14933,2.990654,-0.2212143,0.05706024,-0.6956177,-2.0358765,-0.5363159,68.0
14934,2.990654,-0.2212143,0.05706024,-1.0705079,-1.9434814,-1.002539,68.0
14935,3.2881653,-0.5237732,-0.105293274,-1.0705079,-1.9434814,-1.002539,68.0
14936,3.2881653,-0.5237732,-0.105293274,-1.4857544,-1.8648926,-1.4018555,68.0
14937,3.4584131,-0.6154556,-0.2914505,-1.4857544,-1.8648926,-1.4018555,68.0
14938,3.4584131,-0.6154556,-0.2914505,-1.8372803,-1.7342652,-1.5823975,68.0
14939,3.3619456,-0.88475037,-0.40993118,-1.8372803,-1.7342652,-1.5823975,68.0
14940,3.3619456,-0.88475037,-0.40993118,-1.9827759,-1.8351563,-2.0008302,68.0
14941,3.27326,-1.4796524,-0.45895004,-1.9827759,-1.8351563,-2.0008302,68.0
14942,3.27326,-1.4796524,-0.45895004,-2.3236816,-1.4570801,-1.9402955,68.0
14943,3.2954514,-1.9823227,-0.5711899,-2.3236816,-1.4570801,-1.9402955,68.0
14944,3.2954514,-1.9823227,-0.5711899,-2.4596193,-0.87615967,-2.2079225,68.0
14945,2.8382168,-2.405243,-1.0558281,-2.4596193,-0.87615967,-2.2079225,68.0
14946,2.8382168,-2.405243,-1.0558281,-2.083667,-0.814563,-2.2344728,68.0
14947,1.8192797,-2.7317123,-1.8621674,-2.083667,-0.814563,-2.2344728,68.0
14948,1.8192797,-2.7317123,-1.8621674,-1.808606,-0.814563,-2.0656128,68.0
14949,0.76554346,-2.5512848,-2.532093,-1.808606,-0.814563,-2.0656128,68.0
14950,0.76554346,-2.5512848,-2.532093,-1.8840088,-0.92926025,-2.0422485,68.0
14951,0.34284258,-1.9193726,-2.75634,-1.8840088,-0.92926025,-2.0422485,68.0
14952,0.34284258,-1.9193726,-2.75634,-2.1261475,-0.80394286,-1.814978,68.0
14953,0.60116625,-1.4587173,-2.2638016,-2.1261475,-0.80394286,-1.814978,68.0
14954,0.60116625,-1.4587173,-2.2638016,-1.5908936,-0.7943848,-1.6737305,68.0
14955,0.7812748,-1.4583054,-1.44133,-1.5908936,-0.7943848,-1.6737305,68.0
14956,0.7812748,-1.4583054,-1.44133,-0.94625247,-0.7625244,-1.6100098,68.0
14957,0.58146524,-1.0974045,-1.2511597,-0.94625247,-0.7625244,-1.6100098,68.0
14958,0.58146524,-1.0974045,-1.2511597,-0.15186767,-0.5915405,-1.1841431,68.0
14959,0.20743275,-0.14451599,-1.5796356,-0.15186767,-0.5915405,-1.1841431,68.0
14960,0.20743275,-0.14451599,-1.5796356,0.25594482,-0.50445557,-0.85385746,68.0
14961,-0.11676884,0.4933319,-1.8083115,0.25594482,-0.50445557,-0.85385746,68.0
14962,-0.11676884,0.4933319,-1.8083115,0.2793091,-0.40462646,-0.38657227,68.0
14963,-0.30899143,0.47950745,-1.7597122,0.2793091,-0.40462646,-0.38657227,68.0
14964,-0.30899143,0.47950745,-1.7597122,0.06265869,-0.2984253,-0.1731079,68.0
14965,-0.32379246,0.33815765,-1.5396538,0.06265869,-0.2984253,-0.1731079,68.0
14966,-0.32379246,0.33815765,-1.5396538,0.39400634,-0.21558838,0.058410645,68.0
14967,0.014635563,0.32196808,-1.2523193,0.39400634,-0.21558838,0.058410645,68.0
14968,0.014635563,0.32196808,-1.2523193,0.6053467,-0.022302246,0.1274414,68.0
14969,0.65696,0.3645172,-0.899353,0.6053467,-0.022302246,0.1274414,68.0
14970,0.65696,0.3645172,-0.899353,0.75296634,0.20496826,0.24638672,68.0
14971,0.989728,0.46286774,-0.44405746,0.75296634,0.20496826,0.24638672,68.0
14972,0.989728,0.46286774,-0.44405746,0.8772217,0.30479738,0.4163086,68.0
14973,0.8576026,0.34947968,-0.033748627,0.8772217,0.30479738,0.4163086,68.0
14974,0.8576026,0.34947968,-0.033748627,0.8379273,0.37807617,0.60959476,68.0
14975,0.6355939,0.06655884,0.21832657,0.8379273,0.37807617,0.60959476,68.0
14976,0.6355939,0.06655884,0.21832657,0.7582764,0.4364868,0.7848267,68.0
14977,0.3879304,-0.15563965,0.4385147,0.7582764,0.4364868,0.7848267,68.0
14978,0.3879304,-0.15563965,0.4385147,0.62552494,0.5214478,0.9802368,68.0
14979,-0.068915844,-0.39974213,0.76475143,0.62552494,0.5214478,0.9802368,68.0
14980,-0.068915844,-0.39974213,0.76475143,0.6425171,0.61065674,1.176709,68.0
14981,-0.7015438,-0.76802063,1.1443329,0.6425171,0.61065674,1.176709,68.0
14982,-0.7015438,-0.76802063,1.1443329,0.8092529,0.65419924,1.3710572,68.0
14983,-1.2986622,-1.1740952,1.3534775,0.8092529,0.65419924,1.3710572,68.0
14984,-1.2986622,-1.1740952,1.3534775,1.0014771,0.6637573,1.5877075,68.0
14985,-1.7702651,-1.379036,1.2463074,1.0014771,0.6637573,1.5877075,68.0
14986,-1.7702651,-1.379036,1.2463074,1.085376,0.7519043,1.7512573,68.0
14987,-2.089857,-1.2684479,1.164051,1.085376,0.7519043,1.7512573,68.0
14988,-2.089857,-1.2684479,1.164051,0.86978763,0.9611206,1.8638306,68.0
14989,-2.1383042,-0.9530792,1.4688721,0.86978763,0.9611206,1.8638306,68.0
14990,-2.1383042,-0.9530792,1.4688721,0.5915405,1.3190186,2.0337524,68.0
14991,-2.1405873,-0.62597656,1.7376823,0.5915405,1.3190186,2.0337524,68.0
14992,-2.1405873,-0.62597656,1.7376823,0.44816896,1.6578003,2.3619142,68.0
14993,-2.4523504,-0.5524063,1.4199905,0.44816896,1.6578003,2.3619142,68.0
14994,-2.4523504,-0.5524063,1.4199905,0.49064943,1.9827759,2.806897,68.0
14995,-2.785965,-0.89016724,0.8186493,0.49064943,1.9827759,2.806897,68.0
14996,-2.785965,-0.89016724,0.8186493,0.7858887,2.2408447,3.1138184,68.0
14997,-2.3736572,-1.5802841,0.7605972,0.7858887,2.2408447,3.1138184,68.0
14998,-2.3736572,-1.5802841,0.7605972,1.3073364,2.6072388,3.4749024,68.0
14999,-0.72139895,-2.5320282,1.689106,1.3073364,2.6072388,3.4749024,68.0
15000,-0.72139895,-2.5320282,1.689106,1.8723267,2.896106,3.710669,68.0
15001,1.7981861,-3.2525253,3.0715332,1.8723267,2.896106,3.710669,68.0
15002,1.7981861,-3.2525253,3.0715332,1.9679078,3.1456788,3.880591,68.0
15003,4.014843,-3.1758804,3.8524323,1.9679078,3.1456788,3.880591,68.0
15004,4.014843,-3.1758804,3.8524323,1.6238159,3.1414306,3.9485595,68.0
15005,4.858676,-2.5580978,3.6728287,1.6238159,3.1414306,3.9485595,68.0
15006,4.858676,-2.5580978,3.6728287,1.2064453,2.8833618,3.7796998,68.0
15007,4.14186,-1.5956268,2.812786,1.2064453,2.8833618,3.7796998,68.0
15008,4.14186,-1.5956268,2.812786,0.9717407,2.5488281,3.437732,68.0
15009,2.145568,-0.07501221,1.3969193,0.9717407,2.5488281,3.437732,68.0
15010,2.145568,-0.07501221,1.3969193,0.6149048,1.9275513,2.984253,68.0
15011,-0.87738085,1.8918381,-0.54896927,0.6149048,1.9275513,2.984253,68.0
15012,-0.87738085,1.8918381,-0.54896927,0.14655761,1.1246704,2.5509522,68.0
15013,-4.1344123,3.7027054,-2.572731,0.14655761,1.1246704,2.5509522,68.0
15014,-4.1344123,3.7027054,-2.572731,-0.22727051,0.25700685,2.0008302,68.0
15015,-6.4472885,4.870804,-3.9931717,-0.22727051,0.25700685,2.0008302,68.0
15016,-6.4472885,4.870804,-3.9931717,-0.22727051,0.25700685,2.0008302,0.0
15017,-6.4472885,4.870804,-3.9931717,-0.30479738,-0.50020754,1.3912354,0.0
15018,-7.164777,5.343689,-4.540718,-0.30479738,-0.50020754,1.3912354,0.0
15019,-7.164777,5.343689,-4.540718,-0.24957275,-1.1161743,0.7848267,0.0
15020,-6.637412,5.5147095,-4.5765076,-0.24957275,-1.1161743,0.7848267,0.0
15021,-6.637412,5.5147095,-4.5765076,-0.56180423,-1.5749635,0.0722168,0.0
15022,-5.595245,6.0534897,-4.894642,-0.56180423,-1.5749635,0.0722168,0.0
15023,-5.595245,6.0534897,-4.894642,-0.7104859,-1.8786987,-0.5649902,0.0
15024,-4.572998,6.8748016,-5.780983,-0.7104859,-1.8786987,-0.5649902,0.0
15025,-4.572998,6.8748016,-5.780983,-0.721106,-2.1431396,-0.99510497,0.0
15026,-3.7307863,7.0323334,-6.361763,-0.721106,-2.1431396,-0.99510497,0.0
15027,-3.7307863,7.0323334,-6.361763,-0.9494385,-2.4574952,-1.3965454,0.0
15028,-2.8277807,6.1034927,-5.740963,-0.9494385,-2.4574952,-1.3965454,0.0
15029,-2.8277807,6.1034927,-5.740963,-1.1544068,-2.5562623,-1.9211792,0.0
15030,-1.4308648,4.57283,-3.9307327,-1.1544068,-2.5562623,-1.9211792,0.0
15031,-1.4308648,4.57283,-3.9307327,-1.1724609,-2.5626342,-2.4702394,0.0
15032,0.60457563,2.9185333,-1.573185,-1.1724609,-2.5626342,-2.4702394,0.0
15033,0.60457563,2.9185333,-1.573185,-1.4007934,-2.6327271,-3.1095703,0.0
15034,2.9213438,1.4346695,0.22563171,-1.4007934,-2.6327271,-3.1095703,0.0
15035,2.9213438,1.4346695,0.22563171,-1.5239868,-2.6953857,-3.6936767,0.0
15036,5.3496118,0.036262512,0.699852,-1.5239868,-2.6953857,-3.6936767,0.0
15037,5.3496118,0.036262512,0.699852,-1.0567017,-2.3842163,-3.615088,0.0
15038,8.138967,-2.4009323,1.3444023,-1.0567017,-2.3842163,-3.615088,0.0
15039,8.138967,-2.4009323,1.3444023,-0.5564942,-2.2408447,-3.3092287,0.0
15040,11.713139,-7.3544846,5.1605186,-0.5564942,-2.2408447,-3.3092287,0.0
15041,11.713139,-7.3544846,5.1605186,-1.2170655,-1.8022339,-3.6639404,0.0
15042,14.356169,-12.607262,10.274738,-1.2170655,-1.8022339,-3.6639404,0.0
15043,14.356169,-12.607262,10.274738,-1.5123047,-0.9781128,-3.1934693,0.0
15044,13.021299,-13.965683,11.768791,-1.5123047,-0.9781128,-3.1934693,0.0
15045,13.021299,-13.965683,11.768791,-1.6195679,-0.2538208,-2.8483155,0.0
15046,7.731188,-11.967308,9.157169,-1.6195679,-0.2538208,-2.8483155,0.0
15047,7.731188,-11.967308,9.157169,-1.6801026,0.10195313,-2.2928834,0.0
15048,1.295558,-8.941078,5.3625145,-1.6801026,0.10195313,-2.2928834,0.0
15049,1.295558,-8.941078,5.3625145,-1.4740723,0.29523927,-1.8617066,0.0
15050,-3.7499065,-5.7819977,2.7191238,-1.4740723,0.29523927,-1.8617066,0.0
15051,-3.7499065,-5.7819977,2.7191238,-1.1968873,0.41206056,-1.4315919,0.0
15052,-6.9972515,-2.9018326,1.3024445,-1.1968873,0.41206056,-1.4315919,0.0
15053,-6.9972515,-2.9018326,1.3024445,-0.991919,0.3451538,-0.991919,0.0
15054,-9.1146345,-0.55394745,-0.3307953,-0.991919,0.3451538,-0.991919,0.0
15055,-9.1146345,-0.55394745,-0.3307953,-1.0131592,0.48321533,-0.634021,0.0
15056,-10.537838,1.324707,-2.6441536,-1.0131592,0.48321533,-0.634021,0.0
15057,-10.537838,1.324707,-2.6441536,-1.1119263,0.9876709,-0.14124756,0.0
15058,-11.3888035,2.9292984,-4.48925,-1.1119263,0.9876709,-0.14124756,0.0
15059,-11.3888035,2.9292984,-4.48925,-1.2627319,1.3721192,0.42268068,0.0
15060,-11.741694,3.929512,-5.2247124,-1.2627319,1.3721192,0.42268068,0.0
15061,-11.741694,3.929512,-5.2247124,-1.0726318,1.4772583,1.2712281,0.0
15062,-11.566806,3.8894348,-5.3134346,-1.0726318,1.4772583,1.2712281,0.0
15063,-11.566806,3.8894348,-5.3134346,-0.29311523,1.26167,1.9817139,0.0
15064,-9.976235,2.8822556,-5.1118927,-0.29311523,1.26167,1.9817139,0.0
15065,-9.976235,2.8822556,-5.1118927,0.4163086,1.177771,2.5392702,0.0
15066,-6.5016184,1.4751816,-4.076,0.4163086,1.177771,2.5392702,0.0
15067,-6.5016184,1.4751816,-4.076,0.89846194,1.2563599,3.3124146,0.0
15068,-2.2924328,0.1638794,-1.700386,0.89846194,1.2563599,3.3124146,0.0
15069,-2.2924328,0.1638794,-1.700386,1.5112427,1.6684204,4.0983033,0.0
15070,1.3326559,-1.1523285,1.3506012,1.5112427,1.6684204,4.0983033,0.0
15071,1.3326559,-1.1523285,1.3506012,2.6677735,2.0326905,4.8077273,0.0
15072,3.8963614,-3.079895,4.1737785,2.6677735,2.0326905,4.8077273,0.0
15073,3.8963614,-3.079895,4.1737785,3.7786376,1.6418701,5.337671,0.0
15074,6.000463,-5.6154404,6.837986,3.7786376,1.6418701,5.337671,0.0
15075,6.000463,-5.6154404,6.837986,3.5067627,1.1427246,5.0148196,0.0
15076,9.530693,-7.0822296,9.437416,3.5067627,1.1427246,5.0148196,0.0
15077,9.530693,-7.0822296,9.437416,1.9710938,1.363623,4.3128295,0.0
15078,14.908747,-5.7786484,10.001289,1.9710938,1.363623,4.3128295,0.0
15079,14.908747,-5.7786484,10.001289,0.7519043,1.5494751,3.526941,0.0
15080,15.662007,-1.9871826,6.821808,0.7519043,1.5494751,3.526941,0.0
15081,15.662007,-1.9871826,6.821808,-0.20072022,0.93138427,2.9959352,0.0
15082,8.540922,2.1918335,1.4217529,-0.20072022,0.93138427,2.9959352,0.0
15083,8.540922,2.1918335,1.4217529,-0.4725952,0.21134034,2.3693483,0.0
15084,0.16033792,4.700859,-3.1888313,-0.4725952,0.21134034,2.3693483,0.0
15085,0.16033792,4.700859,-3.1888313,-0.22727051,-0.55755615,1.6046997,0.0
15086,-4.4645643,5.945015,-5.405411,-0.22727051,-0.55755615,1.6046997,0.0
15087,-4.4645643,5.945015,-5.405411,0.20072022,-1.1172364,0.92713624,0.0
15088,-5.572518,7.3259583,-6.062916,0.20072022,-1.1172364,0.92713624,0.0
15089,-5.572518,7.3259583,-6.062916,-0.09133301,-1.5239868,0.26019287,0.0
15090,-5.2735295,9.02626,-6.914093,-0.09133301,-1.5239868,0.26019287,0.0
15091,-5.2735295,9.02626,-6.914093,-0.59472656,-1.6450561,-0.21452637,0.0
15092,-4.909705,10.446213,-8.311951,-0.59472656,-1.6450561,-0.21452637,0.0
15093,-4.909705,10.446213,-8.311951,-0.81243896,-1.6588624,-0.68287355,0.0
15094,-4.879827,10.786537,-9.186058,-0.81243896,-1.6588624,-0.68287355,0.0
15095,-4.879827,10.786537,-9.186058,-0.87615967,-1.8903809,-0.9430664,0.0
15096,-5.3046064,10.122078,-8.642082,-0.87615967,-1.8903809,-0.9430664,0.0
15097,-5.3046064,10.122078,-8.642082,-0.7497803,-2.1325195,-1.5494751,0.0
15098,-5.4634485,8.4049,-6.576912,-0.7497803,-2.1325195,-1.5494751,0.0
15099,-5.4634485,8.4049,-6.576912,-0.37701416,-2.1611938,-2.1346436,0.0
15100,-4.446284,5.310997,-3.5076942,-0.37701416,-2.1611938,-2.1346436,0.0
15101,-4.446284,5.310997,-3.5076942,-0.37382814,-2.2206666,-2.7261841,0.0
15102,-2.4105062,1.9438324,-0.28923798,-0.37382814,-2.2206666,-2.7261841,0.0
15103,-2.4105062,1.9438324,-0.28923798,-0.6605713,-2.1962402,-3.1318727,0.0
15104,0.22028875,-0.39618683,1.8993454,-0.6605713,-2.1962402,-3.1318727,0.0
15105,3.2787457,-1.2581253,1.8107872,-0.6605713,-2.1962402,-3.1318727,0.0
15106,3.2787457,-1.2581253,1.8107872,-1.2308716,-2.5934327,-3.6989868,0.0
15107,3.2787457,-1.2581253,1.8107872,-1.903125,-1.8946289,-4.0632567,0.0
15108,6.4665146,-1.4633636,0.31524277,-1.903125,-1.8946289,-4.0632567,0.0
15109,6.4665146,-1.4633636,0.31524277,-2.2960694,-1.2829102,-3.3931274,0.0
15110,9.943964,-4.0885086,1.3221169,-2.2960694,-1.2829102,-3.3931274,0.0
15111,9.943964,-4.0885086,1.3221169,-2.633789,-1.5919555,-3.3230348,0.0
15112,14.905049,-10.278587,4.7746353,-2.633789,-1.5919555,-3.3230348,0.0
15113,14.905049,-10.278587,4.7746353,-2.2514648,0.95793456,-3.4791505,0.0
15114,18.785172,-14.373505,6.757393,-2.2514648,0.95793456,-3.4791505,0.0
15115,18.785172,-14.373505,6.757393,-1.7820557,1.6078857,-2.5998046,0.0
15116,16.616785,-13.856766,6.886299,-1.7820557,1.6078857,-2.5998046,0.0
15117,16.616785,-13.856766,6.886299,-1.538855,1.7820557,-1.899939,0.0
15118,9.349178,-11.527649,6.092098,-1.538855,1.7820557,-1.899939,0.0
15119,9.349178,-11.527649,6.092098,-1.3678712,1.5080566,-1.6790406,0.0
15120,1.453269,-7.6542587,4.174324,-1.3678712,1.5080566,-1.6790406,0.0
15121,1.453269,-7.6542587,4.174324,-1.3275146,1.0184692,-1.7586914,0.0
15122,-5.4163275,-3.0465698,1.8080139,-1.3275146,1.0184692,-1.7586914,0.0
15123,-5.4163275,-3.0465698,1.8080139,-1.0333375,0.7688965,-1.5282348,0.0
15124,-10.433453,0.2232666,0.13932037,-1.0333375,0.7688965,-1.5282348,0.0
15125,-10.433453,0.2232666,0.13932037,-0.5363159,1.0184692,-1.1926392,0.0
15126,-12.696859,1.638794,-0.642704,-0.5363159,1.0184692,-1.1926392,0.0
15127,-12.696859,1.638794,-0.642704,-0.32816163,1.3466309,-0.5968506,0.0
15128,-13.350298,2.2936783,-1.3219147,-0.32816163,1.3466309,-0.5968506,0.0
15129,-13.350298,2.2936783,-1.3219147,-0.43967286,1.719397,0.47365722,0.0
15130,-13.915749,3.2724304,-2.6359367,-0.43967286,1.719397,0.47365722,0.0
15131,-13.915749,3.2724304,-2.6359367,-0.43117675,1.7523193,1.0683838,0.0
15132,-14.163886,3.9457092,-4.1092606,-0.43117675,1.7523193,1.0683838,0.0
15133,-14.163886,3.9457092,-4.1092606,0.2081543,1.6758546,1.4804443,0.0
15134,-13.0353565,3.2296143,-4.5326233,0.2081543,1.6758546,1.4804443,0.0
15135,-13.0353565,3.2296143,-4.5326233,0.79226077,1.5813354,2.0687988,0.0
15136,-9.605153,1.8005905,-3.7207031,0.79226077,1.5813354,2.0687988,0.0
15137,-9.605153,1.8005905,-3.7207031,1.0269654,1.5654052,2.4107666,0.0
15138,-4.9026403,0.8651886,-2.1773071,1.0269654,1.5654052,2.4107666,0.0
15139,-4.9026403,0.8651886,-2.1773071,1.3370727,1.5866455,2.904602,0.0
15140,-1.2189627,0.4105072,-0.41171646,1.3370727,1.5866455,2.904602,0.0
15141,-1.2189627,0.4105072,-0.41171646,2.3449218,1.5632813,3.8147461,0.0
15142,1.0615606,-0.4828186,1.0469208,2.3449218,1.5632813,3.8147461,0.0
15143,1.0615606,-0.4828186,1.0469208,2.5934327,1.8627685,4.4572635,0.0
15144,2.7565975,-2.5756836,2.5629883,2.5934327,1.8627685,4.4572635,0.0
15145,2.7565975,-2.5756836,2.5629883,2.4543092,2.1144655,4.6218753,0.0
15146,4.2684126,-5.192421,4.876442,2.4543092,2.1144655,4.6218753,0.0
15147,4.2684126,-5.192421,4.876442,1.9827759,1.5112427,4.976587,0.0
15148,6.456808,-7.627434,7.8779984,1.9827759,1.5112427,4.976587,0.0
15149,6.456808,-7.627434,7.8779984,2.3704102,0.61702883,5.635034,0.0
15150,11.962346,-8.295853,9.124252,2.3704102,0.61702883,5.635034,0.0
15151,11.962346,-8.295853,9.124252,0.5628662,0.67650145,3.715979,0.0
15152,15.119401,-4.6637115,7.1309967,0.5628662,0.67650145,3.715979,0.0
15153,15.119401,-4.6637115,7.1309967,0.41418457,-0.20921631,4.1322875,0.0
15154,10.015772,0.6986313,3.270668,0.41418457,-0.20921631,4.1322875,0.0
15155,10.015772,0.6986313,3.270668,0.71791995,-0.9143921,3.4504762,0.0
15156,2.8035235,4.7144394,-1.1826477,0.71791995,-0.9143921,3.4504762,0.0
15157,2.8035235,4.7144394,-1.1826477,0.12213135,-1.6907227,2.531836,0.0
15158,-1.2077305,8.177444,-4.6483383,0.12213135,-1.6907227,2.531836,0.0
15159,-1.2077305,8.177444,-4.6483383,-0.36745605,-2.1962402,1.635498,0.0
15160,-1.2077305,8.177444,-4.6483383,-0.36745605,-2.1962402,1.635498,0.0
15161,-2.557957,11.348045,-7.0667915,-0.36745605,-2.1962402,1.635498,0.0
15162,-2.557957,11.348045,-7.0667915,-0.9451904,-2.5105958,0.77102053,0.0
15163,-2.946402,13.971802,-9.024651,-0.9451904,-2.5105958,0.77102053,0.0
15164,-2.946402,13.971802,-9.024651,-0.30373535,-2.3916504,0.029736329,0.0
15165,-3.6837575,15.702232,-9.661381,-0.30373535,-2.3916504,0.029736329,0.0
15166,-3.6837575,15.702232,-9.661381,-0.7508423,-2.3587282,-0.7423462,0.0
15167,-5.071188,16.140427,-7.728554,-0.7508423,-2.3587282,-0.7423462,0.0
15168,-5.071188,16.140427,-7.728554,-0.32922363,-2.3332398,-2.0167603,0.0
15169,-5.4047046,13.482681,-4.2429504,-0.32922363,-2.3332398,-2.0167603,0.0
15170,-5.4047046,13.482681,-4.2429504,-0.0541626,-2.526526,-3.0840821,0.0
15171,-3.5558681,7.974411,-1.1205673,-0.0541626,-2.526526,-3.0840821,0.0
15172,-3.5558681,7.974411,-1.1205673,-0.07540283,-2.5668824,-3.6554444,0.0
15173,-0.80616903,2.8317642,0.7900543,-0.07540283,-2.5668824,-3.6554444,0.0
15174,-0.80616903,2.8317642,0.7900543,-0.35471192,-2.5976808,-4.2214966,0.0
15175,1.8800893,-0.53315735,1.0193481,-0.35471192,-2.5976808,-4.2214966,0.0
15176,1.8800893,-0.53315735,1.0193481,-0.08283692,-2.3130615,-4.6282473,0.0
15177,4.64007,-2.0234222,0.2921524,-0.08283692,-2.3130615,-4.6282473,0.0
15178,4.64007,-2.0234222,0.2921524,0.2527588,-1.6673584,-3.8391724,0.0
15179,7.823824,-3.7248993,1.1649094,0.2527588,-1.6673584,-3.8391724,0.0
15180,7.823824,-3.7248993,1.1649094,-0.22833252,-1.4602661,-3.173291,0.0
15181,10.992189,-7.466858,4.613861,-0.22833252,-1.4602661,-3.173291,0.0
15182,10.992189,-7.466858,4.613861,-1.1299804,-1.1257324,-3.624646,0.0
15183,13.13766,-10.859703,8.11129,-1.1299804,-1.1257324,-3.624646,0.0
15184,13.13766,-10.859703,8.11129,-1.5930176,-0.5628662,-3.3177247,0.0
15185,13.8641815,-12.019493,9.536423,-1.5930176,-0.5628662,-3.3177247,0.0
15186,13.8641815,-12.019493,9.536423,-1.8723267,0.4078125,-2.5998046,0.0
15187,11.389197,-11.697784,8.828857,-1.8723267,0.4078125,-2.5998046,0.0
15188,11.389197,-11.697784,8.828857,-1.9795898,0.7072998,-1.7491333,0.0
15189,4.997673,-9.931747,6.0065536,-1.9795898,0.7072998,-1.7491333,0.0
15190,4.997673,-9.931747,6.0065536,-2.2164185,0.59047854,-1.4347779,0.0
15191,-2.4277887,-6.5220184,2.4716606,-2.2164185,0.59047854,-1.4347779,0.0
15192,-2.4277887,-6.5220184,2.4716606,-2.5647583,0.4725952,-1.2914063,0.0
15193,-8.03697,-2.6486053,0.4103737,-2.5647583,0.4725952,-1.2914063,0.0
15194,-8.03697,-2.6486053,0.4103737,-2.3969605,0.6956177,-1.0237793,0.0
15195,-11.180321,0.22499084,-0.5950508,-2.3969605,0.6956177,-1.0237793,0.0
15196,-11.180321,0.22499084,-0.5950508,-1.5101807,1.0875,-0.5979126,0.0
15197,-13.259528,1.8085175,-1.8968544,-1.5101807,1.0875,-0.5979126,0.0
15198,-13.259528,1.8085175,-1.8968544,-1.2903442,1.1490967,-0.14974366,0.0
15199,-15.622808,2.8900452,-3.44767,-1.2903442,1.1490967,-0.14974366,0.0
15200,-15.622808,2.8900452,-3.44767,-1.2276856,1.0694458,0.3802002,0.0
15201,-17.331707,3.5873566,-4.7157555,-1.2276856,1.0694458,0.3802002,0.0
15202,-17.331707,3.5873566,-4.7157555,-0.37489015,0.84536135,1.3126465,0.0
15203,-16.134481,3.1014938,-5.267784,-0.37489015,0.84536135,1.3126465,0.0
15204,-16.134481,3.1014938,-5.267784,0.18372802,0.6159668,1.8840088,0.0
15205,-11.417107,1.810379,-4.910248,0.18372802,0.6159668,1.8840088,0.0
15206,-11.417107,1.810379,-4.910248,0.5214478,0.6287109,1.9625977,0.0
15207,-5.6414003,0.6641464,-3.7978745,0.5214478,0.6287109,1.9625977,0.0
15208,-5.6414003,0.6641464,-3.7978745,0.8814697,0.6138428,2.4596193,0.0
15209,-1.6885109,-0.5039749,-2.307598,0.8814697,0.6138428,2.4596193,0.0
15210,-1.6885109,-0.5039749,-2.307598,1.6609863,0.67437744,3.0023072,0.0
15211,0.81755066,-2.274994,-0.86837006,1.6609863,0.67437744,3.0023072,0.0
15212,0.81755066,-2.274994,-0.86837006,2.5934327,0.7072998,4.585767,0.0
15213,4.2444096,-4.989197,0.95757294,2.5934327,0.7072998,4.585767,0.0
15214,4.2444096,-4.989197,0.95757294,3.8264282,0.37382814,4.8024173,0.0
15215,8.507418,-8.601219,3.0878334,3.8264282,0.37382814,4.8024173,0.0
15216,8.507418,-8.601219,3.0878334,4.1131716,0.8442993,4.809851,0.0
15217,12.787501,-11.162094,4.6483154,4.1131716,0.8442993,4.809851,0.0
15218,12.787501,-11.162094,4.6483154,2.088977,0.67437744,4.3022094,0.0
15219,18.505453,-10.630348,6.087208,2.088977,0.67437744,4.3022094,0.0
15220,18.505453,-10.630348,6.087208,1.7608155,0.1731079,4.0919313,0.0
15221,21.15645,-6.2495346,5.845646,1.7608155,0.1731079,4.0919313,0.0
15222,21.15645,-6.2495346,5.845646,1.0747559,-0.10407715,4.050513,0.0
15223,14.709597,0.31832123,2.5555573,1.0747559,-0.10407715,4.050513,0.0
15224,14.709597,0.31832123,2.5555573,1.5781494,-0.90270996,4.5783324,0.0
15225,4.8561783,5.951851,-1.2197647,1.5781494,-0.90270996,4.5783324,0.0
15226,4.8561783,5.951851,-1.2197647,1.273352,-1.4092896,3.967676,0.0
15227,-1.5374699,9.97596,-3.421318,1.273352,-1.4092896,3.967676,0.0
15228,-1.5374699,9.97596,-3.421318,0.56605226,-1.5972656,3.4727783,0.0
15229,-4.2272415,13.219818,-4.282425,0.56605226,-1.5972656,3.4727783,0.0
15230,-4.2272415,13.219818,-4.282425,0.012744141,-1.7863038,2.6741455,0.0
15231,-5.140912,15.4247055,-5.252281,0.012744141,-1.7863038,2.6741455,0.0
15232,-5.140912,15.4247055,-5.252281,-0.88253176,-1.7703736,1.812854,0.0
15233,-5.818589,16.369545,-6.5465393,-0.88253176,-1.7703736,1.812854,0.0
15234,-5.818589,16.369545,-6.5465393,-1.1607789,-1.7746216,1.1554688,0.0
15235,-6.498231,15.590622,-6.945656,-1.1607789,-1.7746216,1.1554688,0.0
15236,-6.498231,15.590622,-6.945656,-0.40993652,-1.7024049,0.0637207,0.0
15237,-6.2018075,12.510887,-5.5065155,-0.40993652,-1.7024049,0.0637207,0.0
15238,-6.2018075,12.510887,-5.5065155,0.13381349,-1.7640015,-1.0142212,0.0
15239,-4.184615,8.218597,-2.883583,0.13381349,-1.7640015,-1.0142212,0.0
15240,-4.184615,8.218597,-2.883583,0.19541016,-1.6046997,-1.9572877,0.0
15241,-1.6503898,4.736618,-0.63820267,0.19541016,-1.6046997,-1.9572877,0.0
15242,-1.6503898,4.736618,-0.63820267,-0.1263794,-1.3997315,-2.5998046,0.0
15243,-0.07261896,2.6199417,0.39542007,-0.1263794,-1.3997315,-2.5998046,0.0
15244,-0.07261896,2.6199417,0.39542007,-0.29630128,-1.4284058,-3.2115235,0.0
15245,0.7661114,0.92178345,0.608551,-0.29630128,-1.4284058,-3.2115235,0.0
15246,0.7661114,0.92178345,0.608551,-0.4248047,-1.4900025,-3.5917237,0.0
15247,2.1666856,-1.1867523,1.2103271,-0.4248047,-1.4900025,-3.5917237,0.0
15248,2.1666856,-1.1867523,1.2103271,-0.6637573,-1.4007934,-3.9506836,0.0
15249,5.428429,-4.0114365,3.2205086,-0.6637573,-1.4007934,-3.9506836,0.0
15250,5.428429,-4.0114365,3.2205086,-0.7858887,-1.3190186,-3.877405,0.0
15251,7.3584785,-5.272812,4.484085,-0.7858887,-1.3190186,-3.877405,0.0
15252,7.3584785,-5.272812,4.484085,-1.6386842,0.29630128,-3.703235,0.0
15253,16.376308,-12.876282,9.505966,-1.6386842,0.29630128,-3.703235,0.0
15254,16.376308,-12.876282,9.505966,-1.9190552,1.0227174,-3.7372193,0.0
15255,14.7815895,-12.988281,8.840981,-1.9190552,1.0227174,-3.7372193,0.0
15256,14.7815895,-12.988281,8.840981,-3.8699708,1.4177856,-2.4054565,0.0
15257,6.0689354,-12.487137,7.6535225,-3.8699708,1.4177856,-2.4054565,0.0
15258,6.0689354,-12.487137,7.6535225,-4.1599,1.4092896,-2.2047365,0.0
15259,0.6869726,-9.633583,5.365822,-4.1599,1.4092896,-2.2047365,0.0
15260,0.6869726,-9.633583,5.365822,-3.9368775,0.68287355,-2.0040162,0.0
15261,-11.70373,-5.7999954,1.77005,-3.9368775,0.68287355,-2.0040162,0.0
15262,-11.70373,-5.7999954,1.77005,-3.6278322,0.52250975,-1.7045288,0.0
15263,-12.635567,-4.7396393,0.50730896,-3.6278322,0.52250975,-1.7045288,0.0
15264,-12.635567,-4.7396393,0.50730896,-3.1297486,1.0259033,-0.1539917,0.0
15265,-16.316645,-2.8807983,-3.022377,-3.1297486,1.0259033,-0.1539917,0.0
15266,-16.316645,-2.8807983,-3.022377,-3.000183,1.5484132,0.68499756,0.0
15267,-15.662801,-1.3051605,-5.5675125,-3.000183,1.5484132,0.68499756,0.0
15268,-15.662801,-1.3051605,-5.5675125,-1.1119263,1.5983276,1.5877075,0.0
15269,-14.690568,-0.84786224,-7.4669228,-1.1119263,1.5983276,1.5877075,0.0
15270,-14.690568,-0.84786224,-7.4669228,0.19647217,1.3614991,1.9700317,0.0
15271,-12.644069,-0.90371704,-7.164444,0.19647217,1.3614991,1.9700317,0.0
15272,-12.644069,-0.90371704,-7.164444,1.5165528,0.4991455,3.3665771,0.0
15273,-8.7911825,-0.27230072,-7.7595367,1.5165528,0.4991455,3.3665771,0.0
15274,-8.7911825,-0.27230072,-7.7595367,1.0673218,0.13168946,3.3952515,0.0
15275,-4.38601,1.4572678,-6.5288315,1.0673218,0.13168946,3.3952515,0.0
15276,-4.38601,1.4572678,-6.5288315,1.3190186,-0.4725952,3.9666138,0.0
15277,-1.5138988,1.9757996,-5.447773,1.3190186,-0.4725952,3.9666138,0.0
15278,-1.5138988,1.9757996,-5.447773,1.7958618,-0.7678345,4.003784,0.0
15279,-0.5548935,1.6436157,-4.440727,1.7958618,-0.7678345,4.003784,0.0
15280,-0.5548935,1.6436157,-4.440727,2.8302612,-1.1968873,4.3733644,0.0
15281,2.7030573,-1.3848877,-2.8799744,2.8302612,-1.1968873,4.3733644,0.0
15282,2.7030573,-1.3848877,-2.8799744,3.2858644,-0.905896,4.7429442,0.0
15283,3.9172678,-2.7046661,-1.0825806,3.2858644,-0.905896,4.7429442,0.0
15284,3.9172678,-2.7046661,-1.0825806,3.8476684,-0.2081543,5.888855,0.0
15285,8.508875,-6.7074203,2.5296745,3.8476684,-0.2081543,5.888855,0.0
15286,8.508875,-6.7074203,2.5296745,0.0063720704,-1.350879,4.501868,0.0
15287,18.802364,-10.783859,8.802681,0.0063720704,-1.350879,4.501868,0.0
15288,18.802364,-10.783859,8.802681,-0.19753419,-1.6758546,4.35531,0.0
15289,20.130356,-8.60585,9.057453,-0.19753419,-1.6758546,4.35531,0.0
15290,20.130356,-8.60585,9.057453,1.3774292,-1.5186768,4.2671633,0.0
15291,20.130356,-8.60585,9.057453,1.3774292,-1.5186768,4.2671633,0.0
15292,16.003284,-5.806114,6.9614296,1.3774292,-1.5186768,4.2671633,0.0
15293,16.003284,-5.806114,6.9614296,2.4585571,-2.270581,2.9683228,0.0
15294,4.7688503,3.2107391,3.0594406,2.4585571,-2.270581,2.9683228,0.0
15295,4.7688503,3.2107391,3.0594406,1.3689331,-2.360852,2.5084717,0.0
15296,1.5394459,6.327629,1.7496872,1.3689331,-2.360852,2.5084717,0.0
15297,1.5394459,6.327629,1.7496872,0.081774905,-2.7368042,1.8882569,0.0
15298,-1.7134991,11.095146,-0.055915833,0.081774905,-2.7368042,1.8882569,0.0
15299,-1.7134991,11.095146,-0.055915833,-0.23682861,-3.3325927,0.6796875,0.0
15300,-3.6338487,14.711563,-2.8943062,-0.23682861,-3.3325927,0.6796875,0.0
15301,-3.6338487,14.711563,-2.8943062,0.0361084,-3.1977174,0.30373535,0.0
15302,-3.2538195,13.472084,-3.6692886,0.0361084,-3.1977174,0.30373535,0.0
15303,-3.2538195,13.472084,-3.6692886,0.2984253,-3.0277956,-0.42374268,0.0
15304,-4.040165,14.169914,-5.8865776,0.2984253,-3.0277956,-0.42374268,0.0
15305,-4.040165,14.169914,-5.8865776,0.12213135,-3.0564697,-0.85491943,0.0
15306,-4.7755036,14.373123,-6.5108986,0.12213135,-3.0564697,-0.85491943,0.0
15307,-4.7755036,14.373123,-6.5108986,0.14868164,-2.807959,-1.4645141,0.0
15308,-4.24561,12.773193,-4.697918,0.14868164,-2.807959,-1.4645141,0.0
15309,-4.24561,12.773193,-4.697918,0.86766356,-2.9608886,-1.9572877,0.0
15310,-2.1420329,8.866516,-1.7929535,0.86766356,-2.9608886,-1.9572877,0.0
15311,-2.1420329,8.866516,-1.7929535,0.49277344,-2.6093628,-2.9215944,0.0
15312,0.39395428,3.3793716,1.2876701,0.49277344,-2.6093628,-2.9215944,0.0
15313,0.39395428,3.3793716,1.2876701,0.12956543,-2.531836,-3.1010742,0.0
15314,1.2048974,1.8498611,1.2789993,0.12956543,-2.531836,-3.1010742,0.0
15315,1.2048974,1.8498611,1.2789993,-0.16142578,-2.442627,-3.3994997,0.0
15316,2.7555804,0.20497131,0.28198624,-0.16142578,-2.442627,-3.3994997,0.0
15317,2.7555804,0.20497131,0.28198624,-0.44179687,-1.7629395,-3.709607,0.0
15318,4.0925503,0.23156738,-1.3872871,-0.44179687,-1.7629395,-3.709607,0.0
15319,4.0925503,0.23156738,-1.3872871,-1.4900025,-1.4708862,-3.064966,0.0
15320,5.519658,-0.79135895,-0.6549454,-1.4900025,-1.4708862,-3.064966,0.0
15321,5.519658,-0.79135895,-0.6549454,-2.4065187,-1.26167,-1.8808228,0.0
15322,8.97946,-6.1530457,2.357193,-2.4065187,-1.26167,-1.8808228,0.0
15323,8.97946,-6.1530457,2.357193,-1.9381714,0.43861085,-3.1987793,0.0
15324,12.048948,-12.0841675,4.9543076,-1.9381714,0.43861085,-3.1987793,0.0
15325,12.048948,-12.0841675,4.9543076,-1.7714356,0.814563,-2.6879518,0.0
15326,10.546642,-13.378159,6.8154716,-1.7714356,0.814563,-2.6879518,0.0
15327,10.546642,-13.378159,6.8154716,-2.1378295,1.0768799,-1.6429322,0.0
15328,5.828598,-10.928627,7.3153305,-2.1378295,1.0768799,-1.6429322,0.0
15329,5.828598,-10.928627,7.3153305,-2.095349,1.3243287,-1.2340577,0.0
15330,1.2988396,-7.8227234,5.0701714,-2.095349,1.3243287,-1.2340577,0.0
15331,1.2988396,-7.8227234,5.0701714,-2.360852,1.3243287,-0.98236084,0.0
15332,-2.8614044,-4.984024,2.070919,-2.360852,1.3243287,-0.98236084,0.0
15333,-2.8614044,-4.984024,2.070919,-2.4649293,0.95368654,-0.6775635,0.0
15334,-7.256628,-2.4573822,0.22703552,-2.4649293,0.95368654,-0.6775635,0.0
15335,-7.256628,-2.4573822,0.22703552,-2.079419,0.40144044,-0.28780517,0.0
15336,-10.925176,-0.84641266,-0.9262085,-2.079419,0.40144044,-0.28780517,0.0
15337,-10.925176,-0.84641266,-0.9262085,-1.2956543,0.35152587,0.34727785,0.0
15338,-13.130754,0.29129028,-1.9942245,-1.2956543,0.35152587,0.34727785,0.0
15339,-13.130754,0.29129028,-1.9942245,-0.7147339,0.72960204,1.0301514,0.0
15340,-13.998537,1.5300064,-2.7225266,-0.7147339,0.72960204,1.0301514,0.0
15341,-13.998537,1.5300064,-2.7225266,-0.33665773,0.83686525,1.9158691,0.0
15342,-13.680189,2.4207,-3.1633492,-0.33665773,0.83686525,1.9158691,0.0
15343,-13.680189,2.4207,-3.1633492,0.5129517,0.29205322,2.6592774,0.0
15344,-12.332213,2.628624,-4.3930817,0.5129517,0.29205322,2.6592774,0.0
15345,-12.332213,2.628624,-4.3930817,0.4630371,0.16142578,3.0947022,0.0
15346,-9.502111,2.0620575,-3.9836655,0.4630371,0.16142578,3.0947022,0.0
15347,-9.502111,2.0620575,-3.9836655,0.724292,0.2888672,3.2125854,0.0
15348,-5.337785,1.298523,-3.3284836,0.724292,0.2888672,3.2125854,0.0
15349,-5.337785,1.298523,-3.3284836,2.2716432,0.093457036,3.5768554,0.0
15350,-1.2135139,-0.049606323,-1.720501,2.2716432,0.093457036,3.5768554,0.0
15351,-1.2135139,-0.049606323,-1.720501,3.9050171,-0.5809204,4.1938844,0.0
15352,1.8025045,-1.4958954,-0.5610428,3.9050171,-0.5809204,4.1938844,0.0
15353,1.8025045,-1.4958954,-0.5610428,3.7042968,-0.28674316,4.9160523,0.0
15354,4.388,-2.5652695,-0.0143013,3.7042968,-0.28674316,4.9160523,0.0
15355,4.388,-2.5652695,-0.0143013,4.2830935,0.14974366,5.152881,0.0
15356,8.854528,-4.284294,1.4053192,4.2830935,0.14974366,5.152881,0.0
15357,8.854528,-4.284294,1.4053192,4.0632567,0.631897,5.1146483,0.0
15358,8.401787,-4.030266,2.0830688,4.0632567,0.631897,5.1146483,0.0
15359,8.401787,-4.030266,2.0830688,4.1067996,0.9303223,5.139075,0.0
15360,8.837311,-5.53183,5.38546,4.1067996,0.9303223,5.139075,0.0
15361,8.837311,-5.53183,5.38546,3.1223145,0.89208984,4.610193,0.0
15362,11.439087,-6.571686,8.775642,3.1223145,0.89208984,4.610193,0.0
15363,11.439087,-6.571686,8.775642,1.175647,-0.16142578,3.5641115,0.0
15364,15.337134,-5.1940002,8.161945,1.175647,-0.16142578,3.5641115,0.0
15365,15.337134,-5.1940002,8.161945,0.5256958,-0.60959476,3.0957642,0.0
15366,12.118633,-0.7600937,-44.982883,0.5256958,-0.60959476,3.0957642,0.0
15367,12.118633,-0.7600937,-44.982883,0.98236084,-0.991919,2.70813,0.0
15368,3.2927952,4.2686386,8.862717,0.98236084,-0.991919,2.70813,0.0
15369,3.2927952,4.2686386,8.862717,-0.16248779,-1.8489624,2.1250856,0.0
15370,-2.1946096,7.1011047,5.050537,-0.16248779,-1.8489624,2.1250856,0.0
15371,-2.1946096,7.1011047,5.050537,-0.019116212,-2.0942872,1.6662964,0.0
15372,-3.3699818,8.168335,2.7173576,-0.019116212,-2.0942872,1.6662964,0.0
15373,-3.3699818,8.168335,2.7173576,-0.41418457,-2.437317,0.8379273,0.0
15374,-3.0338278,9.041985,-0.8152008,-0.41418457,-2.437317,0.8379273,0.0
15375,-3.0338278,9.041985,-0.8152008,-0.32072756,-2.3332398,0.21877442,0.0
15376,-3.3711786,10.641914,-4.9154816,-0.32072756,-2.3332398,0.21877442,0.0
15377,-3.3711786,10.641914,-4.9154816,-0.6244629,-2.2854493,-0.18266602,0.0
15378,-5.068952,11.945297,-7.2196655,-0.6244629,-2.2854493,-0.18266602,0.0
15379,-5.068952,11.945297,-7.2196655,-1.2935303,-2.2939453,-0.7051758,0.0
15380,-6.3932843,11.849022,-6.3901215,-1.2935303,-2.2939453,-0.7051758,0.0
15381,-6.3932843,11.849022,-6.3901215,-0.71367186,-2.3236816,-1.4432739,0.0
15382,-5.1451573,9.065727,-3.5206795,-0.71367186,-2.3236816,-1.4432739,0.0
15383,-5.1451573,9.065727,-3.5206795,-0.78376466,-2.337488,-2.4797974,0.0
15384,-1.97616,4.8522873,-0.6078148,-0.78376466,-2.337488,-2.4797974,0.0
15385,-1.97616,4.8522873,-0.6078148,-0.7625244,-2.4224489,-3.2816162,0.0
15386,0.8923507,1.7771149,1.210392,-0.7625244,-2.4224489,-3.2816162,0.0
15387,0.8923507,1.7771149,1.210392,-0.6945557,-2.6008668,-3.802002,0.0
15388,3.143898,-0.059165955,1.4679489,-0.6945557,-2.6008668,-3.802002,0.0
15389,3.143898,-0.059165955,1.4679489,-0.998291,-2.4266968,-4.089807,0.0
15390,4.731842,-0.36164856,0.37787247,-0.998291,-2.4266968,-4.089807,0.0
15391,4.731842,-0.36164856,0.37787247,-0.85598147,-1.8457764,-3.9315674,0.0
15392,5.3965816,0.28356934,-0.16512299,-0.85598147,-1.8457764,-3.9315674,0.0
15393,5.3965816,0.28356934,-0.16512299,-0.5564942,-2.0411866,-3.161609,0.0
15394,6.656646,-1.4558563,2.1776924,-0.5564942,-2.0411866,-3.161609,0.0
15395,6.656646,-1.4558563,2.1776924,-1.7087768,-2.4489992,-3.0129273,0.0
15396,10.459191,-5.555519,6.215992,-1.7087768,-2.4489992,-3.0129273,0.0
15397,10.459191,-5.555519,6.215992,-2.8100832,-0.42905274,-3.3124146,0.0
15398,14.511872,-8.741936,7.877884,-2.8100832,-0.42905274,-3.3124146,0.0
15399,14.135719,-9.709282,6.5164185,-2.8100832,-0.42905274,-3.3124146,0.0
15400,14.135719,-9.709282,6.5164185,-3.5460572,1.2000732,-2.822827,0.0
15401,14.135719,-9.709282,6.5164185,-4.9266725,2.0135744,-1.7087768,0.0
15402,8.453375,-8.737274,4.565258,-4.9266725,2.0135744,-1.7087768,0.0
15403,8.453375,-8.737274,4.565258,-5.971692,2.0624268,-1.4592041,0.0
15404,0.044340134,-7.0594406,3.1133041,-5.971692,2.0624268,-1.4592041,0.0
15405,0.044340134,-7.0594406,3.1133041,-5.712561,0.9770508,-1.6822265,0.0
15406,-8.336819,-5.596634,1.8589516,-5.712561,0.9770508,-1.6822265,0.0
15407,-8.336819,-5.596634,1.8589516,-5.2771363,0.46728516,-1.1597168,0.0
15408,-14.488156,-4.2698975,0.31609344,-5.2771363,0.46728516,-1.1597168,0.0
15409,-14.488156,-4.2698975,0.31609344,-4.9394164,0.7412842,-0.3695801,0.0
15410,-16.991306,-2.7882843,-1.4634209,-4.9394164,0.7412842,-0.3695801,0.0
15411,-16.991306,-2.7882843,-1.4634209,-4.797107,1.1490967,0.41524658,0.0
15412,-16.991306,-2.7882843,-1.4634209,-4.797107,1.1490967,0.41524658,0.0
15413,-16.56989,-1.1092682,-2.7375069,-4.797107,1.1490967,0.41524658,0.0
15414,-16.56989,-1.1092682,-2.7375069,-4.240613,1.1671509,1.6546143,0.0
15415,-14.951956,0.371521,-3.1888351,-4.240613,1.1671509,1.6546143,0.0
15416,-14.951956,0.371521,-3.1888351,-3.536499,0.9483765,2.272705,0.0
15417,-12.936833,0.9378052,-3.4984932,-3.536499,0.9483765,2.272705,0.0
15418,-10.255937,0.6352768,-3.6922035,-3.536499,0.9483765,2.272705,0.0
15419,-10.255937,0.6352768,-3.6922035,-1.9785279,0.40144044,2.7421143,0.0
15420,-10.255937,0.6352768,-3.6922035,-1.2436157,-0.1444336,2.710254,0.0
15421,-6.6772957,-0.031341553,-3.098587,-1.2436157,-0.1444336,2.710254,0.0
15422,-6.6772957,-0.031341553,-3.098587,-0.5703003,-0.4258667,2.7484863,0.0
15423,-2.8471098,-0.635643,-1.6153717,-0.5703003,-0.4258667,2.7484863,0.0
15424,-2.8471098,-0.635643,-1.6153717,0.48746338,-0.7072998,3.0893922,0.0
15425,0.070273876,-1.2119904,-0.086891174,0.48746338,-0.7072998,3.0893922,0.0
15426,0.070273876,-1.2119904,-0.086891174,0.9218262,-0.8952759,3.624646,0.0
15427,1.9544735,-2.120987,0.23444366,0.9218262,-0.8952759,3.624646,0.0
15428,1.9544735,-2.120987,0.23444366,1.1087402,-0.8421753,4.4243407,0.0
15429,3.9866014,-4.270462,-0.18390656,1.1087402,-0.8421753,4.4243407,0.0
15430,3.9866014,-4.270462,-0.18390656,1.5919555,-0.17523193,5.2697024,0.0
15431,7.1733875,-8.002602,0.32978058,1.5919555,-0.17523193,5.2697024,0.0
15432,7.1733875,-8.002602,0.32978058,2.3258057,-0.03186035,5.7221193,0.0
15433,11.382827,-11.736267,2.423027,2.3258057,-0.03186035,5.7221193,0.0
15434,11.382827,-11.736267,2.423027,3.5757935,-1.2797241,4.3924804,0.0
15435,16.036194,-12.6330185,4.183563,3.5757935,-1.2797241,4.3924804,0.0
15436,16.036194,-12.6330185,4.183563,2.3215578,-1.4039795,3.1849732,0.0
15437,16.4177,-8.823563,3.8486786,2.3215578,-1.4039795,3.1849732,0.0
15438,16.4177,-8.823563,3.8486786,1.3275146,-1.4326538,3.0054932,0.0
15439,9.966533,-2.7957458,2.3527107,1.3275146,-1.4326538,3.0054932,0.0
15440,9.966533,-2.7957458,2.3527107,1.2977784,-1.4145997,2.5552003,0.0
15441,2.024642,1.9161377,0.62563705,1.2977784,-1.4145997,2.5552003,0.0
15442,2.024642,1.9161377,0.62563705,1.8425903,-1.5208008,1.6684204,0.0
15443,-2.8329468,5.4856186,-0.9048996,1.8425903,-1.5208008,1.6684204,0.0
15444,-2.8329468,5.4856186,-0.9048996,2.5159059,-1.6535523,0.63720703,0.0
15445,-4.659754,9.0902405,-2.0125694,2.5159059,-1.6535523,0.63720703,0.0
15446,-4.659754,9.0902405,-2.0125694,2.7760987,-1.6493043,-0.35789797,0.0
15447,-5.314534,12.871262,-3.1970215,2.7760987,-1.6493043,-0.35789797,0.0
15448,-5.314534,12.871262,-3.1970215,2.088977,-1.9179932,-0.7657105,0.0
15449,-6.3028975,16.16491,-4.3800545,2.088977,-1.9179932,-0.7657105,0.0
15450,-6.3028975,16.16491,-4.3800545,0.79119873,-2.2323487,-1.0152832,0.0
15451,-7.5491905,18.217766,-4.806988,0.79119873,-2.2323487,-1.0152832,0.0
15452,-7.5491905,18.217766,-4.806988,-0.10301514,-2.3035035,-1.7778076,0.0
15453,-7.2850556,16.818375,-4.379162,-0.10301514,-2.3035035,-1.7778076,0.0
15454,-7.2850556,16.818375,-4.379162,0.38232422,-2.1399536,-2.5573242,0.0
15455,-5.1356983,11.725426,-3.1636925,0.38232422,-2.1399536,-2.5573242,0.0
15456,-5.1356983,11.725426,-3.1636925,0.4980835,-2.2748291,-3.3941896,0.0
15457,-2.2407486,6.0810394,-1.3001404,0.4980835,-2.2748291,-3.3941896,0.0
15458,-2.2407486,6.0810394,-1.3001404,0.6690674,-2.2355347,-4.157776,0.0
15459,0.7963903,1.8699112,0.71170425,0.6690674,-2.2355347,-4.157776,0.0
15460,0.7963903,1.8699112,0.71170425,1.1575928,-2.9598267,-4.3117676,0.0
15461,3.7727325,-0.8389816,1.6839638,1.1575928,-2.9598267,-4.3117676,0.0
15462,3.7727325,-0.8389816,1.6839638,-0.0180542,-2.6720216,-4.8417115,0.0
15463,6.2670264,-1.079628,0.5172272,-0.0180542,-2.6720216,-4.8417115,0.0
15464,6.2670264,-1.079628,0.5172272,-0.8814697,-1.9179932,-4.060071,0.0
15465,7.9674544,0.7551422,-0.71627426,-0.8814697,-1.9179932,-4.060071,0.0
15466,7.9674544,0.7551422,-0.71627426,0.2793091,-1.8617066,-2.2334106,0.0
15467,10.30923,-1.0424728,0.5184479,0.2793091,-1.8617066,-2.2334106,0.0
15468,10.30923,-1.0424728,0.5184479,0.025488282,-1.7894897,-2.34917,0.0
15469,14.4858,-7.0474167,2.900463,0.025488282,-1.7894897,-2.34917,0.0
15470,14.4858,-7.0474167,2.900463,-1.085376,0.4428589,-3.0246093,0.0
15471,15.894585,-10.450386,5.0320396,-1.085376,0.4428589,-3.0246093,0.0
15472,15.894585,-10.450386,5.0320396,-2.084729,0.87615967,-2.1431396,0.0
15473,11.798212,-9.872711,6.341255,-2.084729,0.87615967,-2.1431396,0.0
15474,11.798212,-9.872711,6.341255,-2.8015869,1.3731812,-1.3721192,0.0
15475,5.1205025,-7.927719,5.940304,-2.8015869,1.3731812,-1.3721192,0.0
15476,5.1205025,-7.927719,5.940304,-3.2157714,1.538855,-1.3370727,0.0
15477,-2.132761,-5.7069855,4.020344,-3.2157714,1.538855,-1.3370727,0.0
15478,-2.132761,-5.7069855,4.020344,-3.4844606,1.0397094,-1.5335449,0.0
15479,-9.0022545,-3.4366837,2.495987,-3.4844606,1.0397094,-1.5335449,0.0
15480,-9.0022545,-3.4366837,2.495987,-2.8249512,1.0333375,-1.5197388,0.0
15481,-14.136276,-1.6309128,1.6394501,-2.8249512,1.0333375,-1.5197388,0.0
15482,-14.136276,-1.6309128,1.6394501,-2.1229615,1.2319336,-0.8496094,0.0
15483,-16.783997,-0.5286102,0.49326324,-2.1229615,1.2319336,-0.8496094,0.0
15484,-16.783997,-0.5286102,0.49326324,-1.7640015,0.98873293,0.11469727,0.0
15485,-17.251087,0.6251373,-0.6755562,-1.7640015,0.98873293,0.11469727,0.0
15486,-17.251087,0.6251373,-0.6755562,-2.0390625,1.3052124,0.6425171,0.0
15487,-16.141495,2.42733,-1.7773438,-2.0390625,1.3052124,0.6425171,0.0
15488,-16.141495,2.42733,-1.7773438,-1.9583496,1.2340577,1.5845215,0.0
15489,-13.765088,3.409958,-2.9639664,-1.9583496,1.2340577,1.5845215,0.0
15490,-13.765088,3.409958,-2.9639664,-0.9770508,0.7412842,2.084729,0.0
15491,-10.124217,2.4069214,-3.355732,-0.9770508,0.7412842,2.084729,0.0
15492,-10.124217,2.4069214,-3.355732,-0.09770508,0.44923097,2.445813,0.0
15493,-5.3728843,0.9811783,-2.3906174,-0.09770508,0.44923097,2.445813,0.0
15494,-5.3728843,0.9811783,-2.3906174,0.10301514,0.4428589,2.7909667,0.0
15495,-0.6696334,0.5537796,-0.6712837,0.10301514,0.4428589,2.7909667,0.0
15496,-0.6696334,0.5537796,-0.6712837,0.3812622,0.64782715,2.8674316,0.0
15497,2.2241197,0.34719086,0.629303,0.3812622,0.64782715,2.8674316,0.0
15498,2.2241197,0.34719086,0.629303,0.80606693,0.82730716,3.7595215,0.0
15499,4.0536366,-1.1896439,1.2727547,0.80606693,0.82730716,3.7595215,0.0
15500,4.0536366,-1.1896439,1.2727547,1.6716064,0.79969484,4.9351687,0.0
15501,6.834804,-4.9031677,2.4610863,1.6716064,0.79969484,4.9351687,0.0
15502,6.834804,-4.9031677,2.4610863,3.6331422,-0.43861085,5.5861816,0.0
15503,11.239779,-10.012817,4.4173546,3.6331422,-0.43861085,5.5861816,0.0
15504,11.239779,-10.012817,4.4173546,4.229993,0.72960204,4.798169,0.0
15505,16.714418,-11.835976,5.332115,4.229993,0.72960204,4.798169,0.0
15506,16.714418,-11.835976,5.332115,2.611487,-0.107263185,3.3984375,0.0
15507,19.209671,-7.697815,4.42083,2.611487,-0.107263185,3.3984375,0.0
15508,19.209671,-7.697815,4.42083,1.9339234,-0.271875,2.8185792,0.0
15509,13.352148,-1.5288925,2.437519,1.9339234,-0.271875,2.8185792,0.0
15510,13.352148,-1.5288925,2.437519,2.3810303,-0.63720703,2.4872315,0.0
15511,3.0458546,3.3343582,0.017848969,2.3810303,-0.63720703,2.4872315,0.0
15512,3.0458546,3.3343582,0.017848969,1.1352905,-1.0259033,1.6599244,0.0
15513,-3.5201159,6.4445267,-1.8721466,1.1352905,-1.0259033,1.6599244,0.0
15514,-3.5201159,6.4445267,-1.8721466,0.40250245,-1.2627319,0.91014403,0.0
15515,-5.0869913,7.7147293,-2.9767952,0.40250245,-1.2627319,0.91014403,0.0
15516,-5.0869913,7.7147293,-2.9767952,-0.36745605,-1.4071655,0.12319336,0.0
15517,-4.5471325,8.347076,-4.048805,-0.36745605,-1.4071655,0.12319336,0.0
15518,-4.5471325,8.347076,-4.048805,-1.081128,-1.4103516,-0.6202149,0.0
15519,-4.4101067,9.624573,-5.4656677,-1.081128,-1.4103516,-0.6202149,0.0
15520,-4.4101067,9.624573,-5.4656677,-1.0322754,-1.2765381,-0.97492677,0.0
15521,-5.4791718,10.998253,-6.5370255,-1.0322754,-1.2765381,-0.97492677,0.0
15522,-5.4791718,10.998253,-6.5370255,-0.7497803,-1.453894,-1.177771,0.0
15523,-6.993384,11.564018,-6.6062202,-0.7497803,-1.453894,-1.177771,0.0
15524,-6.993384,11.564018,-6.6062202,-0.88996583,-1.4804443,-2.0964112,0.0
15525,-7.2770557,10.238937,-5.414261,-0.88996583,-1.4804443,-2.0964112,0.0
15526,-7.2770557,10.238937,-5.414261,-0.5214478,-1.536731,-2.899292,0.0
15527,-4.9952044,6.7542114,-3.2563858,-0.5214478,-1.536731,-2.899292,0.0
15528,-4.9952044,6.7542114,-3.2563858,0.12213135,-1.6333741,-3.3718872,0.0
15529,-1.3630824,2.9680786,-1.0786934,0.12213135,-1.6333741,-3.3718872,0.0
15530,-1.3630824,2.9680786,-1.0786934,-0.22196046,-1.6907227,-3.6788087,0.0
15531,1.5637455,0.3880005,0.27021027,-0.22196046,-1.6907227,-3.6788087,0.0
15532,1.5637455,0.3880005,0.27021027,-1.0503296,-1.7024049,-3.8147461,0.0
15533,3.6261187,-0.6512451,0.23542786,-1.0503296,-1.7024049,-3.8147461,0.0
15534,3.6261187,-0.6512451,0.23542786,-0.9526245,-1.0620117,-4.088745,0.0
15535,5.153471,-0.4962616,-0.27561188,-0.9526245,-1.0620117,-4.088745,0.0
15536,5.153471,-0.4962616,-0.27561188,-0.5161377,-0.83686525,-2.6730835,0.0
15537,7.3653917,-2.5376205,1.4412308,-0.5161377,-0.83686525,-2.6730835,0.0
15538,7.3653917,-2.5376205,1.4412308,-0.96218264,-1.6578003,-2.176062,0.0
15539,12.356449,-8.5106735,4.4433517,-0.96218264,-1.6578003,-2.176062,0.0
15540,12.356449,-8.5106735,4.4433517,-1.4804443,1.0450195,-2.258899,0.0
15541,16.10159,-12.648819,5.749138,-1.4804443,1.0450195,-2.258899,0.0
15542,16.10159,-12.648819,5.749138,-2.8483155,1.363623,-2.075171,0.0
15543,12.681822,-10.962448,5.4453163,-2.8483155,1.363623,-2.075171,0.0
15544,12.681822,-10.962448,5.4453163,-3.635266,1.4931885,-1.2489258,0.0
15545,4.847105,-7.2686768,4.535389,-3.635266,1.4931885,-1.2489258,0.0
15546,4.847105,-7.2686768,4.535389,-3.0086792,1.2499878,-1.265918,0.0
15547,-2.1901512,-4.893776,3.1478195,-3.0086792,1.2499878,-1.265918,0.0
15548,-2.1901512,-4.893776,3.1478195,-1.9169312,0.6966797,-1.5292969,0.0
15549,-7.8805275,-3.2127762,1.7112846,-1.9169312,0.6966797,-1.5292969,0.0
15550,-7.8805275,-3.2127762,1.7112846,-1.4868164,0.5214478,-1.2202514,0.0
15551,-12.302567,-1.1994705,0.38982773,-1.4868164,0.5214478,-1.2202514,0.0
15552,-12.302567,-1.1994705,0.38982773,-1.0322754,0.49064943,-0.14549561,0.0
15553,-14.295105,0.73638153,-0.70910645,-1.0322754,0.49064943,-0.14549561,0.0
15554,-14.295105,0.73638153,-0.70910645,-1.4581422,0.814563,0.47790527,0.0
15555,-14.287867,2.3761902,-1.2473869,-1.4581422,0.814563,0.47790527,0.0
15556,-14.287867,2.3761902,-1.2473869,-2.0156982,1.179895,0.90695804,0.0
15557,-13.751912,3.7258453,-1.5889511,-2.0156982,1.179895,0.90695804,0.0
15558,-13.751912,3.7258453,-1.5889511,-1.9360474,1.4188477,1.1172364,0.0
15559,-12.615849,3.5631943,-2.2637138,-1.9360474,1.4188477,1.1172364,0.0
15560,-12.615849,3.5631943,-2.2637138,-0.8889038,0.8857178,1.6524903,0.0
15561,-10.235501,1.5868225,-2.2346878,-0.8889038,0.8857178,1.6524903,0.0
15562,-10.235501,1.5868225,-2.2346878,0.052038576,0.60109866,1.896753,0.0
15563,-6.956431,0.12675476,-0.7361641,0.052038576,0.60109866,1.896753,0.0
15564,-6.956431,0.12675476,-0.7361641,0.26337892,0.80606693,2.3247437,0.0
15565,-3.5242877,0.14636993,1.129158,0.26337892,0.80606693,2.3247437,0.0
15566,-3.5242877,0.14636993,1.129158,0.9834229,0.8857178,3.059656,0.0
15567,-0.30702782,-0.13837433,2.0495758,0.9834229,0.8857178,3.059656,0.0
15568,-0.30702782,-0.13837433,2.0495758,2.0475585,0.9281983,3.7489014,0.0
15569,2.7075882,-2.1468658,1.9014778,2.0475585,0.9281983,3.7489014,0.0
15570,2.7075882,-2.1468658,1.9014778,3.611902,0.9122681,4.268225,0.0
15571,6.024371,-5.2023773,1.90308,3.611902,0.9122681,4.268225,0.0
15572,6.024371,-5.2023773,1.90308,4.9946413,1.0067872,4.2066283,0.0
15573,8.672842,-7.4296646,3.3540192,4.9946413,1.0067872,4.2066283,0.0
15574,8.672842,-7.4296646,3.3540192,4.079187,0.78376466,4.342566,0.0
15575,12.2235155,-8.270927,6.029125,4.079187,0.78376466,4.342566,0.0
15576,12.2235155,-8.270927,6.029125,1.0651978,1.4326538,3.798816,0.0
15577,18.369926,-7.3000183,7.529976,1.0651978,1.4326538,3.798816,0.0
15578,18.369926,-7.3000183,7.529976,0.02442627,0.58623046,2.4139526,0.0
15579,18.364117,-4.0964355,5.1499557,0.02442627,0.58623046,2.4139526,0.0
15580,18.364117,-4.0964355,5.1499557,0.5734863,0.1359375,2.439441,0.0
15581,8.723764,0.16560364,0.31534958,0.5734863,0.1359375,2.439441,0.0
15582,8.723764,0.16560364,0.31534958,0.25063476,-0.6510132,1.4857544,0.0
15583,-0.6119423,4.2750626,-3.5550232,0.25063476,-0.6510132,1.4857544,0.0
15584,-0.6119423,4.2750626,-3.5550232,-0.4800293,-1.5112427,1.0620117,0.0
15585,-4.8618193,7.6064987,-5.1622086,-0.4800293,-1.5112427,1.0620117,0.0
15586,-4.8618193,7.6064987,-5.1622086,-0.63933104,-1.7778076,0.5787964,0.0
15587,-5.771755,9.632217,-5.7515564,-0.63933104,-1.7778076,0.5787964,0.0
15588,-5.771755,9.632217,-5.7515564,-0.38551027,-1.9806519,0.15505372,0.0
15589,-5.708701,10.697754,-6.7611694,-0.38551027,-1.9806519,0.15505372,0.0
15590,-5.708701,10.697754,-6.7611694,-0.1985962,-2.0231323,0.19222413,0.0
15591,-5.9273734,11.527527,-7.7136993,-0.1985962,-2.0231323,0.19222413,0.0
15592,-5.9273734,11.527527,-7.7136993,-0.025488282,-2.2397828,-0.24744873,0.0
15593,-6.3544235,11.75325,-7.637291,-0.025488282,-2.2397828,-0.24744873,0.0
15594,-6.3544235,11.75325,-7.637291,-0.1083252,-2.3162477,-1.2627319,0.0
15595,-5.9751525,10.057678,-6.3160095,-0.1083252,-2.3162477,-1.2627319,0.0
15596,-5.9751525,10.057678,-6.3160095,-0.020178223,-2.3874023,-2.171814,0.0
15597,-3.7965283,6.5659943,-4.006054,-0.020178223,-2.3874023,-2.171814,0.0
15598,-3.7965283,6.5659943,-4.006054,0.40037844,-2.5775025,-3.0405395,0.0
15599,-0.31629992,2.8286743,-1.5400352,0.40037844,-2.5775025,-3.0405395,0.0
15600,-0.31629992,2.8286743,-1.5400352,0.40037844,-2.5775025,-3.0405395,110.0
15601,-0.31629992,2.8286743,-1.5400352,0.2527588,-2.5721924,-3.4557862,110.0
15602,3.3117795,0.010253906,-0.023311615,0.2527588,-2.5721924,-3.4557862,110.0
15603,3.3117795,0.010253906,-0.023311615,-0.8358032,-2.2344728,-3.7531495,110.0
15604,5.771079,-0.5689087,0.026416779,-0.8358032,-2.2344728,-3.7531495,110.0
15605,5.771079,-0.5689087,0.026416779,-1.176709,-1.7140869,-4.2968993,110.0
15606,6.0859795,0.7474823,-0.49884796,-1.176709,-1.7140869,-4.2968993,110.0
15607,6.0859795,0.7474823,-0.49884796,-1.5261109,-1.8022339,-3.5428712,110.0
15608,6.455576,0.4271469,0.50938034,-1.5261109,-1.8022339,-3.5428712,110.0
15609,6.455576,0.4271469,0.50938034,-2.0932252,-1.9859619,-2.355542,110.0
15610,10.732015,-5.58622,3.68116,-2.0932252,-1.9859619,-2.355542,110.0
15611,10.732015,-5.58622,3.68116,-2.0411866,0.5278198,-3.0469117,110.0
15612,15.616495,-12.492622,7.337433,-2.0411866,0.5278198,-3.0469117,110.0
15613,15.616495,-12.492622,7.337433,-3.4228637,1.3901733,-2.5583863,110.0
15614,13.858137,-13.47274,8.955372,-3.4228637,1.3901733,-2.5583863,110.0
15615,13.858137,-13.47274,8.955372,-4.2990236,1.9827759,-1.5823975,110.0
15616,5.987999,-10.171211,7.058159,-4.2990236,1.9827759,-1.5823975,110.0
15617,5.987999,-10.171211,7.058159,-4.806665,1.6907227,-1.6046997,110.0
15618,-2.8747387,-6.7744293,3.0812683,-4.806665,1.6907227,-1.6046997,110.0
15619,-2.8747387,-6.7744293,3.0812683,-4.430713,0.75721437,-1.5908936,110.0
15620,-2.8747387,-6.7744293,3.0812683,-3.449414,0.632959,-0.7965088,110.0
15621,-10.09885,-4.596596,-0.2651863,-3.449414,0.632959,-0.7965088,110.0
15622,-22.636917,-0.3118744,-1.5601959,-3.449414,0.632959,-0.7965088,110.0
15623,-22.636917,-0.3118744,-1.5601959,-2.812207,0.9632446,-0.20603028,110.0
15624,-22.636917,-0.3118744,-1.5601959,-2.7697265,1.4315919,0.77526855,110.0
15625,-22.636917,-0.3118744,-1.5601959,-2.531836,1.4050416,1.906311,110.0
15626,-20.585571,1.8013458,-2.293972,-2.531836,1.4050416,1.906311,110.0
15627,-20.585571,1.8013458,-2.293972,-1.8861328,1.0513916,2.2100465,110.0
15628,-16.978308,2.1906738,-3.8368263,-1.8861328,1.0513916,2.2100465,110.0
15629,-16.978308,2.1906738,-3.8368263,-0.5809204,0.46728516,2.2111084,110.0
15630,-12.162371,0.8558121,-3.8807297,-0.5809204,0.46728516,2.2111084,110.0
15631,-12.162371,0.8558121,-3.8807297,0.58304447,0.23045655,2.4043946,110.0
15632,-7.181594,-0.32587433,-1.8395538,0.58304447,0.23045655,2.4043946,110.0
15633,-7.181594,-0.32587433,-1.8395538,1.4230957,0.18266602,3.149927,110.0
15634,-2.8582878,-0.44987488,0.35108566,1.4230957,0.18266602,3.149927,110.0
15635,-2.8582878,-0.44987488,0.35108566,2.6868896,-0.16885987,4.1078615,110.0
15636,0.5060334,-0.83834076,1.1339684,2.6868896,-0.16885987,4.1078615,110.0
15637,0.5060334,-0.83834076,1.1339684,2.6762695,0.12531738,4.3043337,110.0
15638,3.777239,-2.5540848,1.1467628,2.6762695,0.12531738,4.3043337,110.0
15639,3.777239,-2.5540848,1.1467628,2.9619508,0.48533937,4.5995727,110.0
15640,6.610439,-5.349716,2.1877213,2.9619508,0.48533937,4.5995727,110.0
15641,6.610439,-5.349716,2.1877213,3.4632204,0.59897465,5.0562377,110.0
15642,8.409445,-8.669373,4.2454414,3.4632204,0.59897465,5.0562377,110.0
15643,8.409445,-8.669373,4.2454414,3.4632204,1.2021973,4.6441774,110.0
15644,11.98344,-10.686493,5.834366,3.4632204,1.2021973,4.6441774,110.0
15645,11.98344,-10.686493,5.834366,3.5917237,-0.21983643,3.809436,110.0
15646,16.462864,-9.560921,5.5989265,3.5917237,-0.21983643,3.809436,110.0
15647,16.462864,-9.560921,5.5989265,3.9666138,-0.37807617,2.9672608,110.0
15648,13.728555,-4.0726395,3.221218,3.9666138,-0.37807617,2.9672608,110.0
15649,13.728555,-4.0726395,3.221218,1.536731,-0.69136965,2.7484863,110.0
15650,4.546356,3.3313904,0.14189148,1.536731,-0.69136965,2.7484863,110.0
15651,4.546356,3.3313904,0.14189148,-0.43861085,-1.2117554,2.1112792,110.0
15652,-2.710168,8.145592,-2.118187,-0.43861085,-1.2117554,2.1112792,110.0
15653,-2.710168,8.145592,-2.118187,-0.9133301,-1.5632813,1.6609863,110.0
15654,-5.292035,9.493294,-3.7089195,-0.9133301,-1.5632813,1.6609863,110.0
15655,-5.292035,9.493294,-3.7089195,-0.5543701,-1.7767457,0.8931519,110.0
15656,-5.0070047,10.155365,-5.3626556,-0.5543701,-1.7767457,0.8931519,110.0
15657,-5.0070047,10.155365,-5.3626556,-0.542688,-1.8287842,0.2548828,110.0
15658,-4.790333,11.809792,-7.1876564,-0.542688,-1.8287842,0.2548828,110.0
15659,-4.790333,11.809792,-7.1876564,-0.98236084,-2.0634887,-0.15186767,110.0
15660,-5.6349883,14.214043,-8.294525,-0.98236084,-2.0634887,-0.15186767,110.0
15661,-5.6349883,14.214043,-8.294525,-1.720459,-1.9509156,-1.0110352,110.0
15662,-6.3419266,15.30661,-7.5114975,-1.720459,-1.9509156,-1.0110352,110.0
15663,-6.3419266,15.30661,-7.5114975,-1.5781494,-1.7363892,-2.6454713,110.0
15664,-5.017243,12.154137,-4.801338,-1.5781494,-1.7363892,-2.6454713,110.0
15665,-5.017243,12.154137,-4.801338,-0.24213867,-2.0263183,-3.712793,110.0
15666,-1.8281131,6.4273834,-1.752327,-0.24213867,-2.0263183,-3.712793,110.0
15667,-1.8281131,6.4273834,-1.752327,-0.35895997,-2.2822633,-4.5549684,110.0
15668,1.3600802,1.9996109,0.09379196,-0.35895997,-2.2822633,-4.5549684,110.0
15669,1.3600802,1.9996109,0.09379196,-0.7062378,-2.0709229,-4.7525024,110.0
15670,3.7168608,-0.49746704,0.3827591,-0.7062378,-2.0709229,-4.7525024,110.0
15671,3.7168608,-0.49746704,0.3827591,-0.9451904,-1.531421,-5.329175,110.0
15672,4.7399926,-1.7334137,0.21941376,-0.9451904,-1.531421,-5.329175,110.0
15673,4.7399926,-1.7334137,0.21941376,-1.1915772,-1.4082276,-5.5628176,110.0
15674,4.500869,-1.5059662,0.9227333,-1.1915772,-1.4082276,-5.5628176,110.0
15675,4.500869,-1.5059662,0.9227333,-1.448584,-2.1495118,-4.5401,110.0
15676,6.015173,-1.2125702,2.9578514,-1.448584,-2.1495118,-4.5401,110.0
15677,6.015173,-1.2125702,2.9578514,-1.9041871,-2.3905885,-1.8563966,110.0
15678,12.596661,-5.716362,3.7703705,-1.9041871,-2.3905885,-1.8563966,110.0
15679,12.596661,-5.716362,3.7703705,-2.1102173,1.4719483,-3.4770265,110.0
15680,17.30981,-12.020515,3.6389542,-2.1102173,1.4719483,-3.4770265,110.0
15681,17.30981,-12.020515,3.6389542,-3.4048097,1.3742431,-2.7930908,110.0
15682,13.257578,-12.965622,5.408539,-3.4048097,1.3742431,-2.7930908,110.0
15683,13.257578,-12.965622,5.408539,-4.4073486,2.0411866,-1.7809937,110.0
15684,5.4340534,-9.683838,6.7774887,-4.4073486,2.0411866,-1.7809937,110.0
15685,5.4340534,-9.683838,6.7774887,-4.6579833,2.362976,-1.5600952,110.0
15686,-1.3900127,-6.9314423,4.5364685,-4.6579833,2.362976,-1.5600952,110.0
15687,-1.3900127,-6.9314423,4.5364685,-3.9655519,1.3742431,-1.5972656,110.0
15688,-8.115782,-5.456581,0.717041,-3.9655519,1.3742431,-1.5972656,110.0
15689,-8.115782,-5.456581,0.717041,-3.3039186,0.8400513,-0.813501,110.0
15690,-14.183055,-3.6774445,-1.503212,-3.3039186,0.8400513,-0.813501,110.0
15691,-14.183055,-3.6774445,-1.503212,-2.9279664,0.90802,0.090270996,110.0
15692,-17.624777,-1.0992203,-1.5909615,-2.9279664,0.90802,0.090270996,110.0
15693,-17.624777,-1.0992203,-1.5909615,-3.08833,1.2436157,0.97386473,110.0
15694,-18.307,1.5095901,-1.0646172,-3.08833,1.2436157,0.97386473,110.0
15695,-18.307,1.5095901,-1.0646172,-3.0256715,1.5335449,1.9987061,110.0
15696,-17.326887,2.9574127,-1.7796249,-3.0256715,1.5335449,1.9987061,110.0
15697,-17.326887,2.9574127,-1.7796249,-1.8001099,0.84748536,2.6783936,110.0
15698,-14.433457,2.2492218,-3.7782898,-1.8001099,0.84748536,2.6783936,110.0
15699,-14.433457,2.2492218,-3.7782898,0.27718505,0.41418457,2.255713,110.0
15700,-9.757826,0.25453186,-4.92395,0.27718505,0.41418457,2.255713,110.0
15701,-9.757826,0.25453186,-4.92395,1.2797241,-0.30161133,2.5966187,110.0
15702,-4.9649887,-0.7502823,-3.4149933,1.2797241,-0.30161133,2.5966187,110.0
15703,-4.9649887,-0.7502823,-3.4149933,2.9545166,-0.3536499,2.9162843,110.0
15704,-0.6915102,-0.28064728,-0.44628906,2.9545166,-0.3536499,2.9162843,110.0
15705,-0.6915102,-0.28064728,-0.44628906,2.0464966,-0.17523193,3.8083742,110.0
15706,2.7851343,-0.022918701,1.2892456,2.0464966,-0.17523193,3.8083742,110.0
15707,2.7851343,-0.022918701,1.2892456,2.4978516,0.35152587,4.9319825,110.0
15708,6.27458,-2.5913467,1.9858856,2.4978516,0.35152587,4.9319825,110.0
15709,6.27458,-2.5913467,1.9858856,4.3977904,0.24638672,5.217664,110.0
15710,9.80631,-7.336052,3.2456055,4.3977904,0.24638672,5.217664,110.0
15711,9.80631,-7.336052,3.2456055,5.2017336,0.96430665,6.0311646,110.0
15712,12.973429,-10.928368,5.1771736,5.2017336,0.96430665,6.0311646,110.0
15713,12.973429,-10.928368,5.1771736,3.6543825,1.0120972,5.260144,110.0
15714,17.289644,-10.976471,6.895279,3.6543825,1.0120972,5.260144,110.0
15715,17.289644,-10.976471,6.895279,3.4249878,0.24851075,4.1174197,110.0
15716,18.11708,-6.3650513,6.028221,3.4249878,0.24851075,4.1174197,110.0
15717,18.11708,-6.3650513,6.028221,3.0076172,-0.47471926,3.809436,110.0
15718,10.418358,0.87561035,2.7427444,3.0076172,-0.47471926,3.809436,110.0
15719,10.418358,0.87561035,2.7427444,1.0120972,-0.99722904,3.2359498,110.0
15720,0.034234047,7.060997,-0.18413544,1.0120972,-0.99722904,3.2359498,110.0
15721,0.034234047,7.060997,-0.18413544,0.04885254,-1.5197388,2.8100832,110.0
15722,-5.4760065,10.212479,-2.0297928,0.04885254,-1.5197388,2.8100832,110.0
15723,-5.4760065,10.212479,-2.0297928,0.026550293,-1.9997681,1.8542725,110.0
15724,-5.593342,11.645226,-3.8802185,0.026550293,-1.9997681,1.8542725,110.0
15725,-5.593342,11.645226,-3.8802185,0.026550293,-1.9997681,1.8542725,111.0
15726,-5.593342,11.645226,-3.8802185,-0.3525879,-2.1229615,0.69349366,111.0
15727,-4.546939,13.215134,-6.3871346,-0.3525879,-2.1229615,0.69349366,111.0
15728,-4.546939,13.215134,-6.3871346,-0.6988037,-2.2004883,0.32072756,111.0
15729,-4.843753,14.724205,-8.517311,-0.6988037,-2.2004883,0.32072756,111.0
15730,-4.843753,14.724205,-8.517311,-0.7986328,-2.3183715,-0.27506104,111.0
15731,-6.0902367,14.914391,-8.35844,-0.7986328,-2.3183715,-0.27506104,111.0
15732,-6.0902367,14.914391,-8.35844,-1.4517701,-2.077295,-1.6631104,111.0
15733,-6.078537,12.800667,-5.499241,-1.4517701,-2.077295,-1.6631104,111.0
15734,-6.078537,12.800667,-5.499241,0.28355715,-2.5562623,-2.6879518,111.0
15735,-3.3747196,8.321518,-2.033966,0.28355715,-2.5562623,-2.6879518,111.0
15736,-3.3747196,8.321518,-2.033966,0.07965088,-2.8100832,-3.7308471,111.0
15737,0.32028008,3.834694,-0.037792206,0.07965088,-2.8100832,-3.7308471,111.0
15738,0.32028008,3.834694,-0.037792206,-0.54906005,-2.4723632,-4.4073486,111.0
15739,3.1406112,1.040535,0.5872345,-0.54906005,-2.4723632,-4.4073486,111.0
15740,3.1406112,1.040535,0.5872345,-1.075818,-2.4086425,-4.7726808,111.0
15741,4.8019543,-0.91251755,0.42749023,-1.075818,-2.4086425,-4.7726808,111.0
15742,4.8019543,-0.91251755,0.42749023,-1.6970948,-1.9211792,-5.350415,111.0
15743,5.1202135,-1.2475815,-0.3255005,-1.6970948,-1.9211792,-5.350415,111.0
15744,5.1202135,-1.2475815,-0.3255005,-2.1293335,-1.1352905,-4.4625735,111.0
15745,5.1367836,-0.8077545,0.21221924,-2.1293335,-1.1352905,-4.4625735,111.0
15746,5.1367836,-0.8077545,0.21221924,-2.4150147,-1.7310791,-2.6390991,111.0
15747,8.629056,-4.774971,3.1676636,-2.4150147,-1.7310791,-2.6390991,111.0
15748,8.629056,-4.774971,3.1676636,-1.6599244,0.21983643,-3.9326293,111.0
15749,15.013413,-11.766754,5.131321,-1.6599244,0.21983643,-3.9326293,111.0
15750,15.013413,-11.766754,5.131321,-1.8659546,2.1134033,-3.618274,111.0
15751,15.76001,-14.217453,6.0364304,-1.8659546,2.1134033,-3.618274,111.0
15752,15.76001,-14.217453,6.0364304,-3.8593507,1.9286133,-2.8769898,111.0
15753,8.579834,-10.784424,6.480583,-3.8593507,1.9286133,-2.8769898,111.0
15754,8.579834,-10.784424,6.480583,-5.0063233,2.4128907,-2.3810303,111.0
15755,0.3323593,-6.6531525,4.2208824,-5.0063233,2.4128907,-2.3810303,111.0
15756,0.3323593,-6.6531525,4.2208824,-5.4863524,2.0029542,-2.1473877,111.0
15757,-6.078974,-5.1869965,0.978878,-5.4863524,2.0029542,-2.1473877,111.0
15758,-6.078974,-5.1869965,0.978878,-4.5677123,1.0259033,-2.0305665,111.0
15759,-6.078974,-5.1869965,0.978878,-4.1917605,0.7965088,-1.720459,111.0
15760,-11.806124,-4.7715607,-0.34035873,-4.1917605,0.7965088,-1.720459,111.0
15761,-23.986988,-0.30867767,-1.4704285,-4.1917605,0.7965088,-1.720459,111.0
15762,-23.986988,-0.30867767,-1.4704285,-3.798816,0.9366943,0.27399904,111.0
15763,-23.986988,-0.30867767,-1.4704285,-3.6788087,0.99510497,0.3727661,111.0
15764,-23.986988,-0.30867767,-1.4704285,-2.4649293,0.9653687,1.9137452,111.0
15765,-23.093668,2.3281784,-2.873413,-2.4649293,0.9653687,1.9137452,111.0
15766,-23.093668,2.3281784,-2.873413,-1.9116211,0.88040775,1.7416992,111.0
15767,-18.701157,1.528801,-2.958229,-1.9116211,0.88040775,1.7416992,111.0
15768,-18.701157,1.528801,-2.958229,-0.26019287,-0.18903808,2.4882934,111.0
15769,-12.834351,-0.85359955,-2.7651558,-0.26019287,-0.18903808,2.4882934,111.0
15770,-12.834351,-0.85359955,-2.7651558,0.10620117,-0.0053100586,2.8759277,111.0
15771,-8.971899,-1.4119263,-1.3615036,0.10620117,-0.0053100586,2.8759277,111.0
15772,-8.971899,-1.4119263,-1.3615036,1.9222412,0.2166504,4.223621,111.0
15773,-1.9716597,-2.8018723,2.430378,1.9222412,0.2166504,4.223621,111.0
15774,-1.9716597,-2.8018723,2.430378,2.3183715,0.18266602,4.8395877,111.0
15775,0.11223507,-3.2569504,2.5261116,2.3183715,0.18266602,4.8395877,111.0
15776,0.11223507,-3.2569504,2.5261116,2.1112792,1.0290893,5.465112,111.0
15777,6.3810115,-6.7024307,2.3987083,2.1112792,1.0290893,5.465112,111.0
15778,6.3810115,-6.7024307,2.3987083,2.5849366,1.1490967,5.8400025,111.0
15779,7.1786985,-7.4173355,2.6215897,2.5849366,1.1490967,5.8400025,111.0
15780,7.1786985,-7.4173355,2.6215897,3.9347534,2.8164551,6.8117433,111.0
15781,14.531313,-13.047638,5.74588,3.9347534,2.8164551,6.8117433,111.0
15782,14.531313,-13.047638,5.74588,3.9198854,1.902063,5.8559327,111.0
15783,15.299953,-11.042397,5.7345314,3.9198854,1.902063,5.8559327,111.0
15784,15.299953,-11.042397,5.7345314,2.9460206,-0.20709229,3.8497925,111.0
15785,17.240047,-3.690239,3.6216583,2.9460206,-0.20709229,3.8497925,111.0
15786,17.240047,-3.690239,3.6216583,2.263147,-0.6669434,3.526941,111.0
15787,10.965635,1.4352951,1.2911491,2.263147,-0.6669434,3.526941,111.0
15788,10.965635,1.4352951,1.2911491,0.7423462,-1.8362182,3.1021364,111.0
15789,10.965635,1.4352951,1.2911491,0.56392825,-2.4086425,2.70813,111.0
15790,-3.9995375,12.30101,-3.7471733,0.56392825,-2.4086425,2.70813,111.0
15791,-7.3408775,19.032684,-8.681271,0.56392825,-2.4086425,2.70813,111.0
15792,-7.3408775,19.032684,-8.681271,0.4970215,-3.4887085,1.1448487,111.0
15793,-7.3408775,19.032684,-8.681271,0.34940186,-3.5524292,0.7051758,111.0
15794,-7.3408775,19.032684,-8.681271,-0.06159668,-3.9517457,0.03079834,111.0
15795,-5.7286835,19.844887,-9.469894,-0.06159668,-3.9517457,0.03079834,111.0
15796,-5.7286835,19.844887,-9.469894,-0.4598511,-3.805188,-0.40356445,111.0
15797,-4.654297,17.050926,-8.27179,-0.4598511,-3.805188,-0.40356445,111.0
15798,-4.654297,17.050926,-8.27179,-1.1310425,-3.1053224,-2.2387207,111.0
15799,-4.632886,14.2834015,-5.4503517,-1.1310425,-3.1053224,-2.2387207,111.0
15800,-4.632886,14.2834015,-5.4503517,-0.43011475,-3.1085083,-2.9194703,111.0
15801,-3.064402,10.437927,-3.4534798,-0.43011475,-3.1085083,-2.9194703,111.0
15802,-3.064402,10.437927,-3.4534798,0.7412842,-3.3793213,-3.5694215,111.0
15803,-0.7865925,5.359131,-0.6175194,0.7412842,-3.3793213,-3.5694215,111.0
15804,-0.7865925,5.359131,-0.6175194,0.115759276,-3.1424928,-4.258667,111.0
15805,1.3021107,1.967453,0.9646759,0.115759276,-3.1424928,-4.258667,111.0
15806,1.3021107,1.967453,0.9646759,-0.36108398,-3.0925782,-5.0073853,111.0
15807,3.2099261,0.5366821,0.8921013,-0.36108398,-3.0925782,-5.0073853,111.0
15808,3.2099261,0.5366821,0.8921013,-1.1512207,-2.5552003,-5.3323607,111.0
15809,4.6104946,0.7406006,-0.46043015,-1.1512207,-2.5552003,-5.3323607,111.0
15810,4.6104946,0.7406006,-0.46043015,-1.6450561,-1.6981567,-5.1879272,111.0
15811,5.403887,1.4272461,-0.55478287,-1.6450561,-1.6981567,-5.1879272,111.0
15812,5.403887,1.4272461,-0.55478287,-2.5828125,-2.8323853,-2.9109743,111.0
15813,9.24695,-0.9809723,2.7789383,-2.5828125,-2.8323853,-2.9109743,111.0
15814,9.24695,-0.9809723,2.7789383,-2.9534547,1.0195312,-3.986792,111.0
15815,22.383034,-11.126991,6.168537,-2.9534547,1.0195312,-3.986792,111.0
15816,22.383034,-11.126991,6.168537,-2.456433,1.9169312,-3.268872,111.0
15817,20.343683,-11.763435,5.2790184,-2.456433,1.9169312,-3.268872,111.0
15818,20.343683,-11.763435,5.2790184,-3.8232422,2.3173096,-2.438379,111.0
15819,12.970478,-11.008743,4.429306,-3.8232422,2.3173096,-2.438379,111.0
15820,12.970478,-11.008743,4.429306,-5.28457,2.5976808,-1.3731812,111.0
15821,0.45639992,-6.7825165,3.6551132,-5.28457,2.5976808,-1.3731812,111.0
15822,0.45639992,-6.7825165,3.6551132,-5.9228396,2.0528686,-1.7268311,111.0
15823,-9.937956,-4.0615616,2.883297,-5.9228396,2.0528686,-1.7268311,111.0
15824,-9.937956,-4.0615616,2.883297,-5.408826,0.8581055,-1.7055908,111.0
15825,-16.408203,-3.566864,1.6420746,-5.408826,0.8581055,-1.7055908,111.0
15826,-16.408203,-3.566864,1.6420746,-3.9464357,1.09281,-0.73597413,111.0
15827,-19.2011,-3.8081055,-0.10762024,-3.9464357,1.09281,-0.73597413,111.0
15828,-19.2011,-3.8081055,-0.10762024,-3.2189577,1.5218629,-0.07540283,111.0
15829,-19.2011,-3.8081055,-0.10762024,-3.2189577,1.5218629,-0.07540283,110.0
15830,-18.951809,-3.08712,-1.4932632,-3.2189577,1.5218629,-0.07540283,110.0
15831,-18.951809,-3.08712,-1.4932632,-3.5938478,1.8542725,1.2436157,110.0
15832,-17.736692,-0.9781265,-2.2114182,-3.5938478,1.8542725,1.2436157,110.0
15833,-17.736692,-0.9781265,-2.2114182,-3.8572266,1.621692,2.3098755,110.0
15834,-16.360216,1.1057434,-3.2544365,-3.8572266,1.621692,2.3098755,110.0
15835,-16.360216,1.1057434,-3.2544365,-2.541394,0.9526245,3.003369,110.0
15836,-13.312452,0.28269196,-4.419079,-2.541394,0.9526245,3.003369,110.0
15837,-13.312452,0.28269196,-4.419079,-0.012744141,0.59472656,2.9332764,110.0
15838,-8.567894,-2.7748108,-3.7045517,-0.012744141,0.59472656,2.9332764,110.0
15839,-8.567894,-2.7748108,-3.7045517,1.7013428,0.540564,3.815808,110.0
15840,-4.0842714,-4.2893066,-1.1067429,1.7013428,0.540564,3.815808,110.0
15841,-4.0842714,-4.2893066,-1.1067429,3.8625367,0.13168946,4.889502,110.0
15842,-0.36187553,-2.990326,0.9085617,3.8625367,0.13168946,4.889502,110.0
15843,-0.36187553,-2.990326,0.9085617,1.9764038,0.5522461,5.4682984,110.0
15844,3.0890398,-0.9823456,1.3620796,1.9764038,0.5522461,5.4682984,110.0
15845,3.0890398,-0.9823456,1.3620796,1.0174073,0.62127686,5.815576,110.0
15846,5.576334,-1.4725723,1.5738564,1.0174073,0.62127686,5.815576,110.0
15847,5.576334,-1.4725723,1.5738564,2.1335816,0.67650145,5.9472656,110.0
15848,7.0980062,-5.1976852,2.1084976,2.1335816,0.67650145,5.9472656,110.0
15849,7.0980062,-5.1976852,2.1084976,2.078357,1.6694825,6.0141726,110.0
15850,9.248717,-9.559151,3.1238556,2.078357,1.6694825,6.0141726,110.0
15851,9.248717,-9.559151,3.1238556,1.7597535,0.9802368,5.1029663,110.0
15852,13.008923,-11.183456,4.665127,1.7597535,0.9802368,5.1029663,110.0
15853,13.008923,-11.183456,4.665127,2.4702394,-0.74447024,3.812622,110.0
15854,14.686973,-7.252495,4.4180145,2.4702394,-0.74447024,3.812622,110.0
15855,14.686973,-7.252495,4.4180145,1.2882203,-1.5229248,3.2136476,110.0
15856,8.967083,0.9118271,1.5079346,1.2882203,-1.5229248,3.2136476,110.0
15857,8.967083,0.9118271,1.5079346,0.6924316,-2.2461548,2.5658205,110.0
15858,0.071969986,8.070694,-1.4192734,0.6924316,-2.2461548,2.5658205,110.0
15859,0.071969986,8.070694,-1.4192734,-0.20390625,-2.9332764,1.8617066,110.0
15860,-4.760722,11.93045,-2.9350662,-0.20390625,-2.9332764,1.8617066,110.0
15861,-4.760722,11.93045,-2.9350662,-0.3706421,-3.3973756,0.71579593,110.0
15862,-4.5085535,13.577782,-3.960968,-0.3706421,-3.3973756,0.71579593,110.0
15863,-4.5085535,13.577782,-3.960968,-0.3355957,-3.5120728,-0.24957275,110.0
15864,-2.3602734,14.394043,-5.0695953,-0.3355957,-3.5120728,-0.24957275,110.0
15865,-2.3602734,14.394043,-5.0695953,0.1709839,-3.3017945,-0.79119873,110.0
15866,-1.495482,15.474686,-5.2792854,0.1709839,-3.3017945,-0.79119873,110.0
15867,-1.495482,15.474686,-5.2792854,-0.7519043,-3.3283448,-1.0354614,110.0
15868,-2.417992,15.375015,-4.42437,-0.7519043,-3.3283448,-1.0354614,110.0
15869,-2.417992,15.375015,-4.42437,-0.87615967,-3.073462,-2.4086425,110.0
15870,-2.973957,11.705696,-3.5988083,-0.87615967,-3.073462,-2.4086425,110.0
15871,-2.973957,11.705696,-3.5988083,0.13699952,-3.1828492,-3.6087158,110.0
15872,-1.2788849,6.387718,-2.7094574,0.13699952,-3.1828492,-3.6087158,110.0
15873,-1.2788849,6.387718,-2.7094574,0.43117675,-3.1339967,-4.1652102,110.0
15874,1.7603517,2.4085007,-1.1473885,0.43117675,-3.1339967,-4.1652102,110.0
15875,1.7603517,2.4085007,-1.1473885,0.08920898,-2.9290283,-3.98573,110.0
15876,4.2630787,0.011894226,0.2783394,0.08920898,-2.9290283,-3.98573,110.0
15877,4.2630787,0.011894226,0.2783394,-0.7327881,-2.3449218,-4.70896,110.0
15878,5.04944,-0.75675964,0.87550354,-0.7327881,-2.3449218,-4.70896,110.0
15879,5.04944,-0.75675964,0.87550354,-1.0280274,-1.9902099,-4.809851,110.0
15880,4.8546524,-0.09038544,1.1311531,-1.0280274,-1.9902099,-4.809851,110.0
15881,4.8546524,-0.09038544,1.1311531,-2.7707887,-1.2468017,-3.8561647,110.0
15882,6.66712,-0.9558258,2.6553612,-2.7707887,-1.2468017,-3.8561647,110.0
15883,6.66712,-0.9558258,2.6553612,-4.0229006,-1.897815,-2.6879518,110.0
15884,13.012541,-7.567322,4.09227,-4.0229006,-1.897815,-2.6879518,110.0
15885,13.012541,-7.567322,4.09227,-2.166504,1.6567383,-3.164795,110.0
15886,17.885227,-15.2314,4.278221,-2.166504,1.6567383,-3.164795,110.0
15887,17.885227,-15.2314,4.278221,-2.253589,2.4787354,-2.5626342,110.0
15888,14.220707,-15.646484,5.3520927,-2.253589,2.4787354,-2.5626342,110.0
15889,14.220707,-15.646484,5.3520927,-3.6958008,2.5743165,-1.4592041,110.0
15890,5.0244427,-9.784996,6.198105,-3.6958008,2.5743165,-1.4592041,110.0
15891,5.0244427,-9.784996,6.198105,-4.9033084,2.6550293,-1.4634522,110.0
15892,-3.7295074,-4.5058136,3.7103996,-4.9033084,2.6550293,-1.4634522,110.0
15893,-3.7295074,-4.5058136,3.7103996,-4.2076907,1.7608155,-1.7724975,110.0
15894,-10.690868,-3.0928802,-0.46489716,-4.2076907,1.7608155,-1.7724975,110.0
15895,-10.690868,-3.0928802,-0.46489716,-2.8546875,1.1682129,-1.2372437,110.0
15896,-10.690868,-3.0928802,-0.46489716,-2.3672242,1.1119263,0.09239502,110.0
15897,-16.02983,-3.409134,-2.8422432,-2.3672242,1.1119263,0.09239502,110.0
15898,-24.498878,3.0869522,-1.7669716,-2.3672242,1.1119263,0.09239502,110.0
15899,-24.498878,3.0869522,-1.7669716,-3.003369,1.5462891,1.1544068,110.0
15900,-24.498878,3.0869522,-1.7669716,-3.6140258,1.8702027,1.8840088,110.0
15901,-24.498878,3.0869522,-1.7669716,-2.9173462,1.4740723,2.5074098,110.0
15902,-19.760052,0.055656433,-4.369217,-2.9173462,1.4740723,2.5074098,110.0
15903,-19.760052,0.055656433,-4.369217,-0.16354981,0.62340087,2.8621216,110.0
15904,-19.760052,0.055656433,-4.369217,1.8925049,0.2538208,3.1467407,110.0
15905,-13.5805025,-2.7749176,-3.381569,1.8925049,0.2538208,3.1467407,110.0
15906,-13.5805025,-2.7749176,-3.381569,3.0235474,0.33134767,3.8497925,110.0
15907,-7.8147073,-2.1673813,-0.6242485,3.0235474,0.33134767,3.8497925,110.0
15908,-7.8147073,-2.1673813,-0.6242485,2.2249146,0.3345337,4.6781616,110.0
15909,-2.357259,-0.38819122,0.8212433,2.2249146,0.3345337,4.6781616,110.0
15910,-2.357259,-0.38819122,0.8212433,1.9902099,0.16885987,4.9372926,110.0
15911,1.8952597,-1.0779877,0.1845932,1.9902099,0.16885987,4.9372926,110.0
15912,1.8952597,-1.0779877,0.1845932,2.0974731,0.5320679,5.459802,110.0
15913,4.432321,-4.8125916,0.41781616,2.0974731,0.5320679,5.459802,110.0
15914,4.432321,-4.8125916,0.41781616,2.4670532,1.0705079,5.8166385,110.0
15915,7.5555615,-9.527412,2.689293,2.4670532,1.0705079,5.8166385,110.0
15916,7.5555615,-9.527412,2.689293,1.2977784,1.5855836,5.170935,110.0
15917,12.976274,-11.633743,4.870804,1.2977784,1.5855836,5.170935,110.0
15918,12.976274,-11.633743,4.870804,0.6988037,-0.5320679,3.8285522,110.0
15919,16.287868,-9.096161,4.61034,0.6988037,-0.5320679,3.8285522,110.0
15920,16.287868,-9.096161,4.61034,1.5855836,-1.171399,3.1478028,110.0
15921,10.802255,-2.475769,2.1613197,1.5855836,-1.171399,3.1478028,110.0
15922,10.802255,-2.475769,2.1613197,1.081128,-1.7863038,2.6635253,110.0
15923,1.2981262,5.0799713,-0.4212761,1.081128,-1.7863038,2.6635253,110.0
15924,1.2981262,5.0799713,-0.4212761,0.37489015,-2.3587282,1.8627685,110.0
15925,-4.2846804,10.450554,-1.9867516,0.37489015,-2.3587282,1.8627685,110.0
15926,-4.2846804,10.450554,-1.9867516,-0.124255374,-2.7431762,1.1522827,110.0
15927,-5.354027,13.058022,-3.0062485,-0.124255374,-2.7431762,1.1522827,110.0
15928,-5.354027,13.058022,-3.0062485,-0.2442627,-2.5477662,0.57242435,110.0
15929,-4.377472,14.058899,-3.5206108,-0.2442627,-2.5477662,0.57242435,110.0
15930,-4.377472,14.058899,-3.5206108,0.060534667,-2.4256349,-0.25063476,110.0
15931,-3.9001102,14.469322,-3.6222382,0.060534667,-2.4256349,-0.25063476,110.0
15932,-3.9001102,14.469322,-3.6222382,-0.2803711,-2.3672242,-0.55543214,110.0
15933,-4.9398637,14.553543,-4.025097,-0.2803711,-2.3672242,-0.55543214,110.0
15934,-4.9398637,14.553543,-4.025097,-0.6403931,-2.3385499,-1.7650635,110.0
15935,-5.6735344,12.636513,-4.3578835,-0.6403931,-2.3385499,-1.7650635,110.0
15936,-5.6735344,12.636513,-4.3578835,-0.11469727,-2.16969,-3.0564697,110.0
15937,-3.639914,8.476212,-3.5036545,-0.11469727,-2.16969,-3.0564697,110.0
15938,-3.639914,8.476212,-3.5036545,0.52038574,-2.0964112,-3.4865844,110.0
15939,0.120820045,4.834511,-1.7504463,0.52038574,-2.0964112,-3.4865844,110.0
15940,0.120820045,4.834511,-1.7504463,-0.13699952,-1.8871949,-3.7244751,110.0
15941,2.6275396,2.4549713,-0.35443497,-0.13699952,-1.8871949,-3.7244751,110.0
15942,2.6275396,2.4549713,-0.35443497,-0.7858887,-1.6471802,-4.4126587,110.0
15943,3.4597836,0.5880356,0.23875427,-0.7858887,-1.6471802,-4.4126587,110.0
15944,3.4597836,0.5880356,0.23875427,-1.1193603,-1.622754,-4.8385253,110.0
15945,3.6709518,-0.58553314,0.27054596,-1.1193603,-1.622754,-4.8385253,110.0
15946,3.6709518,-0.58553314,0.27054596,-1.3476928,-1.2999023,-5.0041995,110.0
15947,4.093585,-0.91615295,0.6761894,-1.3476928,-1.2999023,-5.0041995,110.0
15948,4.093585,-0.91615295,0.6761894,-1.9689697,-1.3434448,-3.8487306,110.0
15949,6.739663,-3.4141235,3.0514145,-1.9689697,-1.3434448,-3.8487306,110.0
15950,6.739663,-3.4141235,3.0514145,-2.2981935,-1.4379638,-3.2147095,110.0
15951,13.017854,-9.993492,5.729828,-2.2981935,-1.4379638,-3.2147095,110.0
15952,13.017854,-9.993492,5.729828,-1.273352,1.2361816,-3.4154298,110.0
15953,16.706923,-15.523148,6.700989,-1.273352,1.2361816,-3.4154298,110.0
15954,16.706923,-15.523148,6.700989,-2.3385499,1.1395386,-2.7527344,110.0
15955,12.027843,-14.58622,6.412216,-2.3385499,1.1395386,-2.7527344,110.0
15956,12.027843,-14.58622,6.412216,-3.6034057,1.6110718,-1.9254273,110.0
15957,12.027843,-14.58622,6.412216,-3.6034057,1.6110718,-1.9254273,110.0
15958,3.1631317,-9.298454,4.599598,-3.6034057,1.6110718,-1.9254273,110.0
15959,3.1631317,-9.298454,4.599598,-4.0866213,1.812854,-1.7990478,110.0
15960,-4.5072403,-5.103607,1.3029823,-4.0866213,1.812854,-1.7990478,110.0
15961,-4.5072403,-5.103607,1.3029823,-3.0660279,1.0513916,-1.896753,110.0
15962,-4.5072403,-5.103607,1.3029823,-1.996582,0.8729736,-0.74871826,110.0
15963,-10.899006,-3.358055,-1.7990341,-1.996582,0.8729736,-0.74871826,110.0
15964,-24.114578,2.0101013,-1.3753738,-1.996582,0.8729736,-0.74871826,110.0
15965,-24.114578,2.0101013,-1.3753738,-1.6801026,1.0259033,0.033984374,110.0
15966,-24.114578,2.0101013,-1.3753738,-2.4734254,1.5802735,1.1533448,110.0
15967,-24.114578,2.0101013,-1.3753738,-3.165857,1.8595825,2.52334,110.0
15968,-21.239172,4.113991,-2.7036896,-3.165857,1.8595825,2.52334,110.0
15969,-21.239172,4.113991,-2.7036896,-2.345984,1.2945923,2.3778443,110.0
15970,-17.399212,2.5153732,-5.044285,-2.345984,1.2945923,2.3778443,110.0
15971,-17.399212,2.5153732,-5.044285,0.88996583,0.24320069,2.803711,110.0
15972,-12.603231,-1.3525543,-4.6410446,0.88996583,0.24320069,2.803711,110.0
15973,-12.603231,-1.3525543,-4.6410446,2.177124,0.13275146,3.3623292,110.0
15974,-6.910967,-2.909752,-1.6955757,2.177124,0.13275146,3.3623292,110.0
15975,-6.910967,-2.909752,-1.6955757,3.1711671,0.18903808,3.9082031,110.0
15976,-1.2910781,-1.3646393,0.5266075,3.1711671,0.18903808,3.9082031,110.0
15977,-1.2910781,-1.3646393,0.5266075,1.9710938,0.58198243,4.51355,110.0
15978,2.950133,-0.32057953,0.95028687,1.9710938,0.58198243,4.51355,110.0
15979,2.950133,-0.32057953,0.95028687,2.7229981,0.55968016,5.177307,110.0
15980,5.949425,-2.0416336,1.4208374,2.7229981,0.55968016,5.177307,110.0
15981,5.949425,-2.0416336,1.4208374,2.717688,1.0428956,5.538391,110.0
15982,7.4832706,-4.981949,2.7301483,2.717688,1.0428956,5.538391,110.0
15983,7.4832706,-4.981949,2.7301483,2.275891,1.6747925,5.61167,110.0
15984,9.212593,-8.290016,4.4275284,2.275891,1.6747925,5.61167,110.0
15985,9.212593,-8.290016,4.4275284,2.252527,1.4677002,4.894812,110.0
15986,14.170588,-10.545662,5.83078,2.252527,1.4677002,4.894812,110.0
15987,14.170588,-10.545662,5.83078,1.3137085,-0.2357666,3.1977174,110.0
15988,16.789827,-7.444687,4.7806053,1.3137085,-0.2357666,3.1977174,110.0
15989,16.789827,-7.444687,4.7806053,1.2064453,-0.6223389,2.9290283,110.0
15990,9.6148205,0.10929108,1.2446632,1.2064453,-0.6223389,2.9290283,110.0
15991,9.6148205,0.10929108,1.2446632,0.49383545,-1.3041505,2.5052857,110.0
15992,-0.67353725,6.785309,-1.9404373,0.49383545,-1.3041505,2.5052857,110.0
15993,-0.67353725,6.785309,-1.9404373,0.34090576,-1.9073731,1.5845215,110.0
15994,-5.6355944,10.303513,-3.4008598,0.34090576,-1.9073731,1.5845215,110.0
15995,-5.6355944,10.303513,-3.4008598,-0.11682129,-2.2886353,0.83049315,110.0
15996,-5.575822,12.191368,-4.054077,-0.11682129,-2.2886353,0.83049315,110.0
15997,-5.575822,12.191368,-4.054077,-0.62764895,-2.2790773,-0.05628662,110.0
15998,-4.2066784,13.489777,-4.997658,-0.62764895,-2.2790773,-0.05628662,110.0
15999,-4.2066784,13.489777,-4.997658,-0.90908206,-2.446875,-0.75721437,110.0
16000,-4.0092635,13.791893,-6.1735535,-0.90908206,-2.446875,-0.75721437,110.0
16001,-4.0092635,13.791893,-6.1735535,-0.61915284,-2.6921997,-1.1480347,110.0
16002,-4.6133556,13.493134,-6.4584084,-0.61915284,-2.6921997,-1.1480347,110.0
16003,-4.6133556,13.493134,-6.4584084,-0.6414551,-2.3077514,-2.2440307,110.0
16004,-4.3533797,12.238663,-4.5348663,-0.6414551,-2.3077514,-2.2440307,110.0
16005,-4.3533797,12.238663,-4.5348663,-0.37595215,-2.078357,-3.0808961,110.0
16006,-2.734559,9.18441,-1.4354401,-0.37595215,-2.078357,-3.0808961,110.0
16007,-2.734559,9.18441,-1.4354401,0.08496094,-2.340674,-3.877405,110.0
16008,-0.80413914,4.8995056,0.6351814,0.08496094,-2.340674,-3.877405,110.0
16009,-0.80413914,4.8995056,0.6351814,-0.14124756,-2.156946,-4.8756957,110.0
16010,0.8784661,1.1058731,1.1165924,-0.14124756,-2.156946,-4.8756957,110.0
16011,0.8784661,1.1058731,1.1165924,-1.0290893,-1.8521484,-5.347229,110.0
16012,2.553945,-1.0073166,0.6111679,-1.0290893,-1.8521484,-5.347229,110.0
16013,2.553945,-1.0073166,0.6111679,-0.8209351,-1.5547851,-5.609546,110.0
16014,3.9850016,-1.5756912,-0.012527466,-0.8209351,-1.5547851,-5.609546,110.0
16015,3.9850016,-1.5756912,-0.012527466,-0.6988037,-0.5171997,-3.9251955,110.0
16016,5.2824717,-2.2798233,1.3428802,-0.6988037,-0.5171997,-3.9251955,110.0
16017,5.2824717,-2.2798233,1.3428802,-0.009558106,-0.7975708,-2.2132325,110.0
16018,7.896534,-6.563362,4.5934944,-0.009558106,-0.7975708,-2.2132325,110.0
16019,7.896534,-6.563362,4.5934944,-0.5628662,-0.29948732,-2.8631837,110.0
16020,11.913614,-11.810616,6.078289,-0.5628662,-0.29948732,-2.8631837,110.0
16021,11.913614,-11.810616,6.078289,-1.5144287,1.0620117,-3.350647,110.0
16022,13.829561,-12.786301,5.486618,-1.5144287,1.0620117,-3.350647,110.0
16023,13.829561,-12.786301,5.486618,-3.4982667,1.2542359,-3.1201904,110.0
16024,9.303408,-9.8386,5.0984497,-3.4982667,1.2542359,-3.1201904,110.0
16025,9.303408,-9.8386,5.0984497,-4.2437987,1.5038086,-1.9541016,110.0
16026,1.2707901,-6.4985657,4.3108864,-4.2437987,1.5038086,-1.9541016,110.0
16027,1.2707901,-6.4985657,4.3108864,-3.7690797,1.177771,-1.4708862,110.0
16028,-5.293049,-5.2395782,1.9214249,-3.7690797,1.177771,-1.4708862,110.0
16029,-5.293049,-5.2395782,1.9214249,-2.3279297,0.44710693,-1.3073364,110.0
16030,-10.134158,-4.232872,-0.70248413,-2.3279297,0.44710693,-1.3073364,110.0
16031,-10.134158,-4.232872,-0.70248413,-2.3746583,0.7104859,-0.4725952,110.0
16032,-13.12803,-1.3965302,-2.0145416,-2.3746583,0.7104859,-0.4725952,110.0
16033,-13.12803,-1.3965302,-2.0145416,-2.8674316,0.998291,-0.26656494,110.0
16034,-15.073311,2.0993576,-2.3423462,-2.8674316,0.998291,-0.26656494,110.0
16035,-15.073311,2.0993576,-2.3423462,-4.0303345,1.4602661,0.05522461,110.0
16036,-16.991486,4.332344,-3.0697632,-4.0303345,1.4602661,0.05522461,110.0
16037,-16.991486,4.332344,-3.0697632,-4.015466,0.99085695,1.5144287,110.0
16038,-17.191334,3.7473907,-4.4032974,-4.015466,0.99085695,1.5144287,110.0
16039,-17.191334,3.7473907,-4.4032974,-1.6100098,0.11257324,1.9158691,110.0
16040,-13.586185,0.2643051,-4.7024345,-1.6100098,0.11257324,1.9158691,110.0
16041,-13.586185,0.2643051,-4.7024345,0.9281983,-0.35577393,1.9328613,110.0
16042,-7.908267,-2.5189285,-2.9814796,0.9281983,-0.35577393,1.9328613,110.0
16043,-7.908267,-2.5189285,-2.9814796,2.1314576,-0.5055176,2.5987427,110.0
16044,-2.9547024,-2.12471,-0.20089722,2.1314576,-0.5055176,2.5987427,110.0
16045,-2.9547024,-2.12471,-0.20089722,2.812207,-0.5150757,3.8455446,110.0
16046,1.3252516,-0.8495941,1.2576027,2.812207,-0.5150757,3.8455446,110.0
16047,1.3252516,-0.8495941,1.2576027,2.450061,0.21027832,4.347876,110.0
16048,5.7200646,-2.0063477,1.0971947,2.450061,0.21027832,4.347876,110.0
16049,5.7200646,-2.0063477,1.0971947,3.177539,0.21346436,5.4523683,110.0
16050,10.125234,-5.7656403,1.7915726,3.177539,0.21346436,5.4523683,110.0
16051,10.125234,-5.7656403,1.7915726,2.1303957,1.7321411,6.035413,110.0
16052,13.964262,-9.659256,4.373726,2.1303957,1.7321411,6.035413,110.0
16053,13.964262,-9.659256,4.373726,1.6174439,1.544165,5.725305,110.0
16054,17.725254,-11.641228,7.1305466,1.6174439,1.544165,5.725305,110.0
16055,17.725254,-11.641228,7.1305466,2.2780151,0.17523193,4.494434,110.0
16056,19.372173,-9.720535,6.56633,2.2780151,0.17523193,4.494434,110.0
16057,19.372173,-9.720535,6.56633,2.2780151,0.17523193,4.494434,110.0
16058,19.372173,-9.720535,6.56633,1.454956,-0.4354248,4.171582,110.0
16059,13.146481,-2.959549,2.7614365,1.454956,-0.4354248,4.171582,110.0
16060,13.146481,-2.959549,2.7614365,1.6461182,-0.64782715,3.7733276,110.0
16061,1.9782076,4.5462036,-0.9561806,1.6461182,-0.64782715,3.7733276,110.0
16062,1.9782076,4.5462036,-0.9561806,1.3349488,-1.0269654,3.0989501,110.0
16063,-5.3719263,9.190086,-3.4338875,1.3349488,-1.0269654,3.0989501,110.0
16064,-5.3719263,9.190086,-3.4338875,0.87615967,-1.5802735,2.1272094,110.0
16065,-6.9976997,11.4492035,-5.084572,0.87615967,-1.5802735,2.1272094,110.0
16066,-6.9976997,11.4492035,-5.084572,0.3727661,-1.9859619,1.2319336,110.0
16067,-6.0554476,12.932518,-6.386898,0.3727661,-1.9859619,1.2319336,110.0
16068,-6.0554476,12.932518,-6.386898,-0.2824951,-2.0411866,0.56817627,110.0
16069,-5.114939,14.561592,-7.145775,-0.2824951,-2.0411866,0.56817627,110.0
16070,-5.114939,14.561592,-7.145775,-0.77102053,-2.0709229,0.16779785,110.0
16071,-5.2642536,15.763084,-6.8459167,-0.77102053,-2.0709229,0.16779785,110.0
16072,-5.2642536,15.763084,-6.8459167,-1.0237793,-2.1388917,-0.58623046,110.0
16073,-5.9626603,14.331558,-5.693741,-1.0237793,-2.1388917,-0.58623046,110.0
16074,-5.9626603,14.331558,-5.693741,-1.0959961,-2.1038454,-2.1197755,110.0
16075,-5.3106313,9.688011,-4.069824,-1.0959961,-2.1038454,-2.1197755,110.0
16076,-5.3106313,9.688011,-4.069824,0.22302246,-2.5944946,-3.0564697,110.0
16077,-2.5741398,4.719696,-2.413662,0.22302246,-2.5944946,-3.0564697,110.0
16078,-2.5741398,4.719696,-2.413662,0.4439209,-2.6157348,-3.886963,110.0
16079,0.8777609,1.7192001,-0.9343262,0.4439209,-2.6157348,-3.886963,110.0
16080,0.8777609,1.7192001,-0.9343262,-0.2803711,-2.258899,-4.2119384,110.0
16081,3.6240592,0.20852661,0.30223465,-0.2803711,-2.258899,-4.2119384,110.0
16082,3.6240592,0.20852661,0.30223465,-0.07965088,-2.1431396,-4.326636,110.0
16083,5.129057,-0.88144684,1.0278702,-0.07965088,-2.1431396,-4.326636,110.0
16084,5.129057,-0.88144684,1.0278702,-0.1263794,-2.0932252,-4.3043337,110.0
16085,5.3609724,-1.578537,1.2871399,-0.1263794,-2.0932252,-4.3043337,110.0
16086,5.3609724,-1.578537,1.2871399,-0.75615233,-2.0284424,-3.9220092,110.0
16087,6.7111654,-3.0254364,2.630516,-0.75615233,-2.0284424,-3.9220092,110.0
16088,12.621313,-7.4161377,4.934845,-0.75615233,-2.0284424,-3.9220092,110.0
16089,12.621313,-7.4161377,4.934845,-1.3466309,-2.7378662,-3.5842896,110.0
16090,12.621313,-7.4161377,4.934845,-1.6790406,0.12850343,-3.5407472,110.0
16091,18.507902,-11.456642,6.302017,-1.6790406,0.12850343,-3.5407472,110.0
16092,18.507902,-11.456642,6.302017,-2.9311523,0.6903076,-2.897168,110.0
16093,16.012596,-11.589485,6.7600822,-2.9311523,0.6903076,-2.897168,110.0
16094,16.012596,-11.589485,6.7600822,-3.8434205,1.2340577,-2.085791,110.0
16095,7.2345524,-9.166367,5.872383,-3.8434205,1.2340577,-2.085791,110.0
16096,7.2345524,-9.166367,5.872383,-3.7712038,1.4815063,-1.9190552,110.0
16097,7.2345524,-9.166367,5.872383,-2.5583863,0.7858887,-1.9466676,110.0
16098,-1.7662525,-6.3606796,3.368061,-2.5583863,0.7858887,-1.9466676,110.0
16099,-22.319324,-1.4579391,-0.105358124,-2.5583863,0.7858887,-1.9466676,110.0
16100,-22.319324,-1.4579391,-0.105358124,-1.6493043,0.5671143,-1.4592041,110.0
16101,-22.319324,-1.4579391,-0.105358124,-1.8022339,0.65632325,-0.7720825,110.0
16102,-22.319324,-1.4579391,-0.105358124,-3.4738405,1.1915772,0.0053100586,110.0
16103,-21.424711,1.4371796,-0.46757507,-3.4738405,1.1915772,0.0053100586,110.0
16104,-21.424711,1.4371796,-0.46757507,-4.8395877,1.7767457,0.81668705,110.0
16105,-20.047398,2.5844345,-2.2849731,-4.8395877,1.7767457,0.81668705,110.0
16106,-20.047398,2.5844345,-2.2849731,-3.6108398,1.4145997,2.0645509,110.0
16107,-17.210209,-0.02558136,-3.9874763,-3.6108398,1.4145997,2.0645509,110.0
16108,-17.210209,-0.02558136,-3.9874763,0.37382814,0.3419678,2.5445802,110.0
16109,-12.446196,-4.0119095,-3.1262589,0.37382814,0.3419678,2.5445802,110.0
16110,-12.446196,-4.0119095,-3.1262589,2.088977,0.2814331,2.879114,110.0
16111,-7.2330914,-4.40683,-0.84095,2.088977,0.2814331,2.879114,110.0
16112,-7.2330914,-4.40683,-0.84095,2.4914796,0.36427003,3.7404053,110.0
16113,-2.5532699,-1.4033813,0.37561798,2.4914796,0.36427003,3.7404053,110.0
16114,-2.5532699,-1.4033813,0.37561798,1.6461182,0.66481936,4.777991,110.0
16115,1.2649894,0.74224854,0.021881104,1.6461182,0.66481936,4.777991,110.0
16116,1.2649894,0.74224854,0.021881104,2.1123414,0.6244629,5.0105715,110.0
16117,4.573637,-1.6324844,-0.12420654,2.1123414,0.6244629,5.0105715,110.0
16118,4.573637,-1.6324844,-0.12420654,3.797754,0.6595093,5.0562377,110.0
16119,7.6356797,-6.7440033,1.2985458,3.797754,0.6595093,5.0562377,110.0
16120,7.6356797,-6.7440033,1.2985458,4.821533,1.7586914,5.798584,110.0
16121,11.805944,-10.142403,3.585186,4.821533,1.7586914,5.798584,110.0
16122,11.805944,-10.142403,3.585186,1.2797241,2.5870607,4.3744264,110.0
16123,17.82559,-10.682434,5.444542,1.2797241,2.5870607,4.3744264,110.0
16124,17.82559,-10.682434,5.444542,-0.0031860352,0.46516114,3.6819947,110.0
16125,19.447851,-7.575302,4.50119,-0.0031860352,0.46516114,3.6819947,110.0
16126,19.447851,-7.575302,4.50119,0.3982544,-0.29948732,3.9135132,110.0
16127,11.47094,-1.0670776,1.0830688,0.3982544,-0.29948732,3.9135132,110.0
16128,11.47094,-1.0670776,1.0830688,0.13275146,-0.89846194,3.4026856,110.0
16129,0.87511635,5.4272537,-1.6156731,0.13275146,-0.89846194,3.4026856,110.0
16130,0.87511635,5.4272537,-1.6156731,1.1915772,-1.5611572,2.7962768,110.0
16131,-4.964446,9.785553,-3.0622253,1.1915772,-1.5611572,2.7962768,110.0
16132,-4.964446,9.785553,-3.0622253,0.60959476,-2.2227905,1.7034668,110.0
16133,-6.1236687,12.858322,-4.8425903,0.60959476,-2.2227905,1.7034668,110.0
16134,-6.1236687,12.858322,-4.8425903,-0.635083,-2.5116577,0.5363159,110.0
16135,-5.788889,15.031548,-6.8749275,-0.635083,-2.5116577,0.5363159,110.0
16136,-5.788889,15.031548,-6.8749275,-0.81881106,-2.4054565,0.07327881,110.0
16137,-5.6320887,15.50145,-7.2300835,-0.81881106,-2.4054565,0.07327881,110.0
16138,-5.6320887,15.50145,-7.2300835,0.0063720704,-2.6847656,-0.6425171,110.0
16139,-5.5581,14.300682,-5.3170776,0.0063720704,-2.6847656,-0.6425171,110.0
16140,-5.5581,14.300682,-5.3170776,-0.39613038,-2.340674,-1.7873658,110.0
16141,-5.001766,11.565544,-3.05521,-0.39613038,-2.340674,-1.7873658,110.0
16142,-5.001766,11.565544,-3.05521,-0.54375,-2.163318,-2.7909667,110.0
16143,-3.6037326,7.7702255,-1.5843811,-0.54375,-2.163318,-2.7909667,110.0
16144,-3.6037326,7.7702255,-1.5843811,0.06159668,-2.2971313,-3.702173,110.0
16145,-1.7419338,3.7201462,-0.641552,0.06159668,-2.2971313,-3.702173,110.0
16146,-1.7419338,3.7201462,-0.641552,0.45560303,-2.4192626,-4.680286,110.0
16147,0.40976095,0.50949097,-0.031234741,0.45560303,-2.4192626,-4.680286,110.0
16148,0.40976095,0.50949097,-0.031234741,-0.16142578,-2.2047365,-4.613379,110.0
16149,2.9746718,-0.92905426,0.16304779,-0.16142578,-2.2047365,-4.613379,110.0
16150,2.9746718,-0.92905426,0.16304779,-0.53737795,-1.6801026,-4.1758304,110.0
16151,5.0230484,-1.0759354,0.43911743,-0.53737795,-1.6801026,-4.1758304,110.0
16152,5.0230484,-1.0759354,0.43911743,-0.68287355,-1.3699951,-3.799878,110.0
16153,6.0480537,-2.2070007,2.3123283,-0.68287355,-1.3699951,-3.799878,110.0
16154,6.0480537,-2.2070007,2.3123283,-2.3693483,-1.905249,-3.606592,110.0
16155,8.605985,-5.9289703,5.136238,-2.3693483,-1.905249,-3.606592,110.0
16156,8.605985,-5.9289703,5.136238,-1.9254273,-0.7614624,-3.715979,110.0
16157,14.570506,-10.277138,5.4092827,-1.9254273,-0.7614624,-3.715979,110.0
16158,14.570506,-10.277138,5.4092827,-2.272705,1.177771,-3.361267,110.0
16159,16.067636,-11.897179,5.0605583,-2.272705,1.177771,-3.361267,110.0
16160,16.067636,-11.897179,5.0605583,-2.9300904,1.1852051,-2.6847656,110.0
16161,8.832783,-9.707748,5.8750305,-2.9300904,1.1852051,-2.6847656,110.0
16162,8.832783,-9.707748,5.8750305,-3.4122436,1.4592041,-1.9976441,110.0
16163,0.48188782,-6.137451,4.9915924,-3.4122436,1.4592041,-1.9976441,110.0
16164,0.48188782,-6.137451,4.9915924,-3.173291,1.171399,-1.7969239,110.0
16165,-5.7246704,-4.043007,1.8371086,-3.173291,1.171399,-1.7969239,110.0
16166,-5.7246704,-4.043007,1.8371086,-2.3109376,0.6977417,-1.6779785,110.0
16167,-5.7246704,-4.043007,1.8371086,-2.3183715,0.6425171,-0.815625,110.0
16168,-11.590698,-3.386383,-0.72798157,-2.3183715,0.6425171,-0.815625,110.0
16169,-21.174585,0.18169403,-0.7190666,-2.3183715,0.6425171,-0.815625,110.0
16170,-21.174585,0.18169403,-0.7190666,-3.2338257,1.0875,0.09451904,110.0
16171,-21.174585,0.18169403,-0.7190666,-4.5645266,1.6195679,0.814563,110.0
16172,-20.093416,2.309883,-2.070858,-4.5645266,1.6195679,0.814563,110.0
16173,-20.093416,2.309883,-2.070858,-4.1099854,1.7894897,1.7809937,110.0
16174,-17.231705,1.179863,-4.7031937,-4.1099854,1.7894897,1.7809937,110.0
16175,-17.231705,1.179863,-4.7031937,-0.7954468,0.6573853,2.4861696,110.0
16176,-12.879455,-2.6529694,-5.614128,-0.7954468,0.6573853,2.4861696,110.0
16177,-12.879455,-2.6529694,-5.614128,1.1289185,0.22514649,2.7782228,110.0
16178,-8.274878,-3.8717651,-3.559311,1.1289185,0.22514649,2.7782228,110.0
16179,-8.274878,-3.8717651,-3.559311,1.8255981,0.3717041,2.9407105,110.0
16180,-4.3061447,-1.0051041,-0.47512054,1.8255981,0.3717041,2.9407105,110.0
16181,-4.3061447,-1.0051041,-0.47512054,0.9802368,0.4694092,4.2161865,110.0
16182,-0.9208679,1.8801804,1.1002502,0.9802368,0.4694092,4.2161865,110.0
16183,-0.9208679,1.8801804,1.1002502,1.3806152,0.35152587,4.433899,110.0
16184,2.461658,0.890213,0.37095642,1.3806152,0.35152587,4.433899,110.0
16185,2.461658,0.890213,0.37095642,3.0065553,0.39400634,4.5655885,110.0
16186,2.461658,0.890213,0.37095642,3.0065553,0.39400634,4.5655885,109.0
16187,5.794693,-3.770752,5.9890747E-4,3.0065553,0.39400634,4.5655885,109.0
16188,5.794693,-3.770752,5.9890747E-4,4.4137206,0.46622315,5.0180054,109.0
16189,8.437927,-8.322647,2.4379578,4.4137206,0.46622315,5.0180054,109.0
16190,8.437927,-8.322647,2.4379578,3.25188,1.6737305,5.216602,109.0
16191,11.841321,-10.636765,6.1501694,3.25188,1.6737305,5.216602,109.0
16192,11.841321,-10.636765,6.1501694,1.5133667,1.3349488,4.5783324,109.0
16193,17.490513,-10.088402,7.792534,1.5133667,1.3349488,4.5783324,109.0
16194,17.490513,-10.088402,7.792534,0.3971924,-0.13381349,3.7743897,109.0
16195,18.010405,-6.089897,5.660843,0.3971924,-0.13381349,3.7743897,109.0
16196,18.010405,-6.089897,5.660843,1.2531738,-0.6053467,3.8508546,109.0
16197,9.109592,0.41716766,1.679821,1.2531738,-0.6053467,3.8508546,109.0
16198,9.109592,0.41716766,1.679821,1.3232666,-0.9568726,3.1998413,109.0
16199,-0.49795818,6.2117233,-1.5745506,1.3232666,-0.9568726,3.1998413,109.0
16200,-0.49795818,6.2117233,-1.5745506,0.92501223,-1.5962037,2.3289917,109.0
16201,-4.909524,9.943939,-3.8237534,0.92501223,-1.5962037,2.3289917,109.0
16202,-4.909524,9.943939,-3.8237534,0.17416993,-1.8542725,1.3848633,109.0
16203,-5.2590647,12.472755,-5.1513863,0.17416993,-1.8542725,1.3848633,109.0
16204,-5.2590647,12.472755,-5.1513863,-0.27399904,-1.7268311,0.5713623,109.0
16205,-4.300831,14.289246,-5.646,-0.27399904,-1.7268311,0.5713623,109.0
16206,-4.300831,14.289246,-5.646,-1.3487549,-1.4655762,-0.41418457,109.0
16207,-4.3985014,15.01049,-6.006325,-1.3487549,-1.4655762,-0.41418457,109.0
16208,-4.3985014,15.01049,-6.006325,-1.7002808,-1.6981567,-1.0588257,109.0
16209,-5.8176904,14.103622,-6.0144577,-1.7002808,-1.6981567,-1.0588257,109.0
16210,-5.8176904,14.103622,-6.0144577,-1.26167,-1.8298463,-2.165442,109.0
16211,-5.961318,10.57357,-4.995613,-1.26167,-1.8298463,-2.165442,109.0
16212,-5.961318,10.57357,-4.995613,-0.16885987,-2.2238526,-3.256128,109.0
16213,-3.0516596,5.9925156,-3.1263466,-0.16885987,-2.2238526,-3.256128,109.0
16214,-3.0516596,5.9925156,-3.1263466,0.032922365,-2.3980224,-3.7276611,109.0
16215,0.9693899,2.6471634,-1.3930588,0.032922365,-2.3980224,-3.7276611,109.0
16216,0.9693899,2.6471634,-1.3930588,-0.39082032,-2.162256,-4.1206055,109.0
16217,3.357592,0.68507385,-0.66754913,-0.39082032,-2.162256,-4.1206055,109.0
16218,3.357592,0.68507385,-0.66754913,-0.6881836,-1.8574585,-4.239551,109.0
16219,3.751357,-0.19055176,-0.5722122,-0.6881836,-1.8574585,-4.239551,109.0
16220,3.751357,-0.19055176,-0.5722122,-0.6117188,-1.4825684,-3.9804199,109.0
16221,3.7150383,-1.3319473,0.38233948,-0.6117188,-1.4825684,-3.9804199,109.0
16222,3.7150383,-1.3319473,0.38233948,-1.809668,-1.2903442,-4.0473266,109.0
16223,5.4502897,-4.6123962,2.5167007,-1.809668,-1.2903442,-4.0473266,109.0
16224,5.4502897,-4.6123962,2.5167007,-2.4755495,-1.1501588,-5.2643924,109.0
16225,9.934938,-9.18763,4.44244,-2.4755495,-1.1501588,-5.2643924,109.0
16226,9.934938,-9.18763,4.44244,-2.628479,0.6159668,-4.0473266,109.0
16227,14.420608,-12.986969,6.304634,-2.628479,0.6159668,-4.0473266,109.0
16228,14.420608,-12.986969,6.304634,-2.989563,0.76464844,-3.6501343,109.0
16229,13.127527,-13.674904,7.9309387,-2.989563,0.76464844,-3.6501343,109.0
16230,13.127527,-13.674904,7.9309387,-2.6072388,0.95793456,-2.972571,109.0
16231,6.3935375,-10.752518,6.9295044,-2.6072388,0.95793456,-2.972571,109.0
16232,6.3935375,-10.752518,6.9295044,-1.9445435,0.96218264,-2.717688,109.0
16233,-1.2584724,-6.60466,3.522522,-1.9445435,0.96218264,-2.717688,109.0
16234,-1.2584724,-6.60466,3.522522,-1.3328247,0.5692383,-2.4012086,109.0
16235,-8.037846,-3.2379074,0.8469963,-1.3328247,0.5692383,-2.4012086,109.0
16236,-8.037846,-3.2379074,0.8469963,-1.4708862,0.5140137,-1.9158691,109.0
16237,-12.447793,-0.40396118,-0.23723221,-1.4708862,0.5140137,-1.9158691,109.0
16238,-12.447793,-0.40396118,-0.23723221,-2.6157348,0.49277344,-1.268042,109.0
16239,-14.631293,2.2618408,-1.2042999,-2.6157348,0.49277344,-1.268042,109.0
16240,-14.631293,2.2618408,-1.2042999,-3.9453735,1.1055542,-0.8230591,109.0
16241,-16.541534,3.7769089,-2.7754745,-3.9453735,1.1055542,-0.8230591,109.0
16242,-16.541534,3.7769089,-2.7754745,-4.603821,2.0135744,-1.0269654,109.0
16243,-19.07257,2.3925247,-3.7208328,-4.603821,2.0135744,-1.0269654,109.0
16244,-19.07257,2.3925247,-3.7208328,-1.4921265,1.1905152,1.3699951,109.0
16245,-19.731836,-0.5021286,-3.2157516,-1.4921265,1.1905152,1.3699951,109.0
16246,-19.731836,-0.5021286,-3.2157516,-0.45772704,0.6149048,2.9332764,109.0
16247,-14.953829,-1.537056,-2.40699,-0.45772704,0.6149048,2.9332764,109.0
16248,-14.953829,-1.537056,-2.40699,-0.3440918,0.7412842,2.3842163,109.0
16249,-6.4048595,-1.1436081,-1.1503868,-0.3440918,0.7412842,2.3842163,109.0
16250,-6.4048595,-1.1436081,-1.1503868,0.47896728,0.7975708,3.7860718,109.0
16251,0.9209242,-1.1023178,0.98856354,0.47896728,0.7975708,3.7860718,109.0
16252,0.9209242,-1.1023178,0.98856354,1.260608,1.1129884,5.0201297,109.0
16253,5.7950892,-2.4175491,2.232891,1.260608,1.1129884,5.0201297,109.0
16254,5.7950892,-2.4175491,2.232891,2.4118288,1.1161743,4.9330444,109.0
16255,8.869299,-4.90065,2.2219086,2.4118288,1.1161743,4.9330444,109.0
16256,8.869299,-4.90065,2.2219086,3.0331056,1.075818,5.413074,109.0
16257,8.572661,-5.331505,2.1385727,3.0331056,1.075818,5.413074,109.0
16258,8.572661,-5.331505,2.1385727,5.2197876,1.080066,6.18197,109.0
16259,11.055456,-8.233009,4.772381,5.2197876,1.080066,6.18197,109.0
16260,11.055456,-8.233009,4.772381,5.8378787,0.89846194,5.9355836,109.0
16261,11.333903,-7.1702194,5.201683,5.8378787,0.89846194,5.9355836,109.0
16262,11.333903,-7.1702194,5.201683,3.346399,1.1172364,4.229993,109.0
16263,20.792416,-4.440628,5.7657166,3.346399,1.1172364,4.229993,109.0
16264,20.792416,-4.440628,5.7657166,2.433069,0.4715332,3.5694215,109.0
16265,18.577183,-1.2341919,3.7754402,2.433069,0.4715332,3.5694215,109.0
16266,18.577183,-1.2341919,3.7754402,1.9264892,-0.2081543,3.2263916,109.0
16267,6.8715,9.09053,-3.3554764,1.9264892,-0.2081543,3.2263916,109.0
16268,6.8715,9.09053,-3.3554764,1.2234375,-0.5055176,2.8748658,109.0
16269,0.9678545,10.440361,-5.0417404,1.2234375,-0.5055176,2.8748658,109.0
16270,0.9678545,10.440361,-5.0417404,-0.37701416,-1.4241577,1.807544,109.0
16271,-8.3755455,14.749176,-8.16346,-0.37701416,-1.4241577,1.807544,109.0
16272,-8.3755455,14.749176,-8.16346,-0.80394286,-1.6439942,1.4337158,109.0
16273,-7.4893894,12.75045,-7.253914,-0.80394286,-1.6439942,1.4337158,109.0
16274,-7.4893894,12.75045,-7.253914,-0.5734863,-2.266333,0.31223145,109.0
16275,-6.6855907,11.544403,-7.328388,-0.5734863,-2.266333,0.31223145,109.0
16276,-6.6855907,11.544403,-7.328388,-0.32709962,-2.5679443,-0.0180542,109.0
16277,-5.654063,9.546936,-6.3096085,-0.32709962,-2.5679443,-0.0180542,109.0
16278,-5.654063,9.546936,-6.3096085,0.14549561,-2.9619508,-0.2888672,109.0
16279,-6.6518393,9.458641,-5.0293884,0.14549561,-2.9619508,-0.2888672,109.0
16280,-6.6518393,9.458641,-5.0293884,-0.10089111,-2.8398194,-0.9345703,109.0
16281,-5.255492,8.266655,-3.829956,-0.10089111,-2.8398194,-0.9345703,109.0
16282,-5.255492,8.266655,-3.829956,-0.6796875,-2.2047365,-2.3672242,109.0
16283,-3.3005123,6.5171814,-1.2050781,-0.6796875,-2.2047365,-2.3672242,109.0
16284,-3.3005123,6.5171814,-1.2050781,-0.31116945,-2.2238526,-2.8376954,109.0
16285,-1.9530077,4.378895,-0.39258957,-0.31116945,-2.2238526,-2.8376954,109.0
16286,-1.9530077,4.378895,-0.39258957,0.6223389,-2.698572,-3.6979249,109.0
16287,0.3392663,1.1526031,0.37572098,0.6223389,-2.698572,-3.6979249,109.0
16288,0.3392663,1.1526031,0.37572098,0.6223389,-2.698572,-3.6979249,108.0
16289,0.3392663,1.1526031,0.37572098,0.52675784,-2.7962768,-3.9687378,108.0
16290,3.3980122,-0.39575195,-0.018455505,0.52675784,-2.7962768,-3.9687378,108.0
16291,3.3980122,-0.39575195,-0.018455505,0.015930176,-2.001892,-3.7425294,108.0
16292,6.6953754,-0.92746735,1.2202797,0.015930176,-2.001892,-3.7425294,108.0
16293,6.6953754,-0.92746735,1.2202797,-0.03079834,-2.263147,-3.330469,108.0
16294,6.6495867,-2.0532608,2.9124298,-0.03079834,-2.263147,-3.330469,108.0
16295,6.6495867,-2.0532608,2.9124298,-0.43754885,-3.3272827,-4.218311,108.0
16296,10.993132,-7.045059,8.008804,-0.43754885,-3.3272827,-4.218311,108.0
16297,10.993132,-7.045059,8.008804,-1.4984986,-0.9218262,-3.6596925,108.0
16298,17.887682,-10.408241,10.589184,-1.4984986,-0.9218262,-3.6596925,108.0
16299,17.887682,-10.408241,10.589184,-3.42074,0.22196046,-2.3778443,108.0
16300,13.854996,-9.209099,7.9318695,-3.42074,0.22196046,-2.3778443,108.0
16301,13.854996,-9.209099,7.9318695,-3.7828858,0.06159668,-2.1102173,108.0
16302,6.497059,-6.751457,5.2728767,-3.7828858,0.06159668,-2.1102173,108.0
16303,6.497059,-6.751457,5.2728767,-3.9655519,0.010620117,-1.8755127,108.0
16304,-4.0952244,-3.9891434,1.8634567,-3.9655519,0.010620117,-1.8755127,108.0
16305,-4.0952244,-3.9891434,1.8634567,-2.1888063,-0.24851075,-1.9902099,108.0
16306,-10.412361,-2.9100266,0.2601509,-2.1888063,-0.24851075,-1.9902099,108.0
16307,-10.412361,-2.9100266,0.2601509,-0.25913087,-0.10620117,-1.7693115,108.0
16308,-13.142621,-1.9131012,0.0771637,-0.25913087,-0.10620117,-1.7693115,108.0
16309,-13.142621,-1.9131012,0.0771637,-0.30054933,0.6488892,-1.351941,108.0
16310,-13.486021,0.64819336,-0.36694336,-0.30054933,0.6488892,-1.351941,108.0
16311,-13.486021,0.64819336,-0.36694336,-2.716626,1.3391968,-0.21877442,108.0
16312,-14.768554,4.5199356,-3.6179466,-2.716626,1.3391968,-0.21877442,108.0
16313,-14.768554,4.5199356,-3.6179466,-3.6883667,1.5908936,-0.24638672,108.0
16314,-13.62246,3.934494,-3.8658676,-3.6883667,1.5908936,-0.24638672,108.0
16315,-13.62246,3.934494,-3.8658676,-4.0239625,2.0507448,-0.14868164,108.0
16316,-14.363142,1.9663849,-3.6986885,-4.0239625,2.0507448,-0.14868164,108.0
16317,-14.363142,1.9663849,-3.6986885,-1.9094971,1.806482,1.4793824,108.0
16318,-13.438146,-1.590538,-1.3686676,-1.9094971,1.806482,1.4793824,108.0
16319,-13.438146,-1.590538,-1.3686676,0.30267334,1.719397,2.1898682,108.0
16320,-10.094486,-3.377205,1.0403214,0.30267334,1.719397,2.1898682,108.0
16321,-10.094486,-3.377205,1.0403214,1.3976074,1.6928467,2.716626,108.0
16322,-5.0814238,-2.1796188,2.180622,1.3976074,1.6928467,2.716626,108.0
16323,-5.0814238,-2.1796188,2.180622,1.2255615,2.2036743,3.353833,108.0
16324,0.10645485,-0.5618973,2.4136238,1.2255615,2.2036743,3.353833,108.0
16325,0.10645485,-0.5618973,2.4136238,1.5792115,2.5743165,3.3814454,108.0
16326,4.3797684,-0.94607544,2.7308235,1.5792115,2.5743165,3.3814454,108.0
16327,4.3797684,-0.94607544,2.7308235,3.0639038,2.893982,3.9549317,108.0
16328,7.320807,-3.0478134,3.6976967,3.0639038,2.893982,3.9549317,108.0
16329,7.320807,-3.0478134,3.6976967,4.6441774,2.6943238,4.2076907,108.0
16330,9.261443,-5.940605,6.0591927,4.6441774,2.6943238,4.2076907,108.0
16331,9.261443,-5.940605,6.0591927,3.787134,2.255713,3.5205688,108.0
16332,15.842785,-8.49736,11.087433,3.787134,2.255713,3.5205688,108.0
16333,15.842785,-8.49736,11.087433,1.0577637,2.5679443,3.0639038,108.0
16334,16.710495,-6.3232574,9.903053,1.0577637,2.5679443,3.0639038,108.0
16335,16.710495,-6.3232574,9.903053,-1.6631104,1.7438233,3.1446168,108.0
16336,19.312294,-3.4035873,6.219963,-1.6631104,1.7438233,3.1446168,108.0
16337,19.312294,-3.4035873,6.219963,0.7391602,0.88253176,3.4664063,108.0
16338,12.751104,-0.647171,-1.1324654,0.7391602,0.88253176,3.4664063,108.0
16339,12.751104,-0.647171,-1.1324654,0.74447024,-0.1529297,2.8812377,108.0
16340,1.7240772,3.8364563,-7.1758804,0.74447024,-0.1529297,2.8812377,108.0
16341,1.7240772,3.8364563,-7.1758804,0.5883545,-1.083252,2.3884645,108.0
16342,-5.6552114,9.244972,-10.257233,0.5883545,-1.083252,2.3884645,108.0
16343,-5.6552114,9.244972,-10.257233,-1.363623,-1.6333741,2.092163,108.0
16344,-7.900964,13.232742,-11.907654,-1.363623,-1.6333741,2.092163,108.0
16345,-7.900964,13.232742,-11.907654,-2.817517,-2.0464966,1.6376221,108.0
16346,-7.5789127,14.906815,-12.645401,-2.817517,-2.0464966,1.6376221,108.0
16347,-7.5789127,14.906815,-12.645401,-2.4766114,-2.5658205,0.6425171,108.0
16348,-7.3867874,13.361145,-11.903797,-2.4766114,-2.5658205,0.6425171,108.0
16349,-7.3867874,13.361145,-11.903797,-1.354065,-3.1201904,-0.8326172,108.0
16350,-7.0783997,9.032509,-9.306217,-1.354065,-3.1201904,-0.8326172,108.0
16351,-7.0783997,9.032509,-9.306217,0.05628662,-3.4228637,-1.4570801,108.0
16352,-5.0677857,4.645195,-5.760769,0.05628662,-3.4228637,-1.4570801,108.0
16353,-5.0677857,4.645195,-5.760769,1.4358399,-4.2023807,-2.34386,108.0
16354,-1.6291065,2.1105537,-2.6741562,1.4358399,-4.2023807,-2.34386,108.0
16355,-1.6291065,2.1105537,-2.6741562,1.0736939,-4.241675,-2.9258423,108.0
16356,1.9705429,0.8305664,-0.78546906,1.0736939,-4.241675,-2.9258423,108.0
16357,1.9705429,0.8305664,-0.78546906,-0.3355957,-4.0260863,-3.6883667,108.0
16358,5.181891,0.75032043,-0.44358444,-0.3355957,-4.0260863,-3.6883667,108.0
16359,5.181891,0.75032043,-0.44358444,-1.1129884,-2.9003541,-3.3145387,108.0
16360,7.012505,1.2768326,-0.9904022,-1.1129884,-2.9003541,-3.3145387,108.0
16361,7.012505,1.2768326,-0.9904022,-1.2468017,-2.081543,-3.175415,108.0
16362,6.588251,0.601738,-0.076560974,-1.2468017,-2.081543,-3.175415,108.0
16363,6.588251,0.601738,-0.076560974,-2.3725343,-1.8670167,-2.8769898,108.0
16364,6.446101,-2.5022278,3.605072,-2.3725343,-1.8670167,-2.8769898,108.0
16365,6.446101,-2.5022278,3.605072,-2.8281372,-1.538855,-3.8359864,108.0
16366,10.3248005,-7.018387,6.8686028,-2.8281372,-1.538855,-3.8359864,108.0
16367,10.3248005,-7.018387,6.8686028,-3.0543458,0.4694092,-3.5428712,108.0
16368,13.623829,-9.680649,8.006382,-3.0543458,0.4694092,-3.5428712,108.0
16369,13.623829,-9.680649,8.006382,-3.9952881,0.71154785,-2.436255,108.0
16370,9.544033,-9.390274,8.505608,-3.9952881,0.71154785,-2.436255,108.0
16371,9.544033,-9.390274,8.505608,-4.5039916,1.088562,-1.5505371,108.0
16372,2.3577003,-7.9327774,7.7081375,-4.5039916,1.088562,-1.5505371,108.0
16373,2.3577003,-7.9327774,7.7081375,-3.7414672,1.3360108,-1.2138795,108.0
16374,-2.5574188,-7.2305374,5.115959,-3.7414672,1.3360108,-1.2138795,108.0
16375,-2.5574188,-7.2305374,5.115959,-2.715564,1.0736939,-1.4560181,108.0
16376,-2.5574188,-7.2305374,5.115959,-2.4999757,1.1937011,-0.9781128,108.0
16377,-6.6967163,-6.7704315,2.3059883,-2.4999757,1.1937011,-0.9781128,108.0
16378,-19.467396,1.5525436,-2.8851166,-2.4999757,1.1937011,-0.9781128,108.0
16379,-19.467396,1.5525436,-2.8851166,-3.1520507,1.4751343,-0.20709229,108.0
16380,-19.467396,1.5525436,-2.8851166,-4.3107057,2.1187134,0.97386473,108.0
16381,-19.467396,1.5525436,-2.8851166,-5.169873,2.8185792,1.1225464,108.0
16382,-15.573916,1.2420349,-2.308094,-5.169873,2.8185792,1.1225464,108.0
16383,-21.12316,-3.3086548,-3.8741379,-5.169873,2.8185792,1.1225464,108.0
16384,-21.12316,-3.3086548,-3.8741379,-3.9209473,2.264209,1.0641358,108.0
16385,-21.12316,-3.3086548,-3.8741379,-0.72216797,0.94625247,2.0687988,108.0
16386,-21.12316,-3.3086548,-3.8741379,0.6435791,0.727478,3.2869263,108.0
16387,-15.67205,-2.4654999,-1.0098953,0.6435791,0.727478,3.2869263,108.0
16388,-15.67205,-2.4654999,-1.0098953,1.5696534,0.6202149,3.8699708,108.0
16389,-8.8726015,-0.86579895,0.70381546,1.5696534,0.6202149,3.8699708,108.0
16390,-8.8726015,-0.86579895,0.70381546,1.7491333,0.8889038,3.6671264,108.0
16391,-3.2053566,-0.37491608,0.77762985,1.7491333,0.8889038,3.6671264,108.0
16392,-3.2053566,-0.37491608,0.77762985,2.540332,0.6552612,4.2045045,108.0
16393,0.52182317,-1.1628342,0.94416046,2.540332,0.6552612,4.2045045,108.0
16394,0.52182317,-1.1628342,0.94416046,2.5074098,1.0662597,4.1259155,108.0
16395,2.936001,-2.929123,2.6592445,2.5074098,1.0662597,4.1259155,108.0
16396,2.936001,-2.929123,2.6592445,4.805603,0.80819094,4.5379763,108.0
16397,5.695847,-6.967346,5.5869446,4.805603,0.80819094,4.5379763,108.0
16398,5.695847,-6.967346,5.5869446,4.430713,1.3179566,5.1879272,108.0
16399,12.595362,-11.731056,9.509644,4.430713,1.3179566,5.1879272,108.0
16400,12.595362,-11.731056,9.509644,0.36108398,1.0620117,4.0345826,108.0
16401,21.779465,-12.4253845,10.724903,0.36108398,1.0620117,4.0345826,108.0
16402,21.779465,-12.4253845,10.724903,0.13912354,1.4241577,3.2178955,108.0
16403,20.480492,-7.706009,5.8164444,0.13912354,1.4241577,3.2178955,108.0
16404,20.480492,-7.706009,5.8164444,0.51932377,0.542688,2.7378662,108.0
16405,7.13509,0.76524353,-1.2988739,0.51932377,0.542688,2.7378662,108.0
16406,7.13509,0.76524353,-1.2988739,0.82730716,-0.29736328,2.7867188,108.0
16407,-5.0574064,8.814789,-6.062561,0.82730716,-0.29736328,2.7867188,108.0
16408,-5.0574064,8.814789,-6.062561,-0.16779785,-0.9388184,2.3173096,108.0
16409,-9.718863,13.750259,-8.685925,-0.16779785,-0.9388184,2.3173096,108.0
16410,-9.718863,13.750259,-8.685925,-1.8404664,-1.3285767,2.0995972,108.0
16411,-9.18062,16.031067,-10.944721,-1.8404664,-1.3285767,2.0995972,108.0
16412,-9.18062,16.031067,-10.944721,-1.9116211,-1.722583,1.7756836,108.0
16413,-7.309889,15.979317,-12.494789,-1.9116211,-1.722583,1.7756836,108.0
16414,-7.309889,15.979317,-12.494789,-1.1044922,-2.447937,0.21452637,108.0
16415,-7.309889,15.979317,-12.494789,-1.1044922,-2.447937,0.21452637,108.0
16416,-5.9335675,13.545364,-10.851215,-1.1044922,-2.447937,0.21452637,108.0
16417,-5.9335675,13.545364,-10.851215,-0.6085327,-2.52334,-0.9239502,108.0
16418,-4.828641,10.050819,-6.9333534,-0.6085327,-2.52334,-0.9239502,108.0
16419,-4.828641,10.050819,-6.9333534,0.542688,-3.3156006,-2.1442018,108.0
16420,-2.9212382,7.127556,-3.964054,0.542688,-3.3156006,-2.1442018,108.0
16421,-2.9212382,7.127556,-3.964054,-0.121069334,-3.2826784,-3.178601,108.0
16422,0.25887108,4.1187897,-2.6473656,-0.121069334,-3.2826784,-3.178601,108.0
16423,0.25887108,4.1187897,-2.6473656,-0.17841797,-3.270996,-3.9602418,108.0
16424,3.4914353,1.1356583,-1.8058548,-0.17841797,-3.270996,-3.9602418,108.0
16425,3.4914353,1.1356583,-1.8058548,0.13062744,-3.3049805,-4.0133424,108.0
16426,5.15339,-0.752388,-0.65468216,0.13062744,-3.3049805,-4.0133424,108.0
16427,5.15339,-0.752388,-0.65468216,-0.009558106,-3.1902833,-4.1981325,108.0
16428,5.353718,-0.8611374,0.42042923,-0.009558106,-3.1902833,-4.1981325,108.0
16429,5.353718,-0.8611374,0.42042923,-0.8262451,-3.0394776,-4.2841554,108.0
