,accx,accy,accz,gyrox,gyroy,gyroz,heart rate
18802,run,run,run,run,run,run,run
18803,-2.3347054,0.5156555,-7.4823,0.038232423,0.03717041,0.009558106,113.0
18804,-1.8680086,0.4143448,-5.98584,0.038232423,0.03717041,0.009558106,113.0
18805,-1.8680086,0.4143448,-5.98584,-0.04991455,-0.032922365,-0.013806152,113.0
18806,-1.4946508,0.33330536,-4.7886734,-0.04991455,-0.032922365,-0.013806152,113.0
18807,-1.1955261,0.26637268,-3.827156,-0.04991455,-0.032922365,-0.013806152,113.0
18808,-1.1955261,0.26637268,-3.827156,-0.04991455,-0.015930176,-0.004248047,113.0
18809,-0.95633507,0.21282959,-3.0605888,-0.04991455,-0.015930176,-0.004248047,113.0
18810,-0.95633507,0.21282959,-3.0605888,-0.025488282,-0.009558106,0.0021240234,113.0
18811,0.86276436,-2.2834702,4.8992233,-0.025488282,-0.009558106,0.0021240234,113.0
18812,0.86276436,-2.2834702,4.8992233,-0.012744141,-0.0063720704,0.010620117,113.0
18813,0.68974686,-1.869278,3.980671,-0.012744141,-0.0063720704,0.010620117,113.0
18814,0.68974686,-1.869278,3.980671,-0.009558106,-0.0053100586,0.023364259,113.0
18815,0.5856228,-1.5404205,3.2534943,-0.009558106,-0.0053100586,0.023364259,113.0
18816,0.5856228,-1.5404205,3.2534943,-0.009558106,-0.015930176,0.038232423,113.0
18817,0.48289108,-1.213562,2.557827,-0.009558106,-0.015930176,0.038232423,113.0
18818,0.48289108,-1.213562,2.557827,-0.014868164,-0.028674318,0.04991455,113.0
18819,0.377573,-0.9002075,1.961544,-0.014868164,-0.028674318,0.04991455,113.0
18820,0.377573,-0.9002075,1.961544,-0.009558106,-0.035046387,0.04141846,113.0
18821,0.377573,-0.9002075,1.961544,0.0031860352,-0.04248047,0.035046387,113.0
18822,0.30113125,-0.6693344,1.547226,0.0031860352,-0.04248047,0.035046387,113.0
18823,0.25167084,-0.5508728,1.2742691,0.0031860352,-0.04248047,0.035046387,113.0
18824,0.25167084,-0.5508728,1.2742691,-0.012744141,-0.04460449,0.03717041,113.0
18825,0.21213913,-0.4676361,1.0564423,-0.012744141,-0.04460449,0.03717041,113.0
18826,0.21213913,-0.4676361,1.0564423,-0.025488282,-0.038232423,0.033984374,113.0
18827,0.18052673,-0.37449646,0.86982346,-0.025488282,-0.038232423,0.033984374,113.0
18828,0.18052673,-0.37449646,0.86982346,-0.029736329,-0.029736329,0.014868164,113.0
18829,0.15930176,-0.29860687,0.7073555,-0.029736329,-0.029736329,0.014868164,113.0
18830,0.15930176,-0.29860687,0.7073555,-0.04248047,0.0010620117,-0.0010620117,113.0
18831,0.14251709,-0.23285675,0.5625038,-0.04248047,0.0010620117,-0.0010620117,113.0
18832,0.14251709,-0.23285675,0.5625038,-0.06584473,0.016992187,-0.016992187,113.0
18833,0.090893745,-0.1559906,0.45005035,-0.06584473,0.016992187,-0.016992187,113.0
18834,0.090893745,-0.1559906,0.45005035,-0.13912354,0.0,-0.032922365,113.0
18835,0.042344093,-0.08217621,0.4181099,-0.13912354,0.0,-0.032922365,113.0
18836,0.042344093,-0.08217621,0.4181099,-0.18691407,0.028674318,-0.022302246,113.0
18837,0.08001804,0.022247314,0.4344406,-0.18691407,0.028674318,-0.022302246,113.0
18838,0.08001804,0.022247314,0.4344406,-0.3451538,-0.015930176,-0.027612304,113.0
18839,0.1488533,0.32969666,0.44241333,-0.3451538,-0.015930176,-0.027612304,113.0
18840,0.1488533,0.32969666,0.44241333,-0.27506104,0.04885254,-0.057348635,113.0
18841,0.26921654,0.3808365,0.2167244,-0.27506104,0.04885254,-0.057348635,113.0
18842,0.26921654,0.3808365,0.2167244,0.052038576,0.2166504,-0.1444336,113.0
18843,0.24248505,0.24298859,-0.12521362,0.052038576,0.2166504,-0.1444336,113.0
18844,0.24248505,0.24298859,-0.12521362,-0.13487549,0.12000733,-0.22727051,113.0
18845,0.08657837,0.24476624,-0.21029282,-0.13487549,0.12000733,-0.22727051,113.0
18846,0.08657837,0.24476624,-0.21029282,-0.1178833,0.1709839,-0.2814331,113.0
18847,0.09317684,0.14276123,-0.04399109,-0.1178833,0.1709839,-0.2814331,113.0
18848,0.09317684,0.14276123,-0.04399109,-0.24851075,0.1731079,-0.3440918,113.0
18849,0.21113873,0.017654419,0.16777039,-0.24851075,0.1731079,-0.3440918,113.0
18850,0.21113873,0.017654419,0.16777039,-0.271875,0.19328614,-0.37489015,113.0
18851,0.32583237,-0.13000488,0.1817894,-0.271875,0.19328614,-0.37489015,113.0
18852,0.32583237,-0.13000488,0.1817894,-0.22514649,0.18691407,-0.42268068,113.0
18853,0.3848114,-0.38893127,-0.008243561,-0.22514649,0.18691407,-0.42268068,113.0
18854,0.3848114,-0.38893127,-0.008243561,-0.21452637,0.20178223,-0.4800293,113.0
18855,0.41107178,-0.5697708,-0.272892,-0.21452637,0.20178223,-0.4800293,113.0
18856,0.41107178,-0.5697708,-0.272892,-0.2548828,0.20921631,-0.5501221,113.0
18857,0.4118042,-0.5255585,-0.48724747,-0.2548828,0.20921631,-0.5501221,113.0
18858,0.4118042,-0.5255585,-0.48724747,-0.3345337,0.24532472,-0.60959476,113.0
18859,0.41142654,-0.36543274,-0.5731735,-0.3345337,0.24532472,-0.60959476,113.0
18860,0.41142654,-0.36543274,-0.5731735,-0.4163086,0.28780517,-0.66481936,113.0
18861,0.4371853,-0.21469879,-0.5790863,-0.4163086,0.28780517,-0.66481936,113.0
18862,0.4371853,-0.21469879,-0.5790863,-0.5033936,0.3345337,-0.73703617,113.0
18863,0.51921844,-0.14193726,-0.60954666,-0.5033936,0.3345337,-0.73703617,113.0
18864,0.51921844,-0.14193726,-0.60954666,-0.59472656,0.39082032,-0.814563,113.0
18865,0.6702328,-0.15171051,-0.6958771,-0.59472656,0.39082032,-0.814563,113.0
18866,0.6702328,-0.15171051,-0.6958771,-0.77314454,0.45135498,-0.91120607,113.0
18867,0.87397957,-0.13284302,-0.79665375,-0.77314454,0.45135498,-0.91120607,113.0
18868,0.87397957,-0.13284302,-0.79665375,-1.0450195,0.54375,-1.0354614,113.0
18869,1.1490984,-0.063064575,-0.9046097,-1.0450195,0.54375,-1.0354614,113.0
18870,1.1490984,-0.063064575,-0.9046097,-1.4145997,0.72004396,-1.1586548,113.0
18871,1.4494781,0.015426636,-1.131855,-1.4145997,0.72004396,-1.1586548,113.0
18872,1.4494781,0.015426636,-1.131855,-1.8489624,0.94731444,-1.2914063,113.0
18873,1.4494781,0.015426636,-1.131855,-2.2546508,1.1406006,-1.4528321,113.0
18874,1.5170898,0.036216736,-1.5877113,-2.2546508,1.1406006,-1.4528321,113.0
18875,1.1927738,-0.11278534,-2.1698532,-2.2546508,1.1406006,-1.4528321,113.0
18876,1.1927738,-0.11278534,-2.1698532,-2.5605104,1.260608,-1.6333741,113.0
18877,0.65081406,-0.46414185,-2.6515198,-2.5605104,1.260608,-1.6333741,113.0
18878,0.65081406,-0.46414185,-2.6515198,-2.714502,1.2914063,-1.8394043,113.0
18879,0.18659401,-0.96624756,-2.8164558,-2.714502,1.2914063,-1.8394043,113.0
18880,0.18659401,-0.96624756,-2.8164558,-2.7814088,1.2999023,-2.0295045,113.0
18881,-7.362366E-4,-1.4714203,-2.5531044,-2.7814088,1.2999023,-2.0295045,113.0
18882,-7.362366E-4,-1.4714203,-2.5531044,-2.7792847,1.3455689,-2.2100465,113.0
18883,0.10114479,-1.792923,-2.0312881,-2.7792847,1.3455689,-2.2100465,113.0
18884,0.10114479,-1.792923,-2.0312881,-2.6911378,1.360437,-2.3831544,113.0
18885,0.3050375,-1.9824219,-1.5862617,-2.6911378,1.360437,-2.3831544,113.0
18886,0.3050375,-1.9824219,-1.5862617,-2.5732543,1.3614991,-2.5169678,113.0
18887,0.47692776,-2.2123795,-1.4202194,-2.5732543,1.3614991,-2.5169678,113.0
18888,0.47692776,-2.2123795,-1.4202194,-2.3916504,1.3423828,-2.5891845,113.0
18889,0.6110096,-2.5744553,-1.377922,-2.3916504,1.3423828,-2.5891845,113.0
18890,0.6110096,-2.5744553,-1.377922,-2.2482789,1.359375,-2.5785644,113.0
18891,0.80088043,-3.0753021,-1.1933556,-2.2482789,1.359375,-2.5785644,113.0
18892,0.80088043,-3.0753021,-1.1933556,-2.1176515,1.4347779,-2.4351928,113.0
18893,0.9606018,-3.4970016,-0.8562355,-2.1176515,1.4347779,-2.4351928,113.0
18894,0.9606018,-3.4970016,-0.8562355,-1.9572877,1.4772583,-2.2376587,113.0
18895,0.85339355,-3.5460663,-0.6700096,-1.9572877,1.4772583,-2.2376587,113.0
18896,0.85339355,-3.5460663,-0.6700096,-1.8457764,1.4984986,-2.0008302,113.0
18897,0.51370907,-3.0618896,-0.8469696,-1.8457764,1.4984986,-2.0008302,113.0
18898,0.51370907,-3.0618896,-0.8469696,-1.7990478,1.5027466,-1.7746216,113.0
18899,0.12941265,-2.1884308,-1.2851791,-1.7990478,1.5027466,-1.7746216,113.0
18900,0.12941265,-2.1884308,-1.2851791,-1.8266602,1.4560181,-1.5855836,113.0
18901,-0.20561314,-1.2780151,-1.7391548,-1.8266602,1.4560181,-1.5855836,113.0
18902,-0.20561314,-1.2780151,-1.7391548,-1.8882569,1.4252198,-1.4337158,113.0
18903,-0.37797928,-0.55348206,-2.02808,-1.8882569,1.4252198,-1.4337158,113.0
18904,-0.37797928,-0.55348206,-2.02808,-1.9424194,1.3784913,-1.3498169,113.0
18905,-0.37051105,-0.057861328,-2.1605835,-1.9424194,1.3784913,-1.3498169,113.0
18906,-0.37051105,-0.057861328,-2.1605835,-1.9795898,1.3848633,-1.2903442,113.0
18907,-0.30186558,0.24720764,-2.2114754,-1.9795898,1.3848633,-1.2903442,113.0
18908,-0.30186558,0.24720764,-2.2114754,-1.9657837,1.2882203,-1.3328247,113.0
18909,-0.33139706,0.44368744,-2.230278,-1.9657837,1.2882203,-1.3328247,113.0
18910,-0.33139706,0.44368744,-2.230278,-2.0199463,1.1660889,-1.3891114,113.0
18911,-0.36853504,0.564621,-2.1782532,-2.0199463,1.1660889,-1.3891114,113.0
18912,-0.36853504,0.564621,-2.1782532,-1.9551636,0.9451904,-1.4145997,113.0
18913,-0.024258614,0.111343384,-1.6859016,-1.9551636,0.9451904,-1.4145997,113.0
18914,-0.024258614,0.111343384,-1.6859016,-1.6418701,0.8294312,-1.3168945,113.0
18915,0.93346214,-1.3390198,-0.3875389,-1.6418701,0.8294312,-1.3168945,113.0
18916,0.93346214,-1.3390198,-0.3875389,-1.3360108,0.92926025,-1.0779419,113.0
18917,2.1415577,-2.854454,1.151516,-1.3360108,0.92926025,-1.0779419,113.0
18918,2.1415577,-2.854454,1.151516,-1.3806152,1.0418335,-0.6446411,113.0
18919,2.8215714,-3.1934586,1.764595,-1.3806152,1.0418335,-0.6446411,113.0
18920,2.8215714,-3.1934586,1.764595,-1.6578003,1.2436157,-0.047790527,113.0
18921,2.671832,-2.7662125,1.1791916,-1.6578003,1.2436157,-0.047790527,113.0
18922,2.671832,-2.7662125,1.1791916,-1.9456055,1.3838013,0.53737795,113.0
18923,2.133315,-3.2141647,0.75196075,-1.9456055,1.3838013,0.53737795,113.0
18924,2.133315,-3.2141647,0.75196075,-1.7310791,1.3168945,1.1437867,113.0
18925,2.1837273,-5.4703674,1.9890213,-1.7310791,1.3168945,1.1437867,113.0
18926,2.1837273,-5.4703674,1.9890213,-1.0312134,1.1660889,1.8733886,113.0
18927,3.058847,-8.521378,3.6033401,-1.0312134,1.1660889,1.8733886,113.0
18928,3.058847,-8.521378,3.6033401,-0.3355957,1.170337,2.5881226,113.0
18929,3.420845,-9.413284,2.4764938,-0.3355957,1.170337,2.5881226,113.0
18930,3.420845,-9.413284,2.4764938,-0.72641605,1.268042,3.2221437,113.0
18931,2.2055483,-5.2965393,-1.177105,-0.72641605,1.268042,3.2221437,113.0
18932,2.2055483,-5.2965393,-1.177105,-1.0906861,0.9674927,3.2083375,113.0
18933,0.02917242,2.220848,-4.3143425,-1.0906861,0.9674927,3.2083375,113.0
18934,0.02917242,2.220848,-4.3143425,-0.5872925,0.47790527,2.6029909,113.0
18935,-1.6579123,8.293343,-5.660507,-0.5872925,0.47790527,2.6029909,113.0
18936,-1.6579123,8.293343,-5.660507,0.007434082,-0.08814698,1.7841797,113.0
18937,-2.2445307,11.004501,-6.1213264,0.007434082,-0.08814698,1.7841797,113.0
18938,-2.2445307,11.004501,-6.1213264,0.09133301,-0.5734863,0.93563235,113.0
18939,-2.220478,11.852127,-6.515995,0.09133301,-0.5734863,0.93563235,113.0
18940,-2.220478,11.852127,-6.515995,-0.540564,-0.85598147,0.09239502,113.0
18941,-1.8787751,12.483513,-6.61182,-0.540564,-0.85598147,0.09239502,113.0
18942,-1.8787751,12.483513,-6.61182,-1.2797241,-0.83898926,-0.75721437,113.0
18943,-1.0254078,12.797165,-6.014187,-1.2797241,-0.83898926,-0.75721437,113.0
18944,-1.0254078,12.797165,-6.014187,-1.5186768,-0.59047854,-1.6811646,113.0
18945,0.31664848,11.819374,-5.0311985,-1.5186768,-0.59047854,-1.6811646,113.0
18946,0.31664848,11.819374,-5.0311985,-1.7024049,-0.1274414,-2.4128907,113.0
18947,1.7076645,9.89904,-4.4482365,-1.7024049,-0.1274414,-2.4128907,113.0
18948,1.7076645,9.89904,-4.4482365,-1.9190552,0.5649902,-2.9035401,113.0
18949,2.5631409,8.388161,-4.425043,-1.9190552,0.5649902,-2.9035401,113.0
18950,2.5631409,8.388161,-4.425043,-2.0464966,1.4177856,-3.5566773,113.0
18951,2.710071,7.314911,-3.6856155,-2.0464966,1.4177856,-3.5566773,113.0
18952,2.710071,7.314911,-3.6856155,-2.2737672,2.1973023,-4.4859376,113.0
18953,3.0903592,5.1281586,-1.6983223,-2.2737672,2.1973023,-4.4859376,113.0
18954,3.0903592,5.1281586,-1.6983223,-2.8313234,2.9396484,-5.793274,113.0
18955,5.341221,1.1703339,-0.53523254,-2.8313234,2.9396484,-5.793274,113.0
18956,5.341221,1.1703339,-0.53523254,-4.404163,4.1301637,-6.682178,113.0
18957,10.507437,-4.771057,-0.3141365,-4.404163,4.1301637,-6.682178,113.0
18958,10.507437,-4.771057,-0.3141365,-4.596387,4.2820315,-5.608484,113.0
18959,17.561296,-17.032852,2.375826,-4.596387,4.2820315,-5.608484,113.0
18960,17.561296,-17.032852,2.375826,-2.5159059,2.797339,-1.6015137,113.0
18961,21.814613,-33.701515,6.209034,-2.5159059,2.797339,-1.6015137,113.0
18962,21.814613,-33.701515,6.209034,-0.16142578,2.6104248,0.5012695,113.0
18963,16.11186,-37.803986,5.7236004,-0.16142578,2.6104248,0.5012695,113.0
18964,16.11186,-37.803986,5.7236004,-0.90270996,2.3236816,1.1820191,113.0
18965,1.5926619,-21.19429,2.2184677,-0.90270996,2.3236816,1.1820191,113.0
18966,1.5926619,-21.19429,2.2184677,-1.4602661,2.078357,1.1437867,113.0
18967,-11.055974,0.6165161,-0.080438614,-1.4602661,2.078357,1.1437867,113.0
18968,-11.055974,0.6165161,-0.080438614,-1.4846925,2.0464966,1.0641358,113.0
18969,-16.061638,12.746414,-1.1337605,-1.4846925,2.0464966,1.0641358,113.0
18970,-16.061638,12.746414,-1.1337605,-1.5123047,1.8606446,0.8857178,113.0
18971,-15.436443,15.459122,-1.7225475,-1.5123047,1.8606446,0.8857178,113.0
18972,-15.436443,15.459122,-1.7225475,-1.6206299,1.5855836,0.85385746,113.0
18973,-12.524815,14.276047,-1.5069199,-1.6206299,1.5855836,0.85385746,113.0
18974,-12.524815,14.276047,-1.5069199,-1.622754,1.2722901,1.0577637,113.0
18975,-9.241556,12.660095,-0.4211979,-1.622754,1.2722901,1.0577637,113.0
18976,-9.241556,12.660095,-0.4211979,-1.4602661,1.1151123,1.3742431,113.0
18977,-6.4500685,11.5267105,1.0962696,-1.4602661,1.1151123,1.3742431,113.0
18978,-6.4500685,11.5267105,1.0962696,-1.0460815,1.0269654,1.6599244,113.0
18979,-4.45732,10.449493,2.7431545,-1.0460815,1.0269654,1.6599244,113.0
18980,-4.45732,10.449493,2.7431545,-0.14018555,0.8889038,1.8319702,113.0
18981,-3.1478872,9.217361,4.0403748,-0.14018555,0.8889038,1.8319702,113.0
18982,-3.1478872,9.217361,4.0403748,0.24213867,0.7593384,2.0326905,113.0
18983,-1.9289665,8.335587,4.2206154,0.24213867,0.7593384,2.0326905,113.0
18984,-1.9289665,8.335587,4.2206154,0.38232422,0.59897465,2.076233,113.0
18985,-0.64842224,7.551918,2.9313393,0.38232422,0.59897465,2.076233,113.0
18986,-0.64842224,7.551918,2.9313393,0.5671143,0.5235718,1.9647217,113.0
18987,0.375659,6.1297073,1.1220016,0.5671143,0.5235718,1.9647217,113.0
18988,0.375659,6.1297073,1.1220016,0.39294434,0.45029297,1.8765748,113.0
18989,0.9390402,4.2004547,0.23971558,0.39294434,0.45029297,1.8765748,113.0
18990,0.9390402,4.2004547,0.23971558,-0.41843262,0.3355957,1.4528321,113.0
18991,0.41207218,1.9019547,0.6417961,-0.41843262,0.3355957,1.4528321,113.0
18992,0.41207218,1.9019547,0.6417961,-0.6467652,-0.38551027,0.5607422,113.0
18993,-1.6286793,-4.6717834,1.4333954,-0.6467652,-0.38551027,0.5607422,113.0
18994,-1.6286793,-4.6717834,1.4333954,1.7491333,-1.8351563,-0.8326172,113.0
18995,-2.2385273,-21.311615,1.5323982,1.7491333,-1.8351563,-0.8326172,113.0
18996,-2.2385273,-21.311615,1.5323982,3.9294434,-2.0241945,1.0386475,113.0
18997,7.0169663,-40.696205,0.071769714,3.9294434,-2.0241945,1.0386475,113.0
18998,7.0169663,-40.696205,0.071769714,-0.39294434,-0.93563235,3.4090576,113.0
18999,18.04596,-40.249794,-2.392498,-0.39294434,-0.93563235,3.4090576,113.0
19000,18.04596,-40.249794,-2.392498,-2.8610597,-1.7480713,4.5730224,113.0
19001,15.2973385,-18.69896,-3.956749,-2.8610597,-1.7480713,4.5730224,113.0
19002,15.2973385,-18.69896,-3.956749,-0.9366943,-2.9343383,3.6490724,113.0
19003,4.868596,3.430664,-3.7574768,-0.9366943,-2.9343383,3.6490724,113.0
19004,4.868596,3.430664,-3.7574768,-0.9366943,-2.9343383,3.6490724,0.0
19005,4.868596,3.430664,-3.7574768,1.5855836,-3.707483,2.4787354,0.0
19006,-2.090487,15.814941,-3.6194572,1.5855836,-3.707483,2.4787354,0.0
19007,-2.090487,15.814941,-3.6194572,2.259961,-3.715979,1.4963745,0.0
19008,-2.720046,20.121475,-4.4760456,2.259961,-3.715979,1.4963745,0.0
19009,-2.720046,20.121475,-4.4760456,0.8666016,-2.817517,1.0120972,0.0
19010,0.27597737,21.922745,-5.373596,0.8666016,-2.817517,1.0120972,0.0
19011,0.27597737,21.922745,-5.373596,-0.82836914,-1.1990112,0.6202149,0.0
19012,2.8326228,22.93103,-5.3859005,-0.82836914,-1.1990112,0.6202149,0.0
19013,2.8326228,22.93103,-5.3859005,-1.1724609,0.46516114,-0.36320803,0.0
19014,2.574802,21.038109,-3.803873,-1.1724609,0.46516114,-0.36320803,0.0
19015,2.574802,21.038109,-3.803873,-0.6467652,1.7416992,-1.4963745,0.0
19016,0.073049545,15.404572,-1.3040733,-0.6467652,1.7416992,-1.4963745,0.0
19017,0.073049545,15.404572,-1.3040733,0.060534667,2.624231,-2.3746583,0.0
19018,-2.3697708,8.486877,0.6208401,0.060534667,2.624231,-2.3746583,0.0
19019,-2.3697708,8.486877,0.6208401,0.5798584,2.975757,-2.88761,0.0
19020,-3.4717565,3.2513924,1.6872864,0.5798584,2.975757,-2.88761,0.0
19021,-3.4717565,3.2513924,1.6872864,0.2824951,3.0012453,-3.364453,0.0
19022,-3.057825,0.63321686,2.6961308,0.2824951,3.0012453,-3.364453,0.0
19023,-3.057825,0.63321686,2.6961308,-0.84536135,2.9991212,-3.6522584,0.0
19024,-1.4167801,-1.0436859,3.7685375,-0.84536135,2.9991212,-3.6522584,0.0
19025,-1.4167801,-1.0436859,3.7685375,-2.630603,2.8345094,-3.803064,0.0
19026,1.3593494,-7.31633,4.307579,-2.630603,2.8345094,-3.803064,0.0
19027,1.3593494,-7.31633,4.307579,-2.5552003,1.7735596,-4.0356445,0.0
19028,8.036186,-25.062057,3.9921818,-2.5552003,1.7735596,-4.0356445,0.0
19029,8.036186,-25.062057,3.9921818,0.8591675,1.5505371,-1.0503296,0.0
19030,16.442425,-45.837402,3.8630676,0.8591675,1.5505371,-1.0503296,0.0
19031,16.442425,-45.837402,3.8630676,0.3175415,1.3753052,1.532483,0.0
19032,13.53126,-41.939743,3.7750626,0.3175415,1.3753052,1.532483,0.0
19033,13.53126,-41.939743,3.7750626,-1.0503296,1.1289185,1.6131958,0.0
19034,-0.97876453,-13.639244,2.1793747,-1.0503296,1.1289185,1.6131958,0.0
19035,-0.97876453,-13.639244,2.1793747,-1.6471802,0.7848267,1.3423828,0.0
19036,-12.736881,11.086082,0.42551804,-1.6471802,0.7848267,1.3423828,0.0
19037,-12.736881,11.086082,0.42551804,-0.78164065,0.38444826,0.9505005,0.0
19038,-15.41691,20.712128,0.15242386,-0.78164065,0.38444826,0.9505005,0.0
19039,-15.41691,20.712128,0.15242386,-0.007434082,-0.06690674,0.6839356,0.0
19040,-11.982723,20.048843,0.5929718,-0.007434082,-0.06690674,0.6839356,0.0
19041,-11.982723,20.048843,0.5929718,0.3982544,-0.27506104,0.55968016,0.0
19042,-7.2292933,16.6193,0.8858757,0.3982544,-0.27506104,0.55968016,0.0
19043,-7.2292933,16.6193,0.8858757,0.6265869,-0.29736328,0.4970215,0.0
19044,-3.6867673,13.86972,1.2117271,0.6265869,-0.29736328,0.4970215,0.0
19045,-3.6867673,13.86972,1.2117271,0.6605713,-0.18160401,0.5628662,0.0
19046,-1.8627074,11.871811,1.8210182,0.6605713,-0.18160401,0.5628662,0.0
19047,-1.8627074,11.871811,1.8210182,0.80606693,-0.015930176,0.7519043,0.0
19048,-1.3381152,9.695412,2.2903824,0.80606693,-0.015930176,0.7519043,0.0
19049,-1.3381152,9.695412,2.2903824,1.0981201,0.087084964,0.9568726,0.0
19050,-1.5044277,7.2794647,1.9236641,1.0981201,0.087084964,0.9568726,0.0
19051,-1.5044277,7.2794647,1.9236641,1.5600952,0.12956543,1.1151123,0.0
19052,-1.8117208,4.9869385,0.764946,1.5600952,0.12956543,1.1151123,0.0
19053,-1.8117208,4.9869385,0.764946,1.720459,0.14655761,1.1448487,0.0
19054,-1.8969841,3.0364761,-0.2951126,1.720459,0.14655761,1.1448487,0.0
19055,-1.8969841,3.0364761,-0.2951126,1.3753052,0.22939454,1.1692749,0.0
19056,-1.7645478,1.1962433,-0.75938034,1.3753052,0.22939454,1.1692749,0.0
19057,-1.7645478,1.1962433,-0.75938034,1.1947632,0.3058594,1.0163453,0.0
19058,-2.2341356,-2.4039764,-0.7890587,1.1947632,0.3058594,1.0163453,0.0
19059,-2.2341356,-2.4039764,-0.7890587,1.5845215,0.06584473,0.56605226,0.0
19060,-3.706315,-11.561462,-0.08686066,1.5845215,0.06584473,0.56605226,0.0
19061,-3.706315,-11.561462,-0.08686066,2.445813,-0.43011475,0.43117675,0.0
19062,-3.4230475,-26.444664,0.2283287,2.445813,-0.43011475,0.43117675,0.0
19063,-3.4230475,-26.444664,0.2283287,0.72641605,0.11257324,2.8589356,0.0
19064,3.199709,-37.66974,-1.4858055,0.72641605,0.11257324,2.8589356,0.0
19065,3.199709,-37.66974,-1.4858055,-1.9116211,0.72004396,4.700464,0.0
19066,10.844936,-32.620934,-3.3451996,-1.9116211,0.72004396,4.700464,0.0
19067,10.844936,-32.620934,-3.3451996,-2.4744873,-0.51188964,5.2760744,0.0
19068,10.029305,-13.529465,-3.7708015,-2.4744873,-0.51188964,5.2760744,0.0
19069,10.029305,-13.529465,-3.7708015,-0.901648,-1.7746216,4.321326,0.0
19070,4.3585277,4.930359,-3.499733,-0.901648,-1.7746216,4.321326,0.0
19071,4.3585277,4.930359,-3.499733,0.5384399,-2.7824707,3.0214233,0.0
19072,0.86669266,15.021278,-3.0955257,0.5384399,-2.7824707,3.0214233,0.0
19073,0.86669266,15.021278,-3.0955257,0.21558838,-3.5014527,1.7809937,0.0
19074,0.71457,18.501434,-2.7400665,0.21558838,-3.5014527,1.7809937,0.0
19075,0.71457,18.501434,-2.7400665,-0.59260255,-3.5619874,0.72854006,0.0
19076,2.6334114,18.843796,-2.5698738,-0.59260255,-3.5619874,0.72854006,0.0
19077,2.6334114,18.843796,-2.5698738,-1.174585,-2.984253,-0.015930176,0.0
19078,4.4430327,17.857498,-2.3404446,-1.174585,-2.984253,-0.015930176,0.0
19079,4.4430327,17.857498,-2.3404446,-1.634436,-2.0401247,-0.71791995,0.0
19080,4.6464915,16.258995,-1.7441826,-1.634436,-2.0401247,-0.71791995,0.0
19081,4.6464915,16.258995,-1.7441826,-1.9296753,-1.0312134,-1.5781494,0.0
19082,3.2697687,13.899483,-0.87073517,-1.9296753,-1.0312134,-1.5781494,0.0
19083,3.2697687,13.899483,-0.87073517,-1.269104,-0.07752686,-2.531836,0.0
19084,1.0060005,10.215805,0.47118568,-1.269104,-0.07752686,-2.531836,0.0
19085,1.0060005,10.215805,0.47118568,-0.44816896,0.6977417,-3.2816162,0.0
19086,-1.07446,5.900757,1.935627,-0.44816896,0.6977417,-3.2816162,0.0
19087,-1.07446,5.900757,1.935627,0.28780517,1.2744141,-3.883777,0.0
19088,-2.15344,2.4260864,2.4435463,0.28780517,1.2744141,-3.883777,0.0
19089,-2.15344,2.4260864,2.4435463,0.5150757,1.6907227,-4.414783,0.0
19090,-2.4117658,0.6684799,2.0287743,0.5150757,1.6907227,-4.414783,0.0
19091,-2.4117658,0.6684799,2.0287743,-0.38657227,1.9392334,-4.8650756,0.0
19092,-1.8538268,-0.5553665,1.4910126,-0.38657227,1.9392334,-4.8650756,0.0
19093,-1.8538268,-0.5553665,1.4910126,-1.4698242,2.3088136,-5.2049193,0.0
19094,0.049946308,-6.4626007,1.0792847,-1.4698242,2.3088136,-5.2049193,0.0
19095,0.049946308,-6.4626007,1.0792847,-1.3423828,1.9317993,-5.9015994,0.0
19096,4.538541,-20.532394,0.69096756,-1.3423828,1.9317993,-5.9015994,0.0
19097,4.538541,-20.532394,0.69096756,1.4241577,1.4145997,-3.5375612,0.0
19098,11.87805,-37.670227,2.385563,1.4241577,1.4145997,-3.5375612,0.0
19099,11.87805,-37.670227,2.385563,1.0821899,1.4124756,-0.040356446,0.0
19100,13.235057,-38.850067,5.1178513,1.0821899,1.4124756,-0.040356446,0.0
19101,13.235057,-38.850067,5.1178513,-0.61065674,1.5654052,0.9791748,0.0
19102,3.446579,-17.600548,3.9125557,-0.61065674,1.5654052,0.9791748,0.0
19103,3.446579,-17.600548,3.9125557,-1.1586548,1.3816773,0.3993164,0.0
19104,-8.087914,5.7058563,0.2975006,-1.1586548,1.3816773,0.3993164,0.0
19105,-8.087914,5.7058563,0.2975006,-1.5229248,1.1437867,0.06796875,0.0
19106,-13.350788,16.858032,-1.4486198,-1.5229248,1.1437867,0.06796875,0.0
19107,-13.350788,16.858032,-1.4486198,-0.8209351,0.7412842,-0.3430298,0.0
19108,-12.614944,17.811653,-1.2616196,-0.8209351,0.7412842,-0.3430298,0.0
19109,-12.614944,17.811653,-1.2616196,-0.36533204,0.29311523,-0.53737795,0.0
19110,-9.593579,15.230049,-0.52666473,-0.36533204,0.29311523,-0.53737795,0.0
19111,-9.593579,15.230049,-0.52666473,-0.19434814,-0.11469727,-0.44498292,0.0
19112,-6.8651347,12.886322,0.0928421,-0.19434814,-0.11469727,-0.44498292,0.0
19113,-6.8651347,12.886322,0.0928421,0.10089111,-0.5809204,-0.22833252,0.0
19114,-5.0949397,11.299065,0.57413864,0.10089111,-0.5809204,-0.22833252,0.0
19115,-5.0949397,11.299065,0.57413864,0.6605713,-0.99298096,0.09451904,0.0
19116,-4.01311,9.806511,0.82806015,0.6605713,-0.99298096,0.09451904,0.0
19117,-4.01311,9.806511,0.82806015,1.2595459,-1.2871583,0.43117675,0.0
19118,-3.2865868,8.078033,0.7309532,1.2595459,-1.2871583,0.43117675,0.0
19119,-2.8321505,6.4506836,0.29587173,1.2595459,-1.2871583,0.43117675,0.0
19120,-2.8321505,6.4506836,0.29587173,1.6408081,-1.4315919,0.7497803,0.0
19121,-2.8321505,6.4506836,0.29587173,1.8372803,-1.442212,0.91120607,0.0
19122,-2.7035742,5.215683,-0.2769127,1.8372803,-1.442212,0.91120607,0.0
19123,-2.7035742,5.215683,-0.2769127,1.9286133,-1.3848633,0.8230591,0.0
19124,-2.8462458,4.083992,-0.8976517,1.9286133,-1.3848633,0.8230591,0.0
19125,-2.8462458,4.083992,-0.8976517,1.5739014,-1.2361816,0.5171997,0.0
19126,-3.1923652,2.615921,-1.4066353,1.5739014,-1.2361816,0.5171997,0.0
19127,-3.1923652,2.615921,-1.4066353,1.1533448,-1.2191895,-0.26975098,0.0
19128,-3.9833107,-1.634018,-1.2526512,1.1533448,-1.2191895,-0.26975098,0.0
19129,-3.9833107,-1.634018,-1.2526512,1.4677002,-1.2457398,-1.2722901,0.0
19130,-4.0888214,-13.45108,-0.09736252,1.4677002,-1.2457398,-1.2722901,0.0
19131,-4.0888214,-13.45108,-0.09736252,3.178601,-1.5292969,0.093457036,0.0
19132,2.656189,-34.366066,-0.36577988,3.178601,-1.5292969,0.093457036,0.0
19133,2.656189,-34.366066,-0.36577988,0.9398804,0.33028564,3.8986452,0.0
19134,15.997547,-46.984367,-3.8705406,0.9398804,0.33028564,3.8986452,0.0
19135,15.997547,-46.984367,-3.8705406,-4.072815,-0.35577393,6.1203737,0.0
19136,18.902248,-33.16562,-7.1081257,-4.072815,-0.35577393,6.1203737,0.0
19137,18.902248,-33.16562,-7.1081257,-2.5074098,-2.2769532,5.989746,0.0
19138,8.934434,-7.033661,-6.511404,-2.5074098,-2.2769532,5.989746,0.0
19139,8.934434,-7.033661,-6.511404,0.61278075,-3.5237548,4.8990602,0.0
19140,0.5034306,12.261757,-3.9229412,0.61278075,-3.5237548,4.8990602,0.0
19141,0.5034306,12.261757,-3.9229412,1.4761963,-4.0398927,3.8593507,0.0
19142,-1.8003317,21.32602,-2.3162842,1.4761963,-4.0398927,3.8593507,0.0
19143,-1.8003317,21.32602,-2.3162842,-0.0180542,-4.1269774,3.073462,0.0
19144,-0.52800953,23.304756,-1.7478523,-0.0180542,-4.1269774,3.073462,0.0
19145,-0.52800953,23.304756,-1.7478523,-1.5112427,-3.8710327,2.4670532,0.0
19146,1.0311446,21.925705,-1.1551895,-1.5112427,-3.8710327,2.4670532,0.0
19147,1.0311446,21.925705,-1.1551895,-2.088977,-3.2136476,1.8224121,0.0
19148,1.7424939,19.047905,0.04916382,-2.088977,-3.2136476,1.8224121,0.0
19149,1.7424939,19.047905,0.04916382,-1.8510865,-2.166504,0.99722904,0.0
19150,1.4685435,15.976517,1.7026005,-1.8510865,-2.166504,0.99722904,0.0
19151,1.4685435,15.976517,1.7026005,-1.26698,-1.081128,-0.124255374,0.0
19152,-0.11757231,13.275291,2.9137154,-1.26698,-1.081128,-0.124255374,0.0
19153,-0.11757231,13.275291,2.9137154,-0.67437744,-0.26444092,-1.1883911,0.0
19154,-2.271072,10.356277,3.2401772,-0.67437744,-0.26444092,-1.1883911,0.0
19155,-2.271072,10.356277,3.2401772,0.1274414,0.36639404,-2.0380006,0.0
19156,-3.8293698,6.7578125,3.0714035,0.1274414,0.36639404,-2.0380006,0.0
19157,-3.8293698,6.7578125,3.0714035,0.9781128,0.7657105,-2.7431762,0.0
19158,-4.4428782,3.0581436,2.5187683,0.9781128,0.7657105,-2.7431762,0.0
19159,-4.4428782,3.0581436,2.5187683,1.2361816,0.9197022,-3.2380738,0.0
19160,-4.2120786,0.4847107,1.516798,1.2361816,0.9197022,-3.2380738,0.0
19161,-4.2120786,0.4847107,1.516798,1.2075074,1.2351197,-3.79563,0.0
19162,-3.2788792,-0.7735214,0.53432465,1.2075074,1.2351197,-3.79563,0.0
19163,-3.2788792,-0.7735214,0.53432465,0.0053100586,1.4910644,-4.431775,0.0
19164,-1.4866531,-2.7133865,8.9645386E-4,0.0053100586,1.4910644,-4.431775,0.0
19165,-1.4866531,-2.7133865,8.9645386E-4,-1.5006226,1.7714356,-5.5861816,0.0
19166,1.8470545,-11.098854,-0.5476227,-1.5006226,1.7714356,-5.5861816,0.0
19167,1.8470545,-11.098854,-0.5476227,-1.44646,1.5951416,-5.2474,0.0
19168,9.206354,-30.77304,-1.7045059,-1.44646,1.5951416,-5.2474,0.0
19169,9.206354,-30.77304,-1.7045059,-0.25806886,1.6185058,-0.79119873,0.0
19170,15.186019,-48.568077,-1.4680233,-0.25806886,1.6185058,-0.79119873,0.0
19171,15.186019,-48.568077,-1.4680233,-1.3413209,0.95581055,1.8574585,0.0
19172,9.504638,-41.11412,-0.697855,-1.3413209,0.95581055,1.8574585,0.0
19173,9.504638,-41.11412,-0.697855,-1.0736939,0.5235718,1.7947998,0.0
19174,-3.58108,-13.258606,-0.71619415,-1.0736939,0.5235718,1.7947998,0.0
19175,-3.58108,-13.258606,-0.71619415,-0.35683593,0.2357666,1.174585,0.0
19176,-12.581673,11.399086,0.3066101,-0.35683593,0.2357666,1.174585,0.0
19177,-12.581673,11.399086,0.3066101,0.028674318,0.07965088,0.3536499,0.0
19178,-12.581673,11.399086,0.3066101,0.028674318,0.07965088,0.3536499,0.0
19179,-13.974384,22.6185,1.4584122,0.028674318,0.07965088,0.3536499,0.0
19180,-13.974384,22.6185,1.4584122,-0.46516114,0.045666505,-0.31116945,0.0
19181,-11.257034,23.17949,1.4459038,-0.46516114,0.045666505,-0.31116945,0.0
19182,-11.257034,23.17949,1.4459038,-0.82730716,-0.08496094,-0.6701294,0.0
19183,-8.130908,19.280289,0.7108116,-0.82730716,-0.08496094,-0.6701294,0.0
19184,-8.130908,19.280289,0.7108116,-0.81243896,-0.32178956,-0.8442993,0.0
19185,-5.8234034,14.707092,0.21225357,-0.81243896,-0.32178956,-0.8442993,0.0
19186,-5.8234034,14.707092,0.21225357,-0.7805786,-0.4694092,-0.813501,0.0
19187,-4.00395,11.059059,0.6699734,-0.7805786,-0.4694092,-0.813501,0.0
19188,-4.00395,11.059059,0.6699734,-0.43011475,-0.61702883,-0.58623046,0.0
19189,-2.7206535,8.351311,2.0929127,-0.43011475,-0.61702883,-0.58623046,0.0
19190,-2.7206535,8.351311,2.0929127,0.014868164,-0.93775636,-0.18691407,0.0
19191,-2.3431244,6.342331,3.0214005,0.014868164,-0.93775636,-0.18691407,0.0
19192,-2.3431244,6.342331,3.0214005,0.4959595,-1.4188477,0.3175415,0.0
19193,-2.9603395,4.9030533,2.2436333,0.4959595,-1.4188477,0.3175415,0.0
19194,-2.9603395,4.9030533,2.2436333,1.175647,-2.1325195,0.64995116,0.0
19195,-4.059861,3.6316833,0.63602066,1.175647,-2.1325195,0.64995116,0.0
19196,-4.059861,3.6316833,0.63602066,1.4443359,-2.5583863,0.8708496,0.0
19197,-4.332508,2.4200592,-0.4012909,1.4443359,-2.5583863,0.8708496,0.0
19198,-4.332508,2.4200592,-0.4012909,1.3200806,-2.71344,0.901648,0.0
19199,-3.9192905,0.71474457,-0.7898674,1.3200806,-2.71344,0.901648,0.0
19200,-3.9192905,0.71474457,-0.7898674,1.5622193,-2.983191,0.4056885,0.0
19201,-4.7195997,-4.7064133,-1.5323105,1.5622193,-2.983191,0.4056885,0.0
19202,-4.7195997,-4.7064133,-1.5323105,3.2805543,-3.3687012,-0.42055663,0.0
19203,-5.8447475,-17.596748,-3.3306332,3.2805543,-3.3687012,-0.42055663,0.0
19204,-5.8447475,-17.596748,-3.3306332,5.4003296,-2.7824707,0.7943848,0.0
19205,-1.7480888,-32.810432,-5.1503105,5.4003296,-2.7824707,0.7943848,0.0
19206,-1.7480888,-32.810432,-5.1503105,3.2083375,-1.2160034,2.005078,0.0
19207,9.575223,-36.088005,-5.0284157,3.2083375,-1.2160034,2.005078,0.0
19208,9.575223,-36.088005,-5.0284157,0.38338622,-1.0513916,3.43667,0.0
19209,16.716942,-22.132622,-3.7057781,0.38338622,-1.0513916,3.43667,0.0
19210,16.716942,-22.132622,-3.7057781,-0.6064087,-1.7395753,3.5874755,0.0
19211,12.118597,-2.3540802,-3.5185528,-0.6064087,-1.7395753,3.5874755,0.0
19212,12.118597,-2.3540802,-3.5185528,-0.04141846,-2.4946656,2.9396484,0.0
19213,3.5792522,10.855896,-3.6996803,-0.04141846,-2.4946656,2.9396484,0.0
19214,3.5792522,10.855896,-3.6996803,0.5777344,-3.0139892,2.337488,0.0
19215,-1.0877457,15.906288,-2.345829,0.5777344,-3.0139892,2.337488,0.0
19216,-1.0877457,15.906288,-2.345829,0.5363159,-3.1711671,1.7555054,0.0
19217,-1.1901307,16.814873,0.04701996,0.5363159,-3.1711671,1.7555054,0.0
19218,-1.1901307,16.814873,0.04701996,-0.07115479,-2.9375246,1.2096313,0.0
19219,0.22218752,16.57093,1.9806824,-0.07115479,-2.9375246,1.2096313,0.0
19220,0.22218752,16.57093,1.9806824,-0.7508423,-2.5498903,0.8708496,0.0
19221,0.9853306,15.978142,2.800024,-0.7508423,-2.5498903,0.8708496,0.0
19222,0.9853306,15.978142,2.800024,-1.2468017,-1.8786987,0.630835,0.0
19223,1.1480789,14.7331085,2.6985512,-1.2468017,-1.8786987,0.630835,0.0
19224,1.1480789,14.7331085,2.6985512,-1.2882203,-0.9759888,0.22089843,0.0
19225,0.60682964,12.607361,2.6561546,-1.2882203,-0.9759888,0.22089843,0.0
19226,0.60682964,12.607361,2.6561546,-1.0556396,-0.27612305,-0.43117675,0.0
19227,-1.1682835,9.764816,3.1722984,-1.0556396,-0.27612305,-0.43117675,0.0
19228,-1.1682835,9.764816,3.1722984,-0.8496094,0.11469727,-1.1629028,0.0
19229,-3.2083573,6.4782257,3.4139862,-0.8496094,0.11469727,-1.1629028,0.0
19230,-3.2083573,6.4782257,3.4139862,-0.6881836,0.31860352,-1.8510865,0.0
19231,-4.1607285,3.4643097,2.873951,-0.6881836,0.31860352,-1.8510865,0.0
19232,-4.1607285,3.4643097,2.873951,-0.6669434,0.5607422,-2.4245727,0.0
19233,-3.8794622,1.6836929,2.2181664,-0.6669434,0.5607422,-2.4245727,0.0
19234,-3.8794622,1.6836929,2.2181664,-0.9133301,0.81243896,-3.1095703,0.0
19235,-2.6766415,0.72919464,1.671236,-0.9133301,0.81243896,-3.1095703,0.0
19236,-2.6766415,0.72919464,1.671236,-1.3338867,0.84111327,-3.9135132,0.0
19237,-0.45426464,-2.7189484,0.94576645,-1.3338867,0.84111327,-3.9135132,0.0
19238,-0.45426464,-2.7189484,0.94576645,-0.6966797,0.8007569,-4.455139,0.0
19239,4.925931,-16.398209,1.0317974,-0.6966797,0.8007569,-4.455139,0.0
19240,4.925931,-16.398209,1.0317974,2.4713013,0.8644776,-2.611487,0.0
19241,15.040562,-38.77765,2.544016,2.4713013,0.8644776,-2.611487,0.0
19242,15.040562,-38.77765,2.544016,-0.21346436,1.6503662,1.0195312,0.0
19243,18.097158,-43.416153,2.9807549,-0.21346436,1.6503662,1.0195312,0.0
19244,18.097158,-43.416153,2.9807549,-3.2242677,2.0539308,2.0040162,0.0
19245,6.2213917,-21.623993,0.65966415,-3.2242677,2.0539308,2.0040162,0.0
19246,6.2213917,-21.623993,0.65966415,-2.2408447,1.7576294,1.2075074,0.0
19247,-8.574144,2.5220108,-1.2809601,-2.2408447,1.7576294,1.2075074,0.0
19248,-8.574144,2.5220108,-1.2809601,-1.2882203,1.1490967,0.5777344,0.0
19249,-16.026516,14.948555,-1.0567017,-1.2882203,1.1490967,0.5777344,0.0
19250,-16.026516,14.948555,-1.0567017,-0.08496094,0.56392825,0.0063720704,0.0
19251,-16.01976,17.782433,-0.2701416,-0.08496094,0.56392825,0.0063720704,0.0
19252,-16.01976,17.782433,-0.2701416,-0.23151855,0.06903076,-0.17416993,0.0
19253,-11.992542,16.822754,0.067920685,-0.23151855,0.06903076,-0.17416993,0.0
19254,-11.992542,16.822754,0.067920685,-0.60959476,-0.1985962,-0.16248779,0.0
19255,-7.3322783,14.922775,0.09339905,-0.60959476,-0.1985962,-0.16248779,0.0
19256,-7.3322783,14.922775,0.09339905,-0.43754885,-0.39613038,-0.124255374,0.0
19257,-4.0776997,12.58783,0.3028183,-0.43754885,-0.39613038,-0.124255374,0.0
19258,-4.0776997,12.58783,0.3028183,-0.23364258,-0.49489745,-0.04885254,0.0
19259,-2.7740736,10.148094,0.4768486,-0.23364258,-0.49489745,-0.04885254,0.0
19260,-2.7740736,10.148094,0.4768486,0.13168946,-0.7688965,0.2782471,0.0
19261,-1.69316,7.6730194,1.0537682,0.13168946,-0.7688965,0.2782471,0.0
19262,-1.69316,7.6730194,1.0537682,0.23895264,-0.8517334,0.4088745,0.0
19263,-1.4576035,5.9275665,1.0045738,0.23895264,-0.8517334,0.4088745,0.0
19264,-1.4576035,5.9275665,1.0045738,0.80181885,-1.1671509,0.5957886,0.0
19265,-1.5963802,4.192856,0.69116974,0.80181885,-1.1671509,0.5957886,0.0
19266,-1.5963802,4.192856,0.69116974,0.83686525,-1.3657471,0.6711914,0.0
19267,-1.5419483,2.7688217,0.35684204,0.83686525,-1.3657471,0.6711914,0.0
19268,-1.5419483,2.7688217,0.35684204,0.68924564,-1.5250489,0.8379273,0.0
19269,-1.0885391,0.19623566,0.1732521,0.68924564,-1.5250489,0.8379273,0.0
19270,-1.0885391,0.19623566,0.1732521,0.71579593,-1.5590333,0.9515625,0.0
19271,-0.9278259,-2.1349792,0.24612045,0.71579593,-1.5590333,0.9515625,0.0
19272,-0.9278259,-2.1349792,0.24612045,1.8659546,-1.8266602,0.86341554,0.0
19273,-1.5788822,-17.383408,0.58018494,1.8659546,-1.8266602,0.86341554,0.0
19274,-1.5788822,-17.383408,0.58018494,3.9262574,-1.893567,1.7979859,0.0
19275,-0.20872307,-30.156921,0.24743652,3.9262574,-1.893567,1.7979859,0.0
19276,-0.20872307,-30.156921,0.24743652,2.803711,-0.89846194,3.0543458,0.0
19277,5.2294445,-33.751602,-1.3244133,2.803711,-0.89846194,3.0543458,0.0
19278,5.2294445,-33.751602,-1.3244133,1.9551636,-0.5235718,3.4812744,0.0
19279,7.407543,-26.489532,-2.0396194,1.9551636,-0.5235718,3.4812744,0.0
19280,7.407543,-26.489532,-2.0396194,-0.17947999,-0.44179687,3.9294434,0.0
19281,9.721616,-3.9782715,-3.9511528,-0.17947999,-0.44179687,3.9294434,0.0
19282,9.721616,-3.9782715,-3.9511528,-0.6064087,-1.174585,3.5524292,0.0
19283,4.777134,11.2068405,-3.7902203,-0.6064087,-1.174585,3.5524292,0.0
19284,4.777134,11.2068405,-3.7902203,-0.632959,-1.7342652,2.7612305,0.0
19285,0.44180012,18.890533,-2.510643,-0.632959,-1.7342652,2.7612305,0.0
19286,0.44180012,18.890533,-2.510643,-0.56817627,-1.9976441,2.355542,0.0
19287,-0.6574974,18.280167,-1.1061211,-0.56817627,-1.9976441,2.355542,0.0
19288,-0.6574974,18.280167,-1.1061211,-0.33665773,-2.7739747,1.1161743,0.0
19289,-0.10551453,17.76809,1.9077187,-0.33665773,-2.7739747,1.1161743,0.0
19290,-0.10551453,17.76809,1.9077187,-0.11151123,-3.0362916,0.6977417,0.0
19291,1.1929684,13.952148,2.5003567,-0.11151123,-3.0362916,0.6977417,0.0
19292,1.1929684,13.952148,2.5003567,-0.19222413,-2.7548585,0.34940186,0.0
19293,1.9740276,11.705238,1.9944496,-0.19222413,-2.7548585,0.34940186,0.0
19294,1.9740276,11.705238,1.9944496,-0.41312256,-2.4819214,0.1731079,0.0
19295,1.7798691,10.453079,1.5632973,-0.41312256,-2.4819214,0.1731079,0.0
19296,1.7798691,10.453079,1.5632973,-0.9281983,-1.8001099,-0.31116945,0.0
19297,1.3011055,11.277176,0.8566055,-0.9281983,-1.8001099,-0.31116945,0.0
19298,1.3011055,11.277176,0.8566055,-1.2138795,-0.4715332,-1.4400879,0.0
19299,-0.70301247,10.519455,0.76083374,-1.2138795,-0.4715332,-1.4400879,0.0
19300,-0.70301247,10.519455,0.76083374,-1.3476928,-0.16248779,-1.7278931,0.0
19301,-1.2236404,7.5142365,0.79579926,-1.3476928,-0.16248779,-1.7278931,0.0
19302,-1.2236404,7.5142365,0.79579926,-1.5229248,0.32072756,-2.3289917,0.0
19303,-1.6457949,3.4231567,0.68291473,-1.5229248,0.32072756,-2.3289917,0.0
19304,-1.6457949,3.4231567,0.68291473,-1.5962037,0.78164065,-2.9162843,0.0
19305,-1.0331764,0.5714798,0.40343475,-1.5962037,0.78164065,-2.9162843,0.0
19306,-1.0331764,0.5714798,0.40343475,-2.3725343,1.6726685,-3.606592,0.0
19307,0.056613922,-0.9343796,0.67290497,-2.3725343,1.6726685,-3.606592,0.0
19308,0.056613922,-0.9343796,0.67290497,-2.9396484,1.8234742,-3.7680175,0.0
19309,0.59097004,-2.3240204,0.5874443,-2.9396484,1.8234742,-3.7680175,0.0
19310,0.59097004,-2.3240204,0.5874443,-2.6029909,1.8447144,-4.2214966,0.0
19311,3.0796242,-12.295631,0.5336647,-2.6029909,1.8447144,-4.2214966,0.0
19312,3.0796242,-12.295631,0.5336647,0.34940186,1.8691406,-4.414783,0.0
19313,8.837064,-30.488434,0.05040741,0.34940186,1.8691406,-4.414783,0.0
19314,8.837064,-30.488434,0.05040741,-0.9717407,1.1363525,0.21134034,0.0
19315,11.683653,-42.9078,0.48898315,-0.9717407,1.1363525,0.21134034,0.0
19316,11.683653,-42.9078,0.48898315,-1.8447144,1.1098022,1.002539,0.0
19317,6.5311384,-31.296051,0.343956,-1.8447144,1.1098022,1.002539,0.0
19318,6.5311384,-31.296051,0.343956,-2.071985,0.9515625,1.3753052,0.0
19319,-4.1006265,-9.878433,-0.2622261,-2.071985,0.9515625,1.3753052,0.0
19320,-4.1006265,-9.878433,-0.2622261,-2.1452637,0.77951664,1.1820191,0.0
19321,-11.542244,7.770874,-0.23012924,-2.1452637,0.77951664,1.1820191,0.0
19322,-11.542244,7.770874,-0.23012924,-1.3307008,0.81881106,0.70198977,0.0
19323,-13.40036,15.43811,0.71565247,-1.3307008,0.81881106,0.70198977,0.0
19324,-13.40036,15.43811,0.71565247,-0.8358032,0.6690674,0.43117675,0.0
19325,-11.550892,16.687538,2.2657852,-0.8358032,0.6690674,0.43117675,0.0
19326,-11.550892,16.687538,2.2657852,-0.4088745,0.70942384,0.17735596,0.0
19327,-7.282913,16.583603,3.9788399,-0.4088745,0.70942384,0.17735596,0.0
19328,-7.282913,16.583603,3.9788399,-0.15717773,0.6616333,0.16142578,0.0
19329,-5.0190067,13.946228,3.2760391,-0.15717773,0.6616333,0.16142578,0.0
19330,-5.0190067,13.946228,3.2760391,0.2803711,0.52038574,0.2357666,0.0
19331,-2.83387,12.1491165,1.9625435,0.2803711,0.52038574,0.2357666,0.0
19332,-2.83387,12.1491165,1.9625435,0.23895264,0.36639404,0.46728516,0.0
19333,-1.4417782,10.263519,0.5402756,0.23895264,0.36639404,0.46728516,0.0
19334,-1.4417782,10.263519,0.5402756,-0.093457036,0.3706421,0.7062378,0.0
19335,-0.6682663,8.223625,-0.20870972,-0.093457036,0.3706421,0.7062378,0.0
19336,-0.6682663,8.223625,-0.20870972,0.007434082,0.17523193,0.76677245,0.0
19337,-0.84508705,6.0434113,-0.3451538,0.007434082,0.17523193,0.76677245,0.0
19338,-0.84508705,6.0434113,-0.3451538,0.6180908,-0.22833252,0.7890747,0.0
19339,-1.3312817,3.53656,-0.30584717,0.6180908,-0.22833252,0.7890747,0.0
19340,-1.3312817,3.53656,-0.30584717,0.9388184,-0.5511841,1.1618408,0.0
19341,-1.0075054,-0.36418152,-0.4357071,0.9388184,-0.5511841,1.1618408,0.0
19342,-1.0075054,-0.36418152,-0.4357071,1.2319336,-0.49489745,1.7342652,0.0
19343,-0.19085503,-7.469223,-0.25720978,1.2319336,-0.49489745,1.7342652,0.0
19344,-0.19085503,-7.469223,-0.25720978,2.4054565,-0.8464233,2.1303957,0.0
19345,-0.32722092,-18.606567,-0.2108345,2.4054565,-0.8464233,2.1303957,0.0
19346,-0.32722092,-18.606567,-0.2108345,2.4054565,-0.8464233,2.1303957,0.0
19347,-0.19167137,-28.879654,-2.0852928,2.4054565,-0.8464233,2.1303957,0.0
19348,-0.19167137,-28.879654,-2.0852928,3.0044312,-1.1151123,2.987439,0.0
19349,-0.19167137,-28.879654,-2.0852928,0.817749,-0.38657227,4.1046753,0.0
19350,2.9334183,-28.287964,-5.289547,0.817749,-0.38657227,4.1046753,0.0
19351,2.9334183,-28.287964,-5.289547,-1.81073,-0.81243896,4.6218753,0.0
19352,7.264288,-8.974182,-7.1824303,-1.81073,-0.81243896,4.6218753,0.0
19353,5.7446823,-0.023765564,-5.638876,-1.81073,-0.81243896,4.6218753,0.0
19354,5.7446823,-0.023765564,-5.638876,-1.8638306,-1.4114136,4.461511,0.0
19355,5.7446823,-0.023765564,-5.638876,-1.0673218,-2.4702394,3.4791505,0.0
19356,2.6569157,11.54985,-3.8963299,-1.0673218,-2.4702394,3.4791505,0.0
19357,2.6569157,11.54985,-3.8963299,-0.42161867,-3.2932985,2.077295,0.0
19358,0.32069874,16.843948,-1.7774162,-0.42161867,-3.2932985,2.077295,0.0
19359,0.32069874,16.843948,-1.7774162,-0.37489015,-3.6798706,0.21558838,0.0
19360,1.1493568,19.149658,0.97127914,-0.37489015,-3.6798706,0.21558838,0.0
19361,1.1493568,19.149658,0.97127914,-0.2357666,-3.5895996,-0.22196046,0.0
19362,1.8271027,16.242157,1.6714458,-0.2357666,-3.5895996,-0.22196046,0.0
19363,1.8271027,16.242157,1.6714458,-0.06265869,-3.1446168,-0.72004396,0.0
19364,3.6666384,14.330528,2.274229,-0.06265869,-3.1446168,-0.72004396,0.0
19365,3.6666384,14.330528,2.274229,-0.5320679,-2.247217,-0.8581055,0.0
19366,4.5948706,13.017082,2.6611557,-0.5320679,-2.247217,-0.8581055,0.0
19367,4.5948706,13.017082,2.6611557,-1.6025757,-0.6435791,-1.1990112,0.0
19368,3.8014832,12.0987625,3.886116,-1.6025757,-0.6435791,-1.1990112,0.0
19369,3.8014832,12.0987625,3.886116,-1.6174439,-0.14655761,-1.3912354,0.0
19370,2.2107668,9.304375,3.9873962,-1.6174439,-0.14655761,-1.3912354,0.0
19371,2.2107668,9.304375,3.9873962,-1.1629028,0.70942384,-1.8744507,0.0
19372,-0.37630844,5.4094543,4.5200806,-1.1629028,0.70942384,-1.8744507,0.0
19373,-0.37630844,5.4094543,4.5200806,-0.18691407,1.355127,-2.4235108,0.0
19374,-2.0364714,1.2420654,3.8720589,-0.18691407,1.355127,-2.4235108,0.0
19375,-2.0364714,1.2420654,3.8720589,0.3154175,1.806482,-2.8217652,0.0
19376,-2.4022732,-2.696949,2.4809837,0.3154175,1.806482,-2.8217652,0.0
19377,-2.4022732,-2.696949,2.4809837,0.025488282,1.9434814,-2.7559204,0.0
19378,-1.8126144,-3.8333282,1.7352524,0.025488282,1.9434814,-2.7559204,0.0
19379,-1.8126144,-3.8333282,1.7352524,-0.2824951,2.1505737,-2.1080933,0.0
19380,-0.8226013,-9.6996,1.0068665,-0.2824951,2.1505737,-2.1080933,0.0
19381,-0.8226013,-9.6996,1.0068665,0.9759888,2.1123414,-2.0985353,0.0
19382,0.7165289,-21.447472,0.1432991,0.9759888,2.1123414,-2.0985353,0.0
19383,0.7165289,-21.447472,0.1432991,2.4288208,2.0305665,-1.0630738,0.0
19384,3.4697685,-32.562447,-0.24613953,2.4288208,2.0305665,-1.0630738,0.0
19385,3.4697685,-32.562447,-0.24613953,-0.1083252,2.6879518,0.92713624,0.0
19386,4.295725,-30.388,-0.91386795,-0.1083252,2.6879518,0.92713624,0.0
19387,4.295725,-30.388,-0.91386795,-2.4012086,2.6688354,1.9116211,0.0
19388,0.89134026,-15.013718,-2.4118195,-2.4012086,2.6688354,1.9116211,0.0
19389,0.89134026,-15.013718,-2.4118195,-2.2004883,2.6019287,1.6705445,0.0
19390,-3.5560198,0.82632446,-3.0788803,-2.2004883,2.6019287,1.6705445,0.0
19391,-3.5560198,0.82632446,-3.0788803,-1.5048707,2.340674,1.0641358,0.0
19392,-6.621073,10.829285,-2.225788,-1.5048707,2.340674,1.0641358,0.0
19393,-6.621073,10.829285,-2.225788,-0.71579593,2.0422485,0.2623169,0.0
19394,-7.9290485,15.273476,-1.2234154,-0.71579593,2.0422485,0.2623169,0.0
19395,-7.9290485,15.273476,-1.2234154,-0.6531372,1.6185058,-0.49171144,0.0
19396,-7.6693373,16.433395,-0.7092018,-0.6531372,1.6185058,-0.49171144,0.0
19397,-7.6693373,16.433395,-0.7092018,-0.9791748,1.2202514,-0.9866089,0.0
19398,-5.9678307,15.973267,-0.37679672,-0.9791748,1.2202514,-0.9866089,0.0
19399,-5.9678307,15.973267,-0.37679672,-0.97386473,0.9420044,-1.2457398,0.0
19400,-3.5795631,13.869789,0.25154114,-0.97386473,0.9420044,-1.2457398,0.0
19401,-3.5795631,13.869789,0.25154114,-0.43861085,0.75296634,-1.2478638,0.0
19402,-1.6401157,10.391792,1.3077126,-0.43861085,0.75296634,-1.2478638,0.0
19403,-1.6401157,10.391792,1.3077126,0.2782471,0.4694092,-1.1129884,0.0
19404,-0.6681347,6.9127884,2.1856499,0.2782471,0.4694092,-1.1129884,0.0
19405,-0.6681347,6.9127884,2.1856499,0.7338501,0.1901001,-0.8846558,0.0
19406,-0.46435356,4.6708527,2.141121,0.7338501,0.1901001,-0.8846558,0.0
19407,-0.46435356,4.6708527,2.141121,0.8591675,-0.05628662,-0.6977417,0.0
19408,-0.5842514,3.4987564,1.218792,0.8591675,-0.05628662,-0.6977417,0.0
19409,-0.5842514,3.4987564,1.218792,0.67225343,-0.26656494,-0.53737795,0.0
19410,-0.76320267,2.1611252,0.05083847,0.67225343,-0.26656494,-0.53737795,0.0
19411,-0.76320267,2.1611252,0.05083847,0.7423462,-0.4364868,-0.21240234,0.0
19412,-0.7832184,-1.3986053,-0.85987854,0.7423462,-0.4364868,-0.21240234,0.0
19413,-0.7832184,-1.3986053,-0.85987854,1.8245362,-0.6138428,0.3727661,0.0
19414,-0.4860592,-9.533325,-0.7923355,1.8245362,-0.6138428,0.3727661,0.0
19415,-0.4860592,-9.533325,-0.7923355,3.6958008,-1.1533448,1.2722901,0.0
19416,0.13334465,-22.137161,0.70568085,3.6958008,-1.1533448,1.2722901,0.0
19417,0.13334465,-22.137161,0.70568085,5.621228,-0.901648,2.618921,0.0
19418,1.8357658,-33.346275,0.8448906,5.621228,-0.901648,2.618921,0.0
19419,1.8357658,-33.346275,0.8448906,3.0267334,0.24638672,3.8147461,0.0
19420,5.2312965,-32.607544,-2.263054,3.0267334,0.24638672,3.8147461,0.0
19421,5.2312965,-32.607544,-2.263054,-0.5692383,1.1406006,4.961719,0.0
19422,7.283243,-18.519073,-5.0933533,-0.5692383,1.1406006,4.961719,0.0
19423,7.283243,-18.519073,-5.0933533,-2.4266968,0.67331547,5.515027,0.0
19424,5.1383867,-0.42806244,-5.4677124,-2.4266968,0.67331547,5.515027,0.0
19425,5.1383867,-0.42806244,-5.4677124,-3.8455446,-0.6711914,4.952161,0.0
19426,1.016923,14.416603,-4.8461666,-3.8455446,-0.6711914,4.952161,0.0
19427,1.016923,14.416603,-4.8461666,-3.9305055,-2.2312868,3.439856,0.0
19428,-1.262475,22.007744,-3.1345997,-3.9305055,-2.2312868,3.439856,0.0
19429,-1.262475,22.007744,-3.1345997,-2.3353639,-3.3007324,1.3275146,0.0
19430,0.06377411,22.300858,0.6503906,-2.3353639,-3.3007324,1.3275146,0.0
19431,0.06377411,22.300858,0.6503906,-0.57242435,-3.6851807,-0.5161377,0.0
19432,3.0224552,19.32328,4.1654167,-0.57242435,-3.6851807,-0.5161377,0.0
19433,3.0224552,19.32328,4.1654167,-0.0722168,-3.5694215,-1.7873658,0.0
19434,4.5785847,16.627007,4.5969315,-0.0722168,-3.5694215,-1.7873658,0.0
19435,4.5785847,16.627007,4.5969315,-0.45666504,-2.9523926,-2.5806885,0.0
19436,4.6434097,14.491013,2.5341263,-0.45666504,-2.9523926,-2.5806885,0.0
19437,4.6434097,14.491013,2.5341263,-0.8421753,-1.996582,-2.9226563,0.0
19438,4.2467346,11.72184,0.48962784,-0.8421753,-1.996582,-2.9226563,0.0
19439,4.2467346,11.72184,0.48962784,-0.87403566,-0.8209351,-2.986377,0.0
19440,3.210865,8.279621,0.26391983,-0.87403566,-0.8209351,-2.986377,0.0
19441,3.210865,8.279621,0.26391983,-0.9345703,0.2984253,-3.0957642,0.0
19442,1.2023344,4.8948746,1.5502357,-0.9345703,0.2984253,-3.0957642,0.0
19443,1.2023344,4.8948746,1.5502357,-0.7455322,1.2361816,-3.3793213,0.0
19444,-0.78803444,1.6838531,2.4081345,-0.7455322,1.2361816,-3.3793213,0.0
19445,-0.78803444,1.6838531,2.4081345,-0.50445557,1.8861328,-3.7818239,0.0
19446,-0.78803444,1.6838531,2.4081345,-0.45347902,2.4713013,-4.1259155,0.0
19447,-1.5128736,-1.1903229,1.4659615,-0.45347902,2.4713013,-4.1259155,0.0
19448,4.456767,-12.397469,-0.9153633,-0.45347902,2.4713013,-4.1259155,0.0
19449,4.456767,-12.397469,-0.9153633,-1.3466309,3.2062135,-4.358496,0.0
19450,4.456767,-12.397469,-0.9153633,-2.5530763,3.5205688,-4.2767215,0.0
19451,4.456767,-12.397469,-0.9153633,-1.3880494,2.535022,-3.2274537,0.0
19452,9.827938,-29.720444,-2.0244408,-1.3880494,2.535022,-3.2274537,0.0
19453,9.827938,-29.720444,-2.0244408,0.20390625,2.1261475,-0.17841797,0.0
19454,13.077402,-47.032166,-4.3548546,0.20390625,2.1261475,-0.17841797,0.0
19455,13.077402,-47.032166,-4.3548546,-1.8362182,1.5675293,2.1049073,0.0
19456,7.172334,-41.87713,-5.2779617,-1.8362182,1.5675293,2.1049073,0.0
19457,7.172334,-41.87713,-5.2779617,-1.7034668,1.6068238,2.2992554,0.0
19458,-3.956188,-16.796257,-3.2983475,-1.7034668,1.6068238,2.2992554,0.0
19459,-3.956188,-16.796257,-3.2983475,-0.9526245,1.8043579,2.0326905,0.0
19460,-11.497348,8.0362625,0.13345337,-0.9526245,1.8043579,2.0326905,0.0
19461,-11.497348,8.0362625,0.13345337,-1.2191895,2.0263183,1.3806152,0.0
19462,-13.624039,21.972626,2.0569096,-1.2191895,2.0263183,1.3806152,0.0
19463,-13.624039,21.972626,2.0569096,-1.442212,1.993396,0.7455322,0.0
19464,-12.458984,24.617546,2.181244,-1.442212,1.993396,0.7455322,0.0
19465,-12.458984,24.617546,2.181244,-1.270166,1.6535523,0.3525879,0.0
19466,-10.00918,21.076485,1.5448723,-1.270166,1.6535523,0.3525879,0.0
19467,-10.00918,21.076485,1.5448723,-0.6775635,1.3625611,0.095581055,0.0
19468,-7.2783766,16.40416,1.1929893,-0.6775635,1.3625611,0.095581055,0.0
19469,-7.2783766,16.40416,1.1929893,-0.16142578,1.0609497,0.1359375,0.0
19470,-4.8329315,12.704689,1.7115326,-0.16142578,1.0609497,0.1359375,0.0
19471,-4.8329315,12.704689,1.7115326,0.0063720704,0.6202149,0.32922363,0.0
19472,-3.0566654,10.049728,2.118103,0.0063720704,0.6202149,0.32922363,0.0
19473,-3.0566654,10.049728,2.118103,0.15080567,0.15823975,0.32816163,0.0
19474,-2.0617504,7.878029,1.5261955,0.15080567,0.15823975,0.32816163,0.0
19475,-2.0617504,7.878029,1.5261955,0.6117188,-0.38232422,0.28674316,0.0
19476,-2.0617504,7.878029,1.5261955,0.86553955,-0.8336792,0.20390625,0.0
19477,-1.5723858,5.7650833,0.3683319,0.86553955,-0.8336792,0.20390625,0.0
19478,0.41216087,-0.36904144,-0.5383644,0.86553955,-0.8336792,0.20390625,0.0
19479,0.41216087,-0.36904144,-0.5383644,0.79013675,-1.1883911,0.1731079,0.0
19480,0.41216087,-0.36904144,-0.5383644,0.63933104,-1.4517701,0.28674316,0.0
19481,0.41216087,-0.36904144,-0.5383644,0.8485474,-1.8691406,0.815625,0.0
19482,-0.05417061,-8.578133,-0.6559715,0.8485474,-1.8691406,0.815625,0.0
19483,-0.05417061,-8.578133,-0.6559715,0.8485474,-1.8691406,0.815625,0.0
19484,-0.05417061,-8.578133,-0.6559715,1.7427613,-2.5870607,1.0790039,0.0
19485,-1.5226707,-23.302925,-2.6117287,1.7427613,-2.5870607,1.0790039,0.0
19486,-1.5226707,-23.302925,-2.6117287,2.0454347,-2.6667116,3.085144,0.0
19487,-0.58799744,-37.02147,-5.6449127,2.0454347,-2.6667116,3.085144,0.0
19488,-0.58799744,-37.02147,-5.6449127,0.8517334,-2.267395,4.640991,0.0
19489,4.352453,-35.62915,-7.0395374,0.8517334,-2.267395,4.640991,0.0
19490,4.352453,-35.62915,-7.0395374,-0.62764895,-2.2408447,5.4757323,0.0
19491,8.155804,-17.05983,-5.9740257,-0.62764895,-2.2408447,5.4757323,0.0
19492,8.155804,-17.05983,-5.9740257,-1.3360108,-2.5732543,5.1337647,0.0
19493,7.4304047,4.8615723,-3.3150597,-1.3360108,-2.5732543,5.1337647,0.0
19494,7.4304047,4.8615723,-3.3150597,-1.0991821,-2.8716798,3.7712038,0.0
19495,4.3252325,19.00145,-0.48321342,-1.0991821,-2.8716798,3.7712038,0.0
19496,4.3252325,19.00145,-0.48321342,-0.8028809,-3.0044312,2.1049073,0.0
19497,1.7631149,24.189026,1.8171768,-0.8028809,-3.0044312,2.1049073,0.0
19498,1.7631149,24.189026,1.8171768,-0.8623535,-2.8323853,0.63614506,0.0
19499,1.5014591,23.615738,3.4212475,-0.8623535,-2.8323853,0.63614506,0.0
19500,1.5014591,23.615738,3.4212475,-0.72004396,-2.3778443,-0.54375,0.0
19501,2.857112,20.560013,4.2821026,-0.72004396,-2.3778443,-0.54375,0.0
19502,2.857112,20.560013,4.2821026,-0.9600586,-1.7714356,-1.351941,0.0
19503,4.124178,17.329567,4.9328957,-0.9600586,-1.7714356,-1.351941,0.0
19504,4.124178,17.329567,4.9328957,-1.0089111,-1.1968873,-1.9530395,0.0
19505,4.2556896,13.862473,5.2829247,-1.0089111,-1.1968873,-1.9530395,0.0
19506,4.2556896,13.862473,5.2829247,-0.44179687,-0.65207523,-2.4755495,0.0
19507,3.3724108,9.6592865,4.836693,-0.44179687,-0.65207523,-2.4755495,0.0
19508,3.3724108,9.6592865,4.836693,0.4694092,0.14761963,-2.9470825,0.0
19509,1.8582191,5.626499,3.874382,0.4694092,0.14761963,-2.9470825,0.0
19510,1.8582191,5.626499,3.874382,0.9568726,0.814563,-3.4929566,0.0
19511,-0.0065641403,2.5429688,2.588726,0.9568726,0.814563,-3.4929566,0.0
19512,-0.0065641403,2.5429688,2.588726,0.99085695,1.2935303,-4.0303345,0.0
19513,-1.1661158,0.3549347,0.7864609,0.99085695,1.2935303,-4.0303345,0.0
19514,-1.1661158,0.3549347,0.7864609,0.77951664,1.717273,-4.425403,0.0
19515,-1.0740423,-1.2138786,-0.76203156,0.77951664,1.717273,-4.425403,0.0
19516,-1.0740423,-1.2138786,-0.76203156,0.3982544,2.3343017,-4.816223,0.0
19517,-0.38541794,-2.2815895,-1.2274246,0.3982544,2.3343017,-4.816223,0.0
19518,-0.38541794,-2.2815895,-1.2274246,-1.0322754,2.9364624,-5.2824464,0.0
19519,0.621439,-4.335144,-1.4139824,-1.0322754,2.9364624,-5.2824464,0.0
19520,0.621439,-4.335144,-1.4139824,-1.6100098,2.9651368,-5.4704223,0.0
19521,3.2943192,-14.36129,-2.3596535,-1.6100098,2.9651368,-5.4704223,0.0
19522,3.2943192,-14.36129,-2.3596535,-0.6202149,3.2996705,-4.436023,0.0
19523,9.148761,-33.929703,-3.1542282,-0.6202149,3.2996705,-4.436023,0.0
19524,9.148761,-33.929703,-3.1542282,-0.40144044,1.8914429,-0.59047854,0.0
19525,12.04728,-46.437027,-1.3274117,-0.40144044,1.8914429,-0.59047854,0.0
19526,12.04728,-46.437027,-1.3274117,-1.5972656,1.7045288,1.4910644,0.0
19527,5.8277416,-35.409195,0.22858429,-1.5972656,1.7045288,1.4910644,0.0
19528,5.8277416,-35.409195,0.22858429,-1.6386842,1.7576294,1.4825684,0.0
19529,-5.0458145,-9.479202,-0.7945137,-1.6386842,1.7576294,1.4825684,0.0
19530,-5.0458145,-9.479202,-0.7945137,-1.7640015,1.7045288,1.170337,0.0
19531,-12.866803,11.392532,-1.2967567,-1.7640015,1.7045288,1.170337,0.0
19532,-12.866803,11.392532,-1.2967567,-1.6121339,1.5526612,0.59897465,0.0
19533,-14.460716,20.167778,-0.34536362,-1.6121339,1.5526612,0.59897465,0.0
19534,-14.460716,20.167778,-0.34536362,-1.5855836,1.3445069,0.21346436,0.0
19535,-12.178082,20.479607,1.0805588,-1.5855836,1.3445069,0.21346436,0.0
19536,-12.178082,20.479607,1.0805588,-1.2882203,1.0386475,0.02442627,0.0
19537,-9.014097,17.423752,2.0469666,-1.2882203,1.0386475,0.02442627,0.0
19538,-9.014097,17.423752,2.0469666,-0.75615233,0.77951664,-0.107263185,0.0
19539,-6.1309185,14.049194,2.1807365,-0.75615233,0.77951664,-0.107263185,0.0
19540,-6.1309185,14.049194,2.1807365,-0.20072022,0.5055176,-0.115759276,0.0
19541,-3.9611797,11.517532,1.9165154,-0.20072022,0.5055176,-0.115759276,0.0
19542,-3.9611797,11.517532,1.9165154,0.021240234,0.1529297,0.1274414,0.0
19543,-2.584423,9.833763,1.6874962,0.021240234,0.1529297,0.1274414,0.0
19544,-2.584423,9.833763,1.6874962,-0.3440918,-0.040356446,0.5097656,0.0
19545,-1.7472992,8.323235,1.1800117,-0.3440918,-0.040356446,0.5097656,0.0
19546,-1.7472992,8.323235,1.1800117,0.17416993,-0.43967286,0.6053467,0.0
19547,-1.7472992,8.323235,1.1800117,0.99935305,-0.93563235,0.5671143,0.0
19548,-1.6694717,6.048996,0.27109528,0.99935305,-0.93563235,0.5671143,0.0
19549,-1.0358334,-0.44783783,-1.5519333,0.99935305,-0.93563235,0.5671143,0.0
19550,-1.0358334,-0.44783783,-1.5519333,1.2329956,-1.2712281,0.52038574,0.0
19551,-1.0358334,-0.44783783,-1.5519333,0.811377,-1.4284058,0.6510132,0.0
19552,-1.0358334,-0.44783783,-1.5519333,0.6531372,-1.4687623,0.77102053,0.0
19553,-0.879961,-8.781464,-1.4604912,0.6531372,-1.4687623,0.77102053,0.0
19554,-0.879961,-8.781464,-1.4604912,2.7782228,-1.9742798,0.32178956,0.0
19555,0.027074814,-25.066605,-1.0767403,2.7782228,-1.9742798,0.32178956,0.0
19556,0.027074814,-25.066605,-1.0767403,3.3251588,-1.4783204,2.9821289,0.0
19557,6.7567787,-39.917984,-2.1982574,3.3251588,-1.4783204,2.9821289,0.0
19558,6.7567787,-39.917984,-2.1982574,-0.41312256,-0.5703003,4.6781616,0.0
19559,13.67194,-34.37268,-5.1029778,-0.41312256,-0.5703003,4.6781616,0.0
19560,13.67194,-34.37268,-5.1029778,-2.3162477,-0.98129886,5.222974,0.0
19561,11.659879,-11.779015,-6.1421356,-2.3162477,-0.98129886,5.222974,0.0
19562,11.659879,-11.779015,-6.1421356,-1.6556762,-2.2079225,4.5783324,0.0
19563,4.9827127,7.922165,-3.2111702,-1.6556762,-2.2079225,4.5783324,0.0
19564,4.9827127,7.922165,-3.2111702,1.3859253,-3.5407472,3.3729494,0.0
19565,-0.5049553,16.794128,0.5925617,1.3859253,-3.5407472,3.3729494,0.0
19566,-0.5049553,16.794128,0.5925617,2.6327271,-3.976172,2.0687988,0.0
19567,-2.4274998,19.727844,1.8314095,2.6327271,-3.976172,2.0687988,0.0
19568,-2.4274998,19.727844,1.8314095,1.0036011,-3.5173829,1.1161743,0.0
19569,-1.0223341,23.323326,1.2973309,1.0036011,-3.5173829,1.1161743,0.0
19570,-1.0223341,23.323326,1.2973309,-1.2892822,-2.7336183,0.30054933,0.0
19571,0.94625664,26.274544,0.97901535,-1.2892822,-2.7336183,0.30054933,0.0
19572,0.94625664,26.274544,0.97901535,-2.3704102,-2.0348146,-0.52038574,0.0
19573,1.7358751,24.331284,1.2798672,-2.3704102,-2.0348146,-0.52038574,0.0
19574,1.7358751,24.331284,1.2798672,-1.7767457,-1.3912354,-1.5144287,0.0
19575,1.7815104,17.495605,1.8666191,-1.7767457,-1.3912354,-1.5144287,0.0
19576,1.7815104,17.495605,1.8666191,-0.8336792,-0.31435546,-2.1888063,0.0
19577,1.4287481,9.743492,3.0575905,-0.8336792,-0.31435546,-2.1888063,0.0
19578,1.4287481,9.743492,3.0575905,-0.014868164,0.81881106,-2.7569826,0.0
19579,0.3026905,4.1254196,4.180641,-0.014868164,0.81881106,-2.7569826,0.0
19580,0.3026905,4.1254196,4.180641,0.30054933,1.4963745,-3.3814454,0.0
19581,-1.1612902,0.9365425,3.5881424,0.30054933,1.4963745,-3.3814454,0.0
19582,-1.1612902,0.9365425,3.5881424,0.27612305,1.81604,-3.979358,0.0
19583,-1.6052656,-0.8209839,1.3051682,0.27612305,1.81604,-3.979358,0.0
19584,-1.6052656,-0.8209839,1.3051682,-0.0722168,2.18562,-4.3850465,0.0
19585,-0.50187683,-1.8415756,-0.92876434,-0.0722168,2.18562,-4.3850465,0.0
19586,-0.50187683,-1.8415756,-0.92876434,-0.8995239,2.521216,-4.7333865,0.0
19587,1.375452,-2.5590897,-1.613739,-0.8995239,2.521216,-4.7333865,0.0
19588,1.375452,-2.5590897,-1.613739,-1.5707153,2.8334472,-5.04668,0.0
19589,4.1309767,-6.363884,-1.3514175,-1.5707153,2.8334472,-5.04668,0.0
19590,4.1309767,-6.363884,-1.3514175,-2.3364258,3.1021364,-4.923486,0.0
19591,10.813168,-19.65532,-1.1758614,-2.3364258,3.1021364,-4.923486,0.0
19592,10.813168,-19.65532,-1.1758614,-1.0343994,3.059656,-3.3017945,0.0
19593,18.653,-39.124756,-0.8159828,-1.0343994,3.059656,-3.3017945,0.0
19594,18.653,-39.124756,-0.8159828,-1.9487915,2.5159059,0.21877442,0.0
19595,16.363,-44.37738,-0.63972473,-1.9487915,2.5159059,0.21877442,0.0
19596,16.363,-44.37738,-0.63972473,-2.356604,2.342798,1.3009644,0.0
19597,2.3916829,-26.80716,-1.6830673,-2.356604,2.342798,1.3009644,0.0
19598,2.3916829,-26.80716,-1.6830673,-1.5282348,1.7310791,0.9483765,0.0
19599,-12.064388,-2.7856903,-2.5008621,-1.5282348,1.7310791,0.9483765,0.0
19600,-12.064388,-2.7856903,-2.5008621,-1.1352905,1.4804443,0.3812622,0.0
19601,-18.448484,12.857361,-2.0268612,-1.1352905,1.4804443,0.3812622,0.0
19602,-18.448484,12.857361,-2.0268612,-0.6669434,1.0651978,-0.026550293,0.0
19603,-17.61195,18.479996,-1.0208664,-0.6669434,1.0651978,-0.026550293,0.0
19604,-17.61195,18.479996,-1.0208664,-1.0259033,0.64570314,-0.33240968,0.0
19605,-13.960494,18.527489,-0.15699959,-1.0259033,0.64570314,-0.33240968,0.0
19606,-13.960494,18.527489,-0.15699959,-1.3625611,0.3164795,-0.3058594,0.0
19607,-10.033398,16.5112,0.4376564,-1.3625611,0.3164795,-0.3058594,0.0
19608,-10.033398,16.5112,0.4376564,-1.356189,0.18054199,-0.13487549,0.0
19609,-6.616173,13.49926,1.4273605,-1.356189,0.18054199,-0.13487549,0.0
19610,-6.616173,13.49926,1.4273605,-1.0673218,0.26125488,0.20603028,0.0
19611,-3.9317684,10.183952,2.9432297,-1.0673218,0.26125488,0.20603028,0.0
19612,-3.9317684,10.183952,2.9432297,-0.4439209,0.3090454,0.46728516,0.0
19613,-2.5317307,7.4064865,4.018257,-0.4439209,0.3090454,0.46728516,0.0
19614,-2.5317307,7.4064865,4.018257,0.035046387,0.14868164,0.7412842,0.0
19615,-2.3647404,5.70063,3.6886673,0.035046387,0.14868164,0.7412842,0.0
19616,-2.3647404,5.70063,3.6886673,0.6881836,-0.15717773,0.91864014,0.0
19617,-2.605587,4.5297623,2.1071587,0.6881836,-0.15717773,0.91864014,0.0
19618,-2.605587,4.5297623,2.1071587,1.1544068,-0.47578126,1.0524536,0.0
19619,-2.2890224,3.2535248,0.2403183,1.1544068,-0.47578126,1.0524536,0.0
19620,-2.2890224,3.2535248,0.2403183,1.1809571,-0.38232422,1.356189,0.0
19621,-0.9182186,0.661499,-0.39754105,1.1809571,-0.38232422,1.356189,0.0
19622,-0.9182186,0.661499,-0.39754105,0.2888672,-0.52888185,2.3226197,0.0
19623,0.5159378,-6.1745377,0.09051132,0.2888672,-0.52888185,2.3226197,0.0
19624,0.5159378,-6.1745377,0.09051132,1.5473511,-1.1342286,2.3810303,0.0
19625,0.3060131,-19.16674,-2.0138206,1.5473511,-1.1342286,2.3810303,0.0
19626,0.3060131,-19.16674,-2.0138206,2.538208,-1.5887696,4.158838,0.0
19627,1.8180885,-33.73459,-6.331173,2.538208,-1.5887696,4.158838,0.0
19628,1.8180885,-33.73459,-6.331173,0.33878174,-1.363623,5.853809,0.0
19629,8.523062,-35.646667,-8.998631,0.33878174,-1.363623,5.853809,0.0
19630,8.523062,-35.646667,-8.998631,-1.8776368,-2.0528686,6.6864257,0.0
19631,12.928936,-19.718979,-9.124563,-1.8776368,-2.0528686,6.6864257,0.0
19632,12.928936,-19.718979,-9.124563,-1.3243287,-3.2805543,6.1447997,0.0
19633,10.404014,1.1704254,-6.443327,-1.3243287,-3.2805543,6.1447997,0.0
19634,10.404014,1.1704254,-6.443327,-0.15611573,-4.076001,4.6611695,0.0
19635,5.4219418,16.351929,-2.3877792,-0.15611573,-4.076001,4.6611695,0.0
19636,5.4219418,16.351929,-2.3877792,-0.47684327,-4.4901857,2.9789429,0.0
19637,1.5710621,24.017944,1.1436214,-0.47684327,-4.4901857,2.9789429,0.0
19638,1.5710621,24.017944,1.1436214,-1.3784913,-4.410535,1.4369019,0.0
19639,0.4581194,25.46315,3.84478,-1.3784913,-4.410535,1.4369019,0.0
19640,0.4581194,25.46315,3.84478,-1.6832886,-3.896521,0.14549561,0.0
19641,1.3605633,22.895218,5.574602,-1.6832886,-3.896521,0.14549561,0.0
19642,1.3605633,22.895218,5.574602,-2.0093262,-3.0416017,-0.75509036,0.0
19643,2.5932722,18.950745,6.7907486,-2.0093262,-3.0416017,-0.75509036,0.0
19644,3.2125325,14.60907,7.5189514,-2.0093262,-3.0416017,-0.75509036,0.0
19645,3.2125325,14.60907,7.5189514,-1.9679078,-2.1229615,-1.4390259,0.0
19646,3.2125325,14.60907,7.5189514,-1.3434448,-0.8644776,-1.8797607,0.0
19647,2.9300113,10.138878,6.8606224,-1.3434448,-0.8644776,-1.8797607,0.0
19648,1.3428736,6.2613983,5.0589447,-1.3434448,-0.8644776,-1.8797607,0.0
19649,1.3428736,6.2613983,5.0589447,-0.18797608,0.45454103,-2.1303957,0.0
19650,1.3428736,6.2613983,5.0589447,0.4704712,1.5006226,-2.4946656,0.0
19651,-1.1325855,3.543312,3.1651115,0.4704712,1.5006226,-2.4946656,0.0
19652,-1.1325855,3.543312,3.1651115,0.6467652,2.3916504,-3.0171754,0.0
19653,-2.3930683,1.887497,1.1144867,0.6467652,2.3916504,-3.0171754,0.0
19654,-2.3930683,1.887497,1.1144867,0.3430298,3.2497559,-3.522693,0.0
19655,-1.3137102,0.7107544,-0.7250595,0.3430298,3.2497559,-3.522693,0.0
19656,-1.3137102,0.7107544,-0.7250595,-0.095581055,3.9251955,-4.105737,0.0
19657,0.89961815,-0.33229065,-1.0614204,-0.095581055,3.9251955,-4.105737,0.0
19658,0.89961815,-0.33229065,-1.0614204,-1.0322754,4.3276978,-4.9298587,0.0
19659,3.20186,-1.6807632,-1.297245,-1.0322754,4.3276978,-4.9298587,0.0
19660,3.20186,-1.6807632,-1.297245,-1.7873658,4.251233,-6.0959473,0.0
19661,6.0809464,-8.023834,-4.6377106,-1.7873658,4.251233,-6.0959473,0.0
19662,6.0809464,-8.023834,-4.6377106,-1.1363525,4.049451,-6.2764893,0.0
19663,11.328429,-26.116005,-7.7989273,-1.1363525,4.049451,-6.2764893,0.0
19664,11.328429,-26.116005,-7.7989273,1.0407715,2.7835329,-3.1870973,0.0
19665,15.126282,-45.696785,-5.708893,1.0407715,2.7835329,-3.1870973,0.0
19666,15.126282,-45.696785,-5.708893,0.03186035,2.7060058,-0.75721437,0.0
19667,9.038097,-43.698418,-3.3225594,0.03186035,2.7060058,-0.75721437,0.0
19668,9.038097,-43.698418,-3.3225594,-1.8415283,2.907788,0.10620117,0.0
19669,-4.939456,-19.959465,-3.6373558,-1.8415283,2.907788,0.10620117,0.0
19670,-4.939456,-19.959465,-3.6373558,-1.5664673,2.4245727,0.095581055,0.0
19671,-16.178604,3.0229797,-3.2051353,-1.5664673,2.4245727,0.095581055,0.0
19672,-16.178604,3.0229797,-3.2051353,-0.3536499,1.8595825,-0.0541626,0.0
19673,-19.249817,13.757889,-1.8390598,-0.3536499,1.8595825,-0.0541626,0.0
19674,-19.249817,13.757889,-1.8390598,-0.3812622,1.1289185,-0.08283692,0.0
19675,-16.770252,16.819572,-0.6218586,-0.3812622,1.1289185,-0.08283692,0.0
19676,-16.770252,16.819572,-0.6218586,-1.0312134,0.62127686,0.07327881,0.0
19677,-12.75419,17.215996,0.41031456,-1.0312134,0.62127686,0.07327881,0.0
19678,-12.75419,17.215996,0.41031456,-1.3190186,0.38869628,0.37701416,0.0
19679,-9.021711,16.041168,2.0566216,-1.3190186,0.38869628,0.37701416,0.0
19680,-9.021711,16.041168,2.0566216,-0.5872925,0.24001466,0.61278075,0.0
19681,-6.2375107,13.441475,4.3035507,-0.5872925,0.24001466,0.61278075,0.0
19682,-6.2375107,13.441475,4.3035507,0.28568116,0.10089111,0.91757816,0.0
19683,-4.3614807,10.538033,5.6699276,0.28568116,0.10089111,0.91757816,0.0
19684,-4.3614807,10.538033,5.6699276,0.7890747,-0.1263794,1.2160034,0.0
19685,-2.9912472,8.371124,5.027031,0.7890747,-0.1263794,1.2160034,0.0
19686,-2.9912472,8.371124,5.027031,0.72216797,-0.29099122,1.3285767,0.0
19687,-2.011345,6.8363876,2.9468079,0.72216797,-0.29099122,1.3285767,0.0
19688,-2.011345,6.8363876,2.9468079,0.9494385,-0.4078125,1.1682129,0.0
19689,-1.1180229,5.2617264,1.1163445,0.9494385,-0.4078125,1.1682129,0.0
19690,-1.1180229,5.2617264,1.1163445,0.29523927,-0.29736328,1.1597168,0.0
19691,0.2732334,3.1095505,0.84239197,0.29523927,-0.29736328,1.1597168,0.0
19692,0.2732334,3.1095505,0.84239197,-0.97067875,-0.5798584,1.5101807,0.0
19693,1.3271923,-1.9106598,0.87197113,-0.97067875,-0.5798584,1.5101807,0.0
19694,1.3271923,-1.9106598,0.87197113,0.07965088,-1.3105224,1.635498,0.0
19695,1.3525372,-14.435173,-1.0246391,0.07965088,-1.3105224,1.635498,0.0
19696,1.3525372,-14.435173,-1.0246391,2.3704102,-1.6493043,3.1276245,0.0
19697,3.8662949,-31.877998,-3.441391,2.3704102,-1.6493043,3.1276245,0.0
19698,3.8662949,-31.877998,-3.441391,0.1529297,-1.7289551,5.1751833,0.0
19699,9.92392,-38.50408,-5.7396126,0.1529297,-1.7289551,5.1751833,0.0
19700,9.92392,-38.50408,-5.7396126,-1.893567,-2.2429688,6.2584352,0.0
19701,12.67262,-26.409088,-7.1797276,-1.893567,-2.2429688,6.2584352,0.0
19702,12.67262,-26.409088,-7.1797276,-0.39400634,-3.530127,6.2233887,0.0
19703,12.67262,-26.409088,-7.1797276,-0.39400634,-3.530127,6.2233887,162.0
19704,9.326206,-5.831192,-5.8642178,-0.39400634,-3.530127,6.2233887,162.0
19705,9.326206,-5.831192,-5.8642178,0.9483765,-4.0526366,5.0456176,162.0
19706,4.2687654,12.646744,-3.4561577,0.9483765,-4.0526366,5.0456176,162.0
19707,4.2687654,12.646744,-3.4561577,-0.1444336,-4.151404,3.6650026,162.0
19708,0.94345474,25.060432,-1.1791115,-0.1444336,-4.151404,3.6650026,162.0
19709,0.94345474,25.060432,-1.1791115,-1.7661256,-3.9198854,2.1080933,162.0
19710,0.5062771,29.94719,1.4243736,-1.7661256,-3.9198854,2.1080933,162.0
19711,0.5062771,29.94719,1.4243736,-2.552014,-3.2423217,0.50020754,162.0
19712,1.885087,28.600739,4.26478,-2.552014,-3.2423217,0.50020754,162.0
19713,1.885087,28.600739,4.26478,-2.6847656,-2.3799684,-0.9781128,162.0
19714,3.02002,23.914345,6.263729,-2.6847656,-2.3799684,-0.9781128,162.0
19715,3.02002,23.914345,6.263729,-2.4065187,-1.3168945,-2.2196045,162.0
19716,3.1194344,17.331993,6.607052,-2.4065187,-1.3168945,-2.2196045,162.0
19717,3.1194344,17.331993,6.607052,-1.0577637,-0.33240968,-2.9385865,162.0
19718,2.1194124,9.899139,5.8934402,-1.0577637,-0.33240968,-2.9385865,162.0
19719,2.1194124,9.899139,5.8934402,0.3802002,0.41949463,-3.3761353,162.0
19720,-0.034902096,3.9136581,5.062153,0.3802002,0.41949463,-3.3761353,162.0
19721,-0.034902096,3.9136581,5.062153,1.1565307,1.0078491,-3.8349245,162.0
19722,-2.363676,0.64175415,3.6244888,1.1565307,1.0078491,-3.8349245,162.0
19723,-2.363676,0.64175415,3.6244888,1.1406006,1.4953126,-4.239551,162.0
19724,-3.2922592,-0.5995369,1.0108948,1.1406006,1.4953126,-4.239551,162.0
19725,-3.2922592,-0.5995369,1.0108948,0.5894165,1.9795898,-4.4031005,162.0
19726,-3.2922592,-0.5995369,1.0108948,-0.36639404,2.6614015,-4.2915893,162.0
19727,-2.093915,-1.2657394,-1.4673462,-0.36639404,2.6614015,-4.2915893,162.0
19728,5.7836328,-11.619514,-3.1014786,-0.36639404,2.6614015,-4.2915893,162.0
19729,5.7836328,-11.619514,-3.1014786,-2.0942872,3.1913452,-4.505054,162.0
19730,5.7836328,-11.619514,-3.1014786,-2.8302612,3.61615,-4.804541,162.0
19731,5.7836328,-11.619514,-3.1014786,-2.0826051,3.4876466,-3.2752442,162.0
19732,15.056985,-60.573433,-6.846527,-2.0826051,3.4876466,-3.2752442,162.0
19733,15.056985,-60.573433,-6.846527,0.15080567,2.2344728,0.16885987,162.0
19734,15.056985,-60.573433,-6.846527,-0.630835,1.9625977,1.6078857,162.0
19735,15.056985,-60.573433,-6.846527,-1.0567017,1.8319702,1.8436524,162.0
19736,0.004767418,-27.17926,-5.17577,-1.0567017,1.8319702,1.8436524,162.0
19737,0.004767418,-27.17926,-5.17577,-1.4921265,1.9392334,1.3052124,162.0
19738,-10.712385,2.0640793,-2.8392982,-1.4921265,1.9392334,1.3052124,162.0
19739,-10.712385,2.0640793,-2.8392982,-1.7045288,1.7703736,0.61702883,162.0
19740,-14.845482,15.614708,-1.5896149,-1.7045288,1.7703736,0.61702883,162.0
19741,-14.845482,15.614708,-1.5896149,-1.9084351,1.2871583,0.18903808,162.0
19742,-14.513715,17.380318,-0.52462006,-1.9084351,1.2871583,0.18903808,162.0
19743,-14.513715,17.380318,-0.52462006,-2.084729,0.7604004,-0.04141846,162.0
19744,-11.349802,14.260735,1.6104069,-2.084729,0.7604004,-0.04141846,162.0
19745,-11.349802,14.260735,1.6104069,-1.3689331,0.32391357,0.032922365,162.0
19746,-6.8265457,10.169289,4.2033653,-1.3689331,0.32391357,0.032922365,162.0
19747,-6.8265457,10.169289,4.2033653,-0.023364259,0.026550293,-0.04141846,162.0
19748,-3.0755558,6.897911,5.5760574,-0.023364259,0.026550293,-0.04141846,162.0
19749,-3.0755558,6.897911,5.5760574,0.6573853,0.029736329,0.23258057,162.0
19750,-0.8180256,5.1922455,5.324543,0.6573853,0.029736329,0.23258057,162.0
19751,-0.8180256,5.1922455,5.324543,0.8666016,0.12213135,0.53525394,162.0
19752,0.08361626,4.4604034,3.6744766,0.8666016,0.12213135,0.53525394,162.0
19753,0.08361626,4.4604034,3.6744766,1.0609497,0.040356446,0.5979126,162.0
19754,0.08361626,4.4604034,3.6744766,0.8889038,-0.18585205,0.65207523,162.0
19755,-0.081264496,3.7041626,1.7377357,0.8889038,-0.18585205,0.65207523,162.0
19756,0.09162903,-1.6254501,-1.5421486,0.8889038,-0.18585205,0.65207523,162.0
19757,0.09162903,-1.6254501,-1.5421486,1.4528321,-0.4704712,0.5894165,162.0
19758,0.09162903,-1.6254501,-1.5421486,1.7416992,-0.56605226,0.6616333,162.0
19759,0.09162903,-1.6254501,-1.5421486,1.0938721,-0.67225343,0.93138427,162.0
19760,-0.170887,-6.360222,-2.0538101,1.0938721,-0.67225343,0.93138427,162.0
19761,-0.170887,-6.360222,-2.0538101,0.84111327,-0.9143921,1.0747559,162.0
19762,-0.6740017,-10.161423,-2.436531,0.84111327,-0.9143921,1.0747559,162.0
19763,-0.6740017,-10.161423,-2.436531,2.173938,-1.621692,4.061133,162.0
19764,0.20929718,-36.425964,-6.601265,2.173938,-1.621692,4.061133,162.0
19765,0.20929718,-36.425964,-6.601265,1.8850708,-1.6439942,5.363159,162.0
19766,2.4704037,-37.018044,-7.119465,1.8850708,-1.6439942,5.363159,162.0
19767,2.4704037,-37.018044,-7.119465,-1.2999023,-1.9795898,6.7257204,162.0
19768,10.429485,-25.211418,-9.2980995,-1.2999023,-1.9795898,6.7257204,162.0
19769,10.429485,-25.211418,-9.2980995,-1.260608,-2.4681153,6.605713,162.0
19770,9.695541,-11.006355,-7.0109653,-1.260608,-2.4681153,6.605713,162.0
19771,9.695541,-11.006355,-7.0109653,-0.44923097,-3.8306763,4.6335573,162.0
19772,6.440796,17.404533,-2.1533394,-0.44923097,-3.8306763,4.6335573,162.0
19773,6.440796,17.404533,-2.1533394,-0.46516114,-4.0356445,3.625708,162.0
19774,3.962122,20.876312,-0.06973076,-0.46516114,-4.0356445,3.625708,162.0
19775,3.962122,20.876312,-0.06973076,-1.5590333,-4.076001,0.7476563,162.0
19776,1.6272659,29.118774,3.5776978,-1.5590333,-4.076001,0.7476563,162.0
19777,1.6272659,29.118774,3.5776978,-1.7300171,-3.8402345,-0.10620117,162.0
19778,1.658392,24.986847,4.5064335,-1.7300171,-3.8402345,-0.10620117,162.0
19779,1.658392,24.986847,4.5064335,-1.5749635,-3.0214233,-2.0539308,162.0
19780,3.7433033,20.081009,6.90749,-1.5749635,-3.0214233,-2.0539308,162.0
19781,3.7433033,20.081009,6.90749,-1.3243287,-2.6433473,-2.4649293,162.0
19782,3.2617083,15.041565,6.342556,-1.3243287,-2.6433473,-2.4649293,162.0
19783,3.2617083,15.041565,6.342556,-0.5851685,-1.3020264,-3.172229,162.0
19784,2.5374918,9.379654,5.2647667,-0.5851685,-1.3020264,-3.172229,162.0
19785,2.5374918,9.379654,5.2647667,-0.4343628,-0.7434082,-3.2837403,162.0
19786,1.3079472,6.600075,4.373131,-0.4343628,-0.7434082,-3.2837403,162.0
19787,1.3079472,6.600075,4.373131,-0.26868898,0.79969484,-3.606592,162.0
19788,1.3079472,6.600075,4.373131,-0.2824951,1.177771,-3.7489014,162.0
19789,-1.5931563,3.3649216,3.7194748,-0.2824951,1.177771,-3.7489014,162.0
19790,-2.6470718,-2.634613,-0.26067352,-0.2824951,1.177771,-3.7489014,162.0
19791,-2.6470718,-2.634613,-0.26067352,-0.40144044,1.8479004,-4.1599,162.0
19792,-2.6470718,-2.634613,-0.26067352,-0.45029297,2.084729,-4.223621,162.0
19793,-2.1176577,-2.107689,-0.20853806,-0.45029297,2.084729,-4.223621,162.0
19794,-2.1176577,-2.107689,-0.20853806,-0.93350834,2.535022,-4.4689455,162.0
19795,-0.34454155,-2.9613113,-0.79376984,-0.93350834,2.535022,-4.4689455,162.0
19796,-0.34454155,-2.9613113,-0.79376984,-1.5887696,2.8918579,-4.7535644,162.0
19797,1.9251842,-4.832527,-0.518425,-1.5887696,2.8918579,-4.7535644,162.0
19798,1.9251842,-4.832527,-0.518425,-0.9281983,3.1233766,-4.890564,162.0
19799,10.574608,-21.722198,-2.0301208,-0.9281983,3.1233766,-4.890564,162.0
19800,10.574608,-21.722198,-2.0301208,0.22833252,3.5938478,-4.8544555,162.0
19801,13.248578,-28.079323,-2.6496582,0.22833252,3.5938478,-4.8544555,162.0
19802,13.248578,-28.079323,-2.6496582,-1.3137085,2.18562,-0.03717041,162.0
19803,16.047642,-41.52587,-1.5527954,-1.3137085,2.18562,-0.03717041,162.0
19804,16.047642,-41.52587,-1.5527954,-1.5590333,2.079419,0.7657105,162.0
19805,9.5741005,-30.773102,-1.4262581,-1.5590333,2.079419,0.7657105,162.0
19806,9.5741005,-30.773102,-1.4262581,-1.5866455,1.9519776,1.083252,162.0
19807,-3.839475,-10.253647,-2.3791294,-1.5866455,1.9519776,1.083252,162.0
19808,-3.839475,-10.253647,-2.3791294,-2.0156982,1.9987061,0.61278075,162.0
19809,-13.577708,7.9380264,-2.7285595,-2.0156982,1.9987061,0.61278075,162.0
19810,-13.577708,7.9380264,-2.7285595,-2.540332,2.069861,0.20496826,162.0
19811,-16.565609,16.32193,-1.9971657,-2.540332,2.069861,0.20496826,162.0
19812,-16.565609,16.32193,-1.9971657,-2.3035035,1.7374512,-0.053100586,162.0
19813,-15.855637,16.990288,-0.67658997,-2.3035035,1.7374512,-0.053100586,162.0
19814,-15.855637,16.990288,-0.67658997,-1.9848999,1.2191895,-0.14337158,162.0
19815,-13.679468,14.94957,0.83011436,-1.9848999,1.2191895,-0.14337158,162.0
19816,-13.679468,14.94957,0.83011436,-1.3668091,0.89846194,0.008496094,162.0
19817,-10.660286,12.953903,2.2189865,-1.3668091,0.89846194,0.008496094,162.0
19818,-10.660286,12.953903,2.2189865,-0.51188964,0.53950197,0.22833252,162.0
19819,-7.8388977,11.31073,3.629158,-0.51188964,0.53950197,0.22833252,162.0
19820,-7.8388977,11.31073,3.629158,0.3695801,0.14230958,0.6053467,162.0
19821,-5.99662,9.635414,4.469795,0.3695801,0.14230958,0.6053467,162.0
19822,-5.99662,9.635414,4.469795,1.0397094,-0.2899292,1.1873292,162.0
19823,-4.4204044,8.324783,3.3795967,1.0397094,-0.2899292,1.1873292,162.0
19824,-4.4204044,8.324783,3.3795967,1.2425537,-0.40037844,1.265918,162.0
19825,-3.3688316,6.7830048,1.9922867,1.2425537,-0.40037844,1.265918,162.0
19826,-3.3688316,6.7830048,1.9922867,1.7650635,-0.6244629,1.263794,162.0
19827,-2.1973724,5.3362045,-0.14458466,1.7650635,-0.6244629,1.263794,162.0
19828,-2.1973724,5.3362045,-0.14458466,1.5855836,-0.4609131,1.0779419,162.0
19829,-0.65584755,3.929985,-1.1846123,1.5855836,-0.4609131,1.0779419,162.0
19830,-0.65584755,3.929985,-1.1846123,0.24744873,0.0010620117,1.0821899,162.0
19831,1.0095024,1.859993,-0.44554138,0.24744873,0.0010620117,1.0821899,162.0
19832,1.0095024,1.859993,-0.44554138,-1.3041505,-0.62977296,1.2457398,162.0
19833,1.7519379,-6.185898,0.23413086,-1.3041505,-0.62977296,1.2457398,162.0
19834,1.7519379,-6.185898,0.23413086,0.6860596,-1.0120972,1.9190552,162.0
19835,3.62611,-26.353638,-2.47937,0.6860596,-1.0120972,1.9190552,162.0
19836,3.62611,-26.353638,-2.47937,0.71154785,-0.815625,5.4693604,162.0
19837,10.739365,-46.719643,-7.4247303,0.71154785,-0.815625,5.4693604,162.0
19838,10.739365,-46.719643,-7.4247303,-2.170752,-2.1930542,7.866321,162.0
19839,16.479992,-44.908478,-10.364943,-2.170752,-2.1930542,7.866321,162.0
19840,16.479992,-44.908478,-10.364943,-0.2782471,-3.715979,8.375025,162.0
19841,13.685911,-20.41539,-9.001926,-0.2782471,-3.715979,8.375025,162.0
19842,13.685911,-20.41539,-9.001926,0.8506714,-4.254419,7.2036257,162.0
19843,7.265636,9.389725,-4.9126606,0.8506714,-4.254419,7.2036257,162.0
19844,7.265636,9.389725,-4.9126606,0.047790527,-4.359558,5.440686,162.0
19845,2.9557095,30.209274,-1.0341568,0.047790527,-4.359558,5.440686,162.0
19846,2.9557095,30.209274,-1.0341568,-1.9551636,-4.0016603,3.4833984,162.0
19847,2.082756,38.47609,2.498249,-1.9551636,-4.0016603,3.4833984,162.0
19848,2.082756,38.47609,2.498249,-3.3920655,-3.4271119,1.1968873,162.0
19849,2.940094,37.796997,7.0684967,-3.3920655,-3.4271119,1.1968873,162.0
19850,2.940094,37.796997,7.0684967,-2.9449584,-2.72937,-1.5898316,162.0
19851,3.775598,31.531616,11.16642,-2.9449584,-2.72937,-1.5898316,162.0
19852,3.775598,31.531616,11.16642,-1.8500245,-1.4953126,-3.4865844,162.0
19853,3.896272,21.228004,10.301216,-1.8500245,-1.4953126,-3.4865844,162.0
19854,3.896272,21.228004,10.301216,-0.05522461,-0.26550293,-4.2140627,162.0
19855,2.204139,10.29422,5.199444,-0.05522461,-0.26550293,-4.2140627,162.0
19856,2.204139,10.29422,5.199444,1.1522827,0.43754885,-4.495496,162.0
19857,-1.1366765,3.3683014,1.2718964,1.1522827,0.43754885,-4.495496,162.0
19858,-1.1366765,3.3683014,1.2718964,0.94412845,1.1416626,-4.759937,162.0
19859,-3.9136257,1.0056763,0.36711502,0.94412845,1.1416626,-4.759937,162.0
19860,-3.9136257,1.0056763,0.36711502,0.027612304,1.9073731,-4.970215,162.0
19861,-3.9136257,1.0056763,0.36711502,0.027612304,1.9073731,-4.970215,163.0
19862,-4.9416428,0.36279297,0.32175446,0.027612304,1.9073731,-4.970215,163.0
19863,-4.9416428,0.36279297,0.32175446,-0.7147339,2.4797974,-4.9659667,163.0
19864,-4.9416428,0.36279297,0.32175446,-1.0598878,3.0299194,-4.8693237,163.0
19865,-4.5703793,-1.0398445,-0.8173752,-1.0598878,3.0299194,-4.8693237,163.0
19866,0.19624758,-8.916225,-1.4005318,-1.0598878,3.0299194,-4.8693237,163.0
19867,0.19624758,-8.916225,-1.4005318,-1.803296,3.535437,-4.8427734,163.0
19868,0.19624758,-8.916225,-1.4005318,-3.264624,3.80625,-4.4763794,163.0
19869,0.19624758,-8.916225,-1.4005318,-3.6809328,3.3251588,-3.5439332,163.0
19870,0.15699816,-7.1329803,-1.1204262,-3.6809328,3.3251588,-3.5439332,163.0
19871,21.647633,-65.86281,-11.400808,-3.6809328,3.3251588,-3.5439332,163.0
19872,21.647633,-65.86281,-11.400808,-1.176709,3.2784302,-1.442212,163.0
19873,21.647633,-65.86281,-11.400808,-0.20390625,1.6546143,1.7448853,163.0
19874,21.647633,-65.86281,-11.400808,-0.3695801,1.4369019,2.9630127,163.0
19875,10.539957,-46.717247,-8.431011,-0.3695801,1.4369019,2.9630127,163.0
19876,10.539957,-46.717247,-8.431011,0.29205322,1.364685,2.704944,163.0
19877,-4.1775804,-12.7872925,-4.0049286,0.29205322,1.364685,2.704944,163.0
19878,-4.1775804,-12.7872925,-4.0049286,-0.45560303,1.7746216,2.1123414,163.0
19879,-13.361181,13.668976,-0.019506454,-0.45560303,1.7746216,2.1123414,163.0
19880,-13.361181,13.668976,-0.019506454,-1.3912354,1.7098389,1.4921265,163.0
19881,-16.253313,24.312714,1.0890808,-1.3912354,1.7098389,1.4921265,163.0
19882,-16.253313,24.312714,1.0890808,-2.1505737,1.2287476,0.9791748,163.0
19883,-15.622694,23.745956,1.2408676,-2.1505737,1.2287476,0.9791748,163.0
19884,-15.622694,23.745956,1.2408676,-2.075171,0.6966797,0.62127686,163.0
19885,-12.978819,19.236435,2.8852482,-2.075171,0.6966797,0.62127686,163.0
19886,-12.978819,19.236435,2.8852482,-1.2489258,0.3090454,0.3440918,163.0
19887,-9.162157,14.788658,6.0696373,-1.2489258,0.3090454,0.3440918,163.0
19888,-9.162157,14.788658,6.0696373,0.45347902,-0.06584473,0.14655761,163.0
19889,-5.4244404,11.214775,8.223335,0.45347902,-0.06584473,0.14655761,163.0
19890,-5.4244404,11.214775,8.223335,0.77526855,-0.18585205,0.0541626,163.0
19891,-2.9197521,8.901253,6.9101257,0.77526855,-0.18585205,0.0541626,163.0
19892,-2.9197521,8.901253,6.9101257,1.1533448,-0.23045655,-0.10407715,163.0
19893,-2.0096664,7.085129,3.1759758,1.1533448,-0.23045655,-0.10407715,163.0
19894,-2.0096664,7.085129,3.1759758,1.1905152,-0.33028564,-0.09451904,163.0
19895,-1.7895203,4.910412,-0.040042877,1.1905152,-0.33028564,-0.09451904,163.0
19896,-1.7895203,4.910412,-0.040042877,1.1023682,-0.30161133,-0.20709229,163.0
19897,-1.0315914,2.4799652,-1.0259209,1.1023682,-0.30161133,-0.20709229,163.0
19898,-1.0315914,2.4799652,-1.0259209,1.0821899,-0.35046387,-0.2814331,163.0
19899,-0.029436111,-0.36543274,-0.6249466,1.0821899,-0.35046387,-0.2814331,163.0
19900,-0.029436111,-0.36543274,-0.6249466,1.5632813,-0.74659425,-0.5479981,163.0
19901,-0.19057846,-5.3167496,-1.2864685,1.5632813,-0.74659425,-0.5479981,163.0
19902,-0.19057846,-5.3167496,-1.2864685,1.6822265,-1.358313,-0.5341919,163.0
19903,-0.79540634,-19.054672,-4.6873665,1.6822265,-1.358313,-0.5341919,163.0
19904,-0.79540634,-19.054672,-4.6873665,-0.18160401,-1.0556396,3.7011108,163.0
19905,3.6392612,-43.631943,-10.541225,-0.18160401,-1.0556396,3.7011108,163.0
19906,3.6392612,-43.631943,-10.541225,-2.9067261,-1.5600952,6.9975953,163.0
19907,11.647542,-55.384216,-15.080063,-2.9067261,-1.5600952,6.9975953,163.0
19908,11.647542,-55.384216,-15.080063,-1.5292969,-3.5003908,7.8079104,163.0
19909,13.396402,-35.43638,-12.871937,-1.5292969,-3.5003908,7.8079104,163.0
19910,13.396402,-35.43638,-12.871937,0.10407715,-4.337256,6.4442873,163.0
19911,9.468136,0.32458496,-5.3776894,0.10407715,-4.337256,6.4442873,163.0
19912,9.468136,0.32458496,-5.3776894,-0.7763306,-4.5985107,4.674976,163.0
19913,6.1541233,27.935486,1.9022789,-0.7763306,-4.5985107,4.674976,163.0
19914,6.1541233,27.935486,1.9022789,-2.4649293,-4.1864505,2.4851074,163.0
19915,4.3027296,38.415054,6.729927,-2.4649293,-4.1864505,2.4851074,163.0
19916,4.3027296,38.415054,6.729927,-3.1987793,-3.4950807,0.10620117,163.0
19917,3.0221882,36.134354,10.591484,-3.1987793,-3.4950807,0.10620117,163.0
19918,3.0221882,36.134354,10.591484,-2.071985,-2.8015869,-2.171814,163.0
19919,2.1905289,27.335548,13.509333,-2.071985,-2.8015869,-2.171814,163.0
19920,2.1905289,27.335548,13.509333,-0.39188233,-1.5972656,-3.63208,163.0
19921,2.0452576,16.85572,11.685616,-0.39188233,-1.5972656,-3.63208,163.0
19922,2.0452576,16.85572,11.685616,0.8644776,-0.71579593,-4.14928,163.0
19923,1.8880005,8.873898,6.0346146,0.8644776,-0.71579593,-4.14928,163.0
19924,1.8880005,8.873898,6.0346146,0.9855469,0.26337892,-4.173706,163.0
19925,0.88811064,5.428341,1.7153625,0.9855469,0.26337892,-4.173706,163.0
19926,0.88811064,5.428341,1.7153625,0.41312256,1.1522827,-4.1354737,163.0
19927,-1.0307102,4.3101654,0.33922195,0.41312256,1.1522827,-4.1354737,163.0
19928,-1.0307102,4.3101654,0.33922195,-0.57561034,2.0252564,-4.1184816,163.0
19929,-2.8405714,2.3612175,0.2833786,-0.57561034,2.0252564,-4.1184816,163.0
19930,-2.8405714,2.3612175,0.2833786,-0.815625,2.6730835,-4.155652,163.0
19931,-3.4276943,-1.0194969,-0.08256149,-0.815625,2.6730835,-4.155652,163.0
19932,-3.4276943,-1.0194969,-0.08256149,-1.089624,3.0288575,-4.235303,163.0
19933,-2.8111248,-3.8511696,-0.63724136,-1.089624,3.0288575,-4.235303,163.0
19934,-2.8111248,-3.8511696,-0.63724136,-1.8733886,3.3060424,-3.9464357,163.0
19935,-1.3162823,-5.4873962,-0.49376678,-1.8733886,3.3060424,-3.9464357,163.0
19936,-1.3162823,-5.4873962,-0.49376678,-2.3204956,3.544995,-3.245508,163.0
19937,0.8258681,-8.99276,-0.75292206,-2.3204956,3.544995,-3.245508,163.0
19938,0.8258681,-8.99276,-0.75292206,-2.9205322,4.156714,-2.3778443,163.0
19939,5.4888563,-18.64383,-3.170353,-2.9205322,4.156714,-2.3778443,163.0
19940,5.4888563,-18.64383,-3.170353,-1.1023682,4.1864505,-1.6461182,163.0
19941,13.842575,-33.04579,-8.216972,-1.1023682,4.1864505,-1.6461182,163.0
19942,13.842575,-33.04579,-8.216972,-1.0503296,3.5811036,1.0131592,163.0
19943,17.703857,-38.328354,-12.514496,-1.0503296,3.5811036,1.0131592,163.0
19944,17.703857,-38.328354,-12.514496,-2.0581787,2.633789,2.5552003,163.0
19945,9.864917,-24.018456,-11.633568,-2.0581787,2.633789,2.5552003,163.0
19946,9.864917,-24.018456,-11.633568,-1.2085694,2.3056276,2.0581787,163.0
19947,-3.3788185,-1.6632385,-7.6854076,-1.2085694,2.3056276,2.0581787,163.0
19948,-3.3788185,-1.6632385,-7.6854076,-0.6786255,2.001892,1.0492676,163.0
19949,-13.687296,14.350296,-3.9378529,-0.6786255,2.001892,1.0492676,163.0
19950,-13.687296,14.350296,-3.9378529,-0.40993652,1.3338867,0.087084964,163.0
19951,-18.253681,20.611755,-0.9166889,-0.40993652,1.3338867,0.087084964,163.0
19952,-18.253681,20.611755,-0.9166889,-0.7349121,0.8878418,-0.38444826,163.0
19953,-17.275677,19.482758,1.5117645,-0.7349121,0.8878418,-0.38444826,163.0
19954,-17.275677,19.482758,1.5117645,-0.78376466,0.7051758,-0.42905274,163.0
19955,-13.471725,15.742371,4.1267586,-0.78376466,0.7051758,-0.42905274,163.0
19956,-13.471725,15.742371,4.1267586,-0.5161377,0.5915405,-0.29736328,163.0
19957,-9.837,11.96907,6.715555,-0.5161377,0.5915405,-0.29736328,163.0
19958,-9.837,11.96907,6.715555,-0.20178223,0.43861085,0.013806152,163.0
19959,-7.5619106,8.662308,7.934126,-0.20178223,0.43861085,0.013806152,163.0
19960,-7.5619106,8.662308,7.934126,0.0722168,0.093457036,0.28568116,163.0
19961,-6.656975,6.204529,7.3992176,0.0722168,0.093457036,0.28568116,163.0
19962,-6.656975,6.204529,7.3992176,0.61702883,-0.45772704,0.54906005,163.0
19963,-6.482355,4.3494034,5.92305,0.61702883,-0.45772704,0.54906005,163.0
19964,-6.482355,4.3494034,5.92305,1.3912354,-1.0747559,0.6881836,163.0
19965,-5.769758,2.3574524,4.195656,1.3912354,-1.0747559,0.6881836,163.0
19966,-5.769758,2.3574524,4.195656,1.5600952,-1.5239868,0.8612915,163.0
19967,-3.7041473,0.30934906,2.4236526,1.5600952,-1.5239868,0.8612915,163.0
19968,-3.7041473,0.30934906,2.4236526,1.4400879,-2.1367676,1.3062744,163.0
19969,-0.96990967,-3.0491257,0.13345337,1.4400879,-2.1367676,1.3062744,163.0
19970,-0.96990967,-3.0491257,0.13345337,1.540979,-2.6465333,2.1218994,163.0
19971,1.2055054,-9.956696,-3.4961548,1.540979,-2.6465333,2.1218994,163.0
19972,1.2055054,-9.956696,-3.4961548,1.6142578,-2.9768188,2.6943238,163.0
19973,1.8668823,-20.016724,-7.6229134,1.6142578,-2.9768188,2.6943238,163.0
19974,1.8668823,-20.016724,-7.6229134,2.4203248,-3.9591796,4.3829226,163.0
19975,1.8668823,-20.016724,-7.6229134,2.4203248,-3.9591796,4.3829226,163.0
19976,2.1530533,-29.776245,-11.211063,2.4203248,-3.9591796,4.3829226,163.0
19977,2.1530533,-29.776245,-11.211063,2.52334,-4.213001,5.916467,163.0
19978,5.5160446,-31.071472,-13.4126625,2.52334,-4.213001,5.916467,163.0
19979,5.5160446,-31.071472,-13.4126625,0.77102053,-4.4785037,6.3094115,163.0
19980,10.205877,-19.976944,-12.372221,0.77102053,-4.4785037,6.3094115,163.0
19981,10.205877,-19.976944,-12.372221,-0.1263794,-4.8597655,6.1617923,163.0
19982,12.186626,-4.033615,-7.5766716,-0.1263794,-4.8597655,6.1617923,163.0
19983,12.186626,-4.033615,-7.5766716,-0.16248779,-5.2081056,5.241028,163.0
19984,10.901914,9.350731,-1.3503132,-0.16248779,-5.2081056,5.241028,163.0
19985,10.901914,9.350731,-1.3503132,-0.74447024,-5.2038574,3.9952881,163.0
19986,8.205723,18.470383,3.5736065,-0.74447024,-5.2038574,3.9952881,163.0
19987,8.205723,18.470383,3.5736065,-1.7565674,-4.9330444,2.7368042,163.0
19988,6.5912995,23.23648,6.730137,-1.7565674,-4.9330444,2.7368042,163.0
19989,6.5912995,23.23648,6.730137,-2.5010376,-4.3861084,1.6025757,163.0
19990,6.360442,23.981674,8.9074,-2.5010376,-4.3861084,1.6025757,163.0
19991,6.360442,23.981674,8.9074,-2.6677735,-3.6437624,0.40250245,163.0
19992,6.651464,22.230736,10.696831,-2.6677735,-3.6437624,0.40250245,163.0
19993,6.651464,22.230736,10.696831,-2.8674316,-2.2992554,-0.991919,163.0
19994,6.6970015,19.42266,12.067572,-2.8674316,-2.2992554,-0.991919,163.0
19995,6.6970015,19.42266,12.067572,-2.1941164,-0.6573853,-2.4776733,163.0
19996,5.7456017,15.379471,12.428764,-2.1941164,-0.6573853,-2.4776733,163.0
19997,5.7456017,15.379471,12.428764,-0.95368654,1.175647,-3.7818239,163.0
19998,3.5168426,10.156055,10.929192,-0.95368654,1.175647,-3.7818239,163.0
19999,3.5168426,10.156055,10.929192,0.19434814,2.879114,-4.7684326,163.0
20000,0.7673315,5.068363,7.4634476,0.19434814,2.879114,-4.7684326,163.0
20001,0.7673315,5.068363,7.4634476,0.58198243,4.253357,-5.555383,163.0
20002,0.7673315,5.068363,7.4634476,-0.026550293,5.3822756,-5.979126,163.0
20003,-1.3924825,1.4471855,2.9693527,-0.026550293,5.3822756,-5.979126,163.0
20004,2.7636263,-5.6935577,-2.8686218,-0.026550293,5.3822756,-5.979126,163.0
20005,2.7636263,-5.6935577,-2.8686218,-0.93138427,6.2000246,-5.950452,163.0
20006,2.7636263,-5.6935577,-2.8686218,-0.7168579,6.543054,-6.1384277,163.0
20007,2.7636263,-5.6935577,-2.8686218,-1.0556396,6.4570312,-7.056006,163.0
20008,7.160425,-10.194214,-5.3331184,-1.0556396,6.4570312,-7.056006,163.0
20009,7.160425,-10.194214,-5.3331184,-3.7361572,5.593616,-7.2068114,163.0
20010,11.864815,-18.225632,-11.711563,-3.7361572,5.593616,-7.2068114,163.0
20011,11.864815,-18.225632,-11.711563,-3.8306763,4.398853,-4.13335,163.0
20012,14.426275,-35.572098,-17.918201,-3.8306763,4.398853,-4.13335,163.0
20013,14.426275,-35.572098,-17.918201,-1.4592041,2.7229981,-1.8139161,163.0
20014,8.522552,-48.259186,-18.649015,-1.4592041,2.7229981,-1.8139161,163.0
20015,8.522552,-48.259186,-18.649015,-1.080066,2.7453003,-0.61278075,163.0
20016,-5.728138,-36.120644,-13.405884,-1.080066,2.7453003,-0.61278075,163.0
20017,-5.728138,-36.120644,-13.405884,-1.7682495,2.4681153,-0.045666505,163.0
20018,-18.30812,-9.573723,-5.968092,-1.7682495,2.4681153,-0.045666505,163.0
20019,-18.30812,-9.573723,-5.968092,-1.7756836,1.9742798,0.04141846,163.0
20020,-23.056128,10.995644,0.08219147,-1.7756836,1.9742798,0.04141846,163.0
20021,-23.056128,10.995644,0.08219147,-2.1006591,1.3498169,0.08814698,163.0
20022,-21.75578,19.986633,3.6689034,-2.1006591,1.3498169,0.08814698,163.0
20023,-21.75578,19.986633,3.6689034,-2.262085,0.91120607,0.20496826,163.0
20024,-18.048655,21.27282,6.291115,-2.262085,0.91120607,0.20496826,163.0
20025,-18.048655,21.27282,6.291115,-1.7363892,0.631897,0.38975832,163.0
20026,-14.157735,18.856705,8.610283,-1.7363892,0.631897,0.38975832,163.0
20027,-14.157735,18.856705,8.610283,-0.7412842,0.41843262,0.6053467,163.0
20028,-11.02404,15.142021,10.183014,-0.7412842,0.41843262,0.6053467,163.0
20029,-11.02404,15.142021,10.183014,0.43754885,0.08283692,0.7720825,163.0
20030,-8.702778,11.691605,10.12915,0.43754885,0.08283692,0.7720825,163.0
20031,-8.702778,11.691605,10.12915,1.1437867,-0.18691407,0.8931519,163.0
20032,-6.5317173,9.433731,8.071936,1.1437867,-0.18691407,0.8931519,163.0
20033,-6.5317173,9.433731,8.071936,0.92713624,-0.4163086,0.9759888,163.0
20034,-3.924471,8.157288,4.989605,0.92713624,-0.4163086,0.9759888,163.0
20035,-3.924471,8.157288,4.989605,0.53100586,-0.6881836,0.9303223,163.0
20036,-1.0708027,6.7112503,2.269722,0.53100586,-0.6881836,0.9303223,163.0
20037,-1.0708027,6.7112503,2.269722,0.3802002,-0.91757816,0.76358646,163.0
20038,1.506443,4.2519684,0.773674,0.3802002,-0.91757816,0.76358646,163.0
20039,1.506443,4.2519684,0.773674,0.013806152,-1.1119263,0.69986576,163.0
20040,3.3020058,0.008956909,0.14376831,0.013806152,-1.1119263,0.69986576,163.0
20041,3.3020058,0.008956909,0.14376831,0.81243896,-2.2450929,0.3971924,163.0
20042,3.8324623,-8.249001,-1.6896858,0.81243896,-2.2450929,0.3971924,163.0
20043,3.8324623,-8.249001,-1.6896858,2.2886353,-2.7760987,1.7045288,163.0
20044,4.114004,-24.012665,-6.231291,2.2886353,-2.7760987,1.7045288,163.0
20045,4.114004,-24.012665,-6.231291,2.627417,-3.4302979,3.983606,163.0
20046,9.1377125,-39.77413,-10.794689,2.627417,-3.4302979,3.983606,163.0
20047,9.1377125,-39.77413,-10.794689,1.1618408,-4.696216,5.94939,163.0
20048,16.640213,-39.952187,-12.2227745,1.1618408,-4.696216,5.94939,163.0
20049,16.640213,-39.952187,-12.2227745,0.74871826,-5.071106,6.6651855,163.0
20050,17.596336,-22.667618,-10.41898,0.74871826,-5.071106,6.6651855,163.0
20051,17.596336,-22.667618,-10.41898,0.6977417,-5.261206,6.5494266,163.0
20052,12.497822,-0.46601868,-6.0273476,0.6977417,-5.261206,6.5494266,163.0
20053,12.497822,-0.46601868,-6.0273476,1.0290893,-5.2144775,5.790088,163.0
20054,6.6657867,15.62352,-1.1015282,1.0290893,-5.2144775,5.790088,163.0
20055,6.6657867,15.62352,-1.1015282,0.67331547,-4.9298587,4.702588,163.0
20056,2.8058474,23.765686,2.2655678,0.67331547,-4.9298587,4.702588,163.0
20057,2.8058474,23.765686,2.2655678,-0.2824951,-4.616565,3.7765138,163.0
20058,1.9525638,25.994759,4.6056557,-0.2824951,-4.616565,3.7765138,163.0
20059,1.9525638,25.994759,4.6056557,-1.0492676,-4.1259155,2.9492066,163.0
20060,3.00563,24.994759,7.3906765,-1.0492676,-4.1259155,2.9492066,163.0
20061,3.00563,24.994759,7.3906765,-0.87191164,-3.3994997,2.0528686,163.0
20062,3.4947262,23.634758,10.50495,-0.87191164,-3.3994997,2.0528686,163.0
20063,3.4947262,23.634758,10.50495,-0.76464844,-2.1994264,0.7497803,163.0
20064,2.2383835,22.998772,12.044937,-0.76464844,-2.1994264,0.7497803,163.0
20065,2.2383835,22.998772,12.044937,-0.7720825,-1.2308716,-1.3083985,163.0
20066,0.33074588,21.156513,10.8118515,-0.7720825,-1.2308716,-1.3083985,163.0
20067,0.33074588,21.156513,10.8118515,-0.725354,0.22196046,-3.0915163,163.0
20068,-1.0779326,16.10448,7.7913284,-0.725354,0.22196046,-3.0915163,163.0
20069,-1.0779326,16.10448,7.7913284,-0.18585205,1.4931885,-4.3053956,163.0
20070,-2.2769334,8.679398,4.043915,-0.18585205,1.4931885,-4.3053956,163.0
20071,-2.2769334,8.679398,4.043915,0.44604492,2.446875,-5.0243773,163.0
20072,-2.2769334,8.679398,4.043915,0.4885254,3.1318727,-5.4608645,163.0
20073,-3.2616224,1.9469604,0.2355957,0.4885254,3.1318727,-5.4608645,163.0
20074,-4.6170616,-6.0809097,-1.8198624,0.4885254,3.1318727,-5.4608645,163.0
20075,-4.6170616,-6.0809097,-1.8198624,-0.09239502,3.6788087,-5.435376,163.0
20076,-4.6170616,-6.0809097,-1.8198624,-1.0067872,4.1970706,-5.5702515,163.0
20077,-4.6170616,-6.0809097,-1.8198624,-3.7414672,4.896936,-5.5575075,163.0
20078,19.985844,-55.41423,-17.949884,-3.7414672,4.896936,-5.5575075,163.0
20079,19.985844,-55.41423,-17.949884,-4.461511,4.635681,-5.447058,163.0
20080,19.985844,-55.41423,-17.949884,-1.1034302,6.2966676,-2.52865,163.0
20081,19.985844,-55.41423,-17.949884,-5.335547,4.338318,1.8340943,163.0
20082,15.435465,-55.48163,-17.403816,-5.335547,4.338318,1.8340943,163.0
20083,15.435465,-55.48163,-17.403816,-3.5938478,2.446875,1.8776368,163.0
20084,-2.3905077,-30.403893,-7.903448,-3.5938478,2.446875,1.8776368,163.0
20085,-2.3905077,-30.403893,-7.903448,-1.1883911,2.0358765,0.89421386,163.0
20086,-16.803947,-3.7574997,-1.6512985,-1.1883911,2.0358765,0.89421386,163.0
20087,-16.803947,-3.7574997,-1.6512985,-0.1529297,1.1076783,0.43011475,163.0
20088,-21.171162,12.978012,2.450409,-0.1529297,1.1076783,0.43011475,163.0
20089,-21.171162,12.978012,2.450409,0.118945315,0.99722904,-0.02442627,163.0
20090,-17.772072,19.764389,4.8961678,0.118945315,0.99722904,-0.02442627,163.0
20091,-17.772072,19.764389,4.8961678,-0.6690674,0.81243896,-0.33771974,163.0
20092,-12.747248,20.594398,5.2992344,-0.6690674,0.81243896,-0.33771974,163.0
20093,-12.747248,20.594398,5.2992344,-1.0290893,0.47365722,-0.42268068,163.0
20094,-9.552132,18.585411,4.909443,-1.0290893,0.47365722,-0.42268068,163.0
20095,-9.552132,18.585411,4.909443,-0.88996583,0.5692383,-0.23895264,163.0
20096,-7.7994804,15.224678,5.4503326,-0.88996583,0.5692383,-0.23895264,163.0
20097,-7.7994804,15.224678,5.4503326,-0.4078125,0.7943848,0.06796875,163.0
20098,-6.714731,11.479706,7.0420303,-0.4078125,0.7943848,0.06796875,163.0
20099,-6.714731,11.479706,7.0420303,-0.083898924,0.5299439,0.39188233,163.0
20100,-6.714731,11.479706,7.0420303,1.3731812,0.11257324,0.58198243,163.0
20101,-5.952755,8.049721,7.710579,1.3731812,0.11257324,0.58198243,163.0
20102,-6.0560284,3.0597687,-0.4963684,1.3731812,0.11257324,0.58198243,163.0
20103,-6.0560284,3.0597687,-0.4963684,2.907788,-0.6265869,0.6903076,163.0
20104,-6.0560284,3.0597687,-0.4963684,3.8253663,-0.7062378,0.92926025,163.0
20105,-6.0560284,3.0597687,-0.4963684,1.0248413,-0.050976563,1.269104,163.0
20106,-7.2608757,-1.7057648,-1.9185791,1.0248413,-0.050976563,1.269104,163.0
20107,-7.2608757,-1.7057648,-1.9185791,-4.579395,-0.6117188,0.6956177,163.0
20108,-7.2608757,-1.7057648,-1.9185791,-1.6439942,-1.628064,0.80394286,163.0
20109,-5.002207,-23.051064,-8.779699,-1.6439942,-1.628064,0.80394286,163.0
20110,-5.002207,-23.051064,-8.779699,2.7410524,-3.2030275,5.4173217,163.0
20111,5.4140434,-53.939034,-19.248833,2.7410524,-3.2030275,5.4173217,163.0
20112,5.4140434,-53.939034,-19.248833,1.1480347,-5.330237,8.624598,163.0
20113,18.589071,-60.843918,-25.55113,1.1480347,-5.330237,8.624598,163.0
20114,18.589071,-60.843918,-25.55113,0.43967286,-6.9200683,9.891578,163.0
20115,23.25479,-33.373688,-21.224255,0.43967286,-6.9200683,9.891578,163.0
20116,23.25479,-33.373688,-21.224255,1.539917,-7.3618655,8.556628,163.0
20117,20.757896,3.4919128,-9.774887,1.539917,-7.3618655,8.556628,163.0
20118,20.757896,3.4919128,-9.774887,0.35683593,-7.040076,6.812805,163.0
20119,16.683966,28.239769,0.939991,0.35683593,-7.040076,6.812805,163.0
20120,16.683966,28.239769,0.939991,-2.2015502,-6.6184573,5.0498657,163.0
20121,12.978899,37.20352,8.413358,-2.2015502,-6.6184573,5.0498657,163.0
20122,12.978899,37.20352,8.413358,-3.79563,-6.124622,3.358081,163.0
20123,10.397939,35.985497,14.236448,-3.79563,-6.124622,3.358081,163.0
20124,10.397939,35.985497,14.236448,-5.166687,-5.4831667,1.3094605,163.0
20125,8.105656,32.786438,19.229662,-5.166687,-5.4831667,1.3094605,163.0
20126,8.105656,32.786438,19.229662,-5.7380495,-4.539038,-1.6365601,163.0
20127,5.8205843,29.31202,22.789734,-5.7380495,-4.539038,-1.6365601,163.0
20128,5.8205843,29.31202,22.789734,-3.354895,-2.1919923,-4.6463013,163.0
20129,4.2295756,21.621113,21.687683,-3.354895,-2.1919923,-4.6463013,163.0
20130,4.2295756,21.621113,21.687683,-1.6121339,1.1151123,-5.5511355,163.0
20131,1.9455137,11.259048,14.238636,-1.6121339,1.1151123,-5.5511355,163.0
20132,1.9455137,11.259048,14.238636,0.44498292,2.899292,-6.057715,163.0
20133,-2.7782207,2.7854843,4.5924225,0.44498292,2.899292,-6.057715,163.0
20134,-2.7782207,2.7854843,4.5924225,1.1310425,3.6522584,-6.8149295,163.0
20135,-7.081561,-1.6646423,-2.1359138,1.1310425,3.6522584,-6.8149295,163.0
20136,-7.081561,-1.6646423,-2.1359138,0.5671143,4.591077,-7.2216797,163.0
20137,-7.8137717,-2.7661285,-4.4628677,0.5671143,4.591077,-7.2216797,163.0
20138,-7.8137717,-2.7661285,-4.4628677,-0.7189819,5.4226317,-7.1972537,163.0
20139,-5.881974,-3.060341,-3.75074,-0.7189819,5.4226317,-7.1972537,163.0
20140,-5.881974,-3.060341,-3.75074,-2.362976,6.323218,-6.6619997,163.0
20141,-2.85066,-4.35273,-1.8018608,-2.362976,6.323218,-6.6619997,163.0
20142,-2.85066,-4.35273,-1.8018608,-3.1594849,6.2956057,-4.9500365,163.0
20143,0.7264055,-11.425705,-1.7956009,-3.1594849,6.2956057,-4.9500365,163.0
20144,0.7264055,-11.425705,-1.7956009,-1.8723267,6.824487,-3.6703126,163.0
20145,5.5498624,-29.023117,-7.811577,-1.8723267,6.824487,-3.6703126,163.0
20146,5.5498624,-29.023117,-7.811577,-3.6862428,6.446411,-1.4145997,163.0
20147,8.870066,-45.80076,-15.496979,-3.6862428,6.446411,-1.4145997,163.0
20148,8.870066,-45.80076,-15.496979,-5.97594,3.987854,2.3746583,163.0
20149,3.6079178,-43.668686,-16.038635,-5.97594,3.987854,2.3746583,163.0
20150,3.6079178,-43.668686,-16.038635,-2.2026124,2.0656128,2.7484863,163.0
20151,-8.115362,-24.979027,-10.428259,-2.2026124,2.0656128,2.7484863,163.0
20152,-8.115362,-24.979027,-10.428259,-0.16036378,1.177771,2.4022706,163.0
20153,-17.115715,-1.2819977,-3.6870422,-0.16036378,1.177771,2.4022706,163.0
20154,-17.115715,-1.2819977,-3.6870422,-0.15186767,0.71579593,1.7013428,163.0
20155,-19.366402,18.085632,2.2699337,-0.15186767,0.71579593,1.7013428,163.0
20156,-19.366402,18.085632,2.2699337,-1.3041505,0.51082766,1.1512207,163.0
20157,-16.517706,27.29206,5.9896774,-1.3041505,0.51082766,1.1512207,163.0
20158,-16.517706,27.29206,5.9896774,-2.1548219,0.42374268,0.5671143,163.0
20159,-12.09738,27.781616,7.7791214,-2.1548219,0.42374268,0.5671143,163.0
20160,-12.09738,27.781616,7.7791214,-2.521216,0.6510132,0.004248047,163.0
20161,-8.089049,23.92163,9.495064,-2.521216,0.6510132,0.004248047,163.0
20162,-8.089049,23.92163,9.495064,-1.991272,1.2627319,-0.38869628,163.0
20163,-5.3101196,18.589828,11.338997,-1.991272,1.2627319,-0.38869628,163.0
20164,-5.3101196,18.589828,11.338997,-1.4103516,1.2234375,-0.43754885,163.0
20165,-3.9911995,12.7136,11.231026,-1.4103516,1.2234375,-0.43754885,163.0
20166,-3.9911995,12.7136,11.231026,1.0110352,0.8602295,-0.6053467,163.0
20167,-3.5616493,6.9040604,8.26125,1.0110352,0.8602295,-0.6053467,163.0
20168,-3.5616493,6.9040604,8.26125,3.0522218,0.40462646,-0.76358646,163.0
20169,-3.5616493,6.9040604,8.26125,2.9375246,0.012744141,-0.69986576,163.0
20170,-3.6130772,3.3049164,4.0576935,2.9375246,0.012744141,-0.69986576,163.0
20171,-3.305708,2.2898788,-1.7158318,2.9375246,0.012744141,-0.69986576,163.0
20172,-3.305708,2.2898788,-1.7158318,1.719397,-0.18266602,-0.6265869,163.0
20173,-3.305708,2.2898788,-1.7158318,0.3727661,-0.45878908,-0.3440918,163.0
20174,-3.305708,2.2898788,-1.7158318,0.10407715,-0.8963379,0.014868164,163.0
20175,-2.5233765,-3.9481277,-3.0245705,0.10407715,-0.8963379,0.014868164,163.0
20176,-2.5233765,-3.9481277,-3.0245705,0.023364259,-1.4241577,0.38763428,163.0
20177,-3.536621,-16.629387,-7.8187294,0.023364259,-1.4241577,0.38763428,163.0
20178,-3.536621,-16.629387,-7.8187294,0.7742066,-1.5877075,3.454724,163.0
20179,-4.573778,-33.85431,-16.246218,0.7742066,-1.5877075,3.454724,163.0
20180,-4.573778,-33.85431,-16.246218,0.06159668,-1.0535157,5.9281497,163.0
20181,2.1344223,-41.61438,-19.645876,0.06159668,-1.0535157,5.9281497,163.0
20182,2.1344223,-41.61438,-19.645876,-0.8209351,-4.150342,8.403699,163.0
20183,12.655914,-31.108398,-14.326942,-0.8209351,-4.150342,8.403699,163.0
20184,12.655914,-31.108398,-14.326942,-0.4428589,-5.9578857,8.508838,163.0
20185,12.655914,-31.108398,-14.326942,-0.4428589,-5.9578857,8.508838,164.0
20186,17.148293,-12.640991,-9.8059635,-0.4428589,-5.9578857,8.508838,164.0
20187,17.148293,-12.640991,-9.8059635,-0.8527954,-7.1367188,7.336377,164.0
20188,17.707684,5.6082993,-5.790266,-0.8527954,-7.1367188,7.336377,164.0
20189,17.707684,5.6082993,-5.790266,-1.7788696,-7.4871826,5.449182,164.0
20190,15.720212,20.069656,2.053566,-1.7788696,-7.4871826,5.449182,164.0
20191,15.720212,20.069656,2.053566,-2.256775,-7.490369,3.1764772,164.0
20192,11.581724,26.339333,9.532257,-2.256775,-7.490369,3.1764772,164.0
20193,11.581724,26.339333,9.532257,-3.248694,-7.23761,0.8793457,164.0
20194,7.7330303,25.738083,14.046082,-3.248694,-7.23761,0.8793457,164.0
20195,7.7330303,25.738083,14.046082,-3.2720582,-6.794751,-1.1395386,164.0
20196,5.134325,23.183006,16.972328,-3.2720582,-6.794751,-1.1395386,164.0
20197,5.134325,23.183006,16.972328,-1.8925049,-4.887378,-2.4819214,164.0
20198,4.081056,21.197968,18.475445,-1.8925049,-4.887378,-2.4819214,164.0
20199,4.081056,21.197968,18.475445,-1.2839721,-1.6801026,-3.710669,164.0
20200,3.3459241,18.376328,15.766792,-1.2839721,-1.6801026,-3.710669,164.0
20201,3.3459241,18.376328,15.766792,-1.1480347,1.1289185,-4.539038,164.0
20202,1.4634948,13.09927,9.298664,-1.1480347,1.1289185,-4.539038,164.0
20203,1.4634948,13.09927,9.298664,-0.3727661,3.7212892,-5.0965943,164.0
20204,-0.6893728,6.472069,2.98217,-0.3727661,3.7212892,-5.0965943,164.0
20205,-0.6893728,6.472069,2.98217,-0.8262451,5.961072,-5.701941,164.0
20206,-1.1158905,1.2700996,-1.6576843,-0.8262451,5.961072,-5.701941,164.0
20207,-1.1158905,1.2700996,-1.6576843,-1.6471802,8.394141,-5.8325686,164.0
20208,0.5421996,-1.7579193,-5.105175,-1.6471802,8.394141,-5.8325686,164.0
20209,0.5421996,-1.7579193,-5.105175,-2.3725343,9.9967165,-5.4799805,164.0
20210,1.9893627,-3.7644043,-6.757004,-2.3725343,9.9967165,-5.4799805,164.0
20211,1.9893627,-3.7644043,-6.757004,-3.4058716,10.480994,-4.5039916,164.0
20212,1.5545518,-4.330284,-5.5052376,-3.4058716,10.480994,-4.5039916,164.0
20213,1.5545518,-4.330284,-5.5052376,-4.697278,9.078076,-3.8795288,164.0
20214,0.7276137,-5.974556,-5.191593,-4.697278,9.078076,-3.8795288,164.0
20215,0.7276137,-5.974556,-5.191593,-3.0394776,8.201917,-3.0299194,164.0
20216,2.3413682,-19.643417,-14.41934,-3.0394776,8.201917,-3.0299194,164.0
20217,2.3413682,-19.643417,-14.41934,0.63826907,6.4485354,-1.5792115,164.0
20218,5.423119,-40.71695,-25.247961,0.63826907,6.4485354,-1.5792115,164.0
20219,5.423119,-40.71695,-25.247961,-1.5059327,1.724707,2.0210083,164.0
20220,3.0129094,-43.40905,-23.52785,-1.5059327,1.724707,2.0210083,164.0
20221,3.0129094,-43.40905,-23.52785,-1.6981567,0.6064087,2.2111084,164.0
20222,-6.2964964,-24.317085,-14.458265,-1.6981567,0.6064087,2.2111084,164.0
20223,-6.2964964,-24.317085,-14.458265,-0.42905274,-0.06478272,2.1834962,164.0
20224,-15.113772,-0.78608704,-3.83247,-0.42905274,-0.06478272,2.1834962,164.0
20225,-15.113772,-0.78608704,-3.83247,-0.29417726,-0.35471192,1.7448853,164.0
20226,-17.880617,16.136185,6.5426426,-0.29417726,-0.35471192,1.7448853,164.0
20227,-17.880617,16.136185,6.5426426,-0.90270996,-0.26656494,1.1820191,164.0
20228,-15.575393,23.50476,12.754671,-0.90270996,-0.26656494,1.1820191,164.0
20229,-15.575393,23.50476,12.754671,-1.5101807,-0.060534667,0.6085327,164.0
20230,-11.723486,23.528778,14.511951,-1.5101807,-0.060534667,0.6085327,164.0
20231,-11.723486,23.528778,14.511951,-1.5643433,0.27506104,0.07646485,164.0
20232,-8.400652,20.086784,13.815641,-1.5643433,0.27506104,0.07646485,164.0
20233,-8.400652,20.086784,13.815641,-1.3731812,0.54693604,-0.31860352,164.0
20234,-6.281704,15.93483,12.0229225,-1.3731812,0.54693604,-0.31860352,164.0
20235,-6.281704,15.93483,12.0229225,-0.90695804,1.0407715,-0.3090454,164.0
20236,-4.923874,11.771957,10.192312,-0.90695804,1.0407715,-0.3090454,164.0
20237,-4.923874,11.771957,10.192312,-1.0545777,1.1214844,-0.06159668,164.0
20238,-4.0897713,7.9501953,8.697613,-1.0545777,1.1214844,-0.06159668,164.0
20239,-4.0897713,7.9501953,8.697613,-0.22939454,0.8251831,0.07965088,164.0
20240,-4.0897713,7.9501953,8.697613,1.1321045,0.04885254,-0.20178223,164.0
20241,-4.1869545,4.9226303,6.7457237,1.1321045,0.04885254,-0.20178223,164.0
20242,-4.714443,2.530304,-0.032024384,1.1321045,0.04885254,-0.20178223,164.0
20243,-4.714443,2.530304,-0.032024384,2.272705,-0.79332274,-0.59260255,164.0
20244,-4.714443,2.530304,-0.032024384,2.1080933,-1.4677002,-0.74871826,164.0
20245,-4.714443,2.530304,-0.032024384,0.6616333,-2.3289917,-0.9345703,164.0
20246,-1.9428558,1.1203384,-2.564621,0.6616333,-2.3289917,-0.9345703,164.0
20247,-1.9428558,1.1203384,-2.564621,-0.57242435,-3.4738405,-1.2266235,164.0
20248,-0.422657,-5.0236435,-6.8894787,-0.57242435,-3.4738405,-1.2266235,164.0
20249,-0.422657,-5.0236435,-6.8894787,2.0199463,-5.679639,-2.16969,164.0
20250,0.43406677,-22.224518,-13.473911,2.0199463,-5.679639,-2.16969,164.0
20251,0.43406677,-22.224518,-13.473911,4.250171,-5.985498,-1.6503662,164.0
20252,3.069641,-32.216476,-14.493498,4.250171,-5.985498,-1.6503662,164.0
20253,3.069641,-32.216476,-14.493498,2.7357423,-6.1288695,4.3234496,164.0
20254,20.254847,-50.49684,-18.268797,2.7357423,-6.1288695,4.3234496,164.0
20255,20.254847,-50.49684,-18.268797,0.8336792,-6.039661,5.244214,164.0
20256,18.130112,-35.25679,-13.867945,0.8336792,-6.039661,5.244214,164.0
20257,18.130112,-35.25679,-13.867945,-1.0312134,-5.136951,6.4952636,164.0
20258,8.99829,3.8545685,-3.709773,-1.0312134,-5.136951,6.4952636,164.0
20259,8.99829,3.8545685,-3.709773,-0.7954468,-5.1794314,6.2966676,164.0
20260,5.024731,13.046547,1.4948654,-0.7954468,-5.1794314,6.2966676,164.0
20261,5.024731,13.046547,1.4948654,0.021240234,-5.177307,4.8385253,164.0
20262,0.41915035,27.312157,10.761641,0.021240234,-5.177307,4.8385253,164.0
20263,0.41915035,27.312157,10.761641,-0.06584473,-5.177307,4.2958374,164.0
20264,0.6971855,25.204155,11.259251,-0.06584473,-5.177307,4.2958374,164.0
20265,0.6971855,25.204155,11.259251,0.26337892,-4.1237917,2.2790773,164.0
20266,4.274106,27.394402,15.848282,0.26337892,-4.1237917,2.2790773,164.0
20267,4.274106,27.394402,15.848282,0.56180423,-3.2879884,1.4613281,164.0
20268,5.2605686,25.408554,15.465052,0.56180423,-3.2879884,1.4613281,164.0
20269,5.2605686,25.408554,15.465052,-1.6429322,-0.9409424,-2.0273805,164.0
20270,7.152755,29.374245,16.106037,-1.6429322,-0.9409424,-2.0273805,164.0
20271,7.152755,29.374245,16.106037,-1.1076783,-0.13168946,-3.0044312,164.0
20272,5.221923,22.89151,12.127556,-1.1076783,-0.13168946,-3.0044312,164.0
20273,5.221923,22.89151,12.127556,1.359375,2.6762695,-4.8140993,164.0
20274,0.8641839,8.395912,3.7343826,1.359375,2.6762695,-4.8140993,164.0
20275,0.8641839,8.395912,3.7343826,1.628064,3.4472902,-5.330237,164.0
20276,-0.62118953,3.1139603,0.27122116,1.628064,3.4472902,-5.330237,164.0
20277,-0.62118953,3.1139603,0.27122116,0.48533937,5.171997,-6.341272,164.0
20278,-1.6824131,-2.1853828,-4.595646,0.48533937,5.171997,-6.341272,164.0
20279,-1.6824131,-2.1853828,-4.595646,-0.15505372,5.4682984,-6.4389772,164.0
20280,-1.2102127,-3.300476,-4.638344,-0.15505372,5.4682984,-6.4389772,164.0
20281,-1.2102127,-3.300476,-4.638344,-1.5420411,6.2127686,-6.424109,164.0
20282,0.079766855,-5.5500603,-3.6461258,-1.5420411,6.2127686,-6.424109,164.0
20283,0.079766855,-5.5500603,-3.6461258,-2.893982,6.259497,-6.305164,164.0
20284,2.6272535,-11.876915,-3.6840897,-2.893982,6.259497,-6.305164,164.0
20285,2.6272535,-11.876915,-3.6840897,-1.1565307,6.0332885,-5.348291,164.0
20286,8.846407,-29.57154,-8.058136,-1.1565307,6.0332885,-5.348291,164.0
20287,8.846407,-29.57154,-8.058136,-1.2988404,4.52417,-1.7714356,164.0
20288,14.502432,-51.2221,-12.59679,-1.2988404,4.52417,-1.7714356,164.0
20289,14.502432,-51.2221,-12.59679,-3.3251588,1.9498535,1.8659546,164.0
20290,2.096342,-47.350006,-12.663834,-3.3251588,1.9498535,1.8659546,164.0
20291,2.096342,-47.350006,-12.663834,-1.9137452,1.4029175,1.8171021,164.0
20292,-6.048061,-29.025955,-9.380751,-1.9137452,1.4029175,1.8171021,164.0
20293,-6.048061,-29.025955,-9.380751,-0.13275146,0.90802,1.4623902,164.0
20294,-22.468918,8.761536,-0.36993217,-0.13275146,0.90802,1.4623902,164.0
20295,-22.468918,8.761536,-0.36993217,-0.4959595,0.76677245,1.3222046,164.0
20296,-20.072315,16.017982,2.2842674,-0.4959595,0.76677245,1.3222046,164.0
20297,-20.072315,16.017982,2.2842674,-1.3806152,0.66481936,0.95581055,164.0
20298,-16.666311,24.221855,5.698509,-1.3806152,0.66481936,0.95581055,164.0
20299,-16.666311,24.221855,5.698509,-1.6769165,0.71579593,0.4343628,164.0
20300,-12.0811205,23.594017,7.139435,-1.6769165,0.71579593,0.4343628,164.0
20301,-12.0811205,23.594017,7.139435,-1.5059327,0.89102787,-0.1274414,164.0
20302,-8.447538,19.735466,8.718773,-1.5059327,0.89102787,-0.1274414,164.0
20303,-8.447538,19.735466,8.718773,-1.1321045,1.4241577,-0.42692873,164.0
20304,-5.84342,16.049469,10.602167,-1.1321045,1.4241577,-0.42692873,164.0
20305,-5.84342,16.049469,10.602167,-1.363623,1.3243287,-0.27506104,164.0
20306,-4.515337,12.803856,10.483505,-1.363623,1.3243287,-0.27506104,164.0
20307,-4.515337,12.803856,10.483505,-0.8050049,0.9611206,-0.11044922,164.0
20308,-4.049671,8.70694,6.9593277,-0.8050049,0.9611206,-0.11044922,164.0
20309,-4.049671,8.70694,6.9593277,1.5792115,0.004248047,-0.23789063,164.0
20310,-4.049671,8.70694,6.9593277,1.8638306,-0.36320803,-0.24851075,164.0
20311,-4.5164585,3.5025024,0.5076828,1.8638306,-0.36320803,-0.24851075,164.0
20312,-1.9693432,-0.14192963,-1.6033745,1.8638306,-0.36320803,-0.24851075,164.0
20313,-1.9693432,-0.14192963,-1.6033745,1.812854,-0.7827026,-0.26550293,164.0
20314,-1.9693432,-0.14192963,-1.6033745,1.1915772,-0.91864014,-0.05628662,164.0
20315,-1.9693432,-0.14192963,-1.6033745,0.44498292,-1.4730103,0.26125488,164.0
20316,-0.7815056,-4.216461,-2.8299522,0.44498292,-1.4730103,0.26125488,164.0
20317,-0.7815056,-4.216461,-2.8299522,0.11682129,-2.0645509,0.30161133,164.0
20318,-0.82951355,-16.212296,-7.2707863,0.11682129,-2.0645509,0.30161133,164.0
20319,-0.82951355,-16.212296,-7.2707863,1.1852051,-3.1286867,3.0416017,164.0
20320,1.0442123,-36.51172,-11.311844,1.1852051,-3.1286867,3.0416017,164.0
20321,1.0442123,-36.51172,-11.311844,2.6040528,-4.530542,6.492078,164.0
20322,6.9230404,-49.080147,-14.61903,2.6040528,-4.530542,6.492078,164.0
20323,6.9230404,-49.080147,-14.61903,1.7873658,-5.2006717,8.234839,164.0
20324,13.193536,-38.803207,-16.72075,1.7873658,-5.2006717,8.234839,164.0
20325,13.193536,-38.803207,-16.72075,0.8421753,-5.430066,8.993115,164.0
20326,16.264095,-12.536316,-13.213955,0.8421753,-5.430066,8.993115,164.0
20327,16.264095,-12.536316,-13.213955,0.07434082,-5.2813845,8.122266,164.0
20328,15.194381,13.3962555,-5.6168785,0.07434082,-5.2813845,8.122266,164.0
20329,15.194381,13.3962555,-5.6168785,-1.4230957,-4.88313,6.335962,164.0
20330,11.100475,30.004692,1.9087429,-1.4230957,-4.88313,6.335962,164.0
20331,11.100475,30.004692,1.9087429,-2.7537963,-4.5560303,4.1099854,164.0
20332,7.5387297,36.51847,9.377018,-2.7537963,-4.5560303,4.1099854,164.0
20333,7.5387297,36.51847,9.377018,-2.9396484,-3.8434205,1.3678712,164.0
20334,6.0698147,36.158844,16.52935,-2.9396484,-3.8434205,1.3678712,164.0
20335,6.0698147,36.158844,16.52935,-2.8621216,-2.9534547,-1.7353271,164.0
20336,5.5720263,31.779762,19.449055,-2.8621216,-2.9534547,-1.7353271,164.0
20337,5.5720263,31.779762,19.449055,-1.4825684,-1.3827393,-4.171582,164.0
20338,4.5976477,23.375069,15.189751,-1.4825684,-1.3827393,-4.171582,164.0
20339,4.5976477,23.375069,15.189751,0.16461182,0.362146,-5.0944705,164.0
20340,1.7794247,13.241047,7.175274,0.16461182,0.362146,-5.0944705,164.0
20341,1.7794247,13.241047,7.175274,0.76358646,1.4114136,-5.735925,164.0
20342,-1.941536,5.669388,1.5347977,0.76358646,1.4114136,-5.735925,164.0
20343,-1.941536,5.669388,1.5347977,0.26975098,2.348108,-6.232947,164.0
20344,-3.9291198,1.4096909,-0.45545197,0.26975098,2.348108,-6.232947,164.0
20345,-3.9291198,1.4096909,-0.45545197,-0.5564942,3.2996705,-6.491016,164.0
20346,-3.7791357,-1.3677559,-0.7814255,-0.5564942,3.2996705,-6.491016,164.0
20347,-3.7791357,-1.3677559,-0.7814255,-1.2807862,4.0855594,-6.426233,164.0
20348,-2.4947808,-3.7064133,-1.1306725,-1.2807862,4.0855594,-6.426233,164.0
20349,-2.4947808,-3.7064133,-1.1306725,-2.179248,5.0573,-5.9929323,164.0
20350,-0.5586176,-5.782978,-1.8782578,-2.179248,5.0573,-5.9929323,164.0
20351,-0.5586176,-5.782978,-1.8782578,-3.7404053,5.674329,-4.8406496,164.0
20352,1.9016533,-9.966728,-2.9136658,-3.7404053,5.674329,-4.8406496,164.0
20353,1.9016533,-9.966728,-2.9136658,-4.4816895,6.427295,-3.8901489,164.0
20354,7.2644014,-22.334259,-6.1858406,-4.4816895,6.427295,-3.8901489,164.0
20355,7.2644014,-22.334259,-6.1858406,-4.781177,6.0375366,-2.0072021,164.0
20356,14.597849,-41.065407,-11.345985,-4.781177,6.0375366,-2.0072021,164.0
20357,14.597849,-41.065407,-11.345985,-3.0479736,2.8419435,1.3232666,164.0
20358,14.597849,-41.065407,-11.345985,-3.0479736,2.8419435,1.3232666,162.0
20359,13.185409,-46.72606,-12.511921,-3.0479736,2.8419435,1.3232666,162.0
20360,13.185409,-46.72606,-12.511921,-0.1444336,1.1437867,1.3742431,162.0
20361,-0.2604618,-30.337753,-10.194387,-0.1444336,1.1437867,1.3742431,162.0
20362,-0.2604618,-30.337753,-10.194387,1.3232666,0.6669434,0.77739257,162.0
20363,-14.907661,-4.6542664,-6.6388226,1.3232666,0.6669434,0.77739257,162.0
20364,-14.907661,-4.6542664,-6.6388226,-0.022302246,0.46409914,0.86766356,162.0
20365,-21.598639,15.93988,-1.228796,-0.022302246,0.46409914,0.86766356,162.0
20366,-21.598639,15.93988,-1.228796,-1.265918,0.93138427,0.60322267,162.0
20367,-20.210857,24.947731,3.262312,-1.265918,0.93138427,0.60322267,162.0
20368,-20.210857,24.947731,3.262312,-2.3268678,1.358313,0.4056885,162.0
20369,-16.091599,24.956757,5.8277454,-2.3268678,1.358313,0.4056885,162.0
20370,-16.091599,24.956757,5.8277454,-2.4904175,1.6556762,0.44710693,162.0
20371,-12.998449,20.741142,7.9326553,-2.4904175,1.6556762,0.44710693,162.0
20372,-12.998449,20.741142,7.9326553,-1.539917,1.9615357,0.55755615,162.0
20373,-11.376396,15.485634,9.547089,-1.539917,1.9615357,0.55755615,162.0
20374,-11.376396,15.485634,9.547089,-0.3355957,1.5792115,0.56392825,162.0
20375,-10.600336,11.178886,9.043898,-0.3355957,1.5792115,0.56392825,162.0
20376,-10.600336,11.178886,9.043898,0.89208984,1.0524536,0.4354248,162.0
20377,-9.256844,8.217621,6.8129387,0.89208984,1.0524536,0.4354248,162.0
20378,-9.256844,8.217621,6.8129387,1.6917847,0.3440918,0.41524658,162.0
20379,-6.614155,5.884781,5.1282196,1.6917847,0.3440918,0.41524658,162.0
20380,-6.614155,5.884781,5.1282196,2.617859,-0.3355957,0.46622315,162.0
20381,-3.4961452,3.9218292,4.437889,2.617859,-0.3355957,0.46622315,162.0
20382,-3.4961452,3.9218292,4.437889,3.5811036,-1.3052124,0.44498292,162.0
20383,-1.3485756,2.4876251,3.0734177,3.5811036,-1.3052124,0.44498292,162.0
20384,-1.3485756,2.4876251,3.0734177,5.058362,-2.2153566,-0.087084964,162.0
20385,-0.5581932,0.84039307,-0.5039253,5.058362,-2.2153566,-0.087084964,162.0
20386,-0.5581932,0.84039307,-0.5039253,5.889917,-3.1594849,-1.2351197,162.0
20387,0.3964386,-1.7642212,-4.463051,5.889917,-3.1594849,-1.2351197,162.0
20388,0.3964386,-1.7642212,-4.463051,2.4957275,-4.0452027,-2.3746583,162.0
20389,4.087,-11.218643,-4.1961365,2.4957275,-4.0452027,-2.3746583,162.0
20390,4.087,-11.218643,-4.1961365,3.0192993,-6.5834107,1.1809571,162.0
20391,14.916376,-39.68605,-1.90205,3.0192993,-6.5834107,1.1809571,162.0
20392,14.916376,-39.68605,-1.90205,6.039661,-4.1163573,4.162024,162.0
20393,28.26141,-62.617226,-3.4590416,6.039661,-4.1163573,4.162024,162.0
20394,28.26141,-62.617226,-3.4590416,0.50870365,-2.7867188,6.717224,162.0
20395,27.462229,-44.97341,-4.936142,0.50870365,-2.7867188,6.717224,162.0
20396,27.462229,-44.97341,-4.936142,-0.23895264,-2.613611,7.325757,162.0
20397,13.540975,-8.500603,-2.9393082,-0.23895264,-2.613611,7.325757,162.0
20398,13.540975,-8.500603,-2.9393082,-0.36639404,-2.3799684,6.86272,162.0
20399,1.268131,15.345512,-1.30163,-0.36639404,-2.3799684,6.86272,162.0
20400,1.268131,15.345512,-1.30163,-0.57454836,-2.6847656,6.317908,162.0
20401,-3.848044,23.623932,-0.6574402,-0.57454836,-2.6847656,6.317908,162.0
20402,-3.848044,23.623932,-0.6574402,-0.7614624,-2.9109743,5.9270873,162.0
20403,-3.430913,24.5141,0.24837494,-0.7614624,-2.9109743,5.9270873,162.0
20404,-3.430913,24.5141,0.24837494,-1.1289185,-2.8578737,5.697693,162.0
20405,-0.3014443,24.978699,1.4587936,-1.1289185,-2.8578737,5.697693,162.0
20406,-0.3014443,24.978699,1.4587936,-1.7597535,-2.3385499,4.8693237,162.0
20407,3.6336615,28.33313,2.8305721,-1.7597535,-2.3385499,4.8693237,162.0
20408,3.6336615,28.33313,2.8305721,-1.2170655,-1.7523193,2.275891,162.0
20409,5.510079,34.476616,4.725542,-1.2170655,-1.7523193,2.275891,162.0
20410,5.510079,34.476616,4.725542,0.007434082,-1.5930176,-2.6486573,162.0
20411,5.178742,37.401226,7.492897,0.007434082,-1.5930176,-2.6486573,162.0
20412,5.178742,37.401226,7.492897,1.9657837,0.16248779,-6.9455566,162.0
20413,4.203919,30.091099,7.2643013,1.9657837,0.16248779,-6.9455566,162.0
20414,4.203919,30.091099,7.2643013,2.8663697,1.9742798,-9.247998,162.0
20415,3.0357668,16.003178,1.5687027,2.8663697,1.9742798,-9.247998,162.0
20416,3.0357668,16.003178,1.5687027,1.4273437,2.9502685,-10.379041,162.0
20417,3.0357668,16.003178,1.5687027,-0.5299439,3.6596925,-10.98014,162.0
20418,3.1005373,3.965126,-4.37138,-0.5299439,3.6596925,-10.98014,162.0
20419,16.599255,-28.942463,-2.5301857,-0.5299439,3.6596925,-10.98014,162.0
