,accx,accy,accz,gyrox,gyroy,gyroz,heart rate
19054,run,run,run,run,run,run,run
19055,-0.18699455,0.09526634,0.45539856,-0.0998291,0.029736329,-0.035046387,105.0
19056,-0.14084291,0.080703735,0.3545227,-0.0998291,0.029736329,-0.035046387,105.0
19057,-0.14084291,0.080703735,0.3545227,0.05522461,0.04885254,0.06903076,105.0
19058,-0.10508156,0.06972504,0.276062,0.05522461,0.04885254,0.06903076,105.0
19059,-0.10508156,0.06972504,0.276062,0.035046387,0.035046387,0.0637207,105.0
19060,-0.10508156,0.06972504,0.276062,0.060534667,0.023364259,0.07540283,105.0
19061,-0.21098137,-3.2334785,0.03388977,0.060534667,0.023364259,0.07540283,105.0
19062,-0.13831663,-2.5659084,0.035369873,0.060534667,0.023364259,0.07540283,105.0
19063,-0.13831663,-2.5659084,0.035369873,0.06584473,0.019116212,0.09133301,105.0
19064,-0.13446903,-1.9505177,0.13394165,0.06584473,0.019116212,0.09133301,105.0
19065,-0.13446903,-1.9505177,0.13394165,0.0361084,0.014868164,0.07646485,105.0
19066,-0.17128372,-1.4465485,0.23709106,0.0361084,0.014868164,0.07646485,105.0
19067,-0.17128372,-1.4465485,0.23709106,-0.06903076,0.019116212,0.039294433,105.0
19068,-0.17128372,-1.4465485,0.23709106,-0.087084964,0.012744141,0.0,105.0
19069,-0.12325764,-1.1716919,0.31498718,-0.087084964,0.012744141,0.0,105.0
19070,-0.020505428,-1.0822258,0.36686707,-0.087084964,0.012744141,0.0,105.0
19071,-0.020505428,-1.0822258,0.36686707,-0.08920898,0.0053100586,0.0031860352,105.0
19072,-0.075706005,-1.030941,0.38275146,-0.08920898,0.0053100586,0.0031860352,105.0
19073,-0.075706005,-1.030941,0.38275146,-0.078588866,-0.012744141,0.04991455,105.0
19074,-0.20836782,-0.92591286,0.36180115,-0.078588866,-0.012744141,0.04991455,105.0
19075,-0.20836782,-0.92591286,0.36180115,-0.015930176,-0.009558106,0.0998291,105.0
19076,-0.18352747,-0.6701374,0.29371643,-0.015930176,-0.009558106,0.0998291,105.0
19077,-0.18352747,-0.6701374,0.29371643,-0.02442627,0.0063720704,0.16992188,105.0
19078,-0.04594326,-0.32364655,0.17694092,-0.02442627,0.0063720704,0.16992188,105.0
19079,-0.04594326,-0.32364655,0.17694092,-0.04885254,0.022302246,0.1720459,105.0
19080,0.040650368,-0.10398483,0.030700684,-0.04885254,0.022302246,0.1720459,105.0
19081,0.040650368,-0.10398483,0.030700684,-0.038232423,0.010620117,0.16673584,105.0
19082,0.030603886,-0.010152817,-0.08607483,-0.038232423,0.010620117,0.16673584,105.0
19083,0.030603886,-0.010152817,-0.08607483,-0.008496094,-0.009558106,0.13699952,105.0
19084,0.05124092,0.06210327,-0.121170044,-0.008496094,-0.009558106,0.13699952,105.0
19085,0.05124092,0.06210327,-0.121170044,-0.007434082,-0.011682129,0.1274414,105.0
19086,0.05124092,0.06210327,-0.121170044,0.0063720704,-0.008496094,0.098767094,105.0
19087,0.124964714,0.11690712,-0.082107544,0.0063720704,-0.008496094,0.098767094,105.0
19088,0.204916,0.14292717,-0.045944214,0.0063720704,-0.008496094,0.098767094,105.0
19089,0.204916,0.14292717,-0.045944214,-0.028674318,-0.008496094,0.06690674,105.0
19090,0.20420408,0.096458435,-0.043395996,-0.028674318,-0.008496094,0.06690674,105.0
19091,0.20420408,0.096458435,-0.043395996,0.047790527,-0.03079834,0.04460449,105.0
19092,0.13516521,0.046051025,-0.055130005,0.047790527,-0.03079834,0.04460449,105.0
19093,0.13516521,0.046051025,-0.055130005,0.0722168,-0.029736329,0.004248047,105.0
19094,0.13516521,0.046051025,-0.055130005,0.087084964,-0.019116212,-0.010620117,105.0
19095,0.15718031,0.1151371,-0.07817078,0.087084964,-0.019116212,-0.010620117,105.0
19096,0.3057127,0.25728226,-0.10345459,0.087084964,-0.019116212,-0.010620117,105.0
19097,0.3057127,0.25728226,-0.10345459,0.025488282,0.004248047,-0.053100586,105.0
19098,0.37306118,0.18911552,-0.11477661,0.025488282,0.004248047,-0.053100586,105.0
19099,0.37306118,0.18911552,-0.11477661,-0.0180542,0.022302246,-0.10513916,105.0
19100,0.23162794,-0.1353035,-0.10801697,-0.0180542,0.022302246,-0.10513916,105.0
19101,0.23162794,-0.1353035,-0.10801697,0.12213135,0.015930176,-0.115759276,105.0
19102,0.08101797,-0.28172874,-0.11164856,0.12213135,0.015930176,-0.115759276,105.0
19103,0.08101797,-0.28172874,-0.11164856,0.19434814,0.015930176,-0.10620117,105.0
19104,0.085773945,-0.17871475,-0.15621948,0.19434814,0.015930176,-0.10620117,105.0
19105,0.085773945,-0.17871475,-0.15621948,0.17947999,0.009558106,-0.0541626,105.0
19106,0.19736671,-0.029090881,-0.18440247,0.17947999,0.009558106,-0.0541626,105.0
19107,0.19736671,-0.029090881,-0.18440247,0.14655761,-0.0053100586,-0.03186035,105.0
19108,0.36803722,0.046503067,-0.11003113,0.14655761,-0.0053100586,-0.03186035,105.0
19109,0.36803722,0.046503067,-0.11003113,0.17629395,0.027612304,-0.046728518,105.0
19110,0.6326256,0.09923935,0.011856079,0.17629395,0.027612304,-0.046728518,105.0
19111,0.6326256,0.09923935,0.011856079,0.20072022,0.107263185,-0.0541626,105.0
19112,0.6326256,0.09923935,0.011856079,0.12000733,0.1731079,-0.087084964,105.0
19113,0.87983084,0.26918602,-0.01512146,0.12000733,0.1731079,-0.087084964,105.0
19114,1.0544138,0.54343796,-0.2132721,0.12000733,0.1731079,-0.087084964,105.0
19115,1.0544138,0.54343796,-0.2132721,-0.07752686,0.23258057,-0.1901001,105.0
19116,1.4584727,0.7599945,-0.41055298,-0.07752686,0.23258057,-0.1901001,105.0
19117,1.4584727,0.7599945,-0.41055298,-0.35895997,0.34940186,-0.3536499,105.0
19118,2.2751646,0.75886154,-0.60954285,-0.35895997,0.34940186,-0.3536499,105.0
19119,2.2751646,0.75886154,-0.60954285,-0.67437744,0.53737795,-0.5766724,105.0
19120,3.0965354,0.63562965,-0.9949646,-0.67437744,0.53737795,-0.5766724,105.0
19121,3.0965354,0.63562965,-0.9949646,-1.0375855,0.64782715,-0.79226077,105.0
19122,3.2586493,0.6219559,-1.5745239,-1.0375855,0.64782715,-0.79226077,105.0
19123,3.2586493,0.6219559,-1.5745239,-1.7098389,0.6754395,-1.1204224,105.0
19124,2.6694317,0.5875168,-2.025467,-1.7098389,0.6754395,-1.1204224,105.0
19125,2.6694317,0.5875168,-2.025467,-2.6040528,0.5713623,-1.5123047,105.0
19126,1.0240097,0.3143978,-2.0927582,-2.6040528,0.5713623,-1.5123047,105.0
19127,1.0240097,0.3143978,-2.0927582,-3.4770265,0.5256958,-1.991272,105.0
19128,-0.5535339,-0.66648674,-1.9476318,-3.4770265,0.5256958,-1.991272,105.0
19129,-0.5535339,-0.66648674,-1.9476318,-3.5035768,0.24957275,-2.2886353,105.0
19130,-0.70681643,-1.2065296,-1.8255463,-3.5035768,0.24957275,-2.2886353,105.0
19131,-0.70681643,-1.2065296,-1.8255463,-4.1291018,-0.40993652,-2.5605104,105.0
19132,0.14170027,-1.5065193,-1.7328796,-4.1291018,-0.40993652,-2.5605104,105.0
19133,0.14170027,-1.5065193,-1.7328796,-5.8070803,-0.5341919,-2.2950075,105.0
19134,0.2816342,-2.0642738,-1.1406555,-5.8070803,-0.5341919,-2.2950075,105.0
19135,0.2816342,-2.0642738,-1.1406555,-6.0364747,-0.48321533,-2.716626,105.0
19136,-1.781492,-5.127407,-0.27211,-6.0364747,-0.48321533,-2.716626,105.0
19137,-1.781492,-5.127407,-0.27211,-4.242737,-0.61915284,-3.4887085,105.0
19138,-2.4990218,-5.109701,0.22239685,-4.242737,-0.61915284,-3.4887085,105.0
19139,-2.4990218,-5.109701,0.22239685,-3.530127,-0.7540283,-3.80625,105.0
19140,-2.1146472,-4.451067,0.43208313,-3.530127,-0.7540283,-3.80625,105.0
19141,-2.1146472,-4.451067,0.43208313,-3.43667,-0.65844727,-3.9156373,105.0
19142,-1.3204286,-4.03644,0.54615784,-3.43667,-0.65844727,-3.9156373,105.0
19143,-1.3204286,-4.03644,0.54615784,-3.6023438,-0.5140137,-3.9942262,105.0
19144,0.7068653,-6.0614643,1.4642029,-3.6023438,-0.5140137,-3.9942262,105.0
19145,0.7068653,-6.0614643,1.4642029,-3.6724365,0.3090454,-3.8625367,105.0
19146,1.1134415,-6.419569,1.6154022,-3.6724365,0.3090454,-3.8625367,105.0
19147,1.1134415,-6.419569,1.6154022,-3.354895,0.64995116,-3.7234132,105.0
19148,1.5505188,-7.582591,1.6934204,-3.354895,0.64995116,-3.7234132,105.0
19149,1.5505188,-7.582591,1.6934204,-2.8812377,1.357251,-3.4037476,105.0
19150,1.1424294,-6.484042,1.0875702,-2.8812377,1.357251,-3.4037476,105.0
19151,1.1424294,-6.484042,1.0875702,-3.1180665,1.6015137,-3.3325927,105.0
19152,0.5708771,-4.780593,0.8418884,-3.1180665,1.6015137,-3.3325927,105.0
19153,0.5708771,-4.780593,0.8418884,-3.6862428,2.3937745,-3.081958,105.0
19154,0.6378906,-4.1373644,0.43592834,-3.6862428,2.3937745,-3.081958,105.0
19155,0.6378906,-4.1373644,0.43592834,-3.5577393,2.608301,-3.0500977,105.0
19156,1.2814429,-4.856449,0.23072815,-3.5577393,2.608301,-3.0500977,105.0
19157,1.2814429,-4.856449,0.23072815,-2.5817506,2.9258423,-2.8769898,105.0
19158,1.2814429,-4.856449,0.23072815,-2.4638672,2.9534547,-2.804773,105.0
19159,1.4826251,-4.4914947,-0.09643555,-2.4638672,2.9534547,-2.804773,105.0
19160,1.1198891,-4.102266,0.31378174,-2.4638672,2.9534547,-2.804773,105.0
19161,1.1198891,-4.102266,0.31378174,-2.8249512,2.8281372,-2.72937,105.0
19162,0.73483956,-3.3882089,-0.007247925,-2.8249512,2.8281372,-2.72937,105.0
19163,0.73483956,-3.3882089,-0.007247925,-3.003369,2.7346802,-2.7506104,105.0
19164,-1.3519965,-3.4384358,-0.6709137,-3.003369,2.7346802,-2.7506104,105.0
19165,-1.3519965,-3.4384358,-0.6709137,-2.9067261,2.258899,-2.5477662,105.0
19166,-1.8429985,-2.901286,-1.1510773,-2.9067261,2.258899,-2.5477662,105.0
19167,-1.8429985,-2.901286,-1.1510773,-2.7612305,2.0507448,-2.2854493,105.0
19168,-3.6243622,-1.6567223,-2.0115051,-2.7612305,2.0507448,-2.2854493,105.0
19169,-3.6243622,-1.6567223,-2.0115051,-2.4118288,1.6397461,-1.7013428,105.0
19170,-5.1543727,0.67829657,-3.0636902,-2.4118288,1.6397461,-1.7013428,105.0
19171,-5.1543727,0.67829657,-3.0636902,-2.2153566,1.2510499,-1.1204224,105.0
19172,-7.532959,4.516734,-4.880966,-2.2153566,1.2510499,-1.1204224,105.0
19173,-7.532959,4.516734,-4.880966,-2.4957275,0.8517334,-0.32178956,105.0
19174,-7.0637083,4.885482,-4.503372,-2.4957275,0.8517334,-0.32178956,105.0
19175,-7.0637083,4.885482,-4.503372,-2.4861696,0.7699585,-0.028674318,105.0
19176,-7.72886,4.8231688,-3.2256317,-2.4861696,0.7699585,-0.028674318,105.0
19177,-7.72886,4.8231688,-3.2256317,-1.445398,0.61065674,1.3806152,105.0
19178,-6.171235,3.687807,-2.2005157,-1.445398,0.61065674,1.3806152,105.0
19179,-6.171235,3.687807,-2.2005157,-0.905896,0.5501221,2.0082643,105.0
19180,-4.1639166,2.1485004,-1.3722534,-0.905896,0.5501221,2.0082643,105.0
19181,-4.1639166,2.1485004,-1.3722534,-1.0004151,0.5479981,2.8313234,105.0
19182,-1.6728687,0.9601574,-0.6738281,-1.0004151,0.5479981,2.8313234,105.0
19183,-1.6728687,0.9601574,-0.6738281,-2.340674,0.71579593,3.7563355,105.0
19184,1.1600447,-1.7208514,0.9651489,-2.340674,0.71579593,3.7563355,105.0
19185,1.1600447,-1.7208514,0.9651489,-1.5420411,0.6149048,4.6378055,105.0
19186,4.1849575,-6.453537,2.8198242,-1.5420411,0.6149048,4.6378055,105.0
19187,4.1849575,-6.453537,2.8198242,1.1533448,0.6414551,5.3759036,105.0
19188,7.223503,-10.161878,3.9376526,1.1533448,0.6414551,5.3759036,105.0
19189,7.223503,-10.161878,3.9376526,3.25719,1.3476928,5.9408937,105.0
19190,10.447504,-9.914268,4.150757,3.25719,1.3476928,5.9408937,105.0
19191,10.447504,-9.914268,4.150757,3.7701416,1.6450561,4.6569214,105.0
19192,12.71446,-4.8402524,3.015686,3.7701416,1.6450561,4.6569214,105.0
19193,12.71446,-4.8402524,3.015686,2.080481,1.3816773,4.528418,105.0
19194,12.066197,2.7598417,0.59625244,2.080481,1.3816773,4.528418,105.0
19195,12.066197,2.7598417,0.59625244,-0.26762697,0.98448485,3.8434205,105.0
19196,8.148332,9.725537,-2.7812347,-0.26762697,0.98448485,3.8434205,105.0
19197,8.148332,9.725537,-2.7812347,-1.3264526,-0.17841797,2.1144655,105.0
19198,5.5784435,9.112131,-3.158249,-1.3264526,-0.17841797,2.1144655,105.0
19199,5.5784435,9.112131,-3.158249,-1.3232666,-0.452417,1.2871583,105.0
19200,2.237181,8.666073,-4.285446,-1.3232666,-0.452417,1.2871583,105.0
19201,2.237181,8.666073,-4.285446,-0.632959,-1.0120972,-0.07434082,105.0
19202,-0.32308483,8.110482,-4.871414,-0.632959,-1.0120972,-0.07434082,105.0
19203,-0.32308483,8.110482,-4.871414,0.19328614,-1.4900025,-1.1108643,105.0
19204,-1.0669761,8.095442,-5.261566,0.19328614,-1.4900025,-1.1108643,105.0
19205,-1.0669761,8.095442,-5.261566,0.53950197,-1.7034668,-1.9254273,105.0
19206,-0.4811077,8.418065,-5.3852844,0.53950197,-1.7034668,-1.9254273,105.0
19207,-0.4811077,8.418065,-5.3852844,0.4885254,-1.5972656,-2.535022,105.0
19208,0.6810806,8.414982,-5.06662,0.4885254,-1.5972656,-2.535022,105.0
19209,0.6810806,8.414982,-5.06662,-0.035046387,-1.0981201,-2.8674316,105.0
19210,2.03234,7.561014,-4.4053497,-0.035046387,-1.0981201,-2.8674316,105.0
19211,2.03234,7.561014,-4.4053497,-0.9239502,-0.21558838,-3.3272827,105.0
19212,2.5220146,5.2702217,-3.381958,-0.9239502,-0.21558838,-3.3272827,105.0
19213,2.5220146,5.2702217,-3.381958,-1.3838013,0.56392825,-3.6373901,105.0
19214,1.9596653,1.3203392,-1.865448,-1.3838013,0.56392825,-3.6373901,105.0
19215,1.9596653,1.3203392,-1.865448,-0.76358646,1.2234375,-4.162024,105.0
19216,1.6572828,-4.3012486,0.46554565,-0.76358646,1.2234375,-4.162024,105.0
19217,1.6572828,-4.3012486,0.46554565,-0.452417,2.1155274,-4.494434,105.0
19218,3.0273156,-11.483296,3.6525116,-0.452417,2.1155274,-4.494434,105.0
19219,3.0273156,-11.483296,3.6525116,-0.5649902,2.524402,-4.783301,105.0
19220,3.8588276,-17.115446,6.2890167,-0.5649902,2.524402,-4.783301,105.0
19221,3.8588276,-17.115446,6.2890167,-1.5515991,2.71875,-4.4466434,105.0
19222,1.0551405,-18.018883,6.757141,-1.5515991,2.71875,-4.4466434,105.0
19223,1.0551405,-18.018883,6.757141,-2.3364258,2.2843874,-3.80094,105.0
19224,-3.7744179,-14.726252,4.853424,-2.3364258,2.2843874,-3.80094,105.0
19225,-3.7744179,-14.726252,4.853424,-1.803296,2.2142944,-2.8451295,105.0
19226,-7.9830723,-9.13387,1.9028015,-1.803296,2.2142944,-2.8451295,105.0
19227,-7.9830723,-9.13387,1.9028015,-0.21983643,1.8946289,-2.348108,105.0
19228,-10.204915,-2.5221472,-0.8369751,-0.21983643,1.8946289,-2.348108,105.0
19229,-10.204915,-2.5221472,-0.8369751,0.11363526,1.540979,-1.8871949,105.0
19230,-10.434879,3.559272,-3.2874908,0.11363526,1.540979,-1.8871949,105.0
19231,-10.434879,3.559272,-3.2874908,-0.4354248,1.0949341,-1.2308716,105.0
19232,-9.863675,7.5746393,-5.004822,-0.4354248,1.0949341,-1.2308716,105.0
19233,-9.863675,7.5746393,-5.004822,-0.9802368,0.65632325,-0.49064943,105.0
19234,-9.863675,7.5746393,-5.004822,-1.2128174,0.35789797,0.2803711,105.0
19235,-9.10947,9.373969,-4.9291077,-1.2128174,0.35789797,0.2803711,105.0
19236,-6.4639316,11.396709,-0.5831909,-1.2128174,0.35789797,0.2803711,105.0
19237,-6.4639316,11.396709,-0.5831909,-1.1151123,0.25063476,1.2468017,105.0
19238,-6.4639316,11.396709,-0.5831909,-0.6818115,0.22408448,2.0911012,105.0
19239,-6.4639316,11.396709,-0.5831909,-0.008496094,0.09451904,2.5116577,105.0
19240,-2.480935,8.224752,-0.13162231,-0.008496094,0.09451904,2.5116577,105.0
19241,-2.480935,8.224752,-0.13162231,0.45666504,0.08496094,2.8886719,105.0
19242,1.4833918,4.053728,0.75590515,0.45666504,0.08496094,2.8886719,105.0
19243,1.4833918,4.053728,0.75590515,1.5579712,0.028674318,3.4982667,105.0
19244,4.634455,-0.18835354,2.2202606,1.5579712,0.028674318,3.4982667,105.0
19245,4.634455,-0.18835354,2.2202606,2.4914796,-0.004248047,3.798816,105.0
19246,6.996993,-4.0266113,3.8829498,2.4914796,-0.004248047,3.798816,105.0
19247,6.996993,-4.0266113,3.8829498,4.062195,-0.55543214,3.3379028,105.0
19248,9.445764,-7.989099,6.071686,4.062195,-0.55543214,3.3379028,105.0
19249,9.445764,-7.989099,6.071686,5.8357544,-0.9717407,2.8472536,105.0
19250,11.949995,-9.798653,7.5649567,5.8357544,-0.9717407,2.8472536,105.0
19251,11.949995,-9.798653,7.5649567,7.1324706,-1.9233032,1.5515991,105.0
19252,12.342039,-7.9795346,6.574112,7.1324706,-1.9233032,1.5515991,105.0
19253,12.342039,-7.9795346,6.574112,6.875464,-3.0469117,0.79226077,105.0
19254,9.3292465,-4.2896338,3.3622437,6.875464,-3.0469117,0.79226077,105.0
19255,9.3292465,-4.2896338,3.3622437,7.8588867,-4.0144043,-0.004248047,105.0
19256,5.2802186,1.0040476,0.69924927,7.8588867,-4.0144043,-0.004248047,105.0
19257,5.2802186,1.0040476,0.69924927,4.781177,-3.9995363,-0.11363526,105.0
19258,1.0960255,6.477835,-0.0018920898,4.781177,-3.9995363,-0.11363526,105.0
19259,1.0960255,6.477835,-0.0018920898,1.6896607,-4.3829226,-0.55968016,105.0
19260,-2.345518,9.546844,-1.3302917,1.6896607,-4.3829226,-0.55968016,105.0
19261,-2.345518,9.546844,-1.3302917,-1.1236085,-3.9984741,-1.3052124,105.0
19262,-3.935472,8.523253,-3.578476,-1.1236085,-3.9984741,-1.3052124,105.0
19263,-3.935472,8.523253,-3.578476,-2.0464966,-3.08833,-1.8054199,105.0
19264,-4.823329,5.585766,-5.39447,-2.0464966,-3.08833,-1.8054199,105.0
19265,-4.823329,5.585766,-5.39447,-3.0086792,-2.1357057,-2.0985353,105.0
19266,-5.7684045,2.7416477,-6.3995056,-3.0086792,-2.1357057,-2.0985353,105.0
19267,-5.7684045,2.7416477,-6.3995056,-4.8587036,-1.0651978,-2.1973023,105.0
19268,-6.1822286,-0.74908924,-6.471161,-4.8587036,-1.0651978,-2.1973023,105.0
19269,-6.1822286,-0.74908924,-6.471161,-5.28457,-0.070092775,-2.151636,105.0
19270,-5.427411,-4.246207,-5.2406616,-5.28457,-0.070092775,-2.151636,105.0
19271,-5.427411,-4.246207,-5.2406616,-3.9984741,0.5320679,-1.1607789,105.0
19272,-3.9426372,-5.315118,-3.1687317,-3.9984741,0.5320679,-1.1607789,105.0
19273,-3.9426372,-5.315118,-3.1687317,-2.241907,1.0089111,-0.6754395,105.0
19274,-1.7982382,-3.191059,-0.84780884,-2.241907,1.0089111,-0.6754395,105.0
19275,-1.7982382,-3.191059,-0.84780884,-1.2457398,1.5940796,0.045666505,105.0
19276,1.265804,-0.7579255,1.2657471,-1.2457398,1.5940796,0.045666505,105.0
19277,1.265804,-0.7579255,1.2657471,-0.44498292,1.991272,-0.2984253,105.0
19278,5.1929655,-1.2524829,2.5,-0.44498292,1.991272,-0.2984253,105.0
19279,5.1929655,-1.2524829,2.5,0.03186035,2.18031,-0.39506838,105.0
19280,8.379373,-3.4021697,4.1813507,0.03186035,2.18031,-0.39506838,105.0
19281,8.379373,-3.4021697,4.1813507,0.032922365,2.1017213,-0.46728516,105.0
19282,8.395295,-3.5196362,6.806961,0.032922365,2.1017213,-0.46728516,105.0
19283,8.395295,-3.5196362,6.806961,-0.6488892,1.905249,-0.7147339,105.0
19284,5.5232186,-1.1413441,7.666855,-0.6488892,1.905249,-0.7147339,105.0
19285,5.5232186,-1.1413441,7.666855,-2.0496826,1.905249,-0.98236084,105.0
19286,1.2842488,0.9991927,4.964035,-2.0496826,1.905249,-0.98236084,105.0
19287,1.2842488,0.9991927,4.964035,-2.6709595,1.7353271,-1.0152832,105.0
19288,-3.0662532,1.3300548,0.5925598,-2.6709595,1.7353271,-1.0152832,105.0
19289,-3.0662532,1.3300548,0.5925598,-1.5282348,1.3922974,-0.7657105,105.0
19290,-6.533215,1.4018488,-2.3005981,-1.5282348,1.3922974,-0.7657105,105.0
19291,-6.533215,1.4018488,-2.3005981,-0.43754885,0.77102053,-0.40993652,105.0
19292,-6.533215,1.4018488,-2.3005981,-0.43754885,0.77102053,-0.40993652,0.0
19293,-8.810154,2.5670967,-2.5807648,-0.43754885,0.77102053,-0.40993652,0.0
19294,-8.810154,2.5670967,-2.5807648,-0.12000733,0.26550293,0.2166504,0.0
19295,-9.6838045,4.0954504,-1.4360046,-0.12000733,0.26550293,0.2166504,0.0
19296,-9.6838045,4.0954504,-1.4360046,-0.0722168,0.019116212,0.87191164,0.0
19297,-9.089316,4.6487236,-0.5416107,-0.0722168,0.019116212,0.87191164,0.0
19298,-9.089316,4.6487236,-0.5416107,0.18054199,-0.1529297,1.6609863,0.0
19299,-7.5588193,3.7239475,-0.77549744,0.18054199,-0.1529297,1.6609863,0.0
19300,-7.5588193,3.7239475,-0.77549744,1.0439576,-0.4322388,2.2992554,0.0
19301,-5.469138,1.8107252,-1.6618958,1.0439576,-0.4322388,2.2992554,0.0
19302,-5.469138,1.8107252,-1.6618958,1.5760254,-0.55755615,2.9492066,0.0
19303,-2.72149,-0.43059444,-2.0677948,1.5760254,-0.55755615,2.9492066,0.0
19304,-2.72149,-0.43059444,-2.0677948,1.8744507,-0.5076416,3.6894288,0.0
19305,0.15173864,-2.3856506,-1.4994049,1.8744507,-0.5076416,3.6894288,0.0
19306,0.15173864,-2.3856506,-1.4994049,2.3863404,-0.46409914,4.3616824,0.0
19307,2.0241494,-3.894678,-0.37342834,2.3863404,-0.46409914,4.3616824,0.0
19308,2.0241494,-3.894678,-0.37342834,2.622107,-0.4598511,4.6463013,0.0
19309,2.8966146,-6.1878495,1.1399536,2.622107,-0.4598511,4.6463013,0.0
19310,2.8966146,-6.1878495,1.1399536,3.059656,-0.36320803,3.9613037,0.0
19311,4.957465,-9.285046,2.9790497,3.059656,-0.36320803,3.9613037,0.0
19312,4.957465,-9.285046,2.9790497,2.9545166,-0.40356445,3.4589722,0.0
19313,8.4606495,-10.058798,3.7859192,2.9545166,-0.40356445,3.4589722,0.0
19314,8.4606495,-10.058798,3.7859192,1.9434814,-0.6690674,2.7962768,0.0
19315,9.417055,-7.4286184,2.8703766,1.9434814,-0.6690674,2.7962768,0.0
19316,9.417055,-7.4286184,2.8703766,0.7625244,-0.99510497,2.1558838,0.0
19317,6.607155,-3.7038202,1.2165833,0.7625244,-0.99510497,2.1558838,0.0
19318,6.607155,-3.7038202,1.2165833,0.3419678,-1.5335449,1.6747925,0.0
19319,3.1336122,0.35076225,-0.38320923,0.3419678,-1.5335449,1.6747925,0.0
19320,3.1336122,0.35076225,-0.38320923,-0.13912354,-1.6896607,1.3296387,0.0
19321,0.7124319,4.750788,-1.7163391,-0.13912354,-1.6896607,1.3296387,0.0
19322,0.7124319,4.750788,-1.7163391,-0.21134034,-1.6801026,0.94625247,0.0
19323,-0.7452035,8.4776325,-2.8516388,-0.21134034,-1.6801026,0.94625247,0.0
19324,-0.7452035,8.4776325,-2.8516388,-0.115759276,-1.5547851,0.5511841,0.0
19325,-1.4110675,10.479946,-3.7903748,-0.115759276,-1.5547851,0.5511841,0.0
19326,-1.4110675,10.479946,-3.7903748,0.15505372,-1.260608,0.21983643,0.0
19327,-1.0952115,10.584005,-4.1681824,0.15505372,-1.260608,0.21983643,0.0
19328,-1.0952115,10.584005,-4.1681824,0.48427734,-0.7943848,-0.21346436,0.0
19329,0.14372826,9.90374,-3.695221,0.48427734,-0.7943848,-0.21346436,0.0
19330,0.14372826,9.90374,-3.695221,0.25913087,-0.22939454,-0.8517334,0.0
19331,1.315947,8.767267,-2.792572,0.25913087,-0.22939454,-0.8517334,0.0
19332,1.315947,8.767267,-2.792572,-0.035046387,0.078588866,-1.4931885,0.0
19333,1.6658924,6.513838,-1.8493805,-0.035046387,0.078588866,-1.4931885,0.0
19334,1.6658924,6.513838,-1.8493805,-0.14655761,0.1263794,-2.0624268,0.0
19335,1.4838736,3.2148542,-0.53302,-0.14655761,0.1263794,-2.0624268,0.0
19336,1.4838736,3.2148542,-0.53302,0.043542482,0.25700685,-2.3682861,0.0
19337,1.3982072,-0.9120407,1.7510071,0.043542482,0.25700685,-2.3682861,0.0
19338,1.3982072,-0.9120407,1.7510071,0.58623046,0.47578126,-2.807959,0.0
19339,1.9812732,-7.195673,4.9435883,0.58623046,0.47578126,-2.807959,0.0
19340,1.9812732,-7.195673,4.9435883,0.6786255,0.4333008,-3.2019653,0.0
19341,3.4397793,-13.978914,7.879822,0.6786255,0.4333008,-3.2019653,0.0
19342,3.4397793,-13.978914,7.879822,0.5097656,0.69136965,-3.5959718,0.0
19343,3.7844648,-15.43384,9.031082,0.5097656,0.69136965,-3.5959718,0.0
19344,3.7844648,-15.43384,9.031082,-0.7763306,0.9133301,-2.6730835,0.0
19345,1.2116051,-11.855715,8.076645,-0.7763306,0.9133301,-2.6730835,0.0
19346,1.2116051,-11.855715,8.076645,-0.42161867,0.5894165,-1.8659546,0.0
19347,-2.5901399,-6.648927,4.8702087,-0.42161867,0.5894165,-1.8659546,0.0
19348,-2.5901399,-6.648927,4.8702087,-1.0588257,0.68074954,-1.6068238,0.0
19349,-5.94395,-1.6330822,0.02444458,-1.0588257,0.68074954,-1.6068238,0.0
19350,-5.94395,-1.6330822,0.02444458,-1.9264892,0.5214478,-1.442212,0.0
19351,-8.840902,1.2460612,-4.044403,-1.9264892,0.5214478,-1.442212,0.0
19352,-8.840902,1.2460612,-4.044403,-1.3784913,0.07327881,-1.26167,0.0
19353,-10.8033495,2.672081,-5.667923,-1.3784913,0.07327881,-1.26167,0.0
19354,-10.8033495,2.672081,-5.667923,-0.58304447,-0.40037844,-0.47578126,0.0
19355,-10.948088,4.416693,-5.187027,-0.58304447,-0.40037844,-0.47578126,0.0
19356,-10.948088,4.416693,-5.187027,-0.7699585,-0.7880127,0.3345337,0.0
19357,-9.715807,6.1729174,-3.6815796,-0.7699585,-0.7880127,0.3345337,0.0
19358,-9.715807,6.1729174,-3.6815796,-0.9218262,-1.0152832,0.99722904,0.0
19359,-8.325747,6.409965,-2.5119476,-0.9218262,-1.0152832,0.99722904,0.0
19360,-8.325747,6.409965,-2.5119476,-0.8527954,-1.0513916,1.716211,0.0
19361,-6.8348284,4.221051,-2.5332031,-0.8527954,-1.0513916,1.716211,0.0
19362,-6.8348284,4.221051,-2.5332031,0.3971924,-1.1437867,2.4808595,0.0
19363,-4.475956,1.070518,-3.0881348,0.3971924,-1.1437867,2.4808595,0.0
19364,-4.475956,1.070518,-3.0881348,1.0227174,-1.3126465,3.3177247,0.0
19365,-1.409585,-1.2282538,-2.8844452,1.0227174,-1.3126465,3.3177247,0.0
19366,-1.409585,-1.2282538,-2.8844452,0.88253176,-1.3179566,4.1938844,0.0
19367,1.0867491,-2.7154398,-1.4989319,0.88253176,-1.3179566,4.1938844,0.0
19368,1.0867491,-2.7154398,-1.4989319,0.8878418,-1.2712281,4.951099,0.0
19369,2.0754786,-4.6547127,0.4824829,0.8878418,-1.2712281,4.951099,0.0
19370,2.0754786,-4.6547127,0.4824829,1.3328247,-1.2096313,5.2697024,0.0
19371,2.1871157,-8.496023,2.686081,1.3328247,-1.2096313,5.2697024,0.0
19372,2.1871157,-8.496023,2.686081,2.5966187,-0.5129517,4.87782,0.0
19373,2.1871157,-8.496023,2.686081,3.7244751,0.09664307,5.1348267,0.0
19374,4.0096655,-12.527666,4.6918488,3.7244751,0.09664307,5.1348267,0.0
19375,12.690863,-3.684865,4.3107605,3.7244751,0.09664307,5.1348267,0.0
19376,12.690863,-3.684865,4.3107605,2.8536255,0.14124756,4.611255,0.0
19377,12.690863,-3.684865,4.3107605,-0.03717041,0.013806152,3.981482,0.0
19378,12.690863,-3.684865,4.3107605,-2.0518067,-0.5511841,3.525879,0.0
19379,8.401873,2.3639612,1.0641937,-2.0518067,-0.5511841,3.525879,0.0
19380,8.401873,2.3639612,1.0641937,-1.6429322,-1.0120972,3.1488647,0.0
19381,4.977919,6.9275217,-0.7927551,-1.6429322,-1.0120972,3.1488647,0.0
19382,4.977919,6.9275217,-0.7927551,-0.59897465,-1.4602661,2.531836,0.0
19383,2.8299794,10.958937,-1.467804,-0.59897465,-1.4602661,2.531836,0.0
19384,2.8299794,10.958937,-1.467804,-0.4364868,-1.6758546,1.7799317,0.0
19385,1.6099186,13.538231,-2.25383,-0.4364868,-1.6758546,1.7799317,0.0
19386,1.6099186,13.538231,-2.25383,-0.6287109,-1.7332032,0.9759888,0.0
19387,1.3659257,13.355671,-3.0575714,-0.6287109,-1.7332032,0.9759888,0.0
19388,1.3659257,13.355671,-3.0575714,-0.50233155,-1.6864747,0.33240968,0.0
19389,1.9686072,11.493032,-2.6819305,-0.50233155,-1.6864747,0.33240968,0.0
19390,1.9686072,11.493032,-2.6819305,-0.27399904,-1.5335449,-0.23682861,0.0
19391,2.5628498,9.819181,-1.1485138,-0.27399904,-1.5335449,-0.23682861,0.0
19392,2.5628498,9.819181,-1.1485138,-0.3079834,-1.2552979,-0.8517334,0.0
19393,2.309362,7.8266716,0.13955688,-0.3079834,-1.2552979,-0.8517334,0.0
19394,2.309362,7.8266716,0.13955688,-0.25913087,-1.0790039,-1.4634522,0.0
19395,1.4815593,4.3914394,0.7849121,-0.25913087,-1.0790039,-1.4634522,0.0
19396,1.4815593,4.3914394,0.7849121,0.060534667,-0.99085695,-1.9679078,0.0
19397,0.99192464,-0.21835518,1.9156342,0.060534667,-0.99085695,-1.9679078,0.0
19398,0.99192464,-0.21835518,1.9156342,-0.10089111,-0.89846194,-2.3088136,0.0
19399,1.1357517,-6.231289,4.2007294,-0.10089111,-0.89846194,-2.3088136,0.0
19400,1.1357517,-6.231289,4.2007294,0.05522461,-0.56817627,-2.7835329,0.0
19401,1.314656,-12.985117,6.9838257,0.05522461,-0.56817627,-2.7835329,0.0
19402,1.314656,-12.985117,6.9838257,0.45454103,-0.41843262,-3.7531495,0.0
19403,1.1143224,-17.028366,8.88269,0.45454103,-0.41843262,-3.7531495,0.0
19404,1.1143224,-17.028366,8.88269,-1.0917481,-0.49064943,-3.5917237,0.0
19405,-0.20107138,-16.688025,9.035889,-1.0917481,-0.49064943,-3.5917237,0.0
19406,-0.20107138,-16.688025,9.035889,-2.1155274,-0.4163086,-3.161609,0.0
19407,-0.20107138,-16.688025,9.035889,-1.5144287,-0.015930176,-2.788843,0.0
19408,-2.8513722,-13.370659,7.5682983,-1.5144287,-0.015930176,-2.788843,0.0
19409,-9.23531,-4.6909485,0.72554016,-1.5144287,-0.015930176,-2.788843,0.0
19410,-9.23531,-4.6909485,0.72554016,-0.5692383,0.115759276,-2.434131,0.0
19411,-9.23531,-4.6909485,0.72554016,-0.62977296,-0.16036378,-2.0220704,0.0
19412,-9.23531,-4.6909485,0.72554016,-1.0471436,-0.72960204,-1.6450561,0.0
19413,-11.083987,0.64089346,-3.7909088,-1.0471436,-0.72960204,-1.6450561,0.0
19414,-17.021536,9.537092,-5.596222,-1.0471436,-0.72960204,-1.6450561,0.0
19415,-17.021536,9.537092,-5.596222,-0.8251831,-1.0365235,-0.8071289,0.0
19416,-17.021536,9.537092,-5.596222,-0.452417,-1.1236085,0.09664307,0.0
19417,-17.021536,9.537092,-5.596222,-0.38869628,-1.0598878,1.1108643,0.0
19418,-13.576006,8.548168,-4.7692566,-0.38869628,-1.0598878,1.1108643,0.0
19419,-13.576006,8.548168,-4.7692566,-0.11044922,-0.85491943,2.0305665,0.0
19420,-8.910964,5.6948824,-3.9339294,-0.11044922,-0.85491943,2.0305665,0.0
19421,-8.910964,5.6948824,-3.9339294,0.724292,-0.8315552,2.8642457,0.0
19422,-3.979785,1.4912577,-2.333435,0.724292,-0.8315552,2.8642457,0.0
19423,-3.979785,1.4912577,-2.333435,0.8963379,-0.7497803,3.8349245,0.0
19424,-0.43602562,-2.9511223,-0.15837097,0.8963379,-0.7497803,3.8349245,0.0
19425,-0.43602562,-2.9511223,-0.15837097,1.0790039,-0.5331299,4.889502,0.0
19426,1.313777,-6.873703,1.8764954,1.0790039,-0.5331299,4.889502,0.0
19427,1.313777,-6.873703,1.8764954,1.5951416,-0.24001466,5.621228,0.0
19428,1.313777,-6.873703,1.8764954,1.5951416,-0.24001466,5.621228,0.0
19429,2.505001,-9.8213625,3.2798004,1.5951416,-0.24001466,5.621228,0.0
19430,2.505001,-9.8213625,3.2798004,2.3353639,0.3154175,6.0715213,0.0
19431,4.5583344,-10.195921,3.8598785,2.3353639,0.3154175,6.0715213,0.0
19432,4.5583344,-10.195921,3.8598785,2.1909301,0.6149048,6.2520633,0.0
19433,7.1251707,-7.016368,3.3121796,2.1909301,0.6149048,6.2520633,0.0
19434,7.1251707,-7.016368,3.3121796,1.4071655,0.26975098,5.951514,0.0
19435,8.482632,-1.7305993,1.9431152,1.4071655,0.26975098,5.951514,0.0
19436,8.482632,-1.7305993,1.9431152,0.48640138,-0.21558838,5.1082764,0.0
19437,8.228439,3.4658868,0.5906677,0.48640138,-0.21558838,5.1082764,0.0
19438,8.228439,3.4658868,0.5906677,0.25594482,-0.6425171,4.1078615,0.0
19439,7.3896003,7.5535445,-0.69818115,0.25594482,-0.6425171,4.1078615,0.0
19440,7.3896003,7.5535445,-0.69818115,0.2166504,-1.0949341,3.09364,0.0
19441,6.4102154,10.8446665,-2.2647095,0.2166504,-1.0949341,3.09364,0.0
19442,6.4102154,10.8446665,-2.2647095,-0.07965088,-1.2542359,2.2249146,0.0
19443,5.1841784,13.165284,-3.8257294,-0.07965088,-1.2542359,2.2249146,0.0
19444,5.1841784,13.165284,-3.8257294,-0.271875,-1.3753052,1.4889405,0.0
19445,3.9681923,14.125428,-4.821701,-0.271875,-1.3753052,1.4889405,0.0
19446,3.9681923,14.125428,-4.821701,-0.3791382,-1.3275146,0.70305175,0.0
19447,3.06961,13.667139,-4.873581,-0.3791382,-1.3275146,0.70305175,0.0
19448,3.06961,13.667139,-4.873581,-0.4704712,-1.0067872,-0.2347046,0.0
19449,2.648547,11.90184,-4.181244,-0.4704712,-1.0067872,-0.2347046,0.0
19450,2.648547,11.90184,-4.181244,-0.70942384,-0.72641605,-1.1172364,0.0
19451,2.4609396,9.352625,-3.2634125,-0.70942384,-0.72641605,-1.1172364,0.0
19452,2.4609396,9.352625,-3.2634125,-0.8867798,-0.5851685,-1.8447144,0.0
19453,1.975136,6.8309517,-2.2359924,-0.8867798,-0.5851685,-1.8447144,0.0
19454,1.975136,6.8309517,-2.2359924,-0.8400513,-0.51932377,-2.447937,0.0
19455,1.210248,4.2476463,-0.9352417,-0.8400513,-0.51932377,-2.447937,0.0
19456,1.210248,4.2476463,-0.9352417,-0.46834716,-0.4322388,-3.0384157,0.0
19457,0.6426003,0.64740944,0.7815399,-0.46834716,-0.4322388,-3.0384157,0.0
19458,0.6426003,0.64740944,0.7815399,0.09239502,-0.22408448,-3.6724365,0.0
19459,0.88304996,-5.3347206,3.051178,0.09239502,-0.22408448,-3.6724365,0.0
19460,0.88304996,-5.3347206,3.051178,0.60216063,-0.052038576,-4.3818603,0.0
19461,2.1373482,-13.225468,5.9247894,0.60216063,-0.052038576,-4.3818603,0.0
19462,2.1373482,-13.225468,5.9247894,0.4248047,0.15080567,-4.9192386,0.0
19463,2.743167,-18.168644,8.8381195,0.4248047,0.15080567,-4.9192386,0.0
19464,2.743167,-18.168644,8.8381195,-1.7650635,0.22727051,-4.422217,0.0
19465,0.65736294,-17.28118,9.9023285,-1.7650635,0.22727051,-4.422217,0.0
19466,0.65736294,-17.28118,9.9023285,-2.714502,0.2527588,-3.9411256,0.0
19467,-3.2805061,-12.810686,7.734192,-2.714502,0.2527588,-3.9411256,0.0
19468,-3.2805061,-12.810686,7.734192,-3.1180665,0.6775635,-3.7807617,0.0
19469,-3.2805061,-12.810686,7.734192,-2.1558838,0.40356445,-3.821118,0.0
19470,-7.795938,-7.378602,3.7562103,-2.1558838,0.40356445,-3.821118,0.0
19471,-18.674335,1.2001333,-2.2606964,-2.1558838,0.40356445,-3.821118,0.0
19472,-18.674335,1.2001333,-2.2606964,-1.1289185,-0.1709839,-3.5471191,0.0
19473,-18.674335,1.2001333,-2.2606964,-0.9324463,-0.7423462,-2.6507814,0.0
19474,-18.674335,1.2001333,-2.2606964,-1.902063,-1.1013062,-1.5154908,0.0
19475,-18.722563,4.2625723,-3.297638,-1.902063,-1.1013062,-1.5154908,0.0
19476,-16.519371,5.2208,-3.3602142,-1.902063,-1.1013062,-1.5154908,0.0
19477,-16.519371,5.2208,-3.3602142,-2.439441,-0.8496094,-0.41099855,0.0
19478,-16.519371,5.2208,-3.3602142,-0.26550293,-0.65207523,0.90695804,0.0
19479,-12.187017,2.7332926,-3.0317078,-0.26550293,-0.65207523,0.90695804,0.0
19480,-12.187017,2.7332926,-3.0317078,1.2329956,-0.4885254,2.2111084,0.0
19481,-6.95175,0.13017654,-2.7843323,1.2329956,-0.4885254,2.2111084,0.0
19482,-6.95175,0.13017654,-2.7843323,1.179895,-0.39082032,3.4557862,0.0
19483,-1.6692619,-2.339963,-1.3270569,1.179895,-0.39082032,3.4557862,0.0
19484,-1.6692619,-2.339963,-1.3270569,0.8602295,-0.10195313,4.681348,0.0
19485,2.40563,-4.3943458,0.9753723,0.8602295,-0.10195313,4.681348,0.0
19486,2.40563,-4.3943458,0.9753723,1.5940796,0.3090454,5.7614136,0.0
19487,4.951067,-6.122386,2.6369934,1.5940796,0.3090454,5.7614136,0.0
19488,4.951067,-6.122386,2.6369934,2.7760987,0.7954468,6.604651,0.0
19489,6.4374037,-7.047811,3.170578,2.7760987,0.7954468,6.604651,0.0
19490,6.4374037,-7.047811,3.170578,3.3060424,1.3476928,6.6747437,0.0
19491,7.815011,-6.3592696,2.9997406,3.3060424,1.3476928,6.6747437,0.0
19492,7.815011,-6.3592696,2.9997406,3.3941896,1.4910644,6.078955,0.0
19493,9.710065,-3.5979013,2.2766113,3.3941896,1.4910644,6.078955,0.0
19494,9.710065,-3.5979013,2.2766113,2.4192626,0.9197022,5.1401367,0.0
19495,11.016905,0.9853141,1.1425323,2.4192626,0.9197022,5.1401367,0.0
19496,11.016905,0.9853141,1.1425323,1.0184692,0.36320803,3.8243043,0.0
19497,10.713696,6.2136784,-0.35092163,1.0184692,0.36320803,3.8243043,0.0
19498,10.713696,6.2136784,-0.35092163,0.23682861,-0.12531738,2.7516725,0.0
19499,9.274044,10.561019,-2.441742,0.23682861,-0.12531738,2.7516725,0.0
19500,9.274044,10.561019,-2.441742,-0.1709839,-0.55755615,1.812854,0.0
19501,7.288889,13.233459,-4.6575623,-0.1709839,-0.55755615,1.812854,0.0
19502,7.288889,13.233459,-4.6575623,-0.38338622,-0.99510497,1.3222046,0.0
19503,5.318709,14.178711,-6.048538,-0.38338622,-0.99510497,1.3222046,0.0
19504,5.318709,14.178711,-6.048538,-0.10089111,-1.3349488,0.8963379,0.0
19505,3.954601,13.580114,-6.150528,-0.10089111,-1.3349488,0.8963379,0.0
19506,3.954601,13.580114,-6.150528,0.22408448,-1.355127,0.32391357,0.0
19507,3.6965544,11.657499,-5.3122253,0.22408448,-1.355127,0.32391357,0.0
19508,3.6965544,11.657499,-5.3122253,0.1985962,-1.1947632,-0.45878908,0.0
19509,4.2386036,9.170469,-4.395691,0.1985962,-1.1947632,-0.45878908,0.0
19510,4.2386036,9.170469,-4.395691,-0.22727051,-0.9632446,-1.183081,0.0
19511,4.172658,6.99547,-3.7728424,-0.22727051,-0.9632446,-1.183081,0.0
19512,4.172658,6.99547,-3.7728424,-0.75615233,-0.7742066,-1.722583,0.0
19513,2.7817054,4.941078,-2.941681,-0.75615233,-0.7742066,-1.722583,0.0
19514,2.7817054,4.941078,-2.941681,-1.0917481,-0.60959476,-2.3619142,0.0
19515,0.74538374,1.881609,-1.2017517,-1.0917481,-0.60959476,-2.3619142,0.0
19516,0.74538374,1.881609,-1.2017517,-0.88359374,-0.362146,-2.9300904,0.0
19517,-0.89538,-2.6196518,1.6719818,-0.88359374,-0.362146,-2.9300904,0.0
19518,-0.89538,-2.6196518,1.6719818,-0.1359375,-0.06903076,-3.5014527,0.0
19519,-1.5270953,-7.930731,5.115753,-0.1359375,-0.06903076,-3.5014527,0.0
19520,-1.5270953,-7.930731,5.115753,0.43117675,0.10513916,-4.4785037,0.0
19521,-1.358468,-12.707731,7.655655,0.43117675,0.10513916,-4.4785037,0.0
19522,-1.358468,-12.707731,7.655655,-1.0991821,-0.0053100586,-5.342981,0.0
19523,-2.089448,-15.624535,8.547287,-1.0991821,-0.0053100586,-5.342981,0.0
19524,-2.089448,-15.624535,8.547287,-3.0862062,-0.107263185,-5.425818,0.0
19525,-4.4200816,-16.23615,8.602081,-3.0862062,-0.107263185,-5.425818,0.0
19526,-4.4200816,-16.23615,8.602081,-3.0862062,-0.107263185,-5.425818,0.0
19527,-4.4200816,-16.23615,8.602081,-3.1127565,-0.23258057,-5.178369,0.0
19528,-6.536737,-13.993389,8.055145,-3.1127565,-0.23258057,-5.178369,0.0
19529,-6.536737,-13.993389,8.055145,-2.6868896,0.42374268,-4.6579833,0.0
19530,-8.55201,-9.33309,5.9487762,-2.6868896,0.42374268,-4.6579833,0.0
19531,-8.55201,-9.33309,5.9487762,-1.453894,0.44816896,-4.3160157,0.0
19532,-11.515058,-4.0073414,1.7267761,-1.453894,0.44816896,-4.3160157,0.0
19533,-11.515058,-4.0073414,1.7267761,-1.4687623,0.23258057,-3.6841187,0.0
19534,-14.035544,0.2799301,-3.0632935,-1.4687623,0.23258057,-3.6841187,0.0
19535,-14.035544,0.2799301,-3.0632935,-2.0241945,0.087084964,-2.6295412,0.0
19536,-14.354828,3.1214783,-6.1440277,-2.0241945,0.087084964,-2.6295412,0.0
19537,-14.354828,3.1214783,-6.1440277,-1.8744507,-0.1720459,-1.3699951,0.0
19538,-12.863501,5.0493555,-6.2664795,-1.8744507,-0.1720459,-1.3699951,0.0
19539,-12.863501,5.0493555,-6.2664795,-1.2276856,-0.31329346,-0.12956543,0.0
19540,-11.108086,6.147236,-4.2232513,-1.2276856,-0.31329346,-0.12956543,0.0
19541,-11.108086,6.147236,-4.2232513,-0.42055663,-0.18479005,1.1905152,0.0
19542,-9.043341,6.012039,-2.8287048,-0.42055663,-0.18479005,1.1905152,0.0
19543,-9.043341,6.012039,-2.8287048,0.17735596,-0.078588866,2.2992554,0.0
19544,-5.4365406,4.3598633,-3.0306244,0.17735596,-0.078588866,2.2992554,0.0
19545,-5.4365406,4.3598633,-3.0306244,0.3419678,-0.2081543,3.1170044,0.0
19546,-0.6383438,1.2514648,-2.5482788,0.3419678,-0.2081543,3.1170044,0.0
19547,-0.6383438,1.2514648,-2.5482788,0.36533204,-0.16142578,4.2979617,0.0
19548,3.5486507,-2.1622553,0.028961182,0.36533204,-0.16142578,4.2979617,0.0
19549,3.5486507,-2.1622553,0.028961182,1.09281,0.1083252,5.499097,0.0
19550,5.8252354,-4.517573,2.9432373,1.09281,0.1083252,5.499097,0.0
19551,5.8252354,-4.517573,2.9432373,1.7863038,0.33665773,6.164978,0.0
19552,6.5264854,-6.7917438,4.0949707,1.7863038,0.33665773,6.164978,0.0
19553,6.5264854,-6.7917438,4.0949707,2.541394,0.59260255,6.180908,0.0
19554,8.206979,-9.55682,4.0485535,2.541394,0.59260255,6.180908,0.0
19555,8.206979,-9.55682,4.0485535,3.3708253,0.37382814,6.051343,0.0
19556,12.169783,-9.091623,4.136368,3.3708253,0.37382814,6.051343,0.0
19557,12.169783,-9.091623,4.136368,2.8748658,-0.32285157,5.5702515,0.0
19558,15.139696,-3.1915238,3.9267578,2.8748658,-0.32285157,5.5702515,0.0
19559,15.139696,-3.1915238,3.9267578,1.4241577,-0.73703617,4.4912477,0.0
19560,13.8774185,4.8394566,2.2102509,1.4241577,-0.73703617,4.4912477,0.0
19561,13.8774185,4.8394566,2.2102509,-0.008496094,-1.3710572,3.446228,0.0
19562,9.696833,10.885128,-1.217392,-0.008496094,-1.3710572,3.446228,0.0
19563,9.696833,10.885128,-1.217392,-0.6637573,-1.621692,2.4713013,0.0
19564,5.4742017,13.662338,-4.6957855,-0.6637573,-1.621692,2.4713013,0.0
19565,5.4742017,13.662338,-4.6957855,-0.10195313,-1.9944581,1.6195679,0.0
19566,2.7121983,14.383167,-6.565384,-0.10195313,-1.9944581,1.6195679,0.0
19567,2.7121983,14.383167,-6.565384,0.06796875,-1.9902099,1.0407715,0.0
19568,1.4838456,14.173086,-6.701309,0.06796875,-1.9902099,1.0407715,0.0
19569,1.4838456,14.173086,-6.701309,0.008496094,-1.8298463,0.5299439,0.0
19570,1.349955,13.049406,-5.761383,0.008496094,-1.8298463,0.5299439,0.0
19571,1.349955,13.049406,-5.761383,-0.3451538,-1.3678712,-0.22833252,0.0
19572,2.0057576,10.827,-4.7001343,-0.3451538,-1.3678712,-0.22833252,0.0
19573,2.0057576,10.827,-4.7001343,-0.91120607,-0.72960204,-1.1883911,0.0
19574,2.7331583,7.8725853,-3.9769135,-0.91120607,-0.72960204,-1.1883911,0.0
19575,2.7331583,7.8725853,-3.9769135,-1.0864381,-0.1901001,-1.993396,0.0
19576,2.6898103,4.9296494,-3.2461853,-1.0864381,-0.1901001,-1.993396,0.0
19577,2.6898103,4.9296494,-3.2461853,-0.93775636,0.14549561,-2.5944946,0.0
19578,1.8801198,2.1466122,-1.987381,-0.93775636,0.14549561,-2.5944946,0.0
19579,1.8801198,2.1466122,-1.987381,-0.74871826,0.5320679,-3.180725,0.0
19580,1.0709295,-1.1918049,-0.07559204,-0.74871826,0.5320679,-3.180725,0.0
19581,1.0709295,-1.1918049,-0.07559204,-0.75615233,1.0110352,-3.7467773,0.0
19582,0.8973932,-6.569069,2.46167,-0.75615233,1.0110352,-3.7467773,0.0
19583,0.8973932,-6.569069,2.46167,-0.62127686,1.2850342,-4.5592165,0.0
19584,1.7025218,-14.221943,5.4923706,-0.62127686,1.2850342,-4.5592165,0.0
19585,1.7025218,-14.221943,5.4923706,-1.0620117,1.3657471,-5.522461,0.0
19586,1.9665709,-19.828226,8.421875,-1.0620117,1.3657471,-5.522461,0.0
19587,1.9665709,-19.828226,8.421875,-2.9067261,1.2797241,-5.459802,0.0
19588,-0.3392067,-19.60151,10.115799,-2.9067261,1.2797241,-5.459802,0.0
19589,-0.3392067,-19.60151,10.115799,-4.0356445,1.1629028,-4.975525,0.0
19590,-4.1710725,-14.846478,9.103531,-4.0356445,1.1629028,-4.975525,0.0
19591,-4.1710725,-14.846478,9.103531,-4.2990236,1.4071655,-4.3117676,0.0
19592,-4.1710725,-14.846478,9.103531,-3.274182,1.268042,-3.8752809,0.0
19593,-8.044768,-8.609531,5.091339,-3.274182,1.268042,-3.8752809,0.0
19594,-16.533117,1.1796112,-3.1433563,-3.274182,1.268042,-3.8752809,0.0
19595,-16.533117,1.1796112,-3.1433563,-2.1155274,1.0662597,-3.6055298,0.0
19596,-16.533117,1.1796112,-3.1433563,-1.2064453,0.8708496,-3.0511596,0.0
19597,-17.613873,4.281128,-4.248352,-1.2064453,0.8708496,-3.0511596,0.0
19598,-17.613873,4.281128,-4.248352,-0.59260255,0.69986576,-2.151636,0.0
19599,-16.465279,6.065943,-4.7515106,-0.59260255,0.69986576,-2.151636,0.0
19600,-16.465279,6.065943,-4.7515106,-1.0269654,0.32285157,-1.175647,0.0
19601,-13.530085,6.7751665,-5.1410065,-1.0269654,0.32285157,-1.175647,0.0
19602,-13.530085,6.7751665,-5.1410065,-1.442212,-0.107263185,-0.12213135,0.0
19603,-9.813129,5.92819,-4.4720764,-1.442212,-0.107263185,-0.12213135,0.0
19604,-9.813129,5.92819,-4.4720764,-0.5894165,-0.41737062,1.1321045,0.0
19605,-5.865177,3.5650988,-2.9011993,-0.5894165,-0.41737062,1.1321045,0.0
19606,-5.865177,3.5650988,-2.9011993,0.6085327,-0.7540283,2.2429688,0.0
19607,-1.8773232,0.79521847,-1.6821136,0.6085327,-0.7540283,2.2429688,0.0
19608,-1.8773232,0.79521847,-1.6821136,0.8092529,-1.0099732,3.3007324,0.0
19609,1.9830284,-1.5321236,-1.2416534,0.8092529,-1.0099732,3.3007324,0.0
19610,1.9830284,-1.5321236,-1.2416534,0.813501,-1.2584839,4.364868,0.0
19611,4.859249,-3.7158232,-0.8197174,0.813501,-1.2584839,4.364868,0.0
19612,4.859249,-3.7158232,-0.8197174,1.0312134,-1.4804443,5.4459963,0.0
19613,5.6600924,-6.6237082,0.3411255,1.0312134,-1.4804443,5.4459963,0.0
19614,5.6600924,-6.6237082,0.3411255,1.8447144,-1.4188477,5.527771,0.0
19615,6.00803,-9.71248,2.3229065,1.8447144,-1.4188477,5.527771,0.0
19616,6.00803,-9.71248,2.3229065,2.5307739,-1.1087402,5.1921754,0.0
19617,9.107193,-9.747779,4.4567566,2.5307739,-1.1087402,5.1921754,0.0
19618,9.107193,-9.747779,4.4567566,1.9201173,-1.2552979,4.9287963,0.0
19619,12.1182375,-5.413275,4.9741974,1.9201173,-1.2552979,4.9287963,0.0
19620,12.1182375,-5.413275,4.9741974,0.6839356,-0.90270996,4.1099854,0.0
19621,10.835215,0.24969041,3.3470001,0.6839356,-0.90270996,4.1099854,0.0
19622,10.835215,0.24969041,3.3470001,0.3058594,-1.0768799,3.4175537,0.0
19623,7.366244,5.0604825,0.80436707,0.3058594,-1.0768799,3.4175537,0.0
19624,7.366244,5.0604825,0.80436707,-0.032922365,-1.4294678,2.6783936,0.0
19625,4.7277727,9.166697,-1.299118,-0.032922365,-1.4294678,2.6783936,0.0
19626,4.7277727,9.166697,-1.299118,-0.54587406,-1.718335,2.092163,0.0
19627,3.4057658,12.276961,-2.2254333,-0.54587406,-1.718335,2.092163,0.0
19628,3.4057658,12.276961,-2.2254333,-0.5533081,-1.8542725,1.635498,0.0
19629,3.2204013,13.7949095,-2.4054413,-0.5533081,-1.8542725,1.635498,0.0
19630,3.2204013,13.7949095,-2.4054413,-0.08071289,-1.722583,1.2595459,0.0
19631,3.1837797,12.676601,-2.1479034,-0.08071289,-1.722583,1.2595459,0.0
19632,3.1837797,12.676601,-2.1479034,0.15080567,-1.6556762,1.088562,0.0
19633,4.7013574,14.151255,-3.026657,0.15080567,-1.6556762,1.088562,0.0
19634,4.7013574,14.151255,-3.026657,-0.033984374,-0.9197022,-0.11682129,0.0
19635,4.502578,12.156649,-2.9307556,-0.033984374,-0.9197022,-0.11682129,0.0
19636,4.502578,12.156649,-2.9307556,-0.3334717,-0.52888185,-0.6966797,0.0
19637,4.805236,8.862465,-4.140625,-0.3334717,-0.52888185,-0.6966797,0.0
19638,4.805236,8.862465,-4.140625,-1.0609497,0.10407715,-2.5095336,0.0
19639,3.551025,5.7799263,-3.5424957,-1.0609497,0.10407715,-2.5095336,0.0
19640,3.551025,5.7799263,-3.5424957,-1.0503296,0.19647217,-2.9683228,0.0
19641,2.1057367,1.0974998,-1.2519989,-1.0503296,0.19647217,-2.9683228,0.0
19642,2.1057367,1.0974998,-1.2519989,-0.43011475,0.67225343,-3.9634278,0.0
19643,1.4332104,-1.6628933,0.44540405,-0.43011475,0.67225343,-3.9634278,0.0
19644,1.4332104,-1.6628933,0.44540405,-0.17735596,1.1002442,-4.2119384,0.0
19645,2.8592882,-16.35921,6.2815704,-0.17735596,1.1002442,-4.2119384,0.0
19646,2.8592882,-16.35921,6.2815704,0.03079834,1.7236451,-5.336609,0.0
19647,2.794169,-19.551186,6.6212616,0.03079834,1.7236451,-5.336609,0.0
19648,2.794169,-19.551186,6.6212616,-0.70198977,1.721521,-5.080664,0.0
19649,0.2760334,-25.024591,8.589066,-0.70198977,1.721521,-5.080664,0.0
19650,0.2760334,-25.024591,8.589066,-2.7410524,1.4666382,-3.6947389,0.0
19651,-2.1942854,-20.004963,7.15831,-2.7410524,1.4666382,-3.6947389,0.0
19652,-2.1942854,-20.004963,7.15831,-2.805835,1.6376221,-3.2030275,0.0
19653,-10.111568,-8.074271,3.2899628,-2.805835,1.6376221,-3.2030275,0.0
19654,-10.111568,-8.074271,3.2899628,-1.8192261,1.893567,-2.9332764,0.0
19655,-10.957737,-3.4570613,0.79748535,-1.8192261,1.893567,-2.9332764,0.0
19656,-10.957737,-3.4570613,0.79748535,-1.1841431,1.7969239,-2.804773,0.0
19657,-15.377676,5.201551,-4.036484,-1.1841431,1.7969239,-2.804773,0.0
19658,-15.377676,5.201551,-4.036484,-0.41099855,1.5717773,-2.0974731,0.0
19659,-13.635296,5.969249,-4.478195,-0.41099855,1.5717773,-2.0974731,0.0
19660,-13.635296,5.969249,-4.478195,-0.42905274,1.4082276,-1.7661256,0.0
19661,-12.9731655,8.022775,-4.86467,-0.42905274,1.4082276,-1.7661256,0.0
19662,-12.9731655,8.022775,-4.86467,-0.65632325,1.1246704,-0.94731444,0.0
19663,-12.0075,8.777424,-4.1588745,-0.65632325,1.1246704,-0.94731444,0.0
19664,-12.0075,8.777424,-4.1588745,-0.59260255,0.9494385,-0.19434814,0.0
19665,-10.421528,8.2161045,-3.5610962,-0.59260255,0.9494385,-0.19434814,0.0
19666,-10.421528,8.2161045,-3.5610962,-0.36002198,0.61702883,0.5543701,0.0
19667,-8.310146,6.3997755,-3.4707794,-0.36002198,0.61702883,0.5543701,0.0
19668,-8.310146,6.3997755,-3.4707794,-0.040356446,0.032922365,1.4761963,0.0
19669,-5.1150475,2.3628998,-2.7120056,-0.040356446,0.032922365,1.4761963,0.0
19670,-5.1150475,2.3628998,-2.7120056,0.61915284,-0.6074707,2.899292,0.0
19671,-2.8435879,0.62425613,-1.5153351,0.61915284,-0.6074707,2.899292,0.0
19672,-2.8435879,0.62425613,-1.5153351,0.9143921,-0.63720703,3.4568481,0.0
19673,2.8420734,-6.4580297,1.7119141,0.9143921,-0.63720703,3.4568481,0.0
19674,2.8420734,-6.4580297,1.7119141,1.717273,-0.5235718,5.368469,0.0
19675,4.1261234,-7.238433,2.4382172,1.717273,-0.5235718,5.368469,0.0
19676,4.1261234,-7.238433,2.4382172,1.9742798,-0.40250245,5.895227,0.0
19677,6.792536,-12.565283,4.3789215,1.9742798,-0.40250245,5.895227,0.0
19678,6.792536,-12.565283,4.3789215,2.7856567,0.27293703,5.9185915,0.0
19679,6.9891434,-10.974541,3.7176056,2.7856567,0.27293703,5.9185915,0.0
19680,6.9891434,-10.974541,3.7176056,2.6741455,0.46409914,5.7550416,0.0
19681,9.833918,-8.418879,3.2120972,2.6741455,0.46409914,5.7550416,0.0
19682,9.833918,-8.418879,3.2120972,1.3349488,-0.015930176,5.2155395,0.0
19683,12.038912,-2.1240675,2.4088135,1.3349488,-0.015930176,5.2155395,0.0
19684,12.038912,-2.1240675,2.4088135,-0.46728516,-0.38657227,4.158838,0.0
19685,12.038912,-2.1240675,2.4088135,-0.46728516,-0.38657227,4.158838,116.0
19686,11.037172,4.377821,1.2525024,-0.46728516,-0.38657227,4.158838,116.0
19687,11.037172,4.377821,1.2525024,-0.93350834,-0.86978763,3.3102906,116.0
19688,8.616798,8.613243,-0.26831055,-0.93350834,-0.86978763,3.3102906,116.0
19689,8.616798,8.613243,-0.26831055,-0.55968016,-1.0917481,2.4808595,116.0
19690,6.4983096,13.180378,-2.8862,-0.55968016,-1.0917481,2.4808595,116.0
19691,6.4983096,13.180378,-2.8862,0.07752686,-1.5515991,1.4846925,116.0
19692,5.4286404,12.593021,-3.1396027,0.07752686,-1.5515991,1.4846925,116.0
19693,5.4286404,12.593021,-3.1396027,0.31435546,-1.6429322,1.2181275,116.0
19694,5.218755,13.651371,-3.9227448,0.31435546,-1.6429322,1.2181275,116.0
19695,5.218755,13.651371,-3.9227448,0.4704712,-1.713025,0.6425171,116.0
19696,5.549613,13.430754,-4.026245,0.4704712,-1.713025,0.6425171,116.0
19697,5.549613,13.430754,-4.026245,0.38975832,-1.3742431,-0.20921631,116.0
19698,6.026324,11.794201,-4.0072327,0.38975832,-1.3742431,-0.20921631,116.0
19699,6.026324,11.794201,-4.0072327,-0.16354981,-0.92926025,-1.4199097,116.0
19700,5.8085957,9.210459,-4.1329193,-0.16354981,-0.92926025,-1.4199097,116.0
19701,5.8085957,9.210459,-4.1329193,-0.6552612,-0.52038574,-2.5552003,116.0
19702,4.450612,6.3791103,-3.7821503,-0.6552612,-0.52038574,-2.5552003,116.0
19703,4.450612,6.3791103,-3.7821503,-0.6159668,-0.2357666,-3.4579103,116.0
19704,2.2250042,3.0223923,-2.2237244,-0.6159668,-0.2357666,-3.4579103,116.0
19705,2.2250042,3.0223923,-2.2237244,-0.38551027,0.12319336,-4.3457522,116.0
19706,0.30604076,-2.2222843,0.5024872,-0.38551027,0.12319336,-4.3457522,116.0
19707,0.30604076,-2.2222843,0.5024872,0.18691407,0.64570314,-5.1104007,116.0
19708,-0.1435585,-10.862045,4.077652,0.18691407,0.64570314,-5.1104007,116.0
19709,-0.1435585,-10.862045,4.077652,0.9366943,1.1140503,-5.7720337,116.0
19710,0.3162079,-24.238487,9.51239,0.9366943,1.1140503,-5.7720337,116.0
19711,0.3162079,-24.238487,9.51239,-1.1267945,1.263794,-6.2042727,116.0
19712,-1.0476565,-23.16169,9.271164,-1.1267945,1.263794,-6.2042727,116.0
19713,-1.0476565,-23.16169,9.271164,-2.3268678,1.2096313,-5.9366455,116.0
19714,-5.465896,-21.00053,9.578476,-2.3268678,1.2096313,-5.9366455,116.0
19715,-5.465896,-21.00053,9.578476,-2.8525636,0.8028809,-4.8480835,116.0
19716,-9.550562,-14.021885,7.0558014,-2.8525636,0.8028809,-4.8480835,116.0
19717,-9.550562,-14.021885,7.0558014,-2.9736328,1.173523,-3.8508546,116.0
19718,-12.429658,-5.0990267,2.459732,-2.9736328,1.173523,-3.8508546,116.0
19719,-12.429658,-5.0990267,2.459732,-1.8425903,1.1161743,-3.4164917,116.0
19720,-14.378065,2.209072,-2.0205078,-1.8425903,1.1161743,-3.4164917,116.0
19721,-14.378065,2.209072,-2.0205078,-0.95581055,0.9547486,-2.8313234,116.0
19722,-14.702208,6.656784,-5.0177155,-0.95581055,0.9547486,-2.8313234,116.0
19723,-14.702208,6.656784,-5.0177155,-0.58623046,0.817749,-2.0008302,116.0
19724,-13.249046,8.744385,-6.158493,-0.58623046,0.817749,-2.0008302,116.0
19725,-13.249046,8.744385,-6.158493,-0.5501221,0.5341919,-1.0036011,116.0
19726,-10.672932,9.59137,-5.855606,-0.5501221,0.5341919,-1.0036011,116.0
19727,-10.672932,9.59137,-5.855606,-0.8931519,0.012744141,-0.11363526,116.0
19728,-10.672932,9.59137,-5.855606,-0.5979126,-0.20072022,0.7720825,116.0
19729,-8.55154,9.305445,-4.777115,-0.5979126,-0.20072022,0.7720825,116.0
19730,-7.079075,7.354658,-3.5795135,-0.5979126,-0.20072022,0.7720825,116.0
19731,-7.079075,7.354658,-3.5795135,-0.046728518,-0.29099122,1.7863038,116.0
19732,-5.0445347,4.091673,-2.9155579,-0.046728518,-0.29099122,1.7863038,116.0
19733,-5.0445347,4.091673,-2.9155579,0.62764895,-0.5097656,2.8578737,116.0
19734,-0.59739685,-1.4178114,-1.6208191,0.62764895,-0.5097656,2.8578737,116.0
19735,-0.59739685,-1.4178114,-1.6208191,0.9228882,-0.542688,4.7386966,116.0
19736,0.99801064,-2.4871302,-0.17208862,0.9228882,-0.542688,4.7386966,116.0
19737,0.99801064,-2.4871302,-0.17208862,0.92926025,-0.45454103,5.391834,116.0
19738,3.2675724,-5.8795357,2.778244,0.92926025,-0.45454103,5.391834,116.0
19739,3.2675724,-5.8795357,2.778244,1.4188477,-0.27399904,6.418799,116.0
19740,4.29908,-9.072353,4.4606323,1.4188477,-0.27399904,6.418799,116.0
19741,4.29908,-9.072353,4.4606323,2.084729,-0.09451904,6.773511,116.0
19742,5.2851753,-12.146605,4.8783875,2.084729,-0.09451904,6.773511,116.0
19743,5.2851753,-12.146605,4.8783875,2.797339,0.31329346,6.4602175,116.0
19744,8.489444,-12.478429,4.8438873,2.797339,0.31329346,6.4602175,116.0
19745,8.489444,-12.478429,4.8438873,2.710254,0.23045655,6.034351,116.0
19746,12.900845,-6.993021,4.057678,2.710254,0.23045655,6.034351,116.0
19747,12.900845,-6.993021,4.057678,0.48109132,-0.15611573,4.9988894,116.0
19748,14.033347,1.6619062,2.3282928,0.48109132,-0.15611573,4.9988894,116.0
19749,14.033347,1.6619062,2.3282928,-0.8602295,-0.60109866,4.0112185,116.0
19750,11.562811,8.896664,-0.1953888,-0.8602295,-0.60109866,4.0112185,116.0
19751,11.562811,8.896664,-0.1953888,-1.4050416,-0.90695804,3.177539,116.0
19752,8.874736,13.101608,-2.9845276,-1.4050416,-0.90695804,3.177539,116.0
19753,8.874736,13.101608,-2.9845276,-1.2914063,-1.2234375,2.3863404,116.0
19754,7.3921595,14.940833,-4.9622498,-1.2914063,-1.2234375,2.3863404,116.0
19755,7.3921595,14.940833,-4.9622498,-0.21983643,-1.5590333,1.7533814,116.0
19756,6.765888,15.858709,-5.4636993,-0.21983643,-1.5590333,1.7533814,116.0
19757,6.765888,15.858709,-5.4636993,0.4056885,-1.5197388,0.9674927,116.0
19758,6.4849644,15.7439995,-5.113388,0.4056885,-1.5197388,0.9674927,116.0
19759,6.4849644,15.7439995,-5.113388,0.26444092,-1.1161743,-0.118945315,116.0
19760,6.3555737,13.613316,-4.886734,0.26444092,-1.1161743,-0.118945315,116.0
19761,6.3555737,13.613316,-4.886734,-0.3525879,-0.7083618,-1.5993897,116.0
19762,5.9159656,9.998173,-4.7881775,-0.3525879,-0.7083618,-1.5993897,116.0
19763,5.9159656,9.998173,-4.7881775,-0.903772,-0.3727661,-2.8865478,116.0
19764,4.6917324,6.476553,-4.1433563,-0.903772,-0.3727661,-2.8865478,116.0
19765,4.6917324,6.476553,-4.1433563,-0.67650145,-0.19116211,-3.897583,116.0
19766,2.6226368,3.0910683,-2.3437653,-0.67650145,-0.19116211,-3.897583,116.0
19767,2.6226368,3.0910683,-2.3437653,-0.55968016,0.20709229,-4.7386966,116.0
19768,0.32837105,-2.26091,0.34220886,-0.55968016,0.20709229,-4.7386966,116.0
19769,0.32837105,-2.26091,0.34220886,-0.23895264,0.6690674,-5.41626,116.0
19770,-1.2852526,-10.815649,3.4815826,-0.23895264,0.6690674,-5.41626,116.0
19771,-1.2852526,-10.815649,3.4815826,0.57454836,1.0790039,-6.238257,116.0
19772,-1.8982458,-19.701994,6.650772,0.57454836,1.0790039,-6.238257,116.0
19773,-1.8982458,-19.701994,6.650772,0.22302246,1.1151123,-6.7034183,116.0
19774,-3.2247367,-23.745115,8.837967,0.22302246,1.1151123,-6.7034183,116.0
19775,-3.2247367,-23.745115,8.837967,-2.0656128,1.0726318,-6.3869386,116.0
19776,-3.2247367,-23.745115,8.837967,-3.2816162,0.5564942,-5.5405154,116.0
19777,-6.3116255,-21.677,9.255951,-3.2816162,0.5564942,-5.5405154,116.0
19778,-13.224521,-9.857079,4.392502,-3.2816162,0.5564942,-5.5405154,116.0
19779,-13.224521,-9.857079,4.392502,-3.5588014,1.0248413,-4.528418,116.0
19780,-13.224521,-9.857079,4.392502,-1.8670167,1.0269654,-4.258667,116.0
19781,-15.239651,-1.7539616,-0.1109314,-1.8670167,1.0269654,-4.258667,116.0
19782,-15.239651,-1.7539616,-0.1109314,-0.725354,0.94731444,-3.6575685,116.0
19783,-16.184128,3.5887742,-3.2348328,-0.725354,0.94731444,-3.6575685,116.0
19784,-16.184128,3.5887742,-3.2348328,-0.9781128,0.77314454,-2.715564,116.0
19785,-15.636487,6.2492666,-5.020294,-0.9781128,0.77314454,-2.715564,116.0
19786,-15.636487,6.2492666,-5.020294,-1.4379638,0.32391357,-1.538855,116.0
19787,-13.784006,7.193701,-5.6432343,-1.4379638,0.32391357,-1.538855,116.0
19788,-13.784006,7.193701,-5.6432343,-1.4209718,-0.17841797,-0.5543701,116.0
19789,-13.784006,7.193701,-5.6432343,-1.4209718,-0.17841797,-0.5543701,116.0
19790,-11.275642,6.730009,-4.6371155,-1.4209718,-0.17841797,-0.5543701,116.0
19791,-11.275642,6.730009,-4.6371155,-0.8092529,-0.43117675,0.58623046,116.0
19792,-8.500116,5.1983013,-2.445694,-0.8092529,-0.43117675,0.58623046,116.0
19793,-8.500116,5.1983013,-2.445694,-0.09770508,-0.46516114,1.7884277,116.0
19794,-5.0918293,3.3421497,-0.81681824,-0.09770508,-0.46516114,1.7884277,116.0
19795,-5.0918293,3.3421497,-0.81681824,0.29630128,-0.59472656,2.8493774,116.0
19796,-1.1218281,0.90232086,-0.41244507,0.29630128,-0.59472656,2.8493774,116.0
19797,-1.1218281,0.90232086,-0.41244507,0.7072998,-0.7434082,3.986792,116.0
19798,2.5038815,-2.765936,-0.29440308,0.7072998,-0.7434082,3.986792,116.0
19799,2.5038815,-2.765936,-0.29440308,1.0790039,-0.8230591,5.357849,116.0
19800,4.557989,-6.781316,0.72579956,1.0790039,-0.8230591,5.357849,116.0
19801,4.557989,-6.781316,0.72579956,1.1034302,-0.83474123,6.129932,116.0
19802,5.1763477,-11.118803,2.7853394,1.1034302,-0.83474123,6.129932,116.0
19803,5.1763477,-11.118803,2.7853394,1.8850708,-0.49064943,6.316846,116.0
19804,6.7843523,-15.010228,4.7226715,1.8850708,-0.49064943,6.316846,116.0
19805,6.7843523,-15.010228,4.7226715,3.0320435,-0.22939454,6.3795047,116.0
19806,10.723795,-14.0237465,5.2034607,3.0320435,-0.22939454,6.3795047,116.0
19807,10.723795,-14.0237465,5.2034607,2.8759277,-0.32709962,5.956824,116.0
19808,14.148506,-6.422879,4.2614746,2.8759277,-0.32709962,5.956824,116.0
19809,14.148506,-6.422879,4.2614746,0.46728516,-0.5150757,4.9330444,116.0
19810,13.521319,3.3126,2.461792,0.46728516,-0.5150757,4.9330444,116.0
19811,13.521319,3.3126,2.461792,-1.0333375,-1.0567017,3.9506836,116.0
19812,10.294302,10.85174,-0.01889038,-1.0333375,-1.0567017,3.9506836,116.0
19813,10.294302,10.85174,-0.01889038,-1.5877075,-1.4209718,3.2773683,116.0
19814,7.9220133,15.441658,-2.4877167,-1.5877075,-1.4209718,3.2773683,116.0
19815,7.9220133,15.441658,-2.4877167,-0.93350834,-1.8702027,2.5658205,116.0
19816,7.223817,17.94228,-4.1799927,-0.93350834,-1.8702027,2.5658205,116.0
19817,7.223817,17.94228,-4.1799927,0.26337892,-2.2482789,1.9976441,116.0
19818,7.4083385,19.346878,-4.946594,0.26337892,-2.2482789,1.9976441,116.0
19819,7.4083385,19.346878,-4.946594,0.814563,-2.0464966,1.1087402,116.0
19820,7.625487,18.544275,-5.11351,0.814563,-2.0464966,1.1087402,116.0
19821,7.625487,18.544275,-5.11351,0.5150757,-1.5218629,-0.43011475,116.0
19822,7.3569202,14.642561,-5.1141663,0.5150757,-1.5218629,-0.43011475,116.0
19823,7.3569202,14.642561,-5.1141663,-0.43011475,-0.97067875,-2.5074098,116.0
19824,5.9296894,9.847361,-4.6804504,-0.43011475,-0.97067875,-2.5074098,116.0
19825,5.9296894,9.847361,-4.6804504,-1.0057251,-0.6064087,-4.223621,116.0
19826,3.329482,5.537178,-3.054245,-1.0057251,-0.6064087,-4.223621,116.0
19827,3.329482,5.537178,-3.054245,-0.57561034,-0.29205322,-5.1518188,116.0
19828,0.7309561,-0.13016891,-0.03652954,-0.57561034,-0.29205322,-5.1518188,116.0
19829,0.7309561,-0.13016891,-0.03652954,-0.021240234,0.13699952,-5.615918,116.0
19830,-0.7620373,-9.332003,3.7405396,-0.021240234,0.13699952,-5.615918,116.0
19831,-0.7620373,-9.332003,3.7405396,0.07327881,0.7147339,-5.7391114,116.0
19832,-1.1028671,-19.639565,7.492508,0.07327881,0.7147339,-5.7391114,116.0
19833,-1.1028671,-19.639565,7.492508,1.0216553,1.1820191,-6.1278076,116.0
19834,-1.4940124,-24.48338,10.059601,1.0216553,1.1820191,-6.1278076,116.0
19835,-1.4940124,-24.48338,10.059601,-1.3455689,1.3498169,-5.752918,116.0
19836,-4.363887,-22.11948,9.787643,-1.3455689,1.3498169,-5.752918,116.0
19837,-4.363887,-22.11948,9.787643,-3.888025,1.5717773,-4.9203005,116.0
19838,-11.324057,-13.187223,5.047287,-3.888025,1.5717773,-4.9203005,116.0
19839,-11.324057,-13.187223,5.047287,-2.1643798,1.7916138,-3.3761353,116.0
19840,-11.324057,-13.187223,5.047287,-1.807544,1.8139161,-3.165857,116.0
19841,-11.346209,-7.946849,1.9804382,-1.807544,1.8139161,-3.165857,116.0
19842,-20.107496,8.917423,-7.4938354,-1.807544,1.8139161,-3.165857,116.0
19843,-20.107496,8.917423,-7.4938354,-0.76358646,1.2075074,-2.9534547,116.0
19844,-20.107496,8.917423,-7.4938354,-0.71791995,0.635083,-2.3948364,116.0
19845,-20.107496,8.917423,-7.4938354,-1.176709,0.09664307,-1.6004517,116.0
19846,-17.633446,9.446585,-6.6766205,-1.176709,0.09664307,-1.6004517,116.0
19847,-17.633446,9.446585,-6.6766205,-1.4432739,-0.058410645,-0.7657105,116.0
19848,-14.266119,8.360601,-5.701126,-1.4432739,-0.058410645,-0.7657105,116.0
19849,-14.266119,8.360601,-5.701126,-0.7943848,-0.24213867,-0.033984374,116.0
19850,-10.493254,6.279997,-4.4653625,-0.7943848,-0.24213867,-0.033984374,116.0
19851,-10.493254,6.279997,-4.4653625,-0.24532472,-0.5787964,0.9632446,116.0
19852,-7.101658,4.050535,-2.9404602,-0.24532472,-0.5787964,0.9632446,116.0
19853,-7.101658,4.050535,-2.9404602,-0.06584473,-0.75296634,1.9562256,116.0
19854,-4.0998077,1.5494976,-1.5574188,-0.06584473,-0.75296634,1.9562256,116.0
19855,-4.0998077,1.5494976,-1.5574188,0.23151855,-0.87191164,2.984253,116.0
19856,-0.9528446,-1.7915545,-0.5736542,0.23151855,-0.87191164,2.984253,116.0
19857,-0.9528446,-1.7915545,-0.5736542,0.60322267,-0.80606693,4.156714,116.0
19858,1.9724159,-5.742838,0.40878296,0.60322267,-0.80606693,4.156714,116.0
19859,1.9724159,-5.742838,0.40878296,1.1544068,-0.59260255,5.1220827,116.0
19860,4.330386,-8.934603,1.6974792,1.1544068,-0.59260255,5.1220827,116.0
19861,4.330386,-8.934603,1.6974792,1.3137085,-0.51082766,5.6934447,116.0
19862,6.3244286,-10.4958515,3.067276,1.3137085,-0.51082766,5.6934447,116.0
19863,6.3244286,-10.4958515,3.067276,1.4974365,-0.67331547,5.945142,116.0
19864,8.337193,-10.350636,4.394882,1.4974365,-0.67331547,5.945142,116.0
19865,8.337193,-10.350636,4.394882,1.8298463,-1.0375855,5.7571654,116.0
19866,10.99097,-7.222513,5.2713165,1.8298463,-1.0375855,5.7571654,116.0
19867,10.99097,-7.222513,5.2713165,1.1671509,-1.4751343,5.2771363,116.0
19868,12.579726,-0.9838212,4.582062,1.1671509,-1.4751343,5.2771363,116.0
19869,12.579726,-0.9838212,4.582062,-0.36427003,-1.7565674,4.088745,116.0
19870,11.219713,5.458536,2.269638,-0.36427003,-1.7565674,4.088745,116.0
19871,11.219713,5.458536,2.269638,-0.6403931,-2.3183715,3.3368409,116.0
19872,8.75508,10.098238,-0.28799438,-0.6403931,-2.3183715,3.3368409,116.0
19873,8.75508,10.098238,-0.28799438,-0.42799073,-2.434131,2.5626342,116.0
19874,7.3064446,13.376185,-2.090561,-0.42799073,-2.434131,2.5626342,116.0
19875,7.3064446,13.376185,-2.090561,-0.023364259,-2.4351928,1.9636596,116.0
19876,6.639699,15.998312,-3.1255798,-0.023364259,-2.4351928,1.9636596,116.0
19877,6.639699,15.998312,-3.1255798,0.40144044,-2.1102173,1.2128174,116.0
19878,5.9011025,17.510014,-3.8000793,0.40144044,-2.1102173,1.2128174,116.0
19879,5.9011025,17.510014,-3.8000793,0.38551027,-1.4984986,0.33984375,116.0
19880,4.9563437,16.380655,-4.59079,0.38551027,-1.4984986,0.33984375,116.0
19881,4.9563437,16.380655,-4.59079,0.1274414,-0.84323734,-1.0259033,116.0
19882,4.083312,12.929623,-5.1747894,0.1274414,-0.84323734,-1.0259033,116.0
19883,4.083312,12.929623,-5.1747894,-0.72854006,-0.33878174,-2.707068,116.0
19884,3.2151117,9.011032,-4.7884216,-0.72854006,-0.33878174,-2.707068,116.0
19885,3.2151117,9.011032,-4.7884216,-1.0067872,0.2824951,-4.0069704,116.0
19886,1.9189034,5.248926,-3.3558655,-1.0067872,0.2824951,-4.0069704,116.0
19887,1.9189034,5.248926,-3.3558655,-0.541626,0.81987303,-4.8597655,116.0
19888,0.42390442,0.46902657,-1.1835785,-0.541626,0.81987303,-4.8597655,116.0
19889,0.42390442,0.46902657,-1.1835785,0.38869628,1.2276856,-5.4566164,116.0
19890,-0.0038208961,-7.8436146,1.5705719,0.38869628,1.2276856,-5.4566164,116.0
19891,-0.0038208961,-7.8436146,1.5705719,1.5473511,1.7756836,-5.978064,116.0
19892,1.7304878,-19.489038,4.921295,1.5473511,1.7756836,-5.978064,116.0
19893,1.7304878,-19.489038,4.921295,-0.03079834,1.9073731,-6.994409,116.0
19894,3.2703276,-27.872885,8.7229,-0.03079834,1.9073731,-6.994409,116.0
19895,3.2703276,-27.872885,8.7229,-0.03079834,1.9073731,-6.994409,116.0
19896,3.2703276,-27.872885,8.7229,-3.448352,2.1909301,-6.2032104,116.0
19897,0.743948,-27.706413,10.833771,-3.448352,2.1909301,-6.2032104,116.0
19898,0.743948,-27.706413,10.833771,-4.6048827,2.2196045,-4.8130374,116.0
19899,0.743948,-27.706413,10.833771,-4.3000855,2.5509522,-3.611902,116.0
19900,-5.149153,-19.323433,8.253342,-4.3000855,2.5509522,-3.611902,116.0
19901,-17.986681,0.37149125,-2.440094,-4.3000855,2.5509522,-3.611902,116.0
19902,-17.986681,0.37149125,-2.440094,-2.7283082,2.2185426,-3.1339967,116.0
19903,-17.986681,0.37149125,-2.440094,-1.2839721,1.5229248,-2.8132691,116.0
19904,-19.010733,5.7242928,-4.579712,-1.2839721,1.5229248,-2.8132691,116.0
19905,-19.010733,5.7242928,-4.579712,-1.0959961,1.0556396,-2.1229615,116.0
19906,-18.159233,7.398685,-5.0297546,-1.0959961,1.0556396,-2.1229615,116.0
19907,-18.159233,7.398685,-5.0297546,-0.8219971,0.64995116,-1.1937011,116.0
19908,-16.699835,6.900259,-5.4527893,-0.8219971,0.64995116,-1.1937011,116.0
19909,-16.699835,6.900259,-5.4527893,-0.20178223,0.29099122,-0.2814331,116.0
19910,-14.686882,6.125346,-5.51947,-0.20178223,0.29099122,-0.2814331,116.0
19911,-14.686882,6.125346,-5.51947,-0.18903808,-0.07115479,0.5649902,116.0
19912,-11.99184,5.070797,-4.806717,-0.18903808,-0.07115479,0.5649902,116.0
19913,-11.99184,5.070797,-4.806717,-0.6403931,-0.3175415,1.5292969,116.0
19914,-8.980692,2.6702604,-3.8911438,-0.6403931,-0.3175415,1.5292969,116.0
19915,-8.980692,2.6702604,-3.8911438,-0.32285157,-0.37489015,2.8472536,116.0
19916,-4.920515,-0.53128433,-2.686203,-0.32285157,-0.37489015,2.8472536,116.0
19917,-4.920515,-0.53128433,-2.686203,0.48109132,-0.36002198,4.308582,116.0
19918,0.6042862,-3.8897123,-0.6244049,0.48109132,-0.36002198,4.308582,116.0
19919,0.6042862,-3.8897123,-0.6244049,1.0322754,-0.21452637,5.798584,116.0
19920,5.902399,-7.8320456,1.9680786,1.0322754,-0.21452637,5.798584,116.0
19921,5.902399,-7.8320456,1.9680786,1.5292969,-0.020178223,7.0018435,116.0
19922,9.163607,-11.95929,4.5788727,1.5292969,-0.020178223,7.0018435,116.0
19923,9.163607,-11.95929,4.5788727,2.5913086,0.0063720704,7.1770754,116.0
19924,11.1106825,-14.536926,6.722885,2.5913086,0.0063720704,7.1770754,116.0
19925,11.1106825,-14.536926,6.722885,4.1322875,-0.26019287,6.6131473,116.0
19926,15.037935,-11.636487,7.2328796,4.1322875,-0.26019287,6.6131473,116.0
19927,15.037935,-11.636487,7.2328796,3.1318727,-1.4857544,5.995056,116.0
19928,18.06924,-2.2203226,5.394867,3.1318727,-1.4857544,5.995056,116.0
19929,18.06924,-2.2203226,5.394867,0.11469727,-1.1406006,4.804541,116.0
19930,14.803549,7.7980094,2.3083801,0.11469727,-1.1406006,4.804541,116.0
19931,14.803549,7.7980094,2.3083801,0.021240234,-1.8139161,4.1131716,116.0
19932,8.838469,13.665886,-0.7884064,0.021240234,-1.8139161,4.1131716,116.0
19933,8.838469,13.665886,-0.7884064,-0.16779785,-2.0337524,3.3708253,116.0
19934,5.017333,15.763361,-3.37117,-0.16779785,-2.0337524,3.3708253,116.0
19935,5.017333,15.763361,-3.37117,-0.29099122,-2.1144655,2.8738039,116.0
19936,3.756945,16.11578,-4.952057,-0.29099122,-2.1144655,2.8738039,116.0
19937,3.756945,16.11578,-4.952057,0.09451904,-1.8893188,2.3693483,116.0
19938,3.7486224,16.383677,-5.279648,0.09451904,-1.8893188,2.3693483,116.0
19939,3.7486224,16.383677,-5.279648,0.12213135,-1.4145997,1.4793824,116.0
19940,3.74996,16.095478,-4.7317963,0.12213135,-1.4145997,1.4793824,116.0
19941,3.74996,16.095478,-4.7317963,-0.3462158,-0.7455322,0.1996582,116.0
19942,3.81104,13.669804,-4.132187,-0.3462158,-0.7455322,0.1996582,116.0
19943,3.81104,13.669804,-4.132187,-0.6711914,-0.1901001,-1.2043213,116.0
19944,3.7431188,10.021353,-3.7545013,-0.6711914,-0.1901001,-1.2043213,116.0
19945,3.7431188,10.021353,-3.7545013,-0.81243896,0.3355957,-2.6072388,116.0
19946,3.0568,6.6187897,-3.177063,-0.81243896,0.3355957,-2.6072388,116.0
19947,3.0568,6.6187897,-3.177063,-0.2814331,0.7147339,-3.799878,116.0
19948,1.7861018,3.0462284,-1.8385468,-0.2814331,0.7147339,-3.799878,116.0
19949,1.7861018,3.0462284,-1.8385468,0.270813,0.95368654,-4.827905,116.0
19950,0.5218134,-1.9718189,0.40290833,0.270813,0.95368654,-4.827905,116.0
19951,0.5218134,-1.9718189,0.40290833,1.081128,1.4910644,-5.6477785,116.0
19952,0.1707344,-10.040455,3.6146698,1.081128,1.4910644,-5.6477785,116.0
19953,0.1707344,-10.040455,3.6146698,0.48746338,1.3137085,-6.6683717,116.0
19954,1.0181303,-20.131632,7.276108,0.48746338,1.3137085,-6.6683717,116.0
19955,1.0181303,-20.131632,7.276108,-1.1427246,1.264856,-7.2907104,116.0
19956,0.44422865,-26.788252,10.3485565,-1.1427246,1.264856,-7.2907104,116.0
19957,0.44422865,-26.788252,10.3485565,-2.3236816,1.2468017,-6.4039307,116.0
19958,-3.1795292,-25.162767,10.745773,-2.3236816,1.2468017,-6.4039307,116.0
19959,-3.1795292,-25.162767,10.745773,-2.9492066,1.442212,-5.4449344,116.0
19960,-8.060005,-16.352627,6.4424744,-2.9492066,1.442212,-5.4449344,116.0
19961,-8.060005,-16.352627,6.4424744,-2.9768188,1.5261109,-4.9659667,116.0
19962,-8.060005,-16.352627,6.4424744,-1.9806519,1.1140503,-4.8257813,116.0
19963,-12.88664,-6.123642,-0.29904175,-1.9806519,1.1140503,-4.8257813,116.0
19964,-21.731213,7.5836554,-7.911209,-1.9806519,1.1140503,-4.8257813,116.0
19965,-21.731213,7.5836554,-7.911209,-1.3678712,0.7168579,-4.34469,116.0
19966,-21.731213,7.5836554,-7.911209,-1.3848633,0.22196046,-3.3209107,116.0
19967,-21.731213,7.5836554,-7.911209,-1.3264526,-0.045666505,-2.0433106,116.0
19968,-17.38497,6.066924,-6.328964,-1.3264526,-0.045666505,-2.0433106,116.0
19969,-17.26254,6.727099,-4.5067444,-1.3264526,-0.045666505,-2.0433106,116.0
19970,-17.26254,6.727099,-4.5067444,-0.6053467,-0.3993164,-0.6690674,116.0
19971,-17.26254,6.727099,-4.5067444,-0.26975098,-0.4885254,0.8464233,116.0
19972,-17.26254,6.727099,-4.5067444,-0.04885254,-0.5278198,2.267395,116.0
19973,-12.7198105,4.6438494,-3.6170044,-0.04885254,-0.5278198,2.267395,116.0
19974,-12.7198105,4.6438494,-3.6170044,0.33665773,-0.81881106,3.6363282,116.0
19975,-6.6908016,2.1377969,-3.2650452,0.33665773,-0.81881106,3.6363282,116.0
19976,-6.6908016,2.1377969,-3.2650452,0.43754885,-1.0407715,5.162439,116.0
19977,-0.8446331,-0.33357334,-1.7440338,0.43754885,-1.0407715,5.162439,116.0
19978,-0.8446331,-0.33357334,-1.7440338,0.76464844,-1.1533448,6.260559,116.0
19979,3.17416,-2.7032356,0.6665344,0.76464844,-1.1533448,6.260559,116.0
19980,3.17416,-2.7032356,0.6665344,0.8846558,-1.1193603,6.9073243,116.0
19981,5.0747414,-6.434415,2.688858,0.8846558,-1.1193603,6.9073243,116.0
19982,5.0747414,-6.434415,2.688858,1.6970948,-1.2754761,6.8372316,116.0
19983,7.151578,-11.035362,4.0418854,1.6970948,-1.2754761,6.8372316,116.0
19984,7.151578,-11.035362,4.0418854,3.0182374,-1.4761963,6.587659,116.0
19985,11.114427,-11.630402,5.0535583,3.0182374,-1.4761963,6.587659,116.0
19986,11.114427,-11.630402,5.0535583,3.2327638,-1.5250489,6.090637,116.0
19987,13.90265,-5.9220095,5.311783,3.2327638,-1.5250489,6.090637,116.0
19988,13.90265,-5.9220095,5.311783,2.1123414,-1.1225464,5.1401367,116.0
19989,12.870057,2.5498314,3.4188385,2.1123414,-1.1225464,5.1401367,116.0
19990,12.870057,2.5498314,3.4188385,0.8612915,-1.1013062,4.0356445,116.0
19991,9.85973,10.376486,-0.7966919,0.8612915,-1.1013062,4.0356445,116.0
19992,9.85973,10.376486,-0.7966919,-0.1178833,-1.454956,3.1223145,116.0
19993,7.481131,15.806719,-4.752777,-0.1178833,-1.454956,3.1223145,116.0
19994,7.481131,15.806719,-4.752777,-0.81668705,-1.6567383,2.4851074,116.0
19995,6.4663014,18.306337,-6.0447083,-0.81668705,-1.6567383,2.4851074,116.0
19996,6.4663014,18.306337,-6.0447083,-0.20390625,-1.5420411,1.7969239,116.0
19997,6.2558537,18.78699,-5.2001343,-0.20390625,-1.5420411,1.7969239,116.0
19998,6.2558537,18.78699,-5.2001343,0.36745605,-0.9770508,0.8517334,116.0
19999,6.3773637,17.27372,-4.518921,0.36745605,-0.9770508,0.8517334,116.0
20000,6.3773637,17.27372,-4.518921,-0.02442627,-0.34833986,-0.79969484,116.0
20001,6.3773637,17.27372,-4.518921,-0.02442627,-0.34833986,-0.79969484,116.0
20002,6.140575,13.728291,-5.005966,-0.02442627,-0.34833986,-0.79969484,116.0
20003,6.140575,13.728291,-5.005966,-0.84323734,-0.028674318,-2.3905885,116.0
20004,5.0255947,9.961258,-5.465683,-0.84323734,-0.028674318,-2.3905885,116.0
20005,5.0255947,9.961258,-5.465683,-1.1395386,0.15611573,-3.725537,116.0
20006,3.1857958,6.571924,-4.3134155,-1.1395386,0.15611573,-3.725537,116.0
20007,3.1857958,6.571924,-4.3134155,-0.7327881,0.3154175,-4.905432,116.0
20008,0.91431046,2.2925606,-1.6209717,-0.7327881,0.3154175,-4.905432,116.0
20009,0.91431046,2.2925606,-1.6209717,-0.15823975,0.5543701,-5.9228396,116.0
20010,-0.8090544,-4.058176,1.3346252,-0.15823975,0.5543701,-5.9228396,116.0
20011,-0.8090544,-4.058176,1.3346252,1.1246704,1.0259033,-6.427295,116.0
20012,-1.0328026,-13.260727,4.7207336,1.1246704,1.0259033,-6.427295,116.0
20013,-1.0328026,-13.260727,4.7207336,1.0067872,1.1193603,-6.311536,116.0
20014,-0.22792721,-23.140015,8.594574,1.0067872,1.1193603,-6.311536,116.0
20015,-0.22792721,-23.140015,8.594574,-1.3338867,1.0482056,-6.9136963,116.0
20016,-1.3503838,-27.670618,10.431213,-1.3338867,1.0482056,-6.9136963,116.0
20017,-1.3503838,-27.670618,10.431213,-4.891626,1.2085694,-6.536682,116.0
20018,-5.6480803,-24.532417,8.776093,-4.891626,1.2085694,-6.536682,116.0
20019,-5.6480803,-24.532417,8.776093,-4.600635,1.4379638,-5.2197876,116.0
20020,-5.6480803,-24.532417,8.776093,-2.461743,1.5802735,-4.079187,116.0
20021,-10.802778,-15.6326,5.044113,-2.461743,1.5802735,-4.079187,116.0
20022,-23.951769,7.4839597,-5.111496,-2.461743,1.5802735,-4.079187,116.0
20023,-23.951769,7.4839597,-5.111496,-0.6425171,1.176709,-3.5492432,116.0
20024,-23.951769,7.4839597,-5.111496,-0.84748536,0.5851685,-2.9683228,116.0
20025,-23.951769,7.4839597,-5.111496,-1.4092896,0.31223145,-1.7034668,116.0
20026,-21.740126,8.235898,-4.372345,-1.4092896,0.31223145,-1.7034668,116.0
20027,-21.740126,8.235898,-4.372345,-0.9866089,0.3175415,-0.5894165,116.0
20028,-19.4151,7.5924664,-3.0591583,-0.9866089,0.3175415,-0.5894165,116.0
20029,-19.4151,7.5924664,-3.0591583,-0.10620117,0.49064943,0.5872925,116.0
20030,-16.11211,6.311217,-4.6314545,-0.10620117,0.49064943,0.5872925,116.0
20031,-16.11211,6.311217,-4.6314545,0.5511841,0.2623169,1.9073731,116.0
20032,-9.843143,4.174779,-6.137039,0.5511841,0.2623169,1.9073731,116.0
20033,-9.843143,4.174779,-6.137039,0.21240234,-0.2824951,3.2986085,116.0
20034,-2.4180946,0.4131632,-3.3595734,0.21240234,-0.2824951,3.2986085,116.0
20035,-2.4180946,0.4131632,-3.3595734,-0.028674318,-0.63720703,4.8597655,116.0
20036,2.9414024,-3.9981804,1.6067352,-0.028674318,-0.63720703,4.8597655,116.0
20037,2.9414024,-3.9981804,1.6067352,0.5883545,-0.5076416,6.238257,116.0
20038,6.1492767,-7.913205,4.5578766,0.5883545,-0.5076416,6.238257,116.0
20039,6.1492767,-7.913205,4.5578766,2.353418,0.17416993,7.799414,116.0
20040,7.7725716,-10.478354,5.058914,2.353418,0.17416993,7.799414,116.0
20041,7.7725716,-10.478354,5.058914,2.6019287,0.26444092,8.260327,116.0
20042,8.386709,-11.229449,4.935669,2.6019287,0.26444092,8.260327,116.0
20043,8.386709,-11.229449,4.935669,2.543518,0.43011475,7.579578,116.0
20044,10.678459,-8.939467,4.848984,2.543518,0.43011475,7.579578,116.0
20045,10.678459,-8.939467,4.848984,2.1070313,0.09133301,6.8489137,116.0
20046,13.834295,-1.6127682,3.8309937,2.1070313,0.09133301,6.8489137,116.0
20047,13.834295,-1.6127682,3.8309937,-0.019116212,-0.04248047,5.510779,116.0
20048,12.699871,7.8298416,1.2003479,-0.019116212,-0.04248047,5.510779,116.0
20049,12.699871,7.8298416,1.2003479,-0.64995116,-0.4725952,4.415845,116.0
20050,8.783249,14.77602,-2.5110168,-0.64995116,-0.4725952,4.415845,116.0
20051,8.783249,14.77602,-2.5110168,-1.5845215,-0.7657105,3.3708253,116.0
20052,7.1152954,18.360062,-5.564682,-1.5845215,-0.7657105,3.3708253,116.0
20053,7.1152954,18.360062,-5.564682,-2.2950075,-0.7869507,2.4638672,116.0
20054,7.3630495,19.105494,-6.205002,-2.2950075,-0.7869507,2.4638672,116.0
20055,7.3630495,19.105494,-6.205002,-1.5739014,-0.76677245,1.4443359,116.0
20056,7.188035,17.637691,-5.1423492,-1.5739014,-0.76677245,1.4443359,116.0
20057,7.188035,17.637691,-5.1423492,-0.65632325,-0.7327881,0.09239502,116.0
20058,6.2541027,15.060654,-3.9089203,-0.65632325,-0.7327881,0.09239502,116.0
20059,6.2541027,15.060654,-3.9089203,-0.62552494,-0.814563,-1.2181275,116.0
20060,5.2108135,12.075769,-2.868164,-0.62552494,-0.814563,-1.2181275,116.0
20061,5.2108135,12.075769,-2.868164,-0.45878908,-0.9143921,-2.440503,116.0
20062,4.0537586,8.345428,-1.7696381,-0.45878908,-0.9143921,-2.440503,116.0
20063,4.0537586,8.345428,-1.7696381,-0.44816896,-0.813501,-3.6915529,116.0
20064,2.8559952,3.7406616,-0.7446594,-0.44816896,-0.813501,-3.6915529,116.0
20065,2.8559952,3.7406616,-0.7446594,-0.095581055,-0.5246338,-4.4721313,116.0
20066,1.6019106,-1.0539303,0.22114563,-0.095581055,-0.5246338,-4.4721313,116.0
20067,1.6019106,-1.0539303,0.22114563,0.020178223,-0.095581055,-4.797107,116.0
20068,0.13478756,-6.1741753,1.7605743,0.020178223,-0.095581055,-4.797107,116.0
20069,0.13478756,-6.1741753,1.7605743,-0.16673584,0.43011475,-4.8459597,116.0
20070,-1.3265696,-12.458944,3.898346,-0.16673584,0.43011475,-4.8459597,116.0
20071,-1.3265696,-12.458944,3.898346,-0.4333008,1.0269654,-5.438562,116.0
20072,-2.384376,-19.105547,5.0276184,-0.4333008,1.0269654,-5.438562,116.0
20073,-2.384376,-19.105547,5.0276184,-1.0428956,1.4995606,-6.604651,116.0
20074,-3.8113217,-22.850063,4.8727875,-1.0428956,1.4995606,-6.604651,116.0
20075,-3.8113217,-22.850063,4.8727875,-2.1314576,1.364685,-6.643945,116.0
20076,-6.479258,-20.934042,4.939438,-2.1314576,1.364685,-6.643945,116.0
20077,-6.479258,-20.934042,4.939438,-3.0277956,1.1958252,-5.628662,116.0
20078,-9.409041,-14.003203,4.646942,-3.0277956,1.1958252,-5.628662,116.0
20079,-9.409041,-14.003203,4.646942,-3.4908326,1.3678712,-4.911804,116.0
20080,-11.790734,-6.3956656,1.714508,-3.4908326,1.3678712,-4.911804,116.0
20081,-11.790734,-6.3956656,1.714508,-1.7746216,1.5091187,-4.546472,116.0
20082,-11.790734,-6.3956656,1.714508,-0.721106,1.080066,-3.7701416,116.0
20083,-13.471491,-0.9064131,-3.2291718,-0.721106,1.080066,-3.7701416,116.0
20084,-17.494125,7.1785564,-7.4473877,-0.721106,1.080066,-3.7701416,116.0
20085,-17.494125,7.1785564,-7.4473877,-0.721106,1.080066,-3.7701416,129.0
20086,-17.494125,7.1785564,-7.4473877,-0.9451904,0.32709962,-2.7495484,129.0
20087,-17.494125,7.1785564,-7.4473877,-1.1352905,-0.3971924,-1.7809937,129.0
20088,-17.494125,7.1785564,-7.4473877,-1.0981201,-0.79969484,-0.62764895,129.0
20089,-15.741137,8.81118,-3.1961212,-1.0981201,-0.79969484,-0.62764895,129.0
20090,-12.23605,5.145648,-2.1466522,-1.0981201,-0.79969484,-0.62764895,129.0
20091,-12.23605,5.145648,-2.1466522,0.07965088,-0.9866089,0.7858887,129.0
20092,-8.136118,3.6258812,-1.3815308,0.07965088,-0.9866089,0.7858887,129.0
20093,-8.136118,3.6258812,-1.3815308,0.7625244,-1.081128,2.0316284,129.0
20094,-8.136118,3.6258812,-1.3815308,0.82730716,-1.0301514,3.354895,129.0
20095,-3.6196976,1.648325,-1.2641296,0.82730716,-1.0301514,3.354895,129.0
20096,-3.6196976,1.648325,-1.2641296,0.8071289,-0.9420044,4.9362307,129.0
20097,0.94420815,-1.4120283,-0.6238861,0.8071289,-0.9420044,4.9362307,129.0
20098,0.94420815,-1.4120283,-0.6238861,1.1129884,-0.71154785,6.496326,129.0
20099,4.3454914,-4.453536,0.8301697,1.1129884,-0.71154785,6.496326,129.0
20100,4.3454914,-4.453536,0.8301697,1.6163819,-0.5543701,7.2843385,129.0
20101,5.8859024,-7.342651,2.1858368,1.6163819,-0.5543701,7.2843385,129.0
20102,5.8859024,-7.342651,2.1858368,2.3874023,-0.41524658,7.0761843,129.0
20103,7.5825863,-10.832617,3.5310059,2.3874023,-0.41524658,7.0761843,129.0
20104,7.5825863,-10.832617,3.5310059,3.1478028,-0.21877442,6.581287,129.0
20105,12.467509,-10.91032,4.847412,3.1478028,-0.21877442,6.581287,129.0
20106,12.467509,-10.91032,4.847412,2.6592774,-0.8963379,5.59574,129.0
20107,16.847824,-4.034274,4.121216,2.6592774,-0.8963379,5.59574,129.0
20108,16.847824,-4.034274,4.121216,-0.5012695,-0.59897465,4.160962,129.0
20109,14.631005,5.750413,0.44511414,-0.5012695,-0.59897465,4.160962,129.0
20110,14.631005,5.750413,0.44511414,-1.7342652,-1.26698,3.1902833,129.0
20111,8.49582,13.313379,-3.5573578,-1.7342652,-1.26698,3.1902833,129.0
20112,8.49582,13.313379,-3.5573578,-0.5787964,-2.0178223,2.5615723,129.0
20113,4.370033,17.71395,-4.773636,-0.5787964,-2.0178223,2.5615723,129.0
20114,4.370033,17.71395,-4.773636,0.61065674,-2.5987427,2.0263183,129.0
20115,3.4151301,20.08759,-3.8400574,0.61065674,-2.5987427,2.0263183,129.0
20116,3.4151301,20.08759,-3.8400574,1.3243287,-2.8185792,1.4379638,129.0
20117,3.887231,19.776371,-3.0323486,1.3243287,-2.8185792,1.4379638,129.0
20118,3.887231,19.776371,-3.0323486,0.7986328,-2.5934327,0.46622315,129.0
20119,4.5033274,16.41099,-3.0453491,0.7986328,-2.5934327,0.46622315,129.0
20120,4.5033274,16.41099,-3.0453491,-0.07646485,-2.1218994,-0.9781128,129.0
20121,4.758375,12.2451,-3.366394,-0.07646485,-2.1218994,-0.9781128,129.0
20122,4.758375,12.2451,-3.366394,-0.22514649,-1.4846925,-2.4808595,129.0
20123,4.4180775,9.006578,-3.1376038,-0.22514649,-1.4846925,-2.4808595,129.0
20124,4.4180775,9.006578,-3.1376038,-0.012744141,-0.93350834,-3.5895996,129.0
20125,3.2823625,5.9194965,-1.906311,-0.012744141,-0.93350834,-3.5895996,129.0
20126,3.2823625,5.9194965,-1.906311,-0.25700685,-0.33134767,-4.4763794,129.0
20127,1.449718,1.6703758,0.059829712,-0.25700685,-0.33134767,-4.4763794,129.0
20128,1.449718,1.6703758,0.059829712,-0.3462158,0.2527588,-5.3982058,129.0
20129,0.29191542,-1.5362339,1.1854706,-0.3462158,0.2527588,-5.3982058,129.0
20130,0.29191542,-1.5362339,1.1854706,-0.2442627,0.6159668,-5.691321,129.0
20131,1.0962152,-13.390181,5.9886627,-0.2442627,0.6159668,-5.691321,129.0
20132,1.0962152,-13.390181,5.9886627,-1.2478638,1.6832886,-6.073645,129.0
20133,1.9140205,-17.09314,6.4410095,-1.2478638,1.6832886,-6.073645,129.0
20134,1.9140205,-17.09314,6.4410095,-1.7788696,1.9753418,-6.333838,129.0
20135,3.0148716,-29.25232,8.43074,-1.7788696,1.9753418,-6.333838,129.0
20136,3.0148716,-29.25232,8.43074,-3.8359864,2.0422485,-6.429419,129.0
20137,0.6102495,-22.396973,4.999954,-3.8359864,2.0422485,-6.429419,129.0
20138,0.6102495,-22.396973,4.999954,-4.156714,1.8574585,-5.8219485,129.0
20139,0.6102495,-22.396973,4.999954,-4.610193,1.4602661,-4.2894654,129.0
20140,-9.076876,-18.184412,3.9999542,-4.610193,1.4602661,-4.2894654,129.0
20141,-18.573929,-2.836311,-3.0322418,-4.610193,1.4602661,-4.2894654,129.0
20142,-18.573929,-2.836311,-3.0322418,-4.163086,1.5133667,-4.099365,129.0
20143,-18.573929,-2.836311,-3.0322418,-0.49171144,1.44115,-3.0150514,129.0
20144,-16.453918,-0.17448106,-3.2171173,-0.49171144,1.44115,-3.0150514,129.0
20145,-16.453918,-0.17448106,-3.2171173,-0.03186035,1.3413209,-2.6847656,129.0
20146,-16.604858,6.6143217,-4.5945435,-0.03186035,1.3413209,-2.6847656,129.0
20147,-16.604858,6.6143217,-4.5945435,-0.46409914,0.16567384,-1.3944215,129.0
20148,-14.274585,7.119497,-4.4440613,-0.46409914,0.16567384,-1.3944215,129.0
20149,-14.274585,7.119497,-4.4440613,-0.8995239,-0.29205322,-0.8952759,129.0
20150,-13.7022,7.9092083,-3.3069916,-0.8995239,-0.29205322,-0.8952759,129.0
20151,-13.7022,7.9092083,-3.3069916,-0.118945315,-0.6966797,0.8230591,129.0
20152,-11.342339,5.890623,-1.789856,-0.118945315,-0.6966797,0.8230591,129.0
20153,-11.342339,5.890623,-1.789856,0.6669434,-0.62977296,1.3657471,129.0
20154,-8.104023,2.1864486,-0.3074646,0.6669434,-0.62977296,1.3657471,129.0
20155,-8.104023,2.1864486,-0.3074646,1.2786621,-0.59897465,2.8238893,129.0
20156,-5.5064487,1.4795547,-0.42019653,1.2786621,-0.59897465,2.8238893,129.0
20157,-5.5064487,1.4795547,-0.42019653,0.93775636,-0.6754395,3.3633912,129.0
20158,-1.672163,-0.3283558,-1.0071869,0.93775636,-0.6754395,3.3633912,129.0
20159,-1.672163,-0.3283558,-1.0071869,0.67437744,-0.81031495,4.702588,129.0
20160,1.8233662,-3.8290296,-0.49554443,0.67437744,-0.81031495,4.702588,129.0
20161,1.8233662,-3.8290296,-0.49554443,1.0588257,-0.54587406,6.1947145,129.0
20162,5.9075813,-10.02692,2.960205,1.0588257,-0.54587406,6.1947145,129.0
20163,5.9075813,-10.02692,2.960205,1.9615357,-0.18054199,7.3459353,129.0
20164,6.27139,-9.536831,3.5433044,1.9615357,-0.18054199,7.3459353,129.0
20165,6.27139,-9.536831,3.5433044,2.250403,-0.047790527,7.394788,129.0
20166,10.609458,-14.031247,5.975418,2.250403,-0.047790527,7.394788,129.0
20167,10.609458,-14.031247,5.975418,3.259314,-0.07434082,6.9349365,129.0
20168,12.397722,-11.183726,5.4651947,3.259314,-0.07434082,6.9349365,129.0
20169,12.397722,-11.183726,5.4651947,2.902478,-0.38763428,6.4952636,129.0
20170,18.892689,-0.5152917,3.9029236,2.902478,-0.38763428,6.4952636,129.0
20171,18.892689,-0.5152917,3.9029236,-0.3812622,-0.24851075,4.354248,129.0
20172,15.479569,4.531663,1.8621063,-0.3812622,-0.24851075,4.354248,129.0
20173,15.479569,4.531663,1.8621063,-0.56605226,-0.63933104,3.911389,129.0
20174,9.980446,12.683558,-1.8842163,-0.56605226,-0.63933104,3.911389,129.0
20175,9.980446,12.683558,-1.8842163,-0.82836914,-1.3009644,3.1042602,129.0
20176,5.983392,17.756893,-4.3516235,-0.82836914,-1.3009644,3.1042602,129.0
20177,5.983392,17.756893,-4.3516235,-0.4248047,-1.6397461,2.3682861,129.0
20178,4.1900826,20.440037,-4.9548187,-0.4248047,-1.6397461,2.3682861,129.0
20179,4.1900826,20.440037,-4.9548187,0.8400513,-1.7013428,1.6004517,129.0
20180,3.4248571,21.047209,-4.61557,0.8400513,-1.7013428,1.6004517,129.0
20181,3.4248571,21.047209,-4.61557,0.91757816,-1.3020264,0.5320679,129.0
20182,3.6497612,18.41068,-5.085434,0.91757816,-1.3020264,0.5320679,129.0
20183,3.6497612,18.41068,-5.085434,0.19541016,-0.9611206,-1.9785279,129.0
20184,3.1527433,13.880558,-4.636795,0.19541016,-0.9611206,-1.9785279,129.0
20185,3.1527433,13.880558,-4.636795,-0.2538208,-0.8421753,-2.8430054,129.0
20186,3.1527433,13.880558,-4.636795,-0.2538208,-0.8421753,-2.8430054,134.0
20187,3.4011621,9.353298,-4.7074127,-0.2538208,-0.8421753,-2.8430054,134.0
20188,3.4011621,9.353298,-4.7074127,-0.9122681,-0.4959595,-4.1121097,134.0
20189,3.2952337,5.2186127,-3.903122,-0.9122681,-0.4959595,-4.1121097,134.0
20190,3.2952337,5.2186127,-3.903122,-0.8623535,-0.09770508,-4.9426026,134.0
20191,2.551031,0.17182541,-2.0449677,-0.8623535,-0.09770508,-4.9426026,134.0
20192,2.551031,0.17182541,-2.0449677,0.052038576,0.32497558,-5.5914917,134.0
20193,1.7103558,-6.874258,0.6983795,0.052038576,0.32497558,-5.5914917,134.0
20194,1.7103558,-6.874258,0.6983795,0.53950197,0.74022216,-5.7837157,134.0
20195,2.0101671,-15.832745,4.3618317,0.53950197,0.74022216,-5.7837157,134.0
20196,2.0101671,-15.832745,4.3618317,-1.0779419,1.2053833,-6.2733035,134.0
20197,2.9033976,-24.320932,7.8883667,-1.0779419,1.2053833,-6.2733035,134.0
20198,2.9033976,-24.320932,7.8883667,-3.070276,1.4900025,-7.0156493,134.0
20199,0.8564825,-27.77087,9.7278595,-3.070276,1.4900025,-7.0156493,134.0
20200,0.8564825,-27.77087,9.7278595,-4.0462646,1.718335,-6.1681643,134.0
20201,-4.8466625,-24.295603,8.894684,-4.0462646,1.718335,-6.1681643,134.0
20202,-4.8466625,-24.295603,8.894684,-2.3916504,1.5877075,-5.170935,134.0
20203,-13.631603,-11.65201,3.5984344,-2.3916504,1.5877075,-5.170935,134.0
20204,-13.631603,-11.65201,3.5984344,-1.4230957,0.8708496,-4.428589,134.0
20205,-13.884641,-6.212526,1.0311127,-1.4230957,0.8708496,-4.428589,134.0
20206,-13.884641,-6.212526,1.0311127,-1.2329956,0.6074707,-4.414783,134.0
20207,-16.815062,0.49594617,-2.5006104,-1.2329956,0.6074707,-4.414783,134.0
20208,-16.815062,0.49594617,-2.5006104,-1.3476928,0.34833986,-3.719165,134.0
20209,-17.886559,4.074589,-4.4167786,-1.3476928,0.34833986,-3.719165,134.0
20210,-17.886559,4.074589,-4.4167786,-1.1883911,0.31223145,-2.1930542,134.0
20211,-16.456463,6.0764437,-4.5777283,-1.1883911,0.31223145,-2.1930542,134.0
20212,-16.456463,6.0764437,-4.5777283,-0.6287109,0.021240234,-0.8612915,134.0
20213,-13.412925,7.339329,-3.9283905,-0.6287109,0.021240234,-0.8612915,134.0
20214,-13.412925,7.339329,-3.9283905,-0.45135498,-0.3982544,0.26656494,134.0
20215,-10.646454,7.3794346,-3.4196625,-0.45135498,-0.3982544,0.26656494,134.0
20216,-10.646454,7.3794346,-3.4196625,-0.25594482,-0.5363159,1.3222046,134.0
20217,-7.9918346,5.852266,-3.0398865,-0.25594482,-0.5363159,1.3222046,134.0
20218,-7.9918346,5.852266,-3.0398865,0.21240234,-0.61278075,2.3958986,134.0
20219,-4.3488026,3.3443494,-1.9591064,0.21240234,-0.61278075,2.3958986,134.0
20220,-4.3488026,3.3443494,-1.9591064,0.6860596,-0.7657105,3.4833984,134.0
20221,-0.40903473,0.17444229,0.003189087,0.6860596,-0.7657105,3.4833984,134.0
20222,-0.40903473,0.17444229,0.003189087,0.72641605,-0.7168579,4.798169,134.0
20223,2.8870792,-3.8240085,1.7852631,0.72641605,-0.7168579,4.798169,134.0
20224,2.8870792,-3.8240085,1.7852631,0.8421753,-0.4800293,6.227637,134.0
20225,5.400997,-8.080715,2.809311,0.8421753,-0.4800293,6.227637,134.0
20226,5.400997,-8.080715,2.809311,1.545227,-0.08283692,7.3077025,134.0
20227,7.4028893,-11.768772,3.7072296,1.545227,-0.08283692,7.3077025,134.0
20228,7.4028893,-11.768772,3.7072296,2.788843,0.43967286,7.6411743,134.0
20229,10.295016,-12.901907,4.7707367,2.788843,0.43967286,7.6411743,134.0
20230,10.295016,-12.901907,4.7707367,3.2189577,0.41843262,7.614624,134.0
20231,14.606301,-9.198467,5.183243,3.2189577,0.41843262,7.614624,134.0
20232,14.606301,-9.198467,5.183243,2.0518067,-0.090270996,6.8892703,134.0
20233,16.747505,-1.392148,3.9870453,2.0518067,-0.090270996,6.8892703,134.0
20234,16.747505,-1.392148,3.9870453,0.5872925,-0.2357666,5.6573367,134.0
20235,14.010455,7.2799463,1.1148071,0.5872925,-0.2357666,5.6573367,134.0
20236,14.010455,7.2799463,1.1148071,0.3971924,-0.66481936,4.532666,134.0
20237,9.1975,14.4153385,-2.5345917,0.3971924,-0.66481936,4.532666,134.0
20238,9.1975,14.4153385,-2.5345917,-0.06159668,-1.0673218,3.5492432,134.0
20239,5.8151045,19.127462,-5.3661346,-0.06159668,-1.0673218,3.5492432,134.0
20240,5.8151045,19.127462,-5.3661346,-0.4800293,-1.3179566,2.8472536,134.0
20241,4.398324,21.08593,-6.481308,-0.4800293,-1.3179566,2.8472536,134.0
20242,4.398324,21.08593,-6.481308,0.1359375,-1.3062744,2.1102173,134.0
20243,3.9842353,20.266485,-6.499176,0.1359375,-1.3062744,2.1102173,134.0
20244,3.9842353,20.266485,-6.499176,0.75509036,-1.2223755,0.8219971,134.0
20245,4.450291,17.758354,-6.335678,0.75509036,-1.2223755,0.8219971,134.0
20246,4.450291,17.758354,-6.335678,0.4800293,-1.2627319,-1.1512207,134.0
20247,5.5975013,14.598125,-5.997101,0.4800293,-1.2627319,-1.1512207,134.0
20248,5.5975013,14.598125,-5.997101,-0.57242435,-1.3105224,-2.9683228,134.0
20249,6.134117,10.417013,-4.823807,-0.57242435,-1.3105224,-2.9683228,134.0
20250,6.134117,10.417013,-4.823807,-1.179895,-1.2266235,-4.3563724,134.0
20251,5.3291683,5.1673145,-2.5926666,-1.179895,-1.2266235,-4.3563724,134.0
20252,5.3291683,5.1673145,-2.5926666,-1.2414917,-0.9260742,-5.5521975,134.0
20253,3.7939014,-1.7793446,0.36465454,-1.2414917,-0.9260742,-5.5521975,134.0
20254,3.7939014,-1.7793446,0.36465454,-0.7051758,-0.4333008,-6.332776,134.0
20255,2.9484634,-11.712147,4.157074,-0.7051758,-0.4333008,-6.332776,134.0
20256,2.9484634,-11.712147,4.157074,-0.9239502,0.2357666,-6.518628,134.0
20257,3.199481,-22.545107,8.124176,-0.9239502,0.2357666,-6.518628,134.0
20258,3.199481,-22.545107,8.124176,-2.263147,0.63933104,-7.304517,134.0
20259,1.7644062,-29.171524,10.850571,-2.263147,0.63933104,-7.304517,134.0
20260,1.7644062,-29.171524,10.850571,-3.5566773,1.0662597,-6.769263,134.0
20261,-3.1795883,-28.186071,11.347473,-3.5566773,1.0662597,-6.769263,134.0
20262,-3.1795883,-28.186071,11.347473,-2.3321779,1.4252198,-5.25271,134.0
20263,-9.269757,-19.862846,9.015503,-2.3321779,1.4252198,-5.25271,134.0
20264,-9.269757,-19.862846,9.015503,-1.7512573,1.7767457,-4.3956666,134.0
20265,-14.043773,-8.787934,4.2452545,-1.7512573,1.7767457,-4.3956666,134.0
20266,-14.043773,-8.787934,4.2452545,-1.7066529,1.6185058,-4.244861,134.0
20267,-16.748129,-0.094239235,-1.4944153,-1.7066529,1.6185058,-4.244861,134.0
20268,-16.748129,-0.094239235,-1.4944153,-1.893567,1.3200806,-3.796692,134.0
20269,-17.483612,4.749377,-5.519882,-1.893567,1.3200806,-3.796692,134.0
20270,-17.483612,4.749377,-5.519882,-1.8808228,1.0333375,-2.8557496,134.0
20271,-17.077074,6.9719744,-6.5032806,-1.8808228,1.0333375,-2.8557496,134.0
20272,-17.077074,6.9719744,-6.5032806,-1.265918,0.68287355,-1.5877075,134.0
20273,-16.086197,8.196074,-6.0974884,-1.265918,0.68287355,-1.5877075,134.0
20274,-16.086197,8.196074,-6.0974884,-0.7593384,0.3430298,-0.5671143,134.0
20275,-14.556151,8.652806,-6.1362762,-0.7593384,0.3430298,-0.5671143,134.0
20276,-14.556151,8.652806,-6.1362762,-0.6786255,-0.124255374,0.38763428,134.0
20277,-12.2776985,7.7873697,-6.011795,-0.6786255,-0.124255374,0.38763428,134.0
20278,-12.2776985,7.7873697,-6.011795,-0.5214478,-0.50445557,1.3678712,134.0
20279,-8.376455,5.514759,-3.480774,-0.5214478,-0.50445557,1.3678712,134.0
20280,-8.376455,5.514759,-3.480774,-0.4088745,-0.4980835,2.342798,134.0
20281,-3.517374,2.3972445,0.24177551,-0.4088745,-0.4980835,2.342798,134.0
20282,-3.517374,2.3972445,0.24177551,-0.046728518,-0.6977417,3.4791505,134.0
20283,0.5353699,-0.98344994,2.009369,-0.046728518,-0.6977417,3.4791505,134.0
20284,0.5353699,-0.98344994,2.009369,0.25594482,-0.8209351,4.706836,134.0
20285,3.6251965,-4.296001,2.1654663,0.25594482,-0.8209351,4.706836,134.0
20286,3.6251965,-4.296001,2.1654663,1.1565307,-0.8358032,5.7422976,134.0
20287,6.1664543,-8.113155,2.6122437,1.1565307,-0.8358032,5.7422976,134.0
20288,6.1664543,-8.113155,2.6122437,2.3236816,-0.6531372,6.427295,134.0
20289,8.420919,-12.784824,3.7039948,2.3236816,-0.6531372,6.427295,134.0
20290,8.420919,-12.784824,3.7039948,3.629956,-0.5055176,6.3911867,134.0
20291,8.420919,-12.784824,3.7039948,3.629956,-0.5055176,6.3911867,139.0
20292,12.1165085,-14.702139,4.861786,3.629956,-0.5055176,6.3911867,139.0
20293,12.1165085,-14.702139,4.861786,3.4770265,-0.903772,6.3752565,139.0
20294,16.945307,-10.03366,5.0789948,3.4770265,-0.903772,6.3752565,139.0
20295,16.945307,-10.03366,5.0789948,2.0995972,-0.9143921,5.4661746,139.0
20296,17.656466,-0.7455435,3.211319,2.0995972,-0.9143921,5.4661746,139.0
20297,17.656466,-0.7455435,3.211319,1.3423828,-1.0439576,4.370178,139.0
20298,12.984877,8.630213,-0.28598022,1.3423828,-1.0439576,4.370178,139.0
20299,12.984877,8.630213,-0.28598022,0.50020754,-1.3211426,3.4186158,139.0
20300,7.6942983,15.296602,-3.591507,0.50020754,-1.3211426,3.4186158,139.0
20301,7.6942983,15.296602,-3.591507,-0.047790527,-1.629126,2.732556,139.0
20302,4.8051577,18.70923,-5.237152,-0.047790527,-1.629126,2.732556,139.0
20303,4.8051577,18.70923,-5.237152,0.15930176,-1.902063,2.2323487,139.0
20304,4.2752056,20.058596,-5.2010803,0.15930176,-1.902063,2.2323487,139.0
20305,4.2752056,20.058596,-5.2010803,0.85491943,-1.7501954,1.4974365,139.0
20306,4.830614,19.759243,-4.678299,0.85491943,-1.7501954,1.4974365,139.0
20307,4.830614,19.759243,-4.678299,0.62127686,-1.2967163,0.41099855,139.0
20308,5.2891617,17.268394,-4.675812,0.62127686,-1.2967163,0.41099855,139.0
20309,5.2891617,17.268394,-4.675812,-0.24957275,-0.93138427,-1.2085694,139.0
20310,4.906354,13.652374,-4.945755,-0.24957275,-0.93138427,-1.2085694,139.0
20311,4.906354,13.652374,-4.945755,-1.0630738,-0.77951664,-2.9523926,139.0
20312,3.4371314,10.336376,-4.363861,-1.0630738,-0.77951664,-2.9523926,139.0
20313,3.4371314,10.336376,-4.363861,-1.5250489,-0.57561034,-4.3616824,139.0
20314,1.5910625,6.3733597,-2.560135,-1.5250489,-0.57561034,-4.3616824,139.0
20315,1.5910625,6.3733597,-2.560135,-1.5834595,-0.2081543,-5.5511355,139.0
20316,0.4199934,0.29346275,-0.39045715,-1.5834595,-0.2081543,-5.5511355,139.0
20317,0.4199934,0.29346275,-0.39045715,-0.67225343,0.12319336,-6.3826904,139.0
20318,0.7088461,-8.2609215,2.017273,-0.67225343,0.12319336,-6.3826904,139.0
20319,0.7088461,-8.2609215,2.017273,-0.19222413,0.6149048,-6.154358,139.0
20320,2.713354,-19.417637,5.5959015,-0.19222413,0.6149048,-6.154358,139.0
20321,2.713354,-19.417637,5.5959015,-0.12213135,1.2722901,-5.9589477,139.0
20322,4.6241503,-28.60502,8.557907,-0.12213135,1.2722901,-5.9589477,139.0
20323,4.6241503,-28.60502,8.557907,-2.5074098,1.4262818,-6.6556277,139.0
20324,2.596098,-29.592245,8.517532,-2.5074098,1.4262818,-6.6556277,139.0
20325,2.596098,-29.592245,8.517532,-5.781592,1.5431031,-5.7730956,139.0
20326,2.596098,-29.592245,8.517532,-5.695569,1.6599244,-4.448767,139.0
20327,-3.7931414,-23.14605,6.1174774,-5.695569,1.6599244,-4.448767,139.0
20328,-22.312479,-0.5940857,-0.9023285,-5.695569,1.6599244,-4.448767,139.0
20329,-22.312479,-0.5940857,-0.9023285,-3.0437257,1.5813354,-3.8752809,139.0
20330,-22.312479,-0.5940857,-0.9023285,-0.95581055,1.268042,-3.4876466,139.0
20331,-22.312479,-0.5940857,-0.9023285,-1.175647,1.0004151,-2.9226563,139.0
20332,-21.389803,3.0352416,-2.9335632,-1.175647,1.0004151,-2.9226563,139.0
20333,-21.389803,3.0352416,-2.9335632,-1.4900025,0.8241211,-1.7013428,139.0
20334,-19.64457,3.9997022,-3.7908783,-1.4900025,0.8241211,-1.7013428,139.0
20335,-19.64457,3.9997022,-3.7908783,-0.92713624,0.6818115,-0.38232422,139.0
20336,-16.64267,4.1468563,-3.7692108,-0.92713624,0.6818115,-0.38232422,139.0
20337,-16.64267,4.1468563,-3.7692108,-0.12531738,0.53525394,0.91014403,139.0
20338,-12.9428835,4.888359,-3.5402985,-0.12531738,0.53525394,0.91014403,139.0
20339,-12.9428835,4.888359,-3.5402985,-0.11151123,0.16673584,2.078357,139.0
20340,-9.29492,5.8715396,-3.396988,-0.11151123,0.16673584,2.078357,139.0
20341,-9.29492,5.8715396,-3.396988,-0.3069214,-0.41206056,3.274182,139.0
20342,-5.5715313,5.459683,-3.0035706,-0.3069214,-0.41206056,3.274182,139.0
20343,-5.5715313,5.459683,-3.0035706,-0.16885987,-0.82836914,4.445581,139.0
20344,-1.7955437,3.0538301,-2.1466064,-0.16885987,-0.82836914,4.445581,139.0
20345,-1.7955437,3.0538301,-2.1466064,0.6701294,-1.0439576,5.527771,139.0
20346,1.3899078,-0.36126947,-0.8073578,0.6701294,-1.0439576,5.527771,139.0
20347,1.3899078,-0.36126947,-0.8073578,0.92501223,-1.0152832,6.3816285,139.0
20348,3.514452,-4.6865134,0.99250793,0.92501223,-1.0152832,6.3816285,139.0
20349,3.514452,-4.6865134,0.99250793,0.6414551,-1.3179566,7.062378,139.0
20350,4.8926163,-10.666179,2.8969574,0.6414551,-1.3179566,7.062378,139.0
20351,4.8926163,-10.666179,2.8969574,0.724292,-1.3115845,6.963611,139.0
20352,7.6725035,-16.644455,5.3523865,0.724292,-1.3115845,6.963611,139.0
20353,7.6725035,-16.644455,5.3523865,2.2865112,-1.4677002,7.218494,139.0
20354,13.43799,-16.102467,7.4401093,2.2865112,-1.4677002,7.218494,139.0
20355,13.43799,-16.102467,7.4401093,2.8578737,-1.9392334,6.896704,139.0
20356,16.887661,-6.372061,6.6480865,2.8578737,-1.9392334,6.896704,139.0
20357,16.887661,-6.372061,6.6480865,0.9834229,-1.4284058,5.79115,139.0
20358,13.696798,5.4977007,3.133316,0.9834229,-1.4284058,5.79115,139.0
20359,13.696798,5.4977007,3.133316,0.87191164,-2.0995972,4.809851,139.0
20360,8.805193,13.771513,-0.7185211,0.87191164,-2.0995972,4.809851,139.0
20361,8.805193,13.771513,-0.7185211,0.21240234,-2.440503,3.880591,139.0
20362,6.5354996,18.146152,-3.0447083,0.21240234,-2.440503,3.880591,139.0
20363,6.5354996,18.146152,-3.0447083,-0.44179687,-2.698572,3.1127565,139.0
20364,6.1833677,19.904276,-3.7483063,-0.44179687,-2.698572,3.1127565,139.0
20365,6.1833677,19.904276,-3.7483063,-0.03717041,-2.6847656,2.4043946,139.0
20366,6.1437645,20.155416,-3.6515656,-0.03717041,-2.6847656,2.4043946,139.0
20367,6.1437645,20.155416,-3.6515656,0.81243896,-2.0995972,1.4815063,139.0
20368,5.9053802,18.597443,-3.686905,0.81243896,-2.0995972,1.4815063,139.0
20369,5.9053802,18.597443,-3.686905,0.50870365,-1.1915772,-0.1720459,139.0
20370,5.41654,14.864635,-4.514267,0.50870365,-1.1915772,-0.1720459,139.0
20371,5.41654,14.864635,-4.514267,-0.54375,-0.49277344,-2.258899,139.0
20372,4.2619066,10.624424,-5.414276,-0.54375,-0.49277344,-2.258899,139.0
20373,4.2619066,10.624424,-5.414276,-1.4528321,-0.20603028,-3.976172,139.0
20374,2.4567175,7.0132484,-4.6818695,-1.4528321,-0.20603028,-3.976172,139.0
20375,2.4567175,7.0132484,-4.6818695,-1.5494751,-0.010620117,-5.0965943,139.0
20376,0.60523033,2.8103428,-1.6974335,-1.5494751,-0.010620117,-5.0965943,139.0
20377,0.60523033,2.8103428,-1.6974335,-1.171399,0.40356445,-6.1830325,139.0
20378,-0.42536163,-3.6451588,2.0225983,-1.171399,0.40356445,-6.1830325,139.0
20379,-0.42536163,-3.6451588,2.0225983,-0.17523193,1.1225464,-7.0953,139.0
20380,0.21683979,-14.047718,5.2915497,-0.17523193,1.1225464,-7.0953,139.0
20381,0.21683979,-14.047718,5.2915497,0.92076415,1.7045288,-7.434082,139.0
20382,1.3590555,-25.598537,8.501709,0.92076415,1.7045288,-7.434082,139.0
20383,1.3590555,-25.598537,8.501709,0.43967286,1.4124756,-7.9194217,139.0
20384,1.3590555,-25.598537,8.501709,0.43967286,1.4124756,-7.9194217,145.0
20385,0.18087196,-30.685703,11.257217,0.43967286,1.4124756,-7.9194217,145.0
20386,0.18087196,-30.685703,11.257217,-3.4281738,1.4815063,-6.8478518,145.0
20387,-4.24146,-26.359049,10.556183,-3.4281738,1.4815063,-6.8478518,145.0
20388,-4.24146,-26.359049,10.556183,-5.4704223,1.4953126,-5.2474,145.0
20389,-4.24146,-26.359049,10.556183,-4.1991944,1.9116211,-4.263977,145.0
20390,-9.755777,-15.896395,5.580185,-4.1991944,1.9116211,-4.263977,145.0
20391,-14.429341,-4.6354504,0.009109497,-4.1991944,1.9116211,-4.263977,145.0
20392,-14.429341,-4.6354504,0.009109497,-1.6620483,1.6461182,-3.722351,145.0
20393,-14.429341,-4.6354504,0.009109497,-0.74447024,1.3030884,-2.980005,145.0
20394,-17.010965,3.8065689,-4.012558,-0.74447024,1.3030884,-2.980005,145.0
20395,-18.494844,10.999857,-7.988388,-0.74447024,1.3030884,-2.980005,145.0
20396,-18.494844,10.999857,-7.988388,-0.84323734,0.8878418,-2.1590698,145.0
20397,-18.494844,10.999857,-7.988388,-1.2478638,0.35471192,-1.2266235,145.0
20398,-15.810073,9.794564,-7.023941,-1.2478638,0.35471192,-1.2266235,145.0
20399,-15.810073,9.794564,-7.023941,-1.1055542,-0.052038576,-0.33665773,145.0
20400,-13.130858,7.709577,-5.3875885,-1.1055542,-0.052038576,-0.33665773,145.0
20401,-13.130858,7.709577,-5.3875885,-0.090270996,-0.4056885,0.69349366,145.0
20402,-9.710913,5.5703964,-3.483963,-0.090270996,-0.4056885,0.69349366,145.0
20403,-9.710913,5.5703964,-3.483963,0.2177124,-0.72004396,1.8394043,145.0
20404,-5.950115,3.6621523,-2.015915,0.2177124,-0.72004396,1.8394043,145.0
20405,-5.950115,3.6621523,-2.015915,0.12319336,-0.9494385,3.003369,145.0
20406,-2.5352993,1.0729961,-1.0240326,0.12319336,-0.9494385,3.003369,145.0
20407,-2.5352993,1.0729961,-1.0240326,0.5033936,-1.0630738,4.4477053,145.0
20408,0.52602005,-2.2668839,0.0952301,0.5033936,-1.0630738,4.4477053,145.0
20409,0.52602005,-2.2668839,0.0952301,0.87191164,-1.174585,5.905847,145.0
20410,2.2318764,-5.3525333,1.0959167,0.87191164,-1.174585,5.905847,145.0
20411,2.2318764,-5.3525333,1.0959167,0.31116945,-1.3211426,6.515442,145.0
20412,2.5145779,-10.002743,1.9564209,0.31116945,-1.3211426,6.515442,145.0
20413,2.5145779,-10.002743,1.9564209,1.0991821,-0.70305175,6.598279,145.0
20414,5.18388,-15.699057,3.4920654,1.0991821,-0.70305175,6.598279,145.0
20415,5.18388,-15.699057,3.4920654,3.443042,-0.23895264,7.162207,145.0
20416,11.453086,-15.911443,5.294113,3.443042,-0.23895264,7.162207,145.0
20417,11.453086,-15.911443,5.294113,2.991687,-0.48746338,7.078308,145.0
20418,15.757562,-8.393681,5.620926,2.991687,-0.48746338,7.078308,145.0
20419,15.757562,-8.393681,5.620926,1.44646,-0.56605226,6.529248,145.0
20420,15.00721,2.404892,3.564087,1.44646,-0.56605226,6.529248,145.0
20421,15.00721,2.404892,3.564087,0.89846194,-1.2754761,5.712561,145.0
20422,12.032965,12.089111,0.25624084,0.89846194,-1.2754761,5.712561,145.0
20423,12.032965,12.089111,0.25624084,1.0598878,-1.628064,4.539038,145.0
20424,9.907866,18.551819,-2.7107391,1.0598878,-1.628064,4.539038,145.0
20425,9.907866,18.551819,-2.7107391,0.8262451,-1.4400879,3.6469483,145.0
20426,9.186315,21.737038,-5.1129303,0.8262451,-1.4400879,3.6469483,145.0
20427,9.186315,21.737038,-5.1129303,0.3982544,-1.3147706,2.9513307,145.0
20428,9.323479,22.170477,-6.9813538,0.3982544,-1.3147706,2.9513307,145.0
20429,9.323479,22.170477,-6.9813538,0.42055663,-1.356189,2.165442,145.0
20430,9.624273,20.169865,-7.544937,0.42055663,-1.356189,2.165442,145.0
20431,9.624273,20.169865,-7.544937,-0.050976563,-1.3848633,0.72216797,145.0
20432,8.778215,16.56951,-6.4691772,-0.050976563,-1.3848633,0.72216797,145.0
20433,8.778215,16.56951,-6.4691772,-1.0875,-1.2053833,-1.2914063,145.0
20434,6.044838,12.584759,-4.500183,-1.0875,-1.2053833,-1.2914063,145.0
20435,6.044838,12.584759,-4.500183,-1.538855,-1.2043213,-3.1881592,145.0
20436,2.201397,9.135899,-2.1988525,-1.538855,-1.2043213,-3.1881592,145.0
20437,2.201397,9.135899,-2.1988525,-1.2956543,-1.3954834,-4.6845336,145.0
20438,-1.397831,6.0827427,0.14978027,-1.2956543,-1.3954834,-4.6845336,145.0
20439,-1.397831,6.0827427,0.14978027,-0.9154541,-1.6397461,-6.1617923,145.0
20440,-3.571927,1.3916588,2.5742645,-0.9154541,-1.6397461,-6.1617923,145.0
20441,-3.571927,1.3916588,2.5742645,-0.4248047,-1.6514282,-7.246106,145.0
20442,-2.883213,-10.186466,6.031357,-0.4248047,-1.6514282,-7.246106,145.0
20443,-2.883213,-10.186466,6.031357,0.33878174,-1.0991821,-6.892456,145.0
20444,0.86039734,-26.520731,11.169968,0.33878174,-1.0991821,-6.892456,145.0
20445,0.86039734,-26.520731,11.169968,0.68287355,-0.7423462,-7.259912,145.0
20446,3.4983282,-35.133163,15.450836,0.68287355,-0.7423462,-7.259912,145.0
20447,3.4983282,-35.133163,15.450836,-2.3173096,0.17841797,-5.645654,145.0
20448,3.4983282,-35.133163,15.450836,-3.4929566,0.47896728,-4.3839846,145.0
20449,0.34952927,-30.427649,14.068466,-3.4929566,0.47896728,-4.3839846,145.0
20450,-15.159574,-6.550432,3.0812988,-3.4929566,0.47896728,-4.3839846,145.0
20451,-15.159574,-6.550432,3.0812988,-4.320264,0.95368654,-3.7350953,145.0
20452,-15.159574,-6.550432,3.0812988,-3.2242677,0.8846558,-3.7658937,145.0
20453,-15.159574,-6.550432,3.0812988,-2.0422485,0.3802002,-3.4101198,145.0
20454,-20.431467,2.414134,-0.3651886,-2.0422485,0.3802002,-3.4101198,145.0
20455,-29.663021,9.897091,-1.5171051,-2.0422485,0.3802002,-3.4101198,145.0
20456,-29.663021,9.897091,-1.5171051,-1.0269654,0.24638672,-2.4649293,145.0
20457,-29.663021,9.897091,-1.5171051,-0.6425171,0.20072022,-1.364685,145.0
20458,-29.663021,9.897091,-1.5171051,0.50870365,0.17735596,-0.3419678,145.0
20459,-25.533848,8.673325,-0.10900879,0.50870365,0.17735596,-0.3419678,145.0
20460,-25.533848,8.673325,-0.10900879,1.2414917,0.010620117,0.2538208,145.0
20461,-19.928568,5.228675,-1.4498444,1.2414917,0.010620117,0.2538208,145.0
20462,-19.928568,5.228675,-1.4498444,1.3381348,-0.0361084,0.5564942,145.0
20463,-10.315254,-3.009223,-2.1354065,1.3381348,-0.0361084,0.5564942,145.0
20464,-10.315254,-3.009223,-2.1354065,1.6503662,0.61915284,2.2334106,145.0
20465,1.9861393,-13.770354,0.54548645,1.6503662,0.61915284,2.2334106,145.0
20466,1.9861393,-13.770354,0.54548645,3.2062135,1.7671875,5.0562377,145.0
20467,11.653938,-19.418102,2.7971497,3.2062135,1.7671875,5.0562377,145.0
20468,11.653938,-19.418102,2.7971497,3.804126,2.3905885,6.9296265,145.0
20469,15.497944,-16.511106,2.0863495,3.804126,2.3905885,6.9296265,145.0
20470,15.497944,-16.511106,2.0863495,3.7319093,3.0224855,7.961902,145.0
20471,16.124577,-8.720677,0.99349976,3.7319093,3.0224855,7.961902,145.0
20472,16.124577,-8.720677,0.99349976,3.8731568,3.0862062,7.619934,145.0
20473,16.865957,0.034273148,0.3771057,3.8731568,3.0862062,7.619934,145.0
20474,16.865957,0.034273148,0.3771057,2.6752076,2.2854493,6.2733035,145.0
20475,16.348015,8.153431,-0.99479675,2.6752076,2.2854493,6.2733035,145.0
20476,16.348015,8.153431,-0.99479675,0.70198977,1.724707,5.149695,145.0
20477,12.2154,13.521025,-2.8703003,0.70198977,1.724707,5.149695,145.0
20478,12.2154,13.521025,-2.8703003,0.087084964,0.8007569,4.262915,145.0
20479,12.2154,13.521025,-2.8703003,0.087084964,0.8007569,4.262915,149.0
20480,7.2786674,15.972056,-4.5860596,0.087084964,0.8007569,4.262915,149.0
20481,7.2786674,15.972056,-4.5860596,-0.24107666,-0.1709839,3.3007324,149.0
20482,4.3245573,17.058846,-6.0427704,-0.24107666,-0.1709839,3.3007324,149.0
20483,4.3245573,17.058846,-6.0427704,-1.2404298,-0.7306641,2.9343383,149.0
20484,2.7527246,17.140083,-6.770462,-1.2404298,-0.7306641,2.9343383,149.0
20485,2.7527246,17.140083,-6.770462,-1.1565307,-1.2542359,2.71875,149.0
20486,1.9684639,16.601141,-6.5822296,-1.1565307,-1.2542359,2.71875,149.0
20487,1.9684639,16.601141,-6.5822296,-0.7147339,-1.4145997,2.3024414,149.0
20488,2.1799102,15.710857,-6.159149,-0.7147339,-1.4145997,2.3024414,149.0
20489,2.1799102,15.710857,-6.159149,-0.85385746,-1.2489258,1.4262818,149.0
20490,2.9736156,14.016417,-5.7643433,-0.85385746,-1.2489258,1.4262818,149.0
20491,2.9736156,14.016417,-5.7643433,-1.545227,-0.903772,-0.02442627,149.0
20492,3.1053572,11.270042,-5.1796265,-1.545227,-0.903772,-0.02442627,149.0
20493,3.1053572,11.270042,-5.1796265,-2.1919923,-0.67650145,-1.7841797,149.0
20494,2.3544636,7.9311943,-3.9958496,-2.1919923,-0.67650145,-1.7841797,149.0
20495,2.3544636,7.9311943,-3.9958496,-2.3396118,-0.5564942,-3.5237548,149.0
20496,1.385292,4.109873,-1.8560486,-2.3396118,-0.5564942,-3.5237548,149.0
20497,1.385292,4.109873,-1.8560486,-2.0879152,-0.07115479,-4.9224243,149.0
20498,0.5449648,-1.7960129,1.1395111,-2.0879152,-0.07115479,-4.9224243,149.0
20499,0.5449648,-1.7960129,1.1395111,-1.9817139,0.56817627,-5.5861816,149.0
20500,0.026841164,-10.279327,4.4876556,-1.9817139,0.56817627,-5.5861816,149.0
20501,0.026841164,-10.279327,4.4876556,-1.6046997,1.0205933,-5.988684,149.0
20502,-0.16661263,-18.807081,7.42305,-1.6046997,1.0205933,-5.988684,149.0
20503,-0.16661263,-18.807081,7.42305,-1.1023682,1.1225464,-6.3752565,149.0
20504,-1.4461803,-24.938866,9.386948,-1.1023682,1.1225464,-6.3752565,149.0
20505,-1.4461803,-24.938866,9.386948,-2.163318,1.0354614,-6.716162,149.0
20506,-4.574706,-26.377716,9.896545,-2.163318,1.0354614,-6.716162,149.0
20507,-4.574706,-26.377716,9.896545,-2.7399902,0.7943848,-6.000366,149.0
20508,-7.6734,-21.541822,8.376144,-2.7399902,0.7943848,-6.000366,149.0
20509,-7.6734,-21.541822,8.376144,-2.4150147,0.6796875,-4.8650756,149.0
20510,-10.22124,-12.148498,5.0268097,-2.4150147,0.6796875,-4.8650756,149.0
20511,-10.22124,-12.148498,5.0268097,-2.3863404,1.0354614,-4.398853,149.0
20512,-13.519217,-3.1051626,1.10849,-2.3863404,1.0354614,-4.398853,149.0
20513,-13.519217,-3.1051626,1.10849,-1.4655762,1.176709,-4.4859376,149.0
20514,-17.035099,2.4474254,-2.637085,-1.4655762,1.176709,-4.4859376,149.0
20515,-17.035099,2.4474254,-2.637085,-0.9589966,1.1554688,-3.8561647,149.0
20516,-18.667667,5.242669,-5.7181396,-0.9589966,1.1554688,-3.8561647,149.0
20517,-18.667667,5.242669,-5.7181396,-1.0365235,1.0290893,-2.721936,149.0
20518,-17.682205,6.484907,-7.5619965,-1.0365235,1.0290893,-2.721936,149.0
20519,-17.682205,6.484907,-7.5619965,-1.4846925,0.68712157,-1.6588624,149.0
20520,-15.222071,6.3893785,-7.84111,-1.4846925,0.68712157,-1.6588624,149.0
20521,-15.222071,6.3893785,-7.84111,-1.6779785,0.38869628,-0.4991455,149.0
20522,-11.862606,4.409538,-6.421982,-1.6779785,0.38869628,-0.4991455,149.0
20523,-11.862606,4.409538,-6.421982,-0.6531372,0.12213135,1.1331666,149.0
20524,-6.9154263,1.8010311,-3.9230194,-0.6531372,0.12213135,1.1331666,149.0
20525,-6.9154263,1.8010311,-3.9230194,-0.15505372,-0.31966552,2.5775025,149.0
20526,-1.1345997,0.5292158,-1.554657,-0.15505372,-0.31966552,2.5775025,149.0
20527,-1.1345997,0.5292158,-1.554657,-0.45135498,-0.61065674,3.9198854,149.0
20528,3.4324188,0.35059452,-0.20820618,-0.45135498,-0.61065674,3.9198854,149.0
20529,3.4324188,0.35059452,-0.20820618,-0.20072022,-0.814563,4.9712768,149.0
20530,6.1331787,-0.7181692,0.2932129,-0.20072022,-0.814563,4.9712768,149.0
20531,6.1331787,-0.7181692,0.2932129,0.45029297,-0.9409424,6.090637,149.0
20532,7.5670414,-3.45852,1.0892487,0.45029297,-0.9409424,6.090637,149.0
20533,7.5670414,-3.45852,1.0892487,1.0216553,-1.1915772,6.612085,149.0
20534,8.159957,-7.435871,3.0921478,1.0216553,-1.1915772,6.612085,149.0
20535,8.159957,-7.435871,3.0921478,1.7565674,-0.80606693,6.315784,149.0
20536,9.760217,-10.3701935,5.855942,1.7565674,-0.80606693,6.315784,149.0
20537,9.760217,-10.3701935,5.855942,2.9279664,-0.9897949,6.097009,149.0
20538,13.511189,-7.979859,7.317734,2.9279664,-0.9897949,6.097009,149.0
20539,13.511189,-7.979859,7.317734,2.5881226,-1.5462891,5.345105,149.0
20540,14.971439,-0.14938998,5.8114166,2.5881226,-1.5462891,5.345105,149.0
20541,14.971439,-0.14938998,5.8114166,0.8326172,-1.2552979,4.415845,149.0
20542,11.336771,8.155525,2.1369476,0.8326172,-1.2552979,4.415845,149.0
20543,11.336771,8.155525,2.1369476,0.44923097,-1.7416992,3.4218018,149.0
20544,6.4640455,13.730682,-1.5807343,0.44923097,-1.7416992,3.4218018,149.0
20545,6.4640455,13.730682,-1.5807343,-0.11151123,-1.9445435,2.5148437,149.0
20546,3.8427944,16.343334,-3.761078,-0.11151123,-1.9445435,2.5148437,149.0
20547,3.8427944,16.343334,-3.761078,-0.4725952,-1.9402955,1.7693115,149.0
20548,3.3596725,16.494553,-4.268875,-0.4725952,-1.9402955,1.7693115,149.0
20549,3.3596725,16.494553,-4.268875,0.38338622,-1.9233032,1.3253907,149.0
20550,3.5572815,15.633033,-3.7789001,0.38338622,-1.9233032,1.3253907,149.0
20551,3.5572815,15.633033,-3.7789001,1.1151123,-1.6238159,0.82730716,149.0
20552,3.9130738,14.49815,-3.4715118,1.1151123,-1.6238159,0.82730716,149.0
20553,3.9130738,14.49815,-3.4715118,0.79226077,-0.9547486,-0.14655761,149.0
20554,4.487637,12.138046,-3.9248505,0.79226077,-0.9547486,-0.14655761,149.0
20555,4.487637,12.138046,-3.9248505,-0.090270996,-0.3355957,-1.4613281,149.0
20556,4.4858007,8.408081,-4.355484,-0.090270996,-0.3355957,-1.4613281,149.0
20557,4.4858007,8.408081,-4.355484,-0.36427003,0.090270996,-2.5031617,149.0
20558,3.3097467,4.579712,-3.7270355,-0.36427003,0.090270996,-2.5031617,149.0
20559,3.3097467,4.579712,-3.7270355,-0.052038576,0.31116945,-3.163733,149.0
20560,1.5989819,1.0149422,-1.7397919,-0.052038576,0.31116945,-3.163733,149.0
20561,1.5989819,1.0149422,-1.7397919,-0.2793091,0.7412842,-3.61615,149.0
20562,0.3288679,-3.6170998,0.9421234,-0.2793091,0.7412842,-3.61615,149.0
20563,0.3288679,-3.6170998,0.9421234,-0.52038574,1.3147706,-4.0356445,149.0
20564,-0.07856846,-10.7642,3.5152435,-0.52038574,1.3147706,-4.0356445,149.0
20565,-0.07856846,-10.7642,3.5152435,-0.9589966,1.7427613,-4.7302003,149.0
20566,-0.35169744,-18.593647,5.1475067,-0.9589966,1.7427613,-4.7302003,149.0
20567,-0.35169744,-18.593647,5.1475067,-2.1399536,1.9848999,-5.8123903,149.0
20568,-2.5994606,-22.588968,5.7985535,-2.1399536,1.9848999,-5.8123903,149.0
20569,-2.5994606,-22.588968,5.7985535,-1.8808228,1.812854,-5.6201663,149.0
20570,-6.521329,-20.59272,6.200836,-1.8808228,1.812854,-5.6201663,149.0
20571,-6.521329,-20.59272,6.200836,-1.9817139,1.6588624,-4.8448977,149.0
20572,-9.53823,-13.9240055,5.514496,-1.9817139,1.6588624,-4.8448977,149.0
20573,-9.53823,-13.9240055,5.514496,-2.7962768,1.5887696,-4.1099854,149.0
20574,-11.58211,-6.0696244,2.534027,-2.7962768,1.5887696,-4.1099854,149.0
20575,-11.58211,-6.0696244,2.534027,-1.9381714,1.4655762,-3.6076539,149.0
20576,-13.254958,0.62623405,-1.5035858,-1.9381714,1.4655762,-3.6076539,149.0
20577,-13.254958,0.62623405,-1.5035858,-1.1267945,1.3243287,-3.0670898,149.0
20578,-14.008642,5.4151354,-4.2789,-1.1267945,1.3243287,-3.0670898,149.0
20579,-14.008642,5.4151354,-4.2789,-0.7965088,1.1182984,-2.4128907,149.0
20580,-13.202825,7.8450603,-5.2703705,-0.7965088,1.1182984,-2.4128907,149.0
20581,-13.202825,7.8450603,-5.2703705,-0.90802,0.73809814,-1.5983276,149.0
20582,-11.382572,8.236046,-5.0322723,-0.90802,0.73809814,-1.5983276,149.0
20583,-11.382572,8.236046,-5.0322723,-0.93563235,0.20709229,-0.7434082,149.0
20584,-9.347916,7.3303285,-4.0184326,-0.93563235,0.20709229,-0.7434082,149.0
20585,-9.347916,7.3303285,-4.0184326,-0.2814331,-0.16142578,0.4056885,149.0
20586,-6.8293095,5.787236,-2.8070068,-0.2814331,-0.16142578,0.4056885,149.0
20587,-6.8293095,5.787236,-2.8070068,0.0998291,-0.33665773,1.3753052,149.0
20588,-3.6956367,3.5920572,-1.6260986,0.0998291,-0.33665773,1.3753052,149.0
20589,-3.6956367,3.5920572,-1.6260986,0.30373535,-0.40250245,2.3045654,149.0
20590,-0.34577942,0.95708084,-0.5851593,0.30373535,-0.40250245,2.3045654,149.0
20591,-0.34577942,0.95708084,-0.5851593,0.58304447,-0.4619751,3.3400269,149.0
20592,2.6448612,-2.010397,0.2919159,0.58304447,-0.4619751,3.3400269,149.0
20593,2.6448612,-2.010397,0.2919159,0.634021,-0.70198977,4.4126587,149.0
20594,2.6448612,-2.010397,0.2919159,0.634021,-0.70198977,4.4126587,151.0
20595,4.5648518,-5.78084,1.6222229,0.634021,-0.70198977,4.4126587,151.0
20596,4.5648518,-5.78084,1.6222229,0.44498292,-1.0110352,5.352539,151.0
20597,5.211233,-10.512062,3.7716675,0.44498292,-1.0110352,5.352539,151.0
20598,5.211233,-10.512062,3.7716675,1.7778076,-0.83686525,5.368469,151.0
20599,6.788786,-13.964069,5.8507843,1.7778076,-0.83686525,5.368469,151.0
20600,6.788786,-13.964069,5.8507843,2.8185792,-0.67437744,5.433252,151.0
20601,11.030931,-11.817373,6.165436,2.8185792,-0.67437744,5.433252,151.0
20602,11.030931,-11.817373,6.165436,2.3799684,-1.2021973,4.906494,151.0
20603,13.810316,-4.2954636,4.2643433,2.3799684,-1.2021973,4.906494,151.0
20604,13.810316,-4.2954636,4.2643433,0.4725952,-1.2011353,4.0069704,151.0
20605,11.539,3.7543883,1.4656982,0.4725952,-1.2011353,4.0069704,151.0
20606,11.539,3.7543883,1.4656982,0.05522461,-1.7735596,3.2009034,151.0
20607,7.5118885,9.747127,-1.1007996,0.05522461,-1.7735596,3.2009034,151.0
20608,7.5118885,9.747127,-1.1007996,-0.36639404,-2.0942872,2.451123,151.0
20609,5.203822,13.727596,-2.9481964,-0.36639404,-2.0942872,2.451123,151.0
20610,5.203822,13.727596,-2.9481964,-0.9228882,-2.2047365,1.901001,151.0
20611,4.5961757,15.704075,-4.3091125,-0.9228882,-2.2047365,1.901001,151.0
20612,4.5961757,15.704075,-4.3091125,-0.6149048,-2.1548219,1.4761963,151.0
20613,4.6838865,15.588907,-5.264099,-0.6149048,-2.1548219,1.4761963,151.0
20614,4.6838865,15.588907,-5.264099,0.1178833,-1.9445435,1.0694458,151.0
20615,4.8079123,14.18718,-5.1195526,0.1178833,-1.9445435,1.0694458,151.0
20616,4.8079123,14.18718,-5.1195526,0.050976563,-1.2521118,0.13487549,151.0
20617,4.6700363,11.876917,-3.8971252,0.050976563,-1.2521118,0.13487549,151.0
20618,4.6700363,11.876917,-3.8971252,-0.49489745,-0.3802002,-1.170337,151.0
20619,3.8765318,8.760738,-2.5800934,-0.49489745,-0.3802002,-1.170337,151.0
20620,3.8765318,8.760738,-2.5800934,-1.0014771,0.28355715,-2.4160767,151.0
20621,2.4350758,5.7835045,-1.6890869,-1.0014771,0.28355715,-2.4160767,151.0
20622,2.4350758,5.7835045,-1.6890869,-1.1331666,0.61915284,-3.4249878,151.0
20623,0.97108316,3.145235,-0.85220337,-1.1331666,0.61915284,-3.4249878,151.0
20624,0.97108316,3.145235,-0.85220337,-0.9653687,0.7848267,-4.173706,151.0
20625,-0.2349863,-0.33022308,0.64920044,-0.9653687,0.7848267,-4.173706,151.0
20626,-0.2349863,-0.33022308,0.64920044,-0.6223389,1.1979493,-4.7726808,151.0
20627,-0.5907111,-7.550226,3.2242584,-0.6223389,1.1979493,-4.7726808,151.0
20628,-0.5907111,-7.550226,3.2242584,0.5692383,1.7310791,-5.060486,151.0
20629,0.44515562,-17.710407,6.518799,0.5692383,1.7310791,-5.060486,151.0
20630,0.44515562,-17.710407,6.518799,0.7497803,1.5101807,-5.802832,151.0
20631,1.343368,-19.967373,7.0327454,0.7497803,1.5101807,-5.802832,151.0
20632,1.343368,-19.967373,7.0327454,-0.62127686,1.5622193,-5.708313,151.0
20633,0.8851681,-23.914452,8.583771,-0.62127686,1.5622193,-5.708313,151.0
20634,0.8851681,-23.914452,8.583771,-3.1382446,1.7958618,-4.3839846,151.0
20635,0.8851681,-23.914452,8.583771,-3.2210815,2.0135744,-4.134412,151.0
20636,-1.4970903,-19.160858,6.4206085,-3.2210815,2.0135744,-4.134412,151.0
20637,-9.5178995,-7.286109,0.67988586,-3.2210815,2.0135744,-4.134412,151.0
20638,-9.5178995,-7.286109,0.67988586,-2.4702394,1.9307374,-3.9198854,151.0
20639,-10.3325205,-3.1051445,-1.4700012,-2.4702394,1.9307374,-3.9198854,151.0
20640,-10.3325205,-3.1051445,-1.4700012,-1.6854126,1.5813354,-3.720227,151.0
20641,-14.2199955,4.759671,-4.747452,-1.6854126,1.5813354,-3.720227,151.0
20642,-14.2199955,4.759671,-4.747452,-0.88253176,0.8612915,-2.7346802,151.0
20643,-12.249788,5.2842994,-4.476425,-0.88253176,0.8612915,-2.7346802,151.0
20644,-12.249788,5.2842994,-4.476425,-0.8952759,0.56180423,-2.2429688,151.0
20645,-11.85043,7.6866436,-5.0490723,-0.8952759,0.56180423,-2.2429688,151.0
20646,-11.85043,7.6866436,-5.0490723,-0.5872925,-0.3812622,-0.811377,151.0
20647,-10.383957,6.923815,-4.1147003,-0.5872925,-0.3812622,-0.811377,151.0
20648,-10.383957,6.923815,-4.1147003,-0.27293703,-0.5278198,-0.3069214,151.0
20649,-10.522497,6.383339,-2.05159,-0.27293703,-0.5278198,-0.3069214,151.0
20650,-10.522497,6.383339,-2.05159,0.72216797,-0.36851808,1.2797241,151.0
20651,-8.618877,4.8625793,-1.2206726,0.72216797,-0.36851808,1.2797241,151.0
20652,-8.618877,4.8625793,-1.2206726,0.7657105,-0.28780517,1.7809937,151.0
20653,-4.7524757,0.944849,-1.1570435,0.7657105,-0.28780517,1.7809937,151.0
20654,-4.7524757,0.944849,-1.1570435,0.9154541,-0.17947999,3.516321,151.0
20655,-2.2734528,-0.3130417,-1.0218658,0.9154541,-0.17947999,3.516321,151.0
20656,-2.2734528,-0.3130417,-1.0218658,1.0949341,-0.17947999,4.180078,151.0
20657,3.3093624,-5.45484,0.09120178,1.0949341,-0.17947999,4.180078,151.0
20658,3.3093624,-5.45484,0.09120178,1.2106934,-0.30373535,6.1267457,151.0
20659,3.8727474,-5.6835012,0.85295105,1.2106934,-0.30373535,6.1267457,151.0
20660,3.8727474,-5.6835012,0.85295105,1.358313,-0.35152587,6.3922486,151.0
20661,5.4615154,-12.13352,3.7070465,1.358313,-0.35152587,6.3922486,151.0
20662,5.4615154,-12.13352,3.7070465,3.2327638,-0.14337158,6.1724124,151.0
20663,6.5507555,-11.642888,3.940033,3.2327638,-0.14337158,6.1724124,151.0
20664,6.5507555,-11.642888,3.940033,3.161609,-0.2803711,6.1331177,151.0
20665,12.477324,-10.265153,4.518524,3.161609,-0.2803711,6.1331177,151.0
20666,12.477324,-10.265153,4.518524,1.5590333,-1.0428956,5.3323607,151.0
