,accx,accy,accz,gyrox,gyroy,gyroz,heart rate
15739,run,run,run,run,run,run,run
15740,0.2806368,-0.15979004,0.3628235,-0.51826173,-0.4354248,-0.07434082,61.0
15741,0.2806368,-0.15979004,0.3628235,-0.02442627,0.04991455,0.02442627,61.0
15742,0.17085981,-0.04347992,0.3951645,-0.02442627,0.04991455,0.02442627,61.0
15743,0.17085981,-0.04347992,0.3951645,-0.8644776,-0.09664307,-0.37382814,61.0
15744,0.074920654,0.039115906,0.41184616,-0.8644776,-0.09664307,-0.37382814,61.0
15745,0.074920654,0.039115906,0.41184616,-0.7508423,-0.08814698,-0.46834716,61.0
15746,0.55179405,2.156086,-1.6460953,-0.7508423,-0.08814698,-0.46834716,61.0
15747,0.55179405,2.156086,-1.6460953,-0.6435791,-0.118945315,-0.57242435,61.0
15748,0.23938417,1.8512383,-1.0558548,-0.6435791,-0.118945315,-0.57242435,61.0
15749,0.23938417,1.8512383,-1.0558548,-0.7604004,-0.16992188,-0.61278075,61.0
15750,-0.02448368,1.5368271,-0.5206375,-0.7604004,-0.16992188,-0.61278075,61.0
15751,-0.02448368,1.5368271,-0.5206375,-0.7954468,-0.22408448,-0.7434082,61.0
15752,-0.16343498,1.180378,-0.14661407,-0.7954468,-0.22408448,-0.7434082,61.0
15753,-0.16343498,1.180378,-0.14661407,-0.7604004,-0.26868898,-0.75721437,61.0
15754,-0.25807953,0.93424225,0.068473816,-0.7604004,-0.26868898,-0.75721437,61.0
15755,-0.25807953,0.93424225,0.068473816,-0.61278075,-0.28568116,-0.7763306,61.0
15756,-0.4433899,0.8810463,0.16752243,-0.61278075,-0.28568116,-0.7763306,61.0
15757,-0.4433899,0.8810463,0.16752243,-0.56817627,-0.29630128,-0.81243896,61.0
15758,-0.7248411,0.8583412,0.17623138,-0.56817627,-0.29630128,-0.81243896,61.0
15759,-0.7248411,0.8583412,0.17623138,-0.5097656,-0.2888672,-0.813501,61.0
15760,-1.056118,0.77405167,0.1810379,-0.5097656,-0.2888672,-0.813501,61.0
15761,-1.056118,0.77405167,0.1810379,-0.4619751,-0.30479738,-0.89421386,61.0
15762,-1.3074918,0.72008514,0.21865845,-0.4619751,-0.30479738,-0.89421386,61.0
15763,-1.3074918,0.72008514,0.21865845,-0.4619751,-0.32497558,-0.9430664,61.0
15764,-1.3980808,0.6255684,0.17653656,-0.4619751,-0.32497558,-0.9430664,61.0
15765,-1.3980808,0.6255684,0.17653656,-0.5734863,-0.33028564,-0.96643066,61.0
15766,-1.387825,0.37363434,-0.03060913,-0.5734863,-0.33028564,-0.96643066,61.0
15767,-1.387825,0.37363434,-0.03060913,-0.85598147,-0.3334717,-0.9281983,61.0
15768,-1.2682924,-0.17048645,-0.19532776,-0.85598147,-0.3334717,-0.9281983,61.0
15769,-1.2682924,-0.17048645,-0.19532776,-1.2128174,-0.35046387,-0.8241211,61.0
15770,-1.1711035,-0.8190422,-0.14730453,-1.2128174,-0.35046387,-0.8241211,61.0
15771,-1.1711035,-0.8190422,-0.14730453,-0.90908206,-0.3802002,-0.9451904,61.0
15772,-1.1874075,-1.2233124,0.32563782,-0.90908206,-0.3802002,-0.9451904,61.0
15773,-1.1874075,-1.2233124,0.32563782,-0.8028809,-0.45029297,-0.8963379,61.0
15774,-1.1585808,-1.2786636,1.0700912,-0.8028809,-0.45029297,-0.8963379,61.0
15775,-1.1585808,-1.2786636,1.0700912,-0.905896,-0.59472656,-0.93350834,61.0
15776,-1.1585808,-1.2786636,1.0700912,-1.3360108,-0.48640138,-0.9791748,61.0
15777,-0.8870821,-0.97831345,1.6517258,-1.3360108,-0.48640138,-0.9791748,61.0
15778,-0.5124121,-0.7493744,1.9884567,-1.3360108,-0.48640138,-0.9791748,61.0
15779,-0.5124121,-0.7493744,1.9884567,-1.806482,-0.44816896,-0.9197022,61.0
15780,-0.15366745,-0.98856354,2.0811234,-1.806482,-0.44816896,-0.9197022,61.0
15781,-0.15366745,-0.98856354,2.0811234,-2.0178223,-0.31010744,-0.89421386,61.0
15782,0.06333351,-1.5612106,2.077896,-2.0178223,-0.31010744,-0.89421386,61.0
15783,0.06333351,-1.5612106,2.077896,-1.9445435,-0.2262085,-0.93138427,61.0
15784,0.070711136,-2.0115433,2.5337524,-1.9445435,-0.2262085,-0.93138427,61.0
15785,0.070711136,-2.0115433,2.5337524,-2.1144655,-0.17735596,-0.9515625,61.0
15786,-0.045347214,-2.1888733,3.3294296,-2.1144655,-0.17735596,-0.9515625,61.0
15787,-0.045347214,-2.1888733,3.3294296,-2.4755495,-0.012744141,-0.9600586,61.0
15788,-0.22320366,-2.1848755,3.6685371,-2.4755495,-0.012744141,-0.9600586,61.0
15789,-0.22320366,-2.1848755,3.6685371,-2.7357423,0.26337892,-0.9526245,61.0
15790,-0.36459827,-2.0268936,3.1820335,-2.7357423,0.26337892,-0.9526245,61.0
15791,-0.36459827,-2.0268936,3.1820335,-2.7771606,0.47471926,-0.8995239,61.0
15792,-0.4723425,-2.1978073,2.3863754,-2.7771606,0.47471926,-0.8995239,61.0
15793,-0.4723425,-2.1978073,2.3863754,-2.631665,0.7657105,-0.81881106,61.0
15794,-0.8537655,-2.940094,2.179718,-2.631665,0.7657105,-0.81881106,61.0
15795,-0.8537655,-2.940094,2.179718,-2.6890137,0.815625,-1.1119263,61.0
15796,-1.6682787,-3.018959,2.5633278,-2.6890137,0.815625,-1.1119263,61.0
15797,-1.6682787,-3.018959,2.5633278,-2.9736328,0.7423462,-1.6567383,61.0
15798,-2.6263952,-2.0188065,2.7739868,-2.9736328,0.7423462,-1.6567383,61.0
15799,-2.6263952,-2.0188065,2.7739868,-3.08302,0.4715332,-1.360437,61.0
15800,-3.471466,-1.3588676,2.6939468,-3.08302,0.4715332,-1.360437,61.0
15801,-3.471466,-1.3588676,2.6939468,-2.8355713,-0.0031860352,-0.9802368,61.0
15802,-3.471466,-1.3588676,2.6939468,-2.270581,-0.80394286,-1.1490967,61.0
15803,-4.041443,-1.5081635,2.7037888,-2.270581,-0.80394286,-1.1490967,61.0
15804,-3.8532715,-1.6970673,2.5724678,-2.270581,-0.80394286,-1.1490967,61.0
15805,-3.8532715,-1.6970673,2.5724678,-1.7544434,-1.7831177,-1.3115845,61.0
15806,-2.6264772,-1.4279022,1.728775,-1.7544434,-1.7831177,-1.3115845,61.0
15807,-2.6264772,-1.4279022,1.728775,-1.3689331,-2.5859985,-1.447522,61.0
15808,-0.6472759,-0.79343414,0.37794113,-1.3689331,-2.5859985,-1.447522,61.0
15809,-0.6472759,-0.79343414,0.37794113,-1.4836304,-3.3952515,-1.5940796,61.0
15810,1.7304459,-0.23324585,-1.0028343,-1.4836304,-3.3952515,-1.5940796,61.0
15811,1.7304459,-0.23324585,-1.0028343,-1.9742798,-4.0367064,-1.6609863,61.0
15812,4.0739326,0.015342712,-2.1254349,-1.9742798,-4.0367064,-1.6609863,61.0
15813,4.0739326,0.015342712,-2.1254349,-2.72406,-4.258667,-1.5197388,61.0
15814,5.7434845,0.00831604,-2.967659,-2.72406,-4.258667,-1.5197388,61.0
15815,5.7434845,0.00831604,-2.967659,-3.797754,-4.1811404,-1.5770874,61.0
15816,6.2191772,0.09700775,-3.6278648,-3.797754,-4.1811404,-1.5770874,61.0
15817,6.2191772,0.09700775,-3.6278648,-4.9426026,-3.7807617,-1.9519776,61.0
15818,5.6442995,0.10111618,-3.5995483,-4.9426026,-3.7807617,-1.9519776,61.0
15819,5.6442995,0.10111618,-3.5995483,-5.3100586,-3.5099487,-2.2238526,61.0
15820,4.965598,-0.9180107,-2.8563576,-5.3100586,-3.5099487,-2.2238526,61.0
15821,4.965598,-0.9180107,-2.8563576,-4.248047,-3.183911,-2.4128907,61.0
15822,4.7603083,-2.4689064,-2.4551163,-4.248047,-3.183911,-2.4128907,61.0
15823,4.7603083,-2.4689064,-2.4551163,-2.6295412,-2.529712,-3.0012453,61.0
15824,4.633735,-2.689003,-2.8164864,-2.6295412,-2.529712,-3.0012453,61.0
15825,4.633735,-2.689003,-2.8164864,-2.1558838,-1.8871949,-3.6034057,61.0
15826,4.668292,-1.4587326,-3.1382217,-2.1558838,-1.8871949,-3.6034057,61.0
15827,4.668292,-1.4587326,-3.1382217,-3.348523,-1.9424194,-3.972986,61.0
15828,6.0412254,-1.0753479,-3.182785,-3.348523,-1.9424194,-3.972986,61.0
15829,6.0412254,-1.0753479,-3.182785,-5.0997806,-1.8181641,-3.8285522,61.0
15830,7.9735565,-3.1705475,-2.9620476,-5.0997806,-1.8181641,-3.8285522,61.0
15831,7.9735565,-3.1705475,-2.9620476,-5.9260254,-0.903772,-3.7765138,61.0
15832,8.668787,-5.9615326,-1.9878616,-5.9260254,-0.903772,-3.7765138,61.0
15833,8.668787,-5.9615326,-1.9878616,-4.9479127,-1.2149414,-3.7478395,61.0
15834,8.41103,-6.983597,-0.9033394,-4.9479127,-1.2149414,-3.7478395,61.0
15835,8.41103,-6.983597,-0.9033394,-3.2147095,-1.6609863,-3.706421,61.0
15836,8.193022,-6.633217,-0.20194626,-3.2147095,-1.6609863,-3.706421,61.0
15837,8.193022,-6.633217,-0.20194626,-2.5498903,-2.167566,-3.6331422,61.0
15838,8.326036,-5.8825912,0.52830887,-2.5498903,-2.167566,-3.6331422,61.0
15839,8.326036,-5.8825912,0.52830887,-2.0411866,-2.5987427,-4.1195436,61.0
15840,8.241213,-4.847946,1.2049332,-2.0411866,-2.5987427,-4.1195436,61.0
15841,8.241213,-4.847946,1.2049332,-1.893567,-2.618921,-3.9220092,61.0
15842,6.839344,-4.727745,1.0378723,-1.893567,-2.618921,-3.9220092,61.0
15843,6.839344,-4.727745,1.0378723,-3.3708253,-2.156946,-3.606592,61.0
15844,4.469839,-5.415657,0.3511696,-3.3708253,-2.156946,-3.606592,61.0
15845,4.469839,-5.415657,0.3511696,-4.85658,-1.3838013,-3.4940186,61.0
15846,2.162444,-6.3056793,0.04314041,-4.85658,-1.3838013,-3.4940186,61.0
15847,2.162444,-6.3056793,0.04314041,-5.510779,-0.5479981,-2.7899048,61.0
15848,-0.3427372,-8.285721,0.16765594,-5.510779,-0.5479981,-2.7899048,61.0
15849,-0.3427372,-8.285721,0.16765594,-5.065796,0.3069214,-2.3204956,61.0
15850,-3.778304,-10.840782,1.2804604,-5.065796,0.3069214,-2.3204956,61.0
15851,-3.778304,-10.840782,1.2804604,-3.7425294,0.72004396,-2.1250856,61.0
15852,-8.087182,-12.522026,3.601616,-3.7425294,0.72004396,-2.1250856,61.0
15853,-8.087182,-12.522026,3.601616,-1.4645141,0.7678345,-1.6662964,61.0
15854,-12.204927,-12.663834,5.8549767,-1.4645141,0.7678345,-1.6662964,61.0
15855,-12.204927,-12.663834,5.8549767,1.722583,0.28568116,-0.89421386,61.0
15856,-13.8749895,-10.507042,7.2444305,1.722583,0.28568116,-0.89421386,61.0
15857,-13.8749895,-10.507042,7.2444305,4.9203005,-0.7062378,0.081774905,61.0
15858,-11.448844,-5.5305862,7.818409,4.9203005,-0.7062378,0.081774905,61.0
15859,-11.448844,-5.5305862,7.818409,7.5392213,-1.0683838,0.77739257,61.0
15860,-6.086163,1.6740799,7.2349854,7.5392213,-1.0683838,0.77739257,61.0
15861,-6.086163,1.6740799,7.2349854,7.505237,-0.38551027,1.5144287,61.0
15862,-0.78081995,8.791336,5.6055183,7.505237,-0.38551027,1.5144287,61.0
15863,-0.78081995,8.791336,5.6055183,5.0615478,1.0482056,2.0040162,61.0
15864,2.304812,12.364517,3.845829,5.0615478,1.0482056,2.0040162,61.0
15865,2.304812,12.364517,3.845829,2.3789062,1.8415283,2.3119996,61.0
15866,3.9832904,11.230103,2.0569878,2.3789062,1.8415283,2.3119996,61.0
15867,3.9832904,11.230103,2.0569878,1.0036011,1.5250489,2.811145,61.0
15868,7.795556,7.123535,-0.95210266,1.0036011,1.5250489,2.811145,61.0
15869,7.795556,7.123535,-0.95210266,0.29948732,1.7119629,3.268872,61.0
15870,13.741218,2.9560013,-4.6899567,0.29948732,1.7119629,3.268872,61.0
15871,13.741218,2.9560013,-4.6899567,1.0195312,4.6048827,2.442627,61.0
15872,16.020073,1.7619934,-6.45187,1.0195312,4.6048827,2.442627,61.0
15873,16.020073,1.7619934,-6.45187,1.3115845,4.9277344,3.085144,61.0
15874,12.785919,3.3523788,-6.065853,1.3115845,4.9277344,3.085144,61.0
15875,12.785919,3.3523788,-6.065853,0.73597413,4.816223,3.511011,61.0
15876,7.7290535,4.412094,-5.807312,0.73597413,4.816223,3.511011,61.0
15877,7.7290535,4.412094,-5.807312,0.16885987,4.4031005,4.352124,61.0
15878,3.4386997,3.290245,-6.175682,0.16885987,4.4031005,4.352124,61.0
15879,3.4386997,3.290245,-6.175682,0.72960204,3.720227,4.7291384,61.0
15880,0.7666092,2.153923,-6.776165,0.72960204,3.720227,4.7291384,61.0
15881,0.7666092,2.153923,-6.776165,2.6348512,3.085144,4.9500365,61.0
15882,-2.0190372,4.0266647,-7.4079704,2.6348512,3.085144,4.9500365,61.0
15883,-2.0190372,4.0266647,-7.4079704,3.8455446,2.8780518,5.077478,61.0
15884,-6.178914,7.9286804,-7.3064156,3.8455446,2.8780518,5.077478,61.0
15885,-6.178914,7.9286804,-7.3064156,3.0532837,2.541394,4.995703,61.0
15886,-10.39738,11.043602,-6.9851456,3.0532837,2.541394,4.995703,61.0
15887,-10.39738,11.043602,-6.9851456,0.9303223,1.8521484,3.9602418,61.0
15888,-13.500802,12.982658,-6.576275,0.9303223,1.8521484,3.9602418,61.0
15889,-13.500802,12.982658,-6.576275,-0.6573853,1.3699951,2.989563,61.0
15890,-15.220234,13.136917,-4.7394753,-0.6573853,1.3699951,2.989563,61.0
15891,-15.220234,13.136917,-4.7394753,-1.5176147,0.38444826,2.3895264,61.0
15892,-14.890482,10.800526,-1.9851837,-1.5176147,0.38444826,2.3895264,61.0
15893,-14.890482,10.800526,-1.9851837,-1.5229248,-0.7083618,0.5894165,61.0
15894,-11.64803,7.11924,0.36545563,-1.5229248,-0.7083618,0.5894165,61.0
15895,-11.64803,7.11924,0.36545563,-1.8659546,-1.4921265,-1.2223755,61.0
15896,-6.26099,3.1732712,1.6784859,-1.8659546,-1.4921265,-1.2223755,61.0
15897,-6.26099,3.1732712,1.6784859,-2.4065187,-1.8394043,-2.2281005,61.0
15898,-1.4501495,-0.13939667,2.2633095,-2.4065187,-1.8394043,-2.2281005,61.0
15899,-1.4501495,-0.13939667,2.2633095,-2.3704102,-1.5048707,-2.7516725,61.0
15900,0.8548095,-1.7312698,3.079422,-2.3704102,-1.5048707,-2.7516725,61.0
15901,0.8548095,-1.7312698,3.079422,-2.156946,-1.357251,-2.716626,61.0
15902,1.9311011,-2.2094193,3.9508896,-2.156946,-1.357251,-2.716626,61.0
15903,1.9311011,-2.2094193,3.9508896,-2.4787354,-1.8309082,-3.3240967,61.0
15904,4.224983,-3.7207565,3.9455872,-2.4787354,-1.8309082,-3.3240967,61.0
15905,4.224983,-3.7207565,3.9455872,-3.4557862,-2.0348146,-3.7446535,61.0
15906,7.6991396,-6.6037674,3.577942,-3.4557862,-2.0348146,-3.7446535,61.0
15907,7.6991396,-6.6037674,3.577942,-3.8200562,-1.8224121,-5.2983766,61.0
15908,11.007371,-8.679031,3.33247,-3.8200562,-1.8224121,-5.2983766,61.0
15909,11.007371,-8.679031,3.33247,-4.0388308,-1.8776368,-6.129932,61.0
15910,12.968629,-8.746971,2.307953,-4.0388308,-1.8776368,-6.129932,61.0
15911,12.968629,-8.746971,2.307953,-4.2714114,-1.6652344,-6.3805666,61.0
15912,13.47339,-7.814438,0.8274536,-4.2714114,-1.6652344,-6.3805666,61.0
15913,13.47339,-7.814438,0.8274536,-4.0420165,-1.5176147,-6.5388064,61.0
15914,13.176746,-7.1166763,-0.18997955,-4.0420165,-1.5176147,-6.5388064,61.0
15915,13.176746,-7.1166763,-0.18997955,-3.8179321,-1.1427246,-6.1086917,61.0
15916,10.721048,-7.2392197,0.034160614,-3.8179321,-1.1427246,-6.1086917,61.0
15917,10.721048,-7.2392197,0.034160614,-3.254004,-0.8687256,-5.4375,61.0
15918,4.844698,-8.355515,0.74424744,-3.254004,-0.8687256,-5.4375,61.0
15919,4.844698,-8.355515,0.74424744,-2.360852,-0.3812622,-4.415845,61.0
15920,-2.6919298,-10.95829,1.8155289,-2.360852,-0.3812622,-4.415845,61.0
15921,-2.6919298,-10.95829,1.8155289,-1.3190186,-0.10407715,-3.074524,61.0
15922,-8.452873,-12.444351,4.1812057,-1.3190186,-0.10407715,-3.074524,61.0
15923,-8.452873,-12.444351,4.1812057,1.6747925,0.33771974,-2.6125488,61.0
15924,-10.713215,-9.448975,6.731682,1.6747925,0.33771974,-2.6125488,61.0
15925,-10.713215,-9.448975,6.731682,3.4069335,1.0343994,-1.1671509,61.0
15926,-11.47294,-5.196579,8.735981,3.4069335,1.0343994,-1.1671509,61.0
15927,-11.47294,-5.196579,8.735981,2.5966187,2.0687988,-0.03079834,61.0
15928,-12.762202,-2.9316483,9.673515,2.5966187,2.0687988,-0.03079834,61.0
15929,-12.762202,-2.9316483,9.673515,0.82836914,1.627002,-0.032922365,61.0
15930,-12.371786,-2.1650772,8.452789,0.82836914,1.627002,-0.032922365,61.0
15931,-12.371786,-2.1650772,8.452789,-0.4598511,0.20390625,1.3190186,61.0
15932,-7.9824142,-2.6789017,4.8629875,-0.4598511,0.20390625,1.3190186,61.0
15933,-7.9824142,-2.6789017,4.8629875,-0.06159668,0.36427003,1.807544,61.0
15934,-2.5329165,-2.8496552,1.0792923,-0.06159668,0.36427003,1.807544,61.0
15935,-2.5329165,-2.8496552,1.0792923,1.5027466,1.9264892,1.8330323,61.0
15936,0.0740819,-0.9746399,-0.6595154,1.5027466,1.9264892,1.8330323,61.0
15937,0.0740819,-0.9746399,-0.6595154,2.4097047,2.3056276,2.2408447,61.0
15938,0.9695438,1.5646362,-1.0117073,2.4097047,2.3056276,2.2408447,61.0
15939,0.9695438,1.5646362,-1.0117073,2.3767822,1.3668091,2.7368042,61.0
15940,5.6295414,2.5182724,-2.4097328,2.3767822,1.3668091,2.7368042,61.0
15941,5.6295414,2.5182724,-2.4097328,2.0199463,0.8336792,2.8461914,61.0
15942,14.0876665,2.7934036,-5.2632217,2.0199463,0.8336792,2.8461914,61.0
15943,14.0876665,2.7934036,-5.2632217,2.5254638,4.338318,2.1070313,61.0
15944,16.81619,4.3061523,-6.9699516,2.5254638,4.338318,2.1070313,61.0
15945,16.81619,4.3061523,-6.9699516,2.3767822,3.708545,3.7754517,61.0
15946,13.736143,5.459816,-6.912449,2.3767822,3.708545,3.7754517,61.0
15947,13.736143,5.459816,-6.912449,2.0072021,3.7276611,3.5503051,61.0
15948,10.942675,5.4781113,-6.241276,2.0072021,3.7276611,3.5503051,61.0
15949,10.942675,5.4781113,-6.241276,2.974695,3.528003,4.180078,61.0
15950,6.941225,5.389435,-5.742691,2.974695,3.528003,4.180078,61.0
15951,6.941225,5.389435,-5.742691,3.1446168,3.3283448,4.501868,61.0
15952,1.687294,6.3259506,-6.7829742,3.1446168,3.3283448,4.501868,61.0
15953,1.687294,6.3259506,-6.7829742,3.2157714,3.1424928,4.900122,61.0
15954,-3.7270079,9.541801,-7.955223,3.2157714,3.1424928,4.900122,61.0
15955,-3.7270079,9.541801,-7.955223,3.6044679,2.9269044,5.2718263,61.0
15956,-8.304678,12.611641,-6.6045,3.6044679,2.9269044,5.2718263,61.0
15957,-8.304678,12.611641,-6.6045,3.1074464,2.071985,5.418384,61.0
15958,-11.3655815,12.860092,-4.5681114,3.1074464,2.071985,5.418384,61.0
15959,-11.3655815,12.860092,-4.5681114,3.796692,1.1204224,4.0515747,61.0
15960,-13.408615,11.722145,-3.9454193,3.796692,1.1204224,4.0515747,61.0
15961,-13.408615,11.722145,-3.9454193,3.1509888,0.45347902,2.3714721,61.0
15962,-14.503882,11.727005,-3.6425056,3.1509888,0.45347902,2.3714721,61.0
15963,-14.503882,11.727005,-3.6425056,1.5739014,-0.39294434,1.3253907,61.0
15964,-13.78443,11.187973,-2.5785294,1.5739014,-0.39294434,1.3253907,61.0
15965,-13.78443,11.187973,-2.5785294,0.1083252,-0.9228882,0.7593384,61.0
15966,-10.456083,7.644253,-0.8960991,0.1083252,-0.9228882,0.7593384,61.0
15967,-10.456083,7.644253,-0.8960991,0.17947999,-1.3370727,-0.7858887,61.0
15968,-5.2545033,4.0579567,0.3008957,0.17947999,-1.3370727,-0.7858887,61.0
15969,-5.2545033,4.0579567,0.3008957,-0.011682129,-1.1586548,-1.2244996,61.0
15970,-1.034816,2.9659843,0.6004715,-0.011682129,-1.1586548,-1.2244996,61.0
15971,-1.034816,2.9659843,0.6004715,-1.2266235,-0.5586182,-0.68287355,61.0
15972,-0.32262802,2.639145,0.8662033,-1.2266235,-0.5586182,-0.68287355,61.0
15973,-0.32262802,2.639145,0.8662033,-2.270581,-0.29417726,-0.55543214,61.0
15974,-1.7171359,1.4629898,2.0090523,-2.270581,-0.29417726,-0.55543214,61.0
15975,-1.7171359,1.4629898,2.0090523,-2.447937,-0.6786255,-1.3668091,61.0
15976,-0.4172635,-0.38749313,3.645668,-2.447937,-0.6786255,-1.3668091,61.0
15977,-0.4172635,-0.38749313,3.645668,-2.9205322,-1.7034668,-2.8408813,61.0
15978,-0.4172635,-0.38749313,3.645668,-2.9205322,-1.7034668,-2.8408813,0.0
15979,5.619656,-2.5326385,3.588543,-2.9205322,-1.7034668,-2.8408813,0.0
15980,5.619656,-2.5326385,3.588543,-4.0409546,-1.3285767,-2.6465333,0.0
15981,11.318907,-5.4863663,2.6327362,-4.0409546,-1.3285767,-2.6465333,0.0
15982,11.318907,-5.4863663,2.6327362,-5.3769655,-1.1076783,-3.347461,0.0
15983,12.917954,-8.664276,2.5616798,-5.3769655,-1.1076783,-3.347461,0.0
15984,12.917954,-8.664276,2.5616798,-6.6758056,-1.5208008,-4.608069,0.0
15985,11.876808,-9.907875,2.1877975,-6.6758056,-1.5208008,-4.608069,0.0
15986,11.876808,-9.907875,2.1877975,-7.1430907,-1.3243287,-4.9309206,0.0
15987,10.20091,-9.272537,1.3106995,-7.1430907,-1.3243287,-4.9309206,0.0
15988,10.20091,-9.272537,1.3106995,-7.3077025,-1.2319336,-5.338733,0.0
15989,8.72473,-8.357201,0.69142914,-7.3077025,-1.2319336,-5.338733,0.0
15990,8.72473,-8.357201,0.69142914,-7.033704,-1.2181275,-5.2877564,0.0
15991,6.7850447,-8.402519,0.82360077,-7.033704,-1.2181275,-5.2877564,0.0
15992,6.7850447,-8.402519,0.82360077,-5.980188,-1.1437867,-5.126331,0.0
15993,4.0901203,-9.808235,0.96305466,-5.980188,-1.1437867,-5.126331,0.0
15994,4.0901203,-9.808235,0.96305466,-4.2172484,-0.7519043,-5.0562377,0.0
15995,0.7944231,-12.080124,0.12748718,-4.2172484,-0.7519043,-5.0562377,0.0
15996,0.7944231,-12.080124,0.12748718,-2.7644165,0.083898924,-4.72489,0.0
15997,-3.3681602,-13.517418,-0.54099274,-2.7644165,0.083898924,-4.72489,0.0
15998,-3.3681602,-13.517418,-0.54099274,-1.983838,0.90908206,-4.032459,0.0
15999,-7.8161345,-13.135345,2.3146896,-1.983838,0.90908206,-4.032459,0.0
16000,-7.8161345,-13.135345,2.3146896,0.29205322,1.4953126,-3.5035768,0.0
16001,-11.177298,-10.841087,7.260933,0.29205322,1.4953126,-3.5035768,0.0
16002,-11.177298,-10.841087,7.260933,1.2213135,1.7374512,-2.4128907,0.0
16003,-12.948771,-8.474396,9.495697,1.2213135,1.7374512,-2.4128907,0.0
16004,-12.948771,-8.474396,9.495697,-0.14868164,1.2924683,-1.0906861,0.0
16005,-12.768612,-9.628525,7.959339,-0.14868164,1.2924683,-1.0906861,0.0
16006,-12.768612,-9.628525,7.959339,-0.04141846,0.38763428,-0.0361084,0.0
16007,-9.622251,-12.809631,4.089508,-0.04141846,0.38763428,-0.0361084,0.0
16008,-9.622251,-12.809631,4.089508,2.5010376,0.4258667,0.19434814,0.0
16009,-4.9810405,-12.442589,0.62327576,2.5010376,0.4258667,0.19434814,0.0
16010,-4.9810405,-12.442589,0.62327576,4.7737427,1.4645141,0.67650145,0.0
16011,-1.5820005,-6.9972534,-0.1582756,4.7737427,1.4645141,0.67650145,0.0
16012,-1.5820005,-6.9972534,-0.1582756,5.2973146,1.8755127,1.7969239,0.0
16013,0.6357057,-0.29502106,0.77282715,5.2973146,1.8755127,1.7969239,0.0
16014,0.6357057,-0.29502106,0.77282715,4.36593,1.6546143,3.0352294,0.0
16015,4.945259,3.0716248,0.037620544,4.36593,1.6546143,3.0352294,0.0
16016,4.945259,3.0716248,0.037620544,3.4876466,0.99298096,4.084497,0.0
16017,14.234064,2.853897,-4.671051,3.4876466,0.99298096,4.084497,0.0
16018,14.234064,2.853897,-4.671051,3.6734986,3.8338623,3.3867555,0.0
16019,21.872957,4.3208923,-10.504112,3.6734986,3.8338623,3.3867555,0.0
16020,21.872957,4.3208923,-10.504112,3.787134,4.963843,4.71427,0.0
16021,21.71553,8.838051,-13.169552,3.787134,4.963843,4.71427,0.0
16022,21.71553,8.838051,-13.169552,2.6061769,4.8321533,5.878235,0.0
16023,16.586864,12.258087,-11.831245,2.6061769,4.8321533,5.878235,0.0
16024,16.586864,12.258087,-11.831245,2.8684938,3.6936767,7.240796,0.0
16025,10.724899,12.102921,-7.8317795,2.8684938,3.6936767,7.240796,0.0
16026,10.724899,12.102921,-7.8317795,2.9821289,2.619983,8.030932,0.0
16027,7.8137817,10.426346,-3.8954277,2.9821289,2.619983,8.030932,0.0
16028,7.8137817,10.426346,-3.8954277,3.0893922,1.3083985,8.644775,0.0
16029,7.170204,10.51815,-2.91008,3.0893922,1.3083985,8.644775,0.0
16030,7.170204,10.51815,-2.91008,3.2879884,0.6180908,9.04834,0.0
16031,4.8586006,12.841507,-4.884716,3.2879884,0.6180908,9.04834,0.0
16032,4.8586006,12.841507,-4.884716,3.3888795,0.6202149,9.112061,0.0
16033,-0.7960663,15.280258,-5.7360916,3.3888795,0.6202149,9.112061,0.0
16034,-0.7960663,15.280258,-5.7360916,3.4833984,0.7317261,8.996302,0.0
16035,-7.4840336,16.854042,-3.413128,3.4833984,0.7317261,8.996302,0.0
16036,-7.4840336,16.854042,-3.413128,4.783301,0.21346436,7.456384,0.0
16037,-12.880503,19.359734,-0.60100937,4.783301,0.21346436,7.456384,0.0
16038,-12.880503,19.359734,-0.60100937,5.607422,-0.12850343,5.7316775,0.0
16039,-16.693514,22.922089,0.67401505,5.607422,-0.12850343,5.7316775,0.0
16040,-16.693514,22.922089,0.67401505,4.7684326,-0.7827026,4.173706,0.0
16041,-18.424013,23.7005,1.3120499,4.7684326,-0.7827026,4.173706,0.0
16042,-18.424013,23.7005,1.3120499,2.5881226,-2.1781862,2.430945,0.0
16043,-16.127577,18.859802,2.6576004,2.5881226,-2.1781862,2.430945,0.0
16044,-16.127577,18.859802,2.6576004,1.2563599,-3.4982667,-0.35895997,0.0
16045,-9.333849,11.161709,3.9668388,1.2563599,-3.4982667,-0.35895997,0.0
16046,-9.333849,11.161709,3.9668388,0.89102787,-4.0186524,-1.8553345,0.0
16047,-2.0477433,4.9575768,4.1023903,0.89102787,-4.0186524,-1.8553345,0.0
16048,-2.0477433,4.9575768,4.1023903,0.20921631,-3.4589722,-2.6475952,0.0
16049,1.297401,1.4338951,3.38937,0.20921631,-3.4589722,-2.6475952,0.0
16050,1.297401,1.4338951,3.38937,-1.0407715,-2.6497192,-3.2083375,0.0
16051,0.6577816,-0.7887955,2.746811,-1.0407715,-2.6497192,-3.2083375,0.0
16052,0.6577816,-0.7887955,2.746811,-2.1006591,-1.9307374,-3.6904907,0.0
16053,-0.5669265,-2.8061676,2.385437,-2.1006591,-1.9307374,-3.6904907,0.0
16054,-0.5669265,-2.8061676,2.385437,-3.068152,-1.6960328,-4.3616824,0.0
16055,1.6703238,-5.0624733,1.6675034,-3.068152,-1.6960328,-4.3616824,0.0
16056,1.6703238,-5.0624733,1.6675034,-4.3680544,-1.6386842,-4.809851,0.0
16057,7.407243,-7.9537506,0.12246704,-4.3680544,-1.6386842,-4.809851,0.0
16058,7.407243,-7.9537506,0.12246704,-5.4778566,0.28461915,-4.9500365,0.0
16059,10.8110485,-10.95232,-0.46432877,-5.4778566,0.28461915,-4.9500365,0.0
16060,10.8110485,-10.95232,-0.46432877,-5.619104,0.90270996,-5.6477785,0.0
16061,10.697716,-13.302116,0.91194916,-5.619104,0.90270996,-5.6477785,0.0
16062,10.697716,-13.302116,0.91194916,-5.136951,0.5299439,-6.723596,0.0
16063,9.424824,-14.484467,3.0799484,-5.136951,0.5299439,-6.723596,0.0
16064,9.424824,-14.484467,3.0799484,-3.9559937,-0.65632325,-7.224866,0.0
16065,6.7226715,-14.044106,4.070858,-3.9559937,-0.65632325,-7.224866,0.0
16066,6.7226715,-14.044106,4.070858,-3.7775757,-1.7682495,-7.5604615,0.0
16067,3.3141365,-11.80201,2.526146,-3.7775757,-1.7682495,-7.5604615,0.0
16068,3.3141365,-11.80201,2.526146,-4.985083,-2.5445802,-6.8839602,0.0
16069,0.20517921,-9.690193,0.2537918,-4.985083,-2.5445802,-6.8839602,0.0
16070,0.20517921,-9.690193,0.2537918,-4.1216674,-2.4744873,-5.989746,0.0
16071,-2.4247112,-11.101471,-0.03834915,-4.1216674,-2.4744873,-5.989746,0.0
16072,-2.4247112,-11.101471,-0.03834915,-0.51826173,-2.35979,-5.149695,0.0
16073,-5.456517,-15.989906,1.9797668,-0.51826173,-2.35979,-5.149695,0.0
16074,-5.456517,-15.989906,1.9797668,2.1898682,-1.7385132,-4.5624022,0.0
16075,-9.901054,-21.502426,5.145691,2.1898682,-1.7385132,-4.5624022,0.0
16076,-9.901054,-21.502426,5.145691,2.4946656,-0.75615233,-3.6894288,0.0
16077,-14.759931,-22.567795,8.764427,2.4946656,-0.75615233,-3.6894288,0.0
16078,-14.759931,-22.567795,8.764427,3.5789795,0.36745605,-2.9173462,0.0
16079,-16.623264,-15.265915,11.833847,3.5789795,0.36745605,-2.9173462,0.0
16080,-16.623264,-15.265915,11.833847,3.612964,0.023364259,0.3717041,0.0
16081,-14.758426,-5.708481,12.964355,3.612964,0.023364259,0.3717041,0.0
16082,-14.758426,-5.708481,12.964355,3.2380738,-0.37595215,2.6019287,0.0
16083,-10.51968,-0.36473083,11.354858,3.2380738,-0.37595215,2.6019287,0.0
16084,-10.51968,-0.36473083,11.354858,3.0288575,-0.65632325,3.5853517,0.0
16085,-5.043454,1.7829819,7.1150513,3.0288575,-0.65632325,3.5853517,0.0
16086,-5.043454,1.7829819,7.1150513,3.3039186,-0.24001466,4.009094,0.0
16087,0.011098385,2.9814606,1.7674332,3.3039186,-0.24001466,4.009094,0.0
16088,0.011098385,2.9814606,1.7674332,4.0452027,0.25913087,3.705359,0.0
16089,3.7838056,4.7366333,-2.9948692,4.0452027,0.25913087,3.705359,0.0
16090,3.7838056,4.7366333,-2.9948692,4.873572,0.5851685,3.4589722,0.0
16091,7.905829,6.9809875,-7.2337723,4.873572,0.5851685,3.4589722,0.0
16092,7.905829,6.9809875,-7.2337723,5.165625,-0.0998291,2.526526,0.0
16093,14.951446,9.623947,-11.896053,5.165625,-0.0998291,2.526526,0.0
16094,14.951446,9.623947,-11.896053,6.0332885,2.7782228,2.0581787,0.0
16095,21.04486,12.315773,-14.653915,6.0332885,2.7782228,2.0581787,0.0
16096,21.04486,12.315773,-14.653915,6.628015,6.497388,2.6125488,0.0
16097,19.765236,13.743118,-12.855309,6.628015,6.497388,2.6125488,0.0
16098,19.765236,13.743118,-12.855309,6.0046144,6.8499756,3.5503051,0.0
16099,13.638947,12.577164,-8.868095,6.0046144,6.8499756,3.5503051,0.0
16100,13.638947,12.577164,-8.868095,5.060486,6.256311,4.4753175,0.0
16101,8.923878,9.391373,-6.6071205,5.060486,6.256311,4.4753175,0.0
16102,8.923878,9.391373,-6.6071205,3.8328004,4.970215,5.517151,0.0
16103,6.27969,6.663498,-7.4208984,3.8328004,4.970215,5.517151,0.0
16104,6.27969,6.663498,-7.4208984,3.1138184,4.1981325,6.3200316,0.0
16105,3.4666595,5.366577,-9.126854,3.1138184,4.1981325,6.3200316,0.0
16106,3.4666595,5.366577,-9.126854,2.6762695,3.6809328,6.797937,0.0
16107,0.1190052,4.8295517,-9.201851,2.6762695,3.6809328,6.797937,0.0
16108,0.1190052,4.8295517,-9.201851,2.1144655,3.812622,6.9455566,0.0
16109,-3.680687,6.032303,-7.4291306,2.1144655,3.812622,6.9455566,0.0
16110,-3.680687,6.032303,-7.4291306,2.1452637,3.7680175,6.687488,0.0
16111,-8.404047,9.158302,-5.4175606,2.1452637,3.7680175,6.687488,0.0
16112,-8.404047,9.158302,-5.4175606,1.9456055,3.0437257,6.067273,0.0
16113,-9.492245,9.988556,-4.660759,1.9456055,3.0437257,6.067273,0.0
16114,-9.492245,9.988556,-4.660759,1.1639649,2.6635253,5.493787,0.0
16115,-17.445797,18.113914,-6.146309,1.1639649,2.6635253,5.493787,0.0
16116,-17.445797,18.113914,-6.146309,-2.1017213,0.39613038,4.0059085,0.0
16117,-17.445797,18.113914,-6.146309,-2.1017213,0.39613038,4.0059085,0.0
16118,-15.996849,16.943146,-4.585907,-2.1017213,0.39613038,4.0059085,0.0
16119,-15.996849,16.943146,-4.585907,-2.6401613,-1.1342286,3.2370117,0.0
16120,-11.686615,12.770203,0.3136959,-2.6401613,-1.1342286,3.2370117,0.0
16121,-11.686615,12.770203,0.3136959,-1.8606446,-3.6586304,-0.90695804,0.0
16122,-6.1869264,7.3864517,1.7780685,-1.8606446,-3.6586304,-0.90695804,0.0
16123,-6.1869264,7.3864517,1.7780685,-1.722583,-4.171582,-1.81604,0.0
16124,5.1433425,-2.2935715,3.6208305,-1.722583,-4.171582,-1.81604,0.0
16125,5.1433425,-2.2935715,3.6208305,-0.9218262,-3.1063843,-3.620398,0.0
16126,5.129921,-2.682476,3.1740437,-0.9218262,-3.1063843,-3.620398,0.0
16127,5.129921,-2.682476,3.1740437,-0.90695804,-3.003369,-4.0855594,0.0
16128,4.747345,-1.9489136,3.6984253,-0.90695804,-3.003369,-4.0855594,0.0
16129,4.747345,-1.9489136,3.6984253,-2.3746583,-4.069629,-5.075354,0.0
16130,4.4164305,-1.8402443,3.3478508,-2.3746583,-4.069629,-5.075354,0.0
16131,4.4164305,-1.8402443,3.3478508,-3.2295778,-3.6416383,-5.063672,0.0
16132,9.516274,-5.398918,3.0475044,-3.2295778,-3.6416383,-5.063672,0.0
16133,9.516274,-5.398918,3.0475044,-4.791797,-2.6943238,-6.058777,0.0
16134,8.89029,-5.880863,3.2643814,-4.791797,-2.6943238,-6.058777,0.0
16135,8.89029,-5.880863,3.2643814,-5.081726,-2.5838745,-6.3922486,0.0
16136,11.330994,-6.25634,3.940876,-5.081726,-2.5838745,-6.3922486,0.0
16137,11.330994,-6.25634,3.940876,-7.514795,-2.9704468,-6.863782,0.0
16138,10.093128,-5.874588,4.5708046,-7.514795,-2.9704468,-6.863782,0.0
16139,10.093128,-5.874588,4.5708046,-9.054712,-3.0139892,-6.908386,0.0
16140,11.084476,-7.761097,4.9421196,-9.054712,-3.0139892,-6.908386,0.0
16141,11.084476,-7.761097,4.9421196,-13.163635,-1.897815,-6.508008,0.0
16142,8.421585,-9.550858,3.9087372,-13.163635,-1.897815,-6.508008,0.0
16143,8.421585,-9.550858,3.9087372,-13.173194,-1.1321045,-6.059839,0.0
16144,-0.5975952,-19.42611,-1.4114609,-13.173194,-1.1321045,-6.059839,0.0
16145,-0.5975952,-19.42611,-1.4114609,-8.5651245,2.1983643,-2.8260133,0.0
16146,-5.7424564,-21.511383,-1.6256676,-8.5651245,2.1983643,-2.8260133,0.0
16147,-5.7424564,-21.511383,-1.6256676,-6.053467,3.1276245,-2.160132,0.0
16148,-16.440487,-21.759842,2.7877579,-6.053467,3.1276245,-2.160132,0.0
16149,-16.440487,-21.759842,2.7877579,0.24001466,2.5488281,-2.1484497,0.0
16150,-22.361973,-12.561295,8.944233,0.24001466,2.5488281,-2.1484497,0.0
16151,-22.361973,-12.561295,8.944233,0.57454836,0.49489745,-0.7306641,0.0
16152,-22.636429,-5.9206696,9.251553,0.57454836,0.49489745,-0.7306641,0.0
16153,-22.636429,-5.9206696,9.251553,-3.3941896,0.7083618,-1.0057251,0.0
16154,-20.117933,-6.1460953,4.463764,-3.3941896,0.7083618,-1.0057251,0.0
16155,-20.117933,-6.1460953,4.463764,-5.8474364,0.43754885,-1.0142212,0.0
16156,-15.299656,-11.022087,-1.2464676,-5.8474364,0.43754885,-1.0142212,0.0
16157,-15.299656,-11.022087,-1.2464676,-0.41312256,-0.51826173,1.2393677,0.0
16158,-11.134403,-9.796478,-1.5138626,-0.41312256,-0.51826173,1.2393677,0.0
16159,-11.134403,-9.796478,-1.5138626,2.0709229,-0.8230591,1.8606446,0.0
16160,-5.748685,-5.3800354,-0.17414093,2.0709229,-0.8230591,1.8606446,0.0
16161,-5.748685,-5.3800354,-0.17414093,3.521631,-1.1172364,2.8313234,0.0
16162,-3.6554785,-1.6165771,0.77345276,3.521631,-1.1172364,2.8313234,0.0
16163,-3.6554785,-1.6165771,0.77345276,3.25188,-1.1873292,3.2168336,0.0
16164,-0.6532893,3.1181946,1.837059,3.25188,-1.1873292,3.2168336,0.0
16165,-0.6532893,3.1181946,1.837059,3.1127565,-1.5685914,4.0282106,0.0
16166,3.829383,4.817795,1.4098053,3.1127565,-1.5685914,4.0282106,0.0
16167,3.829383,4.817795,1.4098053,3.6819947,-2.895044,4.6271853,0.0
16168,11.293511,4.233032,-0.7589607,3.6819947,-2.895044,4.6271853,0.0
16169,11.293511,4.233032,-0.7589607,4.7440066,-3.4876466,4.14928,0.0
16170,20.661604,4.9151306,-3.9909706,4.7440066,-3.4876466,4.14928,0.0
16171,20.661604,4.9151306,-3.9909706,5.8304443,-0.86766356,4.2331786,0.0
16172,25.25581,8.293068,-5.873905,5.8304443,-0.86766356,4.2331786,0.0
16173,25.25581,8.293068,-5.873905,4.900122,0.16885987,5.640344,0.0
16174,21.98165,11.198166,-5.470024,4.900122,0.16885987,5.640344,0.0
16175,21.98165,11.198166,-5.470024,3.9262574,-0.16461182,6.430481,0.0
16176,15.9218445,11.255707,-3.9384346,3.9262574,-0.16461182,6.430481,0.0
16177,15.9218445,11.255707,-3.9384346,3.4802125,-0.67650145,7.0974245,0.0
16178,11.162989,9.3246,-2.7797012,3.4802125,-0.67650145,7.0974245,0.0
16179,11.162989,9.3246,-2.7797012,3.6480103,-1.3158325,7.440454,0.0
16180,7.6329193,8.300369,-2.815155,3.6480103,-1.3158325,7.440454,0.0
16181,7.6329193,8.300369,-2.815155,4.86189,-1.5420411,7.0814943,0.0
16182,3.1572018,10.283531,-3.3550034,4.86189,-1.5420411,7.0814943,0.0
16183,3.1572018,10.283531,-3.3550034,5.8623047,-1.2032593,6.3603883,0.0
16184,-2.3269367,14.223831,-3.2466125,5.8623047,-1.2032593,6.3603883,0.0
16185,-2.3269367,14.223831,-3.2466125,4.8448977,-0.88996583,5.0339355,0.0
16186,-8.09955,19.917397,-1.9597511,4.8448977,-0.88996583,5.0339355,0.0
16187,-8.09955,19.917397,-1.9597511,3.623584,0.20921631,4.145032,0.0
16188,-13.207216,23.556232,0.89770126,3.623584,0.20921631,4.145032,0.0
16189,-13.207216,23.556232,0.89770126,0.32816163,-1.5622193,3.170105,0.0
16190,-14.422035,19.477943,3.7351036,0.32816163,-1.5622193,3.170105,0.0
16191,-14.422035,19.477943,3.7351036,-1.176709,-3.3697631,0.021240234,0.0
16192,-9.725787,10.434746,4.102257,-1.176709,-3.3697631,0.021240234,0.0
16193,-9.725787,10.434746,4.102257,-0.66269535,-3.355957,-2.7644165,0.0
16194,-9.725787,10.434746,4.102257,0.11469727,-2.2769532,-3.341089,0.0
16195,-2.8810816,3.525177,2.2209282,0.11469727,-2.2769532,-3.341089,0.0
16196,1.034441,1.2218018,-0.1834259,0.11469727,-2.2769532,-3.341089,0.0
16197,1.034441,1.2218018,-0.1834259,-0.115759276,-1.0004151,-3.358081,0.0
16198,1.0200691,0.7603493,-1.4249153,-0.115759276,-1.0004151,-3.358081,0.0
16199,1.0200691,0.7603493,-1.4249153,-1.5473511,-0.046728518,-3.4802125,0.0
16200,-0.48312664,-0.3562088,-0.6166649,-1.5473511,-0.046728518,-3.4802125,0.0
16201,-0.48312664,-0.3562088,-0.6166649,-3.2189577,0.19753419,-3.6936767,0.0
16202,-0.24765873,-2.4589386,1.0304604,-3.2189577,0.19753419,-3.6936767,0.0
16203,-0.24765873,-2.4589386,1.0304604,-4.3563724,-0.10089111,-4.066443,0.0
16204,3.4172535,-5.340576,1.2787743,-4.3563724,-0.10089111,-4.066443,0.0
16205,3.4172535,-5.340576,1.2787743,-5.1804934,0.7083618,-4.4625735,0.0
16206,7.438307,-8.810852,0.5863838,-5.1804934,0.7083618,-4.4625735,0.0
16207,7.438307,-8.810852,0.5863838,-5.5022826,1.4868164,-5.4343143,0.0
16208,8.996618,-11.239014,0.022830963,-5.5022826,1.4868164,-5.4343143,0.0
16209,8.996618,-11.239014,0.022830963,-5.8123903,1.5632813,-6.251001,0.0
16210,8.033085,-10.598755,-0.52632904,-5.8123903,1.5632813,-6.251001,0.0
16211,8.033085,-10.598755,-0.52632904,-5.6573367,1.9636596,-6.5908446,0.0
16212,4.6779575,-8.137291,-0.44704056,-5.6573367,1.9636596,-6.5908446,0.0
16213,4.6779575,-8.137291,-0.44704056,-6.34021,1.5877075,-6.158606,0.0
16214,0.9665241,-6.9238434,0.17891693,-6.34021,1.5877075,-6.158606,0.0
16215,0.9665241,-6.9238434,0.17891693,-7.8280883,1.1533448,-6.0938234,0.0
16216,-0.64222145,-9.235168,0.6446724,-7.8280883,1.1533448,-6.0938234,0.0
16217,-0.64222145,-9.235168,0.6446724,-8.482287,0.6945557,-5.961072,0.0
16218,-1.7897778,-16.535355,-0.9515114,-8.482287,0.6945557,-5.961072,0.0
16219,-1.7897778,-16.535355,-0.9515114,-7.3756714,1.2085694,-4.2873416,0.0
16220,-7.5984,-24.280502,-2.352127,-7.3756714,1.2085694,-4.2873416,0.0
16221,-7.5984,-24.280502,-2.352127,-2.7314942,3.256128,-2.9449584,0.0
16222,-16.475193,-22.790077,3.0657845,-2.7314942,3.256128,-2.9449584,0.0
16223,-16.475193,-22.790077,3.0657845,3.6873047,0.98236084,-1.9594116,0.0
16224,-16.475193,-22.790077,3.0657845,3.6873047,0.98236084,-1.9594116,0.0
16225,-20.570059,-14.96608,10.598122,3.6873047,0.98236084,-1.9594116,0.0
16226,-20.570059,-14.96608,10.598122,1.7693115,-0.85385746,-0.050976563,0.0
16227,-18.400946,-9.664253,11.839886,1.7693115,-0.85385746,-0.050976563,0.0
16228,-18.400946,-9.664253,11.839886,0.6786255,-0.635083,0.26762697,0.0
16229,-14.052849,-6.8719025,8.308678,0.6786255,-0.635083,0.26762697,0.0
16230,-14.052849,-6.8719025,8.308678,0.6425171,-0.19753419,1.44115,0.0
16231,-9.990509,-4.3322906,4.6250305,0.6425171,-0.19753419,1.44115,0.0
16232,-9.990509,-4.3322906,4.6250305,0.2166504,-0.18160401,2.6603394,0.0
16233,-6.110693,-2.0501328,3.1141968,0.2166504,-0.18160401,2.6603394,0.0
16234,-6.110693,-2.0501328,3.1141968,0.91014403,0.027612304,3.5120728,0.0
16235,-2.6485643,0.10248566,2.8743553,0.91014403,0.027612304,3.5120728,0.0
16236,-2.6485643,0.10248566,2.8743553,2.2036743,0.057348635,3.8317382,0.0
16237,0.40669823,2.7294998,2.1907806,2.2036743,0.057348635,3.8317382,0.0
16238,0.40669823,2.7294998,2.1907806,2.9215944,-0.65207523,4.635681,0.0
16239,5.3623705,4.5255966,-0.23765945,2.9215944,-0.65207523,4.635681,0.0
16240,5.3623705,4.5255966,-0.23765945,3.4164917,-1.6885986,5.144385,0.0
16241,14.520451,5.283615,-4.6359177,3.4164917,-1.6885986,5.144385,0.0
16242,14.520451,5.283615,-4.6359177,3.8720949,0.8995239,4.2437987,0.0
16243,21.296843,7.8199463,-7.4376297,3.8720949,0.8995239,4.2437987,0.0
16244,21.296843,7.8199463,-7.4376297,3.4844606,1.536731,4.9447265,0.0
16245,19.917345,10.716507,-6.6715508,3.4844606,1.536731,4.9447265,0.0
16246,19.917345,10.716507,-6.6715508,1.6970948,0.9154541,5.6371584,0.0
16247,14.986477,10.766411,-4.6844673,1.6970948,0.9154541,5.6371584,0.0
16248,14.986477,10.766411,-4.6844673,1.4220337,0.16992188,5.8442507,0.0
16249,10.139683,8.850166,-3.11895,1.4220337,0.16992188,5.8442507,0.0
16250,10.139683,8.850166,-3.11895,2.156946,-0.8336792,6.084265,0.0
16251,6.7149944,7.129959,-3.3896904,2.156946,-0.8336792,6.084265,0.0
16252,6.7149944,7.129959,-3.3896904,4.259729,-1.5622193,5.6753907,0.0
16253,4.319298,7.8234634,-5.339878,4.259729,-1.5622193,5.6753907,0.0
16254,4.319298,7.8234634,-5.339878,7.2068114,-1.7512573,5.430066,0.0
16255,1.04035,11.62043,-6.976555,7.2068114,-1.7512573,5.430066,0.0
16256,1.04035,11.62043,-6.976555,9.447657,-1.6896607,4.9160523,0.0
16257,-3.1542683,16.204216,-7.521721,9.447657,-1.6896607,4.9160523,0.0
16258,-3.1542683,16.204216,-7.521721,9.229944,-1.2903442,4.2607913,0.0
16259,-7.7471085,19.195087,-6.498226,9.229944,-1.2903442,4.2607913,0.0
16260,-7.7471085,19.195087,-6.498226,5.624414,-1.2160034,2.642285,0.0
16261,-11.430439,18.935623,-3.7645226,5.624414,-1.2160034,2.642285,0.0
16262,-11.430439,18.935623,-3.7645226,1.3710572,-2.0964112,1.7905518,0.0
16263,-12.102787,13.683826,-0.9953346,1.3710572,-2.0964112,1.7905518,0.0
16264,-12.102787,13.683826,-0.9953346,-0.71154785,-2.6709595,-0.07965088,0.0
16265,-9.049601,6.4713287,0.25060654,-0.71154785,-2.6709595,-0.07965088,0.0
16266,-9.049601,6.4713287,0.25060654,-0.81881106,-2.819641,-1.4868164,0.0
16267,-4.050252,2.3087273,-0.05009079,-0.81881106,-2.819641,-1.4868164,0.0
16268,-4.050252,2.3087273,-0.05009079,-1.1066163,-2.4946656,-1.357251,0.0
16269,-0.09956455,1.4647179,-1.1781807,-1.1066163,-2.4946656,-1.357251,0.0
16270,-0.09956455,1.4647179,-1.1781807,-1.8521484,-1.6439942,-1.2457398,0.0
16271,0.887609,1.5307007,-1.3290062,-1.8521484,-1.6439942,-1.2457398,0.0
16272,0.887609,1.5307007,-1.3290062,-2.5796266,-0.77951664,-1.2945923,0.0
16273,-0.24519825,1.1468506,0.53606415,-2.5796266,-0.77951664,-1.2945923,0.0
16274,-0.24519825,1.1468506,0.53606415,-2.9991212,-0.8326172,-1.8043579,0.0
16275,-0.015225887,-0.011192322,2.9093819,-2.9991212,-0.8326172,-1.8043579,0.0
16276,-0.015225887,-0.011192322,2.9093819,-3.2232056,-1.170337,-2.8886719,0.0
16277,5.003933,-1.7369537,3.2294083,-3.2232056,-1.170337,-2.8886719,0.0
16278,5.003933,-1.7369537,3.2294083,-4.229993,-0.45135498,-3.9220092,0.0
16279,11.039084,-3.6789055,2.4028015,-4.229993,-0.45135498,-3.9220092,0.0
16280,11.039084,-3.6789055,2.4028015,-5.593616,0.23364258,-4.87251,0.0
16281,12.214678,-5.9990463,2.6474113,-5.593616,0.23364258,-4.87251,0.0
16282,12.214678,-5.9990463,2.6474113,-7.4818726,-0.09770508,-5.5734377,0.0
16283,9.682802,-8.183708,3.7096024,-7.4818726,-0.09770508,-5.5734377,0.0
16284,9.682802,-8.183708,3.7096024,-8.625659,-0.1985962,-6.0715213,0.0
16285,6.7853165,-9.529472,4.8429756,-8.625659,-0.1985962,-6.0715213,0.0
16286,6.7853165,-9.529472,4.8429756,-9.349952,-0.41843262,-6.163916,0.0
16287,3.968439,-10.216385,5.5186424,-9.349952,-0.41843262,-6.163916,0.0
16288,3.968439,-10.216385,5.5186424,-8.1297,-0.4885254,-5.951514,0.0
16289,0.51218987,-11.243324,5.8711014,-8.1297,-0.4885254,-5.951514,0.0
16290,0.51218987,-11.243324,5.8711014,-4.6675415,-0.013806152,-5.28457,0.0
16291,-3.036684,-14.063286,4.045662,-4.6675415,-0.013806152,-5.28457,0.0
16292,-3.036684,-14.063286,4.045662,-1.1416626,0.80606693,-4.9351687,0.0
16293,-7.2985363,-18.190178,1.3870049,-1.1416626,0.80606693,-4.9351687,0.0
16294,-7.2985363,-18.190178,1.3870049,-0.5798584,2.442627,-3.445166,0.0
16295,-12.703343,-19.04876,2.813877,-0.5798584,2.442627,-3.445166,0.0
16296,-12.703343,-19.04876,2.813877,0.11151123,2.619983,-3.4281738,0.0
16297,-16.25612,-13.592606,6.0200844,0.11151123,2.619983,-3.4281738,0.0
16298,-16.25612,-13.592606,6.0200844,-1.1267945,2.1165893,-0.9345703,0.0
16299,-16.781471,-9.103905,5.8649178,-1.1267945,2.1165893,-0.9345703,0.0
16300,-16.781471,-9.103905,5.8649178,-4.4880614,1.5112427,0.21027832,0.0
16301,-15.703339,-9.60582,2.711586,-4.4880614,1.5112427,0.21027832,0.0
16302,-15.703339,-9.60582,2.711586,-5.301563,1.1682129,0.8857178,0.0
16303,-13.257935,-9.637825,-0.691597,-5.301563,1.1682129,0.8857178,0.0
16304,-13.257935,-9.637825,-0.691597,-3.900769,0.31435546,2.261023,0.0
16305,-9.688892,-7.2927094,-2.6926804,-3.900769,0.31435546,2.261023,0.0
16306,-9.688892,-7.2927094,-2.6926804,-0.67225343,-0.44073486,3.2837403,0.0
16307,-5.754361,-3.8998108,-2.6228218,-0.67225343,-0.44073486,3.2837403,0.0
16308,-5.754361,-3.8998108,-2.6228218,2.5541382,-0.8219971,3.717041,0.0
16309,-2.1008277,0.20409393,-1.325531,2.5541382,-0.8219971,3.717041,0.0
16310,-2.1008277,0.20409393,-1.325531,4.1375976,-0.96218264,4.0409546,0.0
16311,1.5886984,4.380806,-0.3186531,4.1375976,-0.96218264,4.0409546,0.0
16312,1.5886984,4.380806,-0.3186531,4.8321533,-1.2754761,4.5942626,0.0
16313,7.6390986,6.8345795,-1.0835953,4.8321533,-1.2754761,4.5942626,0.0
16314,7.6390986,6.8345795,-1.0835953,5.4767947,-1.4570801,4.460449,0.0
16315,16.595068,8.152504,-3.2553291,5.4767947,-1.4570801,4.460449,0.0
16316,16.595068,8.152504,-3.2553291,5.792212,0.4800293,3.4079957,0.0
16317,23.51159,10.657089,-4.601124,5.792212,0.4800293,3.4079957,0.0
16318,23.51159,10.657089,-4.601124,4.6834717,0.7412842,5.9313354,0.0
16319,23.227411,12.341736,-4.0635147,4.6834717,0.7412842,5.9313354,0.0
16320,23.227411,12.341736,-4.0635147,2.8621216,0.7508423,6.1214356,0.0
16321,17.403866,11.091782,-2.5160217,2.8621216,0.7508423,6.1214356,0.0
16322,17.403866,11.091782,-2.5160217,3.1074464,0.038232423,6.778821,0.0
16323,10.972946,8.725052,-1.7901154,3.1074464,0.038232423,6.778821,0.0
16324,10.972946,8.725052,-1.7901154,4.5592165,-0.42799073,6.8404174,0.0
16325,5.9963627,8.273567,-2.6727524,4.5592165,-0.42799073,6.8404174,0.0
16326,5.9963627,8.273567,-2.6727524,7.088928,-0.6966797,6.3487062,0.0
16327,1.4241524,10.21196,-4.511505,7.088928,-0.6966797,6.3487062,0.0
16328,1.4241524,10.21196,-4.511505,8.239087,-0.20072022,6.0078006,0.0
16329,-3.3176613,14.01543,-6.4241447,8.239087,-0.20072022,6.0078006,0.0
16330,-3.3176613,14.01543,-6.4241447,7.164331,0.59260255,5.149695,0.0
16331,-8.079216,17.879128,-6.160801,7.164331,0.59260255,5.149695,0.0
16332,-8.079216,17.879128,-6.160801,4.140784,0.83898926,5.152881,0.0
16333,-11.315521,17.206303,-2.9513931,4.140784,0.83898926,5.152881,0.0
16334,-11.315521,17.206303,-2.9513931,0.16036378,-0.2527588,4.9351687,0.0
16335,-10.910803,10.7225,0.009208679,0.16036378,-0.2527588,4.9351687,0.0
16336,-10.910803,10.7225,0.009208679,-2.2174804,-0.7784546,3.8635986,0.0
16337,-7.3349657,3.9026108,1.172821,-2.2174804,-0.7784546,3.8635986,0.0
16338,-7.3349657,3.9026108,1.172821,-2.6932619,-0.70092773,1.6567383,0.0
16339,-3.1095133,2.419281,1.5732422,-2.6932619,-0.70092773,1.6567383,0.0
16340,-3.1095133,2.419281,1.5732422,-2.6157348,-0.57242435,-0.40250245,0.0
16341,-0.22725868,4.2919693,1.8794441,-2.6157348,-0.57242435,-0.40250245,0.0
16342,-0.22725868,4.2919693,1.8794441,-4.5443482,0.1709839,-1.9657837,0.0
16343,0.8873577,4.554352,2.4007835,-4.5443482,0.1709839,-1.9657837,0.0
16344,0.8873577,4.554352,2.4007835,-6.221265,0.7699585,-2.7601686,0.0
16345,1.2324696,1.9165306,3.2775002,-6.221265,0.7699585,-2.7601686,0.0
16346,1.2324696,1.9165306,3.2775002,-6.800061,1.2807862,-3.0500977,0.0
16347,1.9105244,-2.0534668,3.9183617,-6.800061,1.2807862,-3.0500977,0.0
16348,1.9105244,-2.0534668,3.9183617,-6.508008,1.8755127,-3.5088868,0.0
16349,3.7770405,-5.711731,3.43441,-6.508008,1.8755127,-3.5088868,0.0
16350,3.7770405,-5.711731,3.43441,-6.1915283,2.1973023,-4.1014895,0.0
16351,5.9263325,-9.164734,2.1552925,-6.1915283,2.1973023,-4.1014895,0.0
16352,5.9263325,-9.164734,2.1552925,-5.96532,3.7701416,-4.906494,0.0
16353,7.1145763,-12.355225,1.8408852,-5.96532,3.7701416,-4.906494,0.0
16354,7.1145763,-12.355225,1.8408852,-5.695569,3.8412964,-6.796875,0.0
16355,7.760912,-13.451904,2.6269073,-5.695569,3.8412964,-6.796875,0.0
16356,7.760912,-13.451904,2.6269073,-6.158606,4.2013183,-7.890747,0.0
16357,7.326906,-11.523682,2.9852753,-6.158606,4.2013183,-7.890747,0.0
16358,7.326906,-11.523682,2.9852753,-6.2520633,4.1099854,-8.345288,0.0
16359,6.203066,-8.605606,1.3861923,-6.2520633,4.1099854,-8.345288,0.0
16360,6.203066,-8.605606,1.3861923,-6.8351073,3.8667848,-7.7123294,0.0
16361,4.169277,-6.95829,-2.4169006,-6.8351073,3.8667848,-7.7123294,0.0
16362,4.169277,-6.95829,-2.4169006,-8.4567995,4.234241,-6.491016,0.0
16363,4.169277,-6.95829,-2.4169006,-8.557691,4.352124,-4.585767,0.0
16364,-0.37718773,-8.667809,-6.1156273,-8.557691,4.352124,-4.585767,0.0
16365,-15.787371,-20.744308,-6.697983,-8.557691,4.352124,-4.585767,0.0
16366,-15.787371,-20.744308,-6.697983,-8.557691,4.352124,-4.585767,166.0
16367,-15.787371,-20.744308,-6.697983,-7.703833,3.7680175,-3.2370117,166.0
16368,-15.787371,-20.744308,-6.697983,-3.535437,2.7516725,-2.9194703,166.0
16369,-21.084461,-19.934998,-3.3437881,-3.535437,2.7516725,-2.9194703,166.0
16370,-21.084461,-19.934998,-3.3437881,2.617859,1.1586548,-1.5845215,166.0
16371,-22.737528,-17.006203,-2.8061447,2.617859,1.1586548,-1.5845215,166.0
16372,-22.737528,-17.006203,-2.8061447,5.527771,-0.026550293,-1.0227174,166.0
16373,-20.2597,-11.653862,-4.1190376,5.527771,-0.026550293,-1.0227174,166.0
16374,-20.2597,-11.653862,-4.1190376,5.142261,-0.1359375,-0.5809204,166.0
16375,-15.308151,-6.4843826,-2.835659,5.142261,-0.1359375,-0.5809204,166.0
16376,-15.308151,-6.4843826,-2.835659,3.2497559,-0.36745605,0.54375,166.0
16377,-10.1,-4.128937,1.371975,3.2497559,-0.36745605,0.54375,166.0
16378,-10.1,-4.128937,1.371975,2.8291993,-0.91014403,1.8691406,166.0
16379,-5.9619093,-3.1297455,5.1493607,2.8291993,-0.91014403,1.8691406,166.0
16380,-5.9619093,-3.1297455,5.1493607,2.6008668,-1.2489258,2.819641,166.0
16381,-3.1887417,-1.5602264,6.7463074,2.6008668,-1.2489258,2.819641,166.0
16382,-3.1887417,-1.5602264,6.7463074,2.8674316,-1.8404664,3.703235,166.0
16383,-0.10983133,0.64962006,6.0215073,2.8674316,-1.8404664,3.703235,166.0
16384,-0.10983133,0.64962006,6.0215073,4.258667,-2.792029,4.603821,166.0
16385,6.3216324,2.6839828,2.556488,4.258667,-2.792029,4.603821,166.0
16386,6.3216324,2.6839828,2.556488,5.347229,-3.6692505,4.804541,166.0
16387,17.2815,5.3526993,-2.5127792,5.347229,-3.6692505,4.804541,166.0
16388,17.2815,5.3526993,-2.5127792,6.2117066,-0.39294434,3.5641115,166.0
16389,26.220856,9.908615,-4.7547417,6.2117066,-0.39294434,3.5641115,166.0
16390,26.220856,9.908615,-4.7547417,5.4513063,0.32816163,5.465112,166.0
16391,26.251099,13.130028,-2.8050003,5.4513063,0.32816163,5.465112,166.0
16392,26.251099,13.130028,-2.8050003,3.347461,-0.11044922,6.0439086,166.0
16393,19.912365,12.166428,0.10244751,3.347461,-0.11044922,6.0439086,166.0
16394,19.912365,12.166428,0.10244751,3.059656,-1.3179566,6.6535034,166.0
16395,12.837168,9.639748,0.84729004,3.059656,-1.3179566,6.6535034,166.0
16396,12.837168,9.639748,0.84729004,4.5581546,-2.275891,6.622705,166.0
16397,7.1080875,10.671173,-1.3966064,4.5581546,-2.275891,6.622705,166.0
16398,7.1080875,10.671173,-1.3966064,7.4085937,-2.3958986,5.895227,166.0
16399,7.1080875,10.671173,-1.3966064,10.106104,-1.5685914,4.8512697,166.0
16400,0.9355297,16.19252,-4.411598,10.106104,-1.5685914,4.8512697,166.0
16401,-18.177395,32.951942,-3.7939034,10.106104,-1.5685914,4.8512697,166.0
16402,-18.177395,32.951942,-3.7939034,10.733752,-1.0120972,2.802649,166.0
16403,-18.177395,32.951942,-3.7939034,7.8387084,-1.5664673,1.1862671,166.0
16404,-18.177395,32.951942,-3.7939034,2.7474244,-2.085791,-0.18691407,166.0
16405,-15.711935,23.08751,-1.6923599,2.7474244,-2.085791,-0.18691407,166.0
16406,-15.711935,23.08751,-1.6923599,-1.4230957,-2.2450929,-1.3391968,166.0
16407,-10.254484,14.307373,-0.7382736,-1.4230957,-2.2450929,-1.3391968,166.0
16408,-10.254484,14.307373,-0.7382736,-4.4763794,-1.9742798,-1.725769,166.0
16409,-4.7718735,8.408253,-0.36326218,-4.4763794,-1.9742798,-1.725769,166.0
16410,-4.7718735,8.408253,-0.36326218,-5.9217772,-1.5983276,-1.9689697,166.0
16411,-1.3681211,4.1865883,0.0016746521,-5.9217772,-1.5983276,-1.9689697,166.0
16412,-1.3681211,4.1865883,0.0016746521,-5.730615,-0.69136965,-1.9307374,166.0
16413,-1.2641993,0.8280182,1.0806732,-5.730615,-0.69136965,-1.9307374,166.0
16414,-1.2641993,0.8280182,1.0806732,-4.433899,0.32178956,-1.9785279,166.0
16415,-3.5667667,-1.5081291,2.9741554,-4.433899,0.32178956,-1.9785279,166.0
16416,-3.5667667,-1.5081291,2.9741554,-2.5605104,0.19222413,-2.6709595,166.0
16417,-4.3026934,-2.3059921,4.2472916,-2.5605104,0.19222413,-2.6709595,166.0
16418,-4.3026934,-2.3059921,4.2472916,-1.5431031,-0.68499756,-3.712793,166.0
16419,0.32334805,-1.8586731,2.9549751,-1.5431031,-0.68499756,-3.712793,166.0
16420,0.32334805,-1.8586731,2.9549751,-2.4224489,-0.4715332,-4.1121097,166.0
16421,7.259264,-3.1818352,0.6992111,-2.4224489,-0.4715332,-4.1121097,166.0
16422,7.259264,-3.1818352,0.6992111,-4.4530153,1.2776002,-4.303272,166.0
16423,10.850674,-7.4321747,-0.026885986,-4.4530153,1.2776002,-4.303272,166.0
16424,10.850674,-7.4321747,-0.026885986,-5.78584,1.2882203,-5.170935,166.0
16425,10.00532,-10.957825,0.401062,-5.78584,1.2882203,-5.170935,166.0
16426,10.00532,-10.957825,0.401062,-6.517566,1.6376221,-5.5415773,166.0
16427,6.4232864,-11.9207535,1.6051636,-6.517566,1.6376221,-5.5415773,166.0
16428,6.4232864,-11.9207535,1.6051636,-7.202564,1.2924683,-5.550073,166.0
16429,2.274273,-11.478668,3.3446045,-7.202564,1.2924683,-5.550073,166.0
16430,2.274273,-11.478668,3.3446045,-7.6581664,0.7306641,-5.183679,166.0
16431,-1.7086811,-11.440174,4.329357,-7.6581664,0.7306641,-5.183679,166.0
16432,-1.7086811,-11.440174,4.329357,-8.307055,0.62127686,-4.1301637,166.0
16433,-5.465273,-14.309555,3.347847,-8.307055,0.62127686,-4.1301637,166.0
16434,-5.465273,-14.309555,3.347847,-8.930457,0.8485474,-3.0405395,166.0
16435,-9.327382,-18.373413,1.2568665,-8.930457,0.8485474,-3.0405395,166.0
16436,-9.327382,-18.373413,1.2568665,-7.229114,1.814978,-3.5046387,166.0
16437,-13.224613,-17.965408,-0.39069748,-7.229114,1.814978,-3.5046387,166.0
16438,-13.224613,-17.965408,-0.39069748,-3.5906618,0.9133301,-2.1091554,166.0
16439,-15.28085,-14.799118,-1.8018646,-3.5906618,0.9133301,-2.1091554,166.0
16440,-15.28085,-14.799118,-1.8018646,-1.4209718,-0.09451904,-0.022302246,166.0
16441,-14.47252,-12.800873,-2.5443878,-1.4209718,-0.09451904,-0.022302246,166.0
16442,-14.47252,-12.800873,-2.5443878,-1.0110352,-0.20921631,0.5968506,166.0
16443,-12.450099,-10.287949,-1.4610367,-1.0110352,-0.20921631,0.5968506,166.0
16444,-12.450099,-10.287949,-1.4610367,-1.2372437,-0.32922363,1.2988404,166.0
16445,-10.494259,-7.254738,0.32156372,-1.2372437,-0.32922363,1.2988404,166.0
16446,-10.494259,-7.254738,0.32156372,-0.8623535,-1.0386475,2.177124,166.0
16447,-7.9073334,-4.9575043,1.5880508,-0.8623535,-1.0386475,2.177124,166.0
16448,-7.9073334,-4.9575043,1.5880508,0.96218264,-1.6747925,2.890796,166.0
16449,-4.340686,-2.763939,2.2164268,0.96218264,-1.6747925,2.890796,166.0
16450,-4.340686,-2.763939,2.2164268,3.000183,-2.0709229,3.536499,166.0
16451,-0.38540268,0.4643402,2.0401459,3.000183,-2.0709229,3.536499,166.0
16452,-0.38540268,0.4643402,2.0401459,4.1981325,-2.35979,4.331946,166.0
16453,4.232987,4.0924683,1.1810303,4.1981325,-2.35979,4.331946,166.0
16454,4.232987,4.0924683,1.1810303,4.711084,-2.7867188,4.9893312,166.0
16455,11.878211,5.9972076,-0.54135895,4.711084,-2.7867188,4.9893312,166.0
16456,11.878211,5.9972076,-0.54135895,5.539453,-2.2769532,4.2087526,166.0
16457,21.900507,7.492157,-2.1290474,5.539453,-2.2769532,4.2087526,166.0
16458,21.900507,7.492157,-2.1290474,6.5398684,-0.83474123,4.721704,166.0
16459,27.06203,9.723328,-2.1919708,6.5398684,-0.83474123,4.721704,166.0
16460,27.06203,9.723328,-2.1919708,5.487415,-0.33665773,5.7465453,166.0
16461,23.183182,10.852982,-1.2692375,5.487415,-0.33665773,5.7465453,166.0
16462,23.183182,10.852982,-1.2692375,5.645654,-0.5501221,5.886731,166.0
16463,14.657326,11.18605,-0.5266342,5.645654,-0.5501221,5.886731,166.0
16464,14.657326,11.18605,-0.5266342,7.140967,-1.0322754,6.124622,166.0
16465,7.2648754,12.149582,-1.3618698,7.140967,-1.0322754,6.124622,166.0
16466,7.2648754,12.149582,-1.3618698,8.206164,-1.176709,6.3094115,166.0
16467,2.3165874,13.188454,-3.3531075,8.206164,-1.176709,6.3094115,166.0
16468,2.3165874,13.188454,-3.3531075,8.53645,-0.9281983,6.075769,166.0
16469,2.3165874,13.188454,-3.3531075,8.664954,-0.74659425,5.098718,166.0
16470,-1.9073753,14.333916,-5.3960495,8.664954,-0.74659425,5.098718,166.0
16471,-16.670383,24.31982,-7.7065735,8.664954,-0.74659425,5.098718,166.0
16472,-16.670383,24.31982,-7.7065735,8.664954,-0.74659425,5.098718,166.0
16473,-16.670383,24.31982,-7.7065735,7.732507,-0.18479005,4.611255,166.0
16474,-16.670383,24.31982,-7.7065735,4.1928225,-0.24320069,3.601282,166.0
16475,-16.670383,24.31982,-7.7065735,1.1480347,-1.0609497,2.0008302,166.0
16476,-13.957095,17.715572,-4.4358253,1.1480347,-1.0609497,2.0008302,166.0
16477,-13.957095,17.715572,-4.4358253,-0.37595215,-1.2531738,1.2425537,166.0
16478,-8.696242,11.565098,-1.4912376,-0.37595215,-1.2531738,1.2425537,166.0
16479,-8.696242,11.565098,-1.4912376,-0.79226077,-1.2425537,0.42268068,166.0
16480,-4.0518913,6.878517,0.7843895,-0.79226077,-1.2425537,0.42268068,166.0
16481,-4.0518913,6.878517,0.7843895,-1.4337158,-1.6960328,-0.5384399,166.0
16482,-0.6564665,3.266594,1.6483002,-1.4337158,-1.6960328,-0.5384399,166.0
16483,-0.6564665,3.266594,1.6483002,-2.8557496,-1.7650635,-1.2499878,166.0
16484,0.6426735,1.4251022,1.3308601,-2.8557496,-1.7650635,-1.2499878,166.0
16485,0.6426735,1.4251022,1.3308601,-4.7418823,-1.447522,-1.5643433,166.0
16486,-0.1815157,1.7280083,1.8262596,-4.7418823,-1.447522,-1.5643433,166.0
16487,-0.1815157,1.7280083,1.8262596,-6.3582644,-1.2903442,-2.0645509,166.0
16488,0.15337181,1.1197128,3.494297,-6.3582644,-1.2903442,-2.0645509,166.0
16489,0.15337181,1.1197128,3.494297,-7.483997,-1.9434814,-2.8610597,166.0
16490,4.7577076,-2.6919975,3.3986359,-7.483997,-1.9434814,-2.8610597,166.0
16491,4.7577076,-2.6919975,3.3986359,-7.8482666,-1.7640015,-3.7319093,166.0
16492,10.049965,-6.9675026,1.3176498,-7.8482666,-1.7640015,-3.7319093,166.0
16493,10.049965,-6.9675026,1.3176498,-7.682593,-0.013806152,-5.459802,166.0
16494,12.313679,-9.560783,-0.93650436,-7.682593,-0.013806152,-5.459802,166.0
16495,12.313679,-9.560783,-0.93650436,-8.070228,1.0099732,-5.5575075,166.0
16496,11.2924595,-11.30616,-2.2077255,-8.070228,1.0099732,-5.5575075,166.0
16497,11.2924595,-11.30616,-2.2077255,-9.189588,2.715564,-5.79646,166.0
16498,7.492794,-12.357414,-1.6503601,-9.189588,2.715564,-5.79646,166.0
16499,7.492794,-12.357414,-1.6503601,-10.578699,3.2317016,-5.26333,166.0
16500,3.1192608,-12.511616,-0.8432617,-10.578699,3.2317016,-5.26333,166.0
16501,3.1192608,-12.511616,-0.8432617,-11.189356,4.1875124,-4.3340697,166.0
16502,-1.2861595,-13.158363,-0.95723724,-11.189356,4.1875124,-4.3340697,166.0
16503,-1.2861595,-13.158363,-0.95723724,-10.08274,4.6590457,-3.2391357,166.0
16504,-1.2861595,-13.158363,-0.95723724,-7.4680667,4.790735,-2.727246,166.0
16505,-6.4086533,-14.819588,-1.8464661,-7.4680667,4.790735,-2.727246,166.0
16506,-19.99223,-17.943123,-1.750206,-7.4680667,4.790735,-2.727246,166.0
16507,-19.99223,-17.943123,-1.750206,-4.3967285,5.0615478,-1.9126831,166.0
16508,-19.99223,-17.943123,-1.750206,-2.1049073,4.69303,-1.5292969,166.0
16509,-23.991344,-14.985039,0.41329956,-2.1049073,4.69303,-1.5292969,166.0
16510,-23.991344,-14.985039,0.41329956,-1.2457398,2.2408447,-1.1076783,166.0
16511,-24.006832,-11.523834,-0.9315567,-1.2457398,2.2408447,-1.1076783,166.0
16512,-24.006832,-11.523834,-0.9315567,-2.3109376,1.3668091,-0.47790527,166.0
16513,-20.683811,-9.091934,-5.4614944,-2.3109376,1.3668091,-0.47790527,166.0
16514,-20.683811,-9.091934,-5.4614944,-3.3708253,1.2988404,0.81668705,166.0
16515,-16.735306,-8.136032,-7.688738,-3.3708253,1.2988404,0.81668705,166.0
16516,-16.735306,-8.136032,-7.688738,-3.4685304,-0.05628662,1.8043579,166.0
16517,-12.147242,-7.571617,-5.4509773,-3.4685304,-0.05628662,1.8043579,166.0
16518,-12.147242,-7.571617,-5.4509773,-2.4171388,-1.7310791,2.35448,166.0
16519,-6.613777,-6.181587,-2.30159,-2.4171388,-1.7310791,2.35448,166.0
16520,-6.613777,-6.181587,-2.30159,-0.20603028,-3.2444458,2.4702394,166.0
16521,-0.8154602,-3.6072922,0.038829803,-0.20603028,-3.2444458,2.4702394,166.0
16522,-0.8154602,-3.6072922,0.038829803,2.5987427,-5.0318117,2.9279664,166.0
16523,5.894409,-1.1522903,1.776804,2.5987427,-5.0318117,2.9279664,166.0
16524,5.894409,-1.1522903,1.776804,4.860828,-7.880127,3.9336915,166.0
16525,17.784082,0.029785156,1.076376,4.860828,-7.880127,3.9336915,166.0
16526,17.784082,0.029785156,1.076376,6.7352786,-8.051111,3.8816528,166.0
16527,31.219088,2.428749,-0.36658478,6.7352786,-8.051111,3.8816528,166.0
16528,31.219088,2.428749,-0.36658478,8.544947,-3.7510254,3.7616456,166.0
16529,33.35978,7.5589294,1.0614319,8.544947,-3.7510254,3.7616456,166.0
16530,33.35978,7.5589294,1.0614319,8.353785,-4.516736,4.71427,166.0
16531,25.536188,11.745682,3.2456417,8.353785,-4.516736,4.71427,166.0
16532,25.536188,11.745682,3.2456417,8.155189,-3.541809,5.8134522,166.0
16533,18.235958,12.915955,4.343498,8.155189,-3.541809,5.8134522,166.0
16534,18.235958,12.915955,4.343498,7.913049,-3.352771,6.50376,166.0
16535,13.235971,13.700874,4.1446457,7.913049,-3.352771,6.50376,166.0
16536,13.235971,13.700874,4.1446457,8.294312,-2.715564,6.886084,166.0
16537,7.790743,16.123909,2.422905,8.294312,-2.715564,6.886084,166.0
16538,7.790743,16.123909,2.422905,9.507129,-1.3912354,6.9062624,166.0
16539,-0.41370773,20.08953,0.43545532,9.507129,-1.3912354,6.9062624,166.0
16540,-0.41370773,20.08953,0.43545532,10.858008,-0.20390625,6.231885,166.0
16541,-9.221983,23.274399,-0.58740234,10.858008,-0.20390625,6.231885,166.0
16542,-9.221983,23.274399,-0.58740234,8.468482,-0.57561034,4.945789,166.0
16543,-15.070469,23.961563,-1.2689323,8.468482,-0.57561034,4.945789,166.0
16544,-15.070469,23.961563,-1.2689323,4.405225,-0.8963379,2.6709595,166.0
16545,-15.697123,20.390064,-1.2264137,4.405225,-0.8963379,2.6709595,166.0
16546,-15.697123,20.390064,-1.2264137,1.3806152,-1.4124756,0.69986576,166.0
16547,-11.836019,13.355385,0.4212227,1.3806152,-1.4124756,0.69986576,166.0
16548,-11.836019,13.355385,0.4212227,0.05522461,-2.175,-1.2712281,166.0
16549,-6.211625,7.2324295,1.9489784,0.05522461,-2.175,-1.2712281,166.0
16550,-6.211625,7.2324295,1.9489784,-1.4369019,-2.698572,-2.614673,166.0
16551,-1.8005257,3.3933678,1.4004898,-1.4369019,-2.698572,-2.614673,166.0
16552,-1.8005257,3.3933678,1.4004898,-4.072815,-2.4723632,-3.5630493,166.0
16553,0.31941795,1.2815895,-0.13486862,-4.072815,-2.4723632,-3.5630493,166.0
16554,0.31941795,1.2815895,-0.13486862,-6.716162,-1.2860962,-4.0133424,166.0
16555,0.3425827,-0.17790222,0.5627861,-6.716162,-1.2860962,-4.0133424,166.0
16556,0.3425827,-0.17790222,0.5627861,-8.1498785,-0.17629395,-3.9889162,166.0
16557,-0.20807457,-2.5302277,3.7878265,-8.1498785,-0.17629395,-3.9889162,166.0
16558,-0.20807457,-2.5302277,3.7878265,-7.6348023,0.26337892,-4.499744,166.0
16559,1.5591879,-5.8345947,5.9619865,-7.6348023,0.26337892,-4.499744,166.0
16560,1.5591879,-5.8345947,5.9619865,-5.4916625,0.44179687,-5.2718263,166.0
16561,5.416589,-8.867359,4.8263397,-5.4916625,0.44179687,-5.2718263,166.0
16562,5.416589,-8.867359,4.8263397,-4.432837,1.1490967,-5.898413,166.0
16563,8.406061,-10.796623,2.1590958,-4.432837,1.1490967,-5.898413,166.0
16564,8.406061,-10.796623,2.1590958,-4.705774,1.3753052,-7.0071535,166.0
16565,10.12175,-10.941864,-0.050872803,-4.705774,1.3753052,-7.0071535,166.0
16566,10.12175,-10.941864,-0.050872803,-5.5543213,2.1187134,-7.599756,166.0
16567,9.914673,-9.862576,-0.8293228,-5.5543213,2.1187134,-7.599756,166.0
16568,9.914673,-9.862576,-0.8293228,-6.2127686,2.4235108,-7.4308963,166.0
16569,7.6101303,-10.343773,0.23423386,-6.2127686,2.4235108,-7.4308963,166.0
16570,7.6101303,-10.343773,0.23423386,-7.541345,2.1994264,-7.054944,166.0
16571,3.4884586,-13.976082,1.7549438,-7.541345,2.1994264,-7.054944,166.0
16572,3.4884586,-13.976082,1.7549438,-7.509485,1.8287842,-6.3646364,166.0
16573,-3.1984673,-18.218704,1.3593864,-7.509485,1.8287842,-6.3646364,166.0
16574,-3.1984673,-18.218704,1.3593864,-6.9381227,2.0879152,-4.833215,166.0
16575,-3.1984673,-18.218704,1.3593864,-4.415845,2.4033325,-3.5003908,166.0
16576,-11.310617,-17.282509,-0.17520905,-4.415845,2.4033325,-3.5003908,166.0
16577,-26.59133,-17.036858,2.2029228,-4.415845,2.4033325,-3.5003908,166.0
16578,-26.59133,-17.036858,2.2029228,0.21558838,0.8857178,-1.63125,166.0
16579,-26.59133,-17.036858,2.2029228,2.175,0.5957886,-1.8224121,166.0
16580,-26.59133,-17.036858,2.2029228,1.6684204,0.8092529,-1.8330323,166.0
16581,-26.59133,-17.036858,2.2029228,1.6684204,0.8092529,-1.8330323,165.0
16582,-24.04024,-14.754692,1.7043686,1.6684204,0.8092529,-1.8330323,165.0
16583,-24.04024,-14.754692,1.7043686,-1.4018555,0.7943848,-1.1119263,165.0
16584,-20.649305,-11.633759,1.0880699,-1.4018555,0.7943848,-1.1119263,165.0
16585,-20.649305,-11.633759,1.0880699,-3.725537,-0.14018555,1.3190186,165.0
16586,-15.391662,-9.907326,0.11232376,-3.725537,-0.14018555,1.3190186,165.0
16587,-15.391662,-9.907326,0.11232376,-2.7421143,-0.6966797,2.901416,165.0
16588,-9.932214,-8.987732,0.19366837,-2.7421143,-0.6966797,2.901416,165.0
16589,-9.932214,-8.987732,0.19366837,1.1682129,-1.358313,3.0171754,165.0
16590,-5.739912,-5.959717,1.3303375,1.1682129,-1.358313,3.0171754,165.0
16591,-5.739912,-5.959717,1.3303375,4.2820315,-2.436255,3.635266,165.0
16592,-1.2758164,-0.5987091,1.8259506,4.2820315,-2.436255,3.635266,165.0
16593,-1.2758164,-0.5987091,1.8259506,5.0849123,-3.0554078,4.3744264,165.0
16594,6.036842,3.392929,0.74843216,5.0849123,-3.0554078,4.3744264,165.0
16595,6.036842,3.392929,0.74843216,4.515674,-2.8610597,5.04668,165.0
16596,16.613811,4.6460648,-1.0703735,4.515674,-2.8610597,5.04668,165.0
16597,16.613811,4.6460648,-1.0703735,3.9528077,-0.70942384,4.228931,165.0
16598,23.402817,6.6667633,-1.4437637,3.9528077,-0.70942384,4.228931,165.0
16599,23.402817,6.6667633,-1.4437637,4.095117,-1.3806152,5.543701,165.0
16600,23.24258,9.31041,-0.84864044,4.095117,-1.3806152,5.543701,165.0
16601,23.24258,9.31041,-0.84864044,3.892273,-1.173523,6.2010865,165.0
16602,20.67723,10.280052,-0.7183418,3.892273,-1.173523,6.2010865,165.0
16603,20.67723,10.280052,-0.7183418,4.4137206,-1.5271729,6.762891,165.0
16604,16.32998,10.500656,-1.469841,4.4137206,-1.5271729,6.762891,165.0
16605,16.32998,10.500656,-1.469841,4.765247,-1.5993897,7.3820434,165.0
16606,11.165352,12.219788,-3.5681229,4.765247,-1.5993897,7.3820434,165.0
16607,11.165352,12.219788,-3.5681229,5.093408,-1.4252198,8.1679325,165.0
16608,5.3804855,19.851395,-6.088825,5.093408,-1.4252198,8.1679325,165.0
16609,5.3804855,19.851395,-6.088825,7.767554,-0.6425171,8.498218,165.0
16610,5.3804855,19.851395,-6.088825,9.626075,-0.12956543,8.0957155,165.0
16611,-1.9997978,26.915565,-6.87764,9.626075,-0.12956543,8.0957155,165.0
16612,-15.745615,31.032223,-4.709984,9.626075,-0.12956543,8.0957155,165.0
16613,-15.745615,31.032223,-4.709984,9.717407,-0.1731079,3.264624,165.0
16614,-15.745615,31.032223,-4.709984,3.5492432,-2.436255,1.4634522,165.0
16615,-15.745615,31.032223,-4.709984,-1.1289185,-3.541809,-2.1643798,165.0
16616,-15.268881,21.646458,-1.1956863,-1.1289185,-3.541809,-2.1643798,165.0
16617,-4.4074144,5.8280067,3.6126518,-1.1289185,-3.541809,-2.1643798,165.0
16618,-4.4074144,5.8280067,3.6126518,-3.6819947,-3.9485595,-2.8440673,165.0
16619,-4.4074144,5.8280067,3.6126518,-5.898413,-3.3708253,-3.3272827,165.0
16620,-4.4074144,5.8280067,3.6126518,-6.0332885,-2.175,-2.9736328,165.0
16621,-2.9949503,1.8792877,4.145836,-6.0332885,-2.175,-2.9736328,165.0
16622,-2.9949503,1.8792877,4.145836,-4.0260863,-0.8400513,-2.8823,165.0
16623,-3.1406498,-1.5300407,5.115959,-4.0260863,-0.8400513,-2.8823,165.0
16624,-3.1406498,-1.5300407,5.115959,-1.5080566,-0.27718505,-3.2986085,165.0
16625,-1.5018024,-2.9989243,5.0778885,-1.5080566,-0.27718505,-3.2986085,165.0
16626,-1.5018024,-2.9989243,5.0778885,-0.79226077,-0.45666504,-4.3510623,165.0
16627,0.33317757,-2.8554993,4.137409,-0.79226077,-0.45666504,-4.3510623,165.0
16628,0.33317757,-2.8554993,4.137409,-1.2138795,-0.16461182,-4.6686034,165.0
16629,6.7922745,-4.9491463,3.9527397,-1.2138795,-0.16461182,-4.6686034,165.0
16630,6.7922745,-4.9491463,3.9527397,-3.6819947,-0.61702883,-5.623352,165.0
16631,6.5903015,-6.027237,3.7572327,-3.6819947,-0.61702883,-5.623352,165.0
16632,6.5903015,-6.027237,3.7572327,-4.9362307,-0.65632325,-5.9355836,165.0
16633,7.1849976,-8.839394,0.7682953,-4.9362307,-0.65632325,-5.9355836,165.0
16634,7.1849976,-8.839394,0.7682953,-7.117603,0.5214478,-5.8166385,165.0
16635,4.8055916,-8.385994,0.09239578,-7.117603,0.5214478,-5.8166385,165.0
16636,4.8055916,-8.385994,0.09239578,-7.2917724,0.83474123,-5.511841,165.0
16637,0.19615746,-8.261833,-0.03649521,-7.2917724,0.83474123,-5.511841,165.0
16638,0.19615746,-8.261833,-0.03649521,-7.2843385,0.9589966,-4.1152954,165.0
16639,-1.6795006,-8.793659,0.49809647,-7.2843385,0.9589966,-4.1152954,165.0
16640,-1.6795006,-8.793659,0.49809647,-7.117603,0.97386473,-3.8083742,165.0
16641,-7.749485,-13.795746,0.017971039,-7.117603,0.97386473,-3.8083742,165.0
16642,-7.749485,-13.795746,0.017971039,-6.49845,1.7778076,-3.364453,165.0
16643,-7.749485,-13.795746,0.017971039,-6.1734743,2.092163,-2.904602,165.0
16644,-8.956815,-14.145981,-0.8360863,-6.1734743,2.092163,-2.904602,165.0
16645,-26.34332,-23.737625,-4.587742,-6.1734743,2.092163,-2.904602,165.0
16646,-26.34332,-23.737625,-4.587742,-3.8678467,2.9109743,-1.6333741,165.0
16647,-26.34332,-23.737625,-4.587742,-2.3672242,3.0044312,-1.4114136,165.0
16648,-26.34332,-23.737625,-4.587742,3.5025146,0.65632325,-0.31116945,165.0
16649,-22.796898,-18.16565,-2.470337,3.5025146,0.65632325,-0.31116945,165.0
16650,-22.796898,-18.16565,-2.470337,4.631433,-0.28674316,0.40993652,165.0
16651,-16.897785,-10.88089,1.1368904,4.631433,-0.28674316,0.40993652,165.0
16652,-16.897785,-10.88089,1.1368904,4.2735353,-1.3370727,1.8627685,165.0
16653,-11.52482,-6.8524704,1.8394547,4.2735353,-1.3370727,1.8627685,165.0
16654,-11.52482,-6.8524704,1.8394547,3.9623659,-1.2945923,2.3119996,165.0
16655,-4.439082,-2.3791046,4.1076965,3.9623659,-1.2945923,2.3119996,165.0
16656,-4.439082,-2.3791046,4.1076965,3.98573,-1.445398,3.528003,165.0
16657,-2.1560998,-0.5090256,4.026474,3.98573,-1.445398,3.528003,165.0
16658,-2.1560998,-0.5090256,4.026474,4.240613,-1.7544434,3.9984741,165.0
16659,2.322752,1.68087,3.670555,4.240613,-1.7544434,3.9984741,165.0
16660,2.322752,1.68087,3.670555,4.7620606,-2.7495484,4.8374634,165.0
16661,11.502647,3.4205246,1.0459785,4.7620606,-2.7495484,4.8374634,165.0
16662,11.502647,3.4205246,1.0459785,4.8374634,-0.6775635,4.404163,165.0
16663,11.502647,3.4205246,1.0459785,4.8374634,-0.6775635,4.404163,165.0
16664,21.73747,5.9787903,-1.9261551,4.8374634,-0.6775635,4.404163,165.0
16665,21.73747,5.9787903,-1.9261551,5.409888,0.39188233,4.3977904,165.0
16666,24.46273,8.905731,-3.1399384,5.409888,0.39188233,4.3977904,165.0
16667,24.46273,8.905731,-3.1399384,4.329822,0.6117188,5.7369876,165.0
16668,20.8112,11.583511,-2.9010468,4.329822,0.6117188,5.7369876,165.0
16669,20.8112,11.583511,-2.9010468,3.2210815,0.9239502,6.7416506,165.0
16670,16.51135,10.637611,-2.4487076,3.2210815,0.9239502,6.7416506,165.0
16671,16.51135,10.637611,-2.4487076,2.8525636,0.9483765,7.1324706,165.0
16672,10.603319,10.752861,-1.832161,2.8525636,0.9483765,7.1324706,165.0
16673,10.603319,10.752861,-1.832161,2.3353639,0.6711914,7.8100343,165.0
16674,7.940016,9.337471,-1.6161575,2.3353639,0.6711914,7.8100343,165.0
16675,7.940016,9.337471,-1.6161575,2.532898,0.42268068,7.574268,165.0
16676,2.7773418,9.564934,-1.5561333,2.532898,0.42268068,7.574268,165.0
16677,2.7773418,9.564934,-1.5561333,3.1913452,0.3069214,6.9922853,165.0
16678,2.7773418,9.564934,-1.5561333,3.886963,0.2166504,5.799646,165.0
16679,-3.8549194,10.955414,-2.1963844,3.886963,0.2166504,5.799646,165.0
16680,-21.210546,26.81166,-4.52454,3.886963,0.2166504,5.799646,165.0
16681,-21.210546,26.81166,-4.52454,4.2554812,0.019116212,4.078125,165.0
16682,-21.210546,26.81166,-4.52454,4.427527,-0.35046387,3.3570192,165.0
16683,-21.210546,26.81166,-4.52454,3.714917,-1.1437867,1.9381714,165.0
16684,-17.6106,21.08955,-2.6841965,3.714917,-1.1437867,1.9381714,165.0
16685,-17.6106,21.08955,-2.6841965,2.6943238,-2.5105958,-2.4734254,165.0
16686,-8.076518,11.862839,-0.9851494,2.6943238,-2.5105958,-2.4734254,165.0
16687,-8.076518,11.862839,-0.9851494,1.8351563,-2.35448,-3.703235,165.0
16688,-0.3637781,5.9702034,-1.2522545,1.8351563,-2.35448,-3.703235,165.0
16689,-0.3637781,5.9702034,-1.2522545,-2.0581787,-2.52865,-4.3117676,165.0
16690,2.0454159,2.4207535,-3.7398148,-2.0581787,-2.52865,-4.3117676,165.0
16691,2.0454159,2.4207535,-3.7398148,-9.6175785,-0.85598147,-5.2049193,165.0
16692,1.2198524,0.97976685,-2.4124832,-9.6175785,-0.85598147,-5.2049193,165.0
16693,1.2198524,0.97976685,-2.4124832,-10.356738,-0.29736328,-4.879944,165.0
16694,1.4533968,-1.6633644,-0.23446655,-10.356738,-0.29736328,-4.879944,165.0
16695,1.4533968,-1.6633644,-0.23446655,-9.261805,0.9430664,-4.1365356,165.0
16696,4.408677,-5.246998,2.1648788,-9.261805,0.9430664,-4.1365356,165.0
16697,4.408677,-5.246998,2.1648788,-6.797937,1.357251,-3.4738405,165.0
16698,8.3346195,-9.6194725,2.4517403,-6.797937,1.357251,-3.4738405,165.0
16699,8.3346195,-9.6194725,2.4517403,-3.717041,2.4086425,-4.6601076,165.0
16700,10.215584,-12.75069,0.97049713,-3.717041,2.4086425,-4.6601076,165.0
16701,10.215584,-12.75069,0.97049713,-0.16567384,1.9774659,-5.969568,165.0
16702,8.708588,-11.757435,-0.9989815,-0.16567384,1.9774659,-5.969568,165.0
16703,8.708588,-11.757435,-0.9989815,1.544165,1.1565307,-6.5334964,165.0
16704,4.9862785,-9.038994,-2.1169968,1.544165,1.1565307,-6.5334964,165.0
16705,4.9862785,-9.038994,-2.1169968,-2.4670532,0.20496826,-5.7476077,165.0
16706,1.0390358,-9.593876,-1.1125069,-2.4670532,0.20496826,-5.7476077,165.0
16707,1.0390358,-9.593876,-1.1125069,-6.4103026,0.18372802,-5.088098,165.0
16708,1.0390358,-9.593876,-1.1125069,-4.9298587,-0.27399904,-3.9390016,165.0
16709,-3.3255844,-12.379189,1.6290131,-4.9298587,-0.27399904,-3.9390016,165.0
16710,-19.11745,-20.516953,6.1081924,-4.9298587,-0.27399904,-3.9390016,165.0
16711,-19.11745,-20.516953,6.1081924,-2.0656128,-0.6000366,-3.9432495,165.0
16712,-19.11745,-20.516953,6.1081924,-2.0093262,-0.36745605,-3.7765138,165.0
16713,-19.11745,-20.516953,6.1081924,-2.8313234,-0.30054933,-3.4802125,165.0
16714,-20.757412,-19.42669,9.297394,-2.8313234,-0.30054933,-3.4802125,165.0
16715,-20.757412,-19.42669,9.297394,-2.811145,-0.047790527,-2.4012086,165.0
16716,-20.679455,-17.76529,10.177746,-2.811145,-0.047790527,-2.4012086,165.0
16717,-20.679455,-17.76529,10.177746,-1.629126,-0.5787964,-0.6860596,165.0
16718,-20.679455,-17.76529,10.177746,-0.15186767,-0.86341554,0.86553955,165.0
16719,-18.044699,-15.041931,9.908577,-0.15186767,-0.86341554,0.86553955,165.0
16720,-13.670903,-11.172211,9.283699,-0.15186767,-0.86341554,0.86553955,165.0
16721,-13.670903,-11.172211,9.283699,0.6796875,-0.8602295,1.7363892,165.0
16722,-9.343729,-6.6141357,9.160465,0.6796875,-0.8602295,1.7363892,165.0
16723,-9.343729,-6.6141357,9.160465,1.9594116,-0.95368654,2.5074098,165.0
16724,-5.8103476,-2.1977386,9.098576,1.9594116,-0.95368654,2.5074098,165.0
16725,-5.8103476,-2.1977386,9.098576,3.4526002,-0.91014403,3.42074,165.0
16726,-2.462524,1.5103455,7.4752197,3.4526002,-0.91014403,3.42074,165.0
16727,-2.462524,1.5103455,7.4752197,3.98573,-1.09281,4.2384887,165.0
16728,1.6957889,4.211975,4.306801,3.98573,-1.09281,4.2384887,165.0
16729,1.6957889,4.211975,4.306801,4.2714114,-1.2478638,4.970215,165.0
16730,8.115555,5.2163696,0.01859665,4.2714114,-1.2478638,4.970215,165.0
16731,8.115555,5.2163696,0.01859665,4.2066283,-1.6163819,5.77522,165.0
16732,18.371496,4.2806854,-6.3572884,4.2066283,-1.6163819,5.77522,165.0
16733,18.371496,4.2806854,-6.3572884,4.3117676,0.91120607,4.7588744,165.0
16734,26.298223,4.147278,-12.803032,4.3117676,0.91120607,4.7588744,165.0
16735,26.298223,4.147278,-12.803032,3.5120728,2.9184082,4.2076907,165.0
16736,25.262444,6.526352,-15.586639,3.5120728,2.9184082,4.2076907,165.0
16737,25.262444,6.526352,-15.586639,-0.081774905,3.709607,5.6828246,165.0
16738,17.53454,8.801498,-12.291138,-0.081774905,3.709607,5.6828246,165.0
16739,17.53454,8.801498,-12.291138,-2.3151855,2.913098,6.6566896,165.0
16740,7.9261665,10.035286,-4.660778,-2.3151855,2.913098,6.6566896,165.0
16741,7.9261665,10.035286,-4.660778,0.0361084,1.1660889,6.4570312,165.0
16742,-0.008932114,13.348579,0.5538864,0.0361084,1.1660889,6.4570312,165.0
16743,-0.008932114,13.348579,0.5538864,3.0235474,-0.06690674,5.5511355,165.0
16744,-5.32127,17.494858,-0.5692444,3.0235474,-0.06690674,5.5511355,165.0
16745,-5.32127,17.494858,-0.5692444,5.5564456,-1.002539,4.720642,165.0
16746,-8.975327,17.783737,-4.6535034,5.5564456,-1.002539,4.720642,165.0
16747,-8.975327,17.783737,-4.6535034,5.3960814,-0.8846558,1.3105224,165.0
16748,-10.527539,17.298962,-5.5793,5.3960814,-0.8846558,1.3105224,165.0
16749,-10.527539,17.298962,-5.5793,4.169458,-2.0082643,-0.31329346,165.0
16750,-9.601304,16.020077,-2.314808,4.169458,-2.0082643,-0.31329346,165.0
16751,-9.601304,16.020077,-2.314808,1.7470093,-2.4649293,-0.9547486,165.0
16752,-7.523731,10.946396,1.4346046,1.7470093,-2.4649293,-0.9547486,165.0
16753,-7.523731,10.946396,1.4346046,1.5303589,-2.7484863,-1.7544434,165.0
16754,-5.0891876,6.0422745,2.6725502,1.5303589,-2.7484863,-1.7544434,165.0
16755,-5.0891876,6.0422745,2.6725502,1.3668091,-2.893982,-2.2004883,165.0
16756,-2.6307254,3.69141,0.872612,1.3668091,-2.893982,-2.2004883,165.0
16757,-2.6307254,3.69141,0.872612,0.14974366,-2.439441,-2.7899048,165.0
16758,-1.2440577,3.0498466,-2.1487617,0.14974366,-2.439441,-2.7899048,165.0
16759,-1.2440577,3.0498466,-2.1487617,-1.9169312,-1.4230957,-3.2964845,165.0
16760,-1.6672311,2.6500702,-3.201664,-1.9169312,-1.4230957,-3.2964845,165.0
16761,-1.6672311,2.6500702,-3.201664,-3.6830566,-0.57454836,-3.7796998,165.0
16762,-2.28691,1.3345337,-1.5192795,-3.6830566,-0.57454836,-3.7796998,165.0
16763,-2.28691,1.3345337,-1.5192795,-3.9251955,-0.2623169,-4.3999147,165.0
16764,-2.28691,1.3345337,-1.5192795,-3.9251955,-0.2623169,-4.3999147,165.0
16765,-0.48317814,-0.87109375,1.1217117,-3.9251955,-0.2623169,-4.3999147,165.0
16766,-0.48317814,-0.87109375,1.1217117,-2.890796,0.04460449,-4.8427734,165.0
16767,4.478899,-3.5228004,2.573761,-2.890796,0.04460449,-4.8427734,165.0
16768,4.478899,-3.5228004,2.573761,-2.628479,-0.012744141,-5.0265017,165.0
16769,8.165688,-6.4140778,2.6102676,-2.628479,-0.012744141,-5.0265017,165.0
16770,8.165688,-6.4140778,2.6102676,-2.2365968,0.07646485,-6.531372,165.0
16771,8.765119,-8.987183,2.805256,-2.2365968,0.07646485,-6.531372,165.0
16772,8.765119,-8.987183,2.805256,-3.2200196,-1.2786621,-7.185571,165.0
16773,8.157261,-9.222267,2.9743538,-3.2200196,-1.2786621,-7.185571,165.0
16774,8.157261,-9.222267,2.9743538,-4.4073486,-2.0528686,-7.4680667,165.0
16775,6.266897,-7.14653,2.9103546,-4.4073486,-2.0528686,-7.4680667,165.0
16776,6.266897,-7.14653,2.9103546,-3.617212,-2.4012086,-6.344458,165.0
16777,4.0524826,-6.9047623,2.6968994,-3.617212,-2.4012086,-6.344458,165.0
16778,4.0524826,-6.9047623,2.6968994,-2.4182007,-3.0108032,-4.6218753,165.0
16779,4.0524826,-6.9047623,2.6968994,-1.8202881,-2.1463258,-3.435608,165.0
16780,1.4877262,-10.86092,2.1114845,-1.8202881,-2.1463258,-3.435608,165.0
16781,-14.724919,-13.115959,7.0988655,-1.8202881,-2.1463258,-3.435608,165.0
16782,-14.724919,-13.115959,7.0988655,-0.5363159,-0.9897949,-2.8674316,165.0
16783,-14.724919,-13.115959,7.0988655,-0.47790527,-0.45029297,-1.1182984,165.0
16784,-14.724919,-13.115959,7.0988655,-1.6461182,-0.015930176,-0.38232422,165.0
16785,-16.820694,-12.203598,8.413116,-1.6461182,-0.015930176,-0.38232422,165.0
16786,-16.820694,-12.203598,8.413116,-1.1480347,0.8506714,-1.3391968,165.0
16787,-17.455727,-13.73497,7.6930428,-1.1480347,0.8506714,-1.3391968,165.0
16788,-17.455727,-13.73497,7.6930428,-0.8729736,-0.32072756,-0.22727051,165.0
16789,-14.726055,-14.3723755,5.7955093,-0.8729736,-0.32072756,-0.22727051,165.0
16790,-14.726055,-14.3723755,5.7955093,-0.4258667,-0.40462646,1.0492676,165.0
16791,-9.755552,-12.383339,4.3661804,-0.4258667,-0.40462646,1.0492676,165.0
16792,-9.755552,-12.383339,4.3661804,-0.727478,0.52038574,2.2865112,165.0
16793,-6.163926,-8.847839,3.9805756,-0.727478,0.52038574,2.2865112,165.0
16794,-6.163926,-8.847839,3.9805756,-0.38232422,0.42268068,2.7707887,165.0
16795,-4.7135754,-5.540222,3.7607422,-0.38232422,0.42268068,2.7707887,165.0
16796,-4.7135754,-5.540222,3.7607422,1.6025757,-0.20496826,3.5057008,165.0
16797,-2.9270983,-2.590973,2.6347313,1.6025757,-0.20496826,3.5057008,165.0
16798,-2.9270983,-2.590973,2.6347313,3.0968263,-0.59472656,3.970862,165.0
16799,1.2356777,0.20866394,0.50032425,3.0968263,-0.59472656,3.970862,165.0
16800,1.2356777,0.20866394,0.50032425,3.3166625,-1.0407715,4.69834,165.0
16801,10.217449,1.9394989,-3.2024765,3.3166625,-1.0407715,4.69834,165.0
16802,10.217449,1.9394989,-3.2024765,2.3725343,-0.7763306,5.144385,165.0
16803,21.878292,3.076088,-7.668144,2.3725343,-0.7763306,5.144385,165.0
16804,21.878292,3.076088,-7.668144,2.241907,2.7899048,4.669666,165.0
16805,26.312595,4.99263,-9.885368,2.241907,2.7899048,4.669666,165.0
16806,26.312595,4.99263,-9.885368,1.2967163,2.0549927,6.1394897,165.0
16807,22.941483,6.9610214,-9.920723,1.2967163,2.0549927,6.1394897,165.0
16808,22.941483,6.9610214,-9.920723,0.022302246,1.8425903,6.8393555,165.0
16809,17.701796,8.486099,-9.04982,0.022302246,1.8425903,6.8393555,165.0
16810,17.701796,8.486099,-9.04982,-1.0004151,0.87191164,8.1498785,165.0
16811,11.46925,9.276161,-7.316147,-1.0004151,0.87191164,8.1498785,165.0
16812,11.46925,9.276161,-7.316147,-2.18031,-0.25806886,8.924085,165.0
16813,11.46925,9.276161,-7.316147,-2.7283082,-1.3710572,8.934705,165.0
16814,6.0700645,8.791779,-4.9766006,-2.7283082,-1.3710572,8.934705,165.0
16815,-7.8584385,19.174583,4.9345512,-2.7283082,-1.3710572,8.934705,165.0
16816,-7.8584385,19.174583,4.9345512,-3.3113525,-2.3789062,8.071289,165.0
16817,-7.8584385,19.174583,4.9345512,-0.6149048,-3.1945312,5.415198,165.0
16818,-7.8584385,19.174583,4.9345512,3.516321,-3.1180665,3.6596925,165.0
16819,-11.270321,23.83641,6.0076256,3.516321,-3.1180665,3.6596925,165.0
16820,-11.270321,23.83641,6.0076256,6.9073243,-2.252527,1.2138795,165.0
16821,-12.644369,26.34663,5.344307,6.9073243,-2.252527,1.2138795,165.0
16822,-12.644369,26.34663,5.344307,5.0349975,-2.8504395,-1.2457398,165.0
16823,-9.900591,21.905907,3.6093903,5.0349975,-2.8504395,-1.2457398,165.0
16824,-9.900591,21.905907,3.6093903,3.4302979,-2.6964478,-4.2172484,165.0
16825,-3.4143324,13.4431,1.1112938,3.4302979,-2.6964478,-4.2172484,165.0
16826,-3.4143324,13.4431,1.1112938,1.3795532,-1.989148,-5.0573,165.0
16827,2.3190832,5.9056015,-0.98439026,1.3795532,-1.989148,-5.0573,165.0
16828,2.3190832,5.9056015,-0.98439026,-1.3083985,-1.4241577,-5.4343143,165.0
16829,4.0350637,0.75606155,-1.598278,-1.3083985,-1.4241577,-5.4343143,165.0
16830,4.0350637,0.75606155,-1.598278,-3.1478028,-0.721106,-5.7274294,165.0
16831,3.6771116,-3.0392303,-0.9928818,-3.1478028,-0.721106,-5.7274294,165.0
16832,3.6771116,-3.0392303,-0.9928818,-3.897583,-0.49383545,-6.0832033,165.0
16833,5.8269196,-6.72744,-1.5517159,-3.897583,-0.49383545,-6.0832033,165.0
16834,5.8269196,-6.72744,-1.5517159,-4.257605,0.17947999,-6.243567,165.0
16835,9.476135,-10.057137,-3.4869308,-4.257605,0.17947999,-6.243567,165.0
16836,9.476135,-10.057137,-3.4869308,-4.3043337,1.5569092,-7.2004395,165.0
16837,10.989771,-12.128342,-4.367058,-4.3043337,1.5569092,-7.2004395,165.0
16838,10.989771,-12.128342,-4.367058,-5.9154053,2.0167603,-7.3692994,165.0
16839,8.8705635,-12.245056,-3.440384,-5.9154053,2.0167603,-7.3692994,165.0
16840,8.8705635,-12.245056,-3.440384,-6.428357,2.5923707,-7.123975,165.0
16841,4.2075596,-11.536465,-1.1655388,-6.428357,2.5923707,-7.123975,165.0
16842,4.2075596,-11.536465,-1.1655388,-4.88844,2.177124,-6.8839602,165.0
16843,-0.058916092,-11.151779,0.31659317,-4.88844,2.177124,-6.8839602,165.0
16844,-0.058916092,-11.151779,0.31659317,-3.5789795,1.8436524,-6.893518,165.0
16845,-3.1730614,-11.368591,-0.85585785,-3.5789795,1.8436524,-6.893518,165.0
16846,-3.1730614,-11.368591,-0.85585785,-3.2964845,1.7671875,-6.261621,165.0
16847,-3.1730614,-11.368591,-0.85585785,-4.9043703,2.2047365,-4.8523316,165.0
16848,-6.424961,-15.4715805,-1.948616,-4.9043703,2.2047365,-4.8523316,165.0
16849,-27.461111,-18.746078,5.302864,-4.9043703,2.2047365,-4.8523316,165.0
16850,-27.461111,-18.746078,5.302864,-3.2667482,3.5099487,-5.3026247,165.0
16851,-27.461111,-18.746078,5.302864,2.797339,1.3094605,-3.8264282,165.0
16852,-27.461111,-18.746078,5.302864,2.631665,-0.2984253,0.07327881,165.0
16853,-24.004278,-16.088974,2.736969,2.631665,-0.2984253,0.07327881,165.0
16854,-24.004278,-16.088974,2.736969,-1.1894531,0.17416993,-0.5713623,165.0
16855,-18.263262,-14.990051,-0.5130615,-1.1894531,0.17416993,-0.5713623,165.0
16856,-18.263262,-14.990051,-0.5130615,-2.2514648,0.19222413,0.9717407,165.0
16857,-13.126271,-13.147408,-2.2057037,-2.2514648,0.19222413,0.9717407,165.0
16858,-13.126271,-13.147408,-2.2057037,-0.06584473,-0.07540283,2.6709595,165.0
16859,-10.061014,-10.091896,-0.72371674,-0.06584473,-0.07540283,2.6709595,165.0
16860,-10.061014,-10.091896,-0.72371674,0.90695804,-0.2782471,3.722351,165.0
16861,-8.122627,-6.2628098,2.0030441,0.90695804,-0.2782471,3.722351,165.0
16862,-8.122627,-6.2628098,2.0030441,1.3115845,-1.2191895,4.7514405,165.0
16863,-4.5017767,-2.6698074,2.247284,1.3115845,-1.2191895,4.7514405,165.0
16864,-4.5017767,-2.6698074,2.247284,2.3236816,-1.630188,5.3960814,165.0
16865,1.7585518,0.3695984,-0.05186844,2.3236816,-1.630188,5.3960814,165.0
16866,1.7585518,0.3695984,-0.05186844,3.885901,-2.4054565,5.7157474,165.0
16867,1.7585518,0.3695984,-0.05186844,3.885901,-2.4054565,5.7157474,165.0
16868,11.738849,2.0958252,-3.756279,3.885901,-2.4054565,5.7157474,165.0
16869,11.738849,2.0958252,-3.756279,5.341919,-2.6571534,4.541162,165.0
16870,23.704397,5.4643097,-6.673897,5.341919,-2.6571534,4.541162,165.0
16871,23.704397,5.4643097,-6.673897,6.8722777,0.33028564,4.7684326,165.0
16872,28.603119,11.041504,-6.009102,6.8722777,0.33028564,4.7684326,165.0
16873,28.603119,11.041504,-6.009102,5.882483,0.7965088,6.4049926,165.0
16874,24.765661,14.072586,-3.965828,5.882483,0.7965088,6.4049926,165.0
16875,24.765661,14.072586,-3.965828,6.4538455,0.5692383,6.9413085,165.0
16876,19.263714,13.845963,-3.9266777,6.4538455,0.5692383,6.9413085,165.0
16877,19.263714,13.845963,-3.9266777,7.3013306,0.9239502,7.77074,165.0
16878,14.4569435,12.61554,-6.444969,7.3013306,0.9239502,7.77074,165.0
16879,14.4569435,12.61554,-6.444969,9.369067,1.6333741,7.872693,165.0
16880,9.258598,13.287254,-9.507893,9.369067,1.6333741,7.872693,165.0
16881,9.258598,13.287254,-9.507893,10.733752,2.6061769,6.806433,165.0
16882,9.258598,13.287254,-9.507893,8.442993,3.0161133,6.5345583,165.0
16883,1.7290573,18.187057,-10.556204,8.442993,3.0161133,6.5345583,165.0
16884,-29.128363,30.93003,-6.5411186,8.442993,3.0161133,6.5345583,165.0
16885,-29.128363,30.93003,-6.5411186,2.7792847,2.5668824,5.589368,165.0
16886,-29.128363,30.93003,-6.5411186,-2.7506104,0.54693604,3.5577393,165.0
16887,-29.128363,30.93003,-6.5411186,-1.6864747,-2.8015869,0.35683593,165.0
16888,-23.29141,19.424713,-4.121542,-1.6864747,-2.8015869,0.35683593,165.0
16889,-23.29141,19.424713,-4.121542,1.2871583,-3.7319093,-2.2004883,165.0
16890,-11.738671,13.362442,-2.6483078,1.2871583,-3.7319093,-2.2004883,165.0
16891,-11.738671,13.362442,-2.6483078,0.020178223,-3.087268,-2.6698976,165.0
16892,-2.8605785,10.407043,-0.7159252,0.020178223,-3.087268,-2.6698976,165.0
16893,-2.8605785,10.407043,-0.7159252,-2.3820922,-2.52334,-3.1902833,165.0
16894,-0.032639503,6.4494743,1.5249043,-2.3820922,-2.52334,-3.1902833,165.0
16895,-0.032639503,6.4494743,1.5249043,-3.2476318,-1.7990478,-3.5683594,165.0
16896,-1.5936899,2.3727264,3.4360237,-3.2476318,-1.7990478,-3.5683594,165.0
16897,-1.5936899,2.3727264,3.4360237,-3.5768554,-1.9551636,-4.14928,165.0
16898,-3.0461187,-0.109241486,4.6322174,-3.5768554,-1.9551636,-4.14928,165.0
16899,-3.0461187,-0.109241486,4.6322174,-4.3075194,-2.540332,-4.9553466,165.0
16900,-0.31410408,-1.6086578,4.3377438,-4.3075194,-2.540332,-4.9553466,165.0
16901,-0.31410408,-1.6086578,4.3377438,-5.44812,-2.9587648,-6.1076293,165.0
16902,6.9199085,-3.8817482,2.5035324,-5.44812,-2.9587648,-6.1076293,165.0
16903,6.9199085,-3.8817482,2.5035324,-6.6343875,-1.8245362,-6.4835815,165.0
16904,13.462757,-7.469532,0.7425709,-6.6343875,-1.8245362,-6.4835815,165.0
16905,13.462757,-7.469532,0.7425709,-7.7473755,-1.2956543,-6.5908446,165.0
16906,14.51409,-10.69323,-0.04258728,-7.7473755,-1.2956543,-6.5908446,165.0
16907,14.51409,-10.69323,-0.04258728,-8.358032,-0.7083618,-6.876526,165.0
16908,10.865616,-12.086441,-0.19475174,-8.358032,-0.7083618,-6.876526,165.0
16909,10.865616,-12.086441,-0.19475174,-9.094007,-0.29736328,-6.8170533,165.0
16910,6.6499996,-12.63258,0.43671608,-9.094007,-0.29736328,-6.8170533,165.0
16911,6.6499996,-12.63258,0.43671608,-9.521997,-0.04885254,-6.619519,165.0
16912,3.9949646,-16.862305,3.4956741,-9.521997,-0.04885254,-6.619519,165.0
16913,3.9949646,-16.862305,3.4956741,-8.807263,-0.36851808,-5.345105,165.0
16914,-1.6969852,-26.241898,6.655876,-8.807263,-0.36851808,-5.345105,165.0
16915,-1.6969852,-26.241898,6.655876,-5.3663454,0.9494385,-3.5641115,165.0
16916,-1.6969852,-26.241898,6.655876,2.992749,2.52865,-4.275659,165.0
16917,-12.5748005,-25.89125,7.183258,2.992749,2.52865,-4.275659,165.0
16918,-30.952652,-8.137344,12.575134,2.992749,2.52865,-4.275659,165.0
16919,-30.952652,-8.137344,12.575134,3.7892578,0.5331299,0.9802368,165.0
16920,-30.952652,-8.137344,12.575134,-2.3916504,1.4273437,-0.33028564,165.0
16921,-30.952652,-8.137344,12.575134,-7.5211673,1.273352,-1.081128,165.0
16922,-25.896568,-12.265282,5.6870728,-7.5211673,1.273352,-1.081128,165.0
16923,-25.896568,-12.265282,5.6870728,-7.9831424,-0.032922365,0.80606693,165.0
16924,-19.024788,-13.682465,-0.657959,-7.9831424,-0.032922365,0.80606693,165.0
16925,-19.024788,-13.682465,-0.657959,-3.4982667,-0.2548828,2.626355,165.0
16926,-13.645111,-12.334076,-2.5842667,-3.4982667,-0.2548828,2.626355,165.0
16927,-13.645111,-12.334076,-2.5842667,0.5692383,-0.71367186,3.0437257,165.0
16928,-10.821973,-8.431129,-0.9523506,0.5692383,-0.71367186,3.0437257,165.0
16929,-10.821973,-8.431129,-0.9523506,2.3109376,-1.7353271,3.7722657,165.0
16930,-7.5290504,-3.1723938,0.58778,2.3109376,-1.7353271,3.7722657,165.0
16931,-7.5290504,-3.1723938,0.58778,2.5424562,-1.9126831,4.231055,165.0
16932,-2.9846172,1.1636581,0.62270355,2.5424562,-1.9126831,4.231055,165.0
16933,-2.9846172,1.1636581,0.62270355,2.4097047,-1.9254273,4.8459597,165.0
16934,2.2818375,3.2942047,-0.29950714,2.4097047,-1.9254273,4.8459597,165.0
16935,2.2818375,3.2942047,-0.29950714,2.3682861,-3.2901123,5.45874,165.0
16936,11.264959,2.7104492,-3.0179977,2.3682861,-3.2901123,5.45874,165.0
16937,11.264959,2.7104492,-3.0179977,2.8185792,-3.4101198,4.918176,165.0
16938,23.72342,3.51474,-6.744171,2.8185792,-3.4101198,4.918176,165.0
16939,23.72342,3.51474,-6.744171,4.765247,-1.363623,5.156067,165.0
16940,30.900745,8.097939,-8.401978,4.765247,-1.363623,5.156067,165.0
16941,30.900745,8.097939,-8.401978,5.875049,-1.628064,6.3826904,165.0
16942,28.260147,12.172981,-8.160095,5.875049,-1.628064,6.3826904,165.0
16943,28.260147,12.172981,-8.160095,7.7420654,-2.1463258,6.87865,165.0
16944,21.262146,14.910904,-7.440197,7.7420654,-2.1463258,6.87865,165.0
16945,21.262146,14.910904,-7.440197,9.097193,-2.5392702,7.088928,165.0
16946,12.984705,19.027237,-6.7643414,9.097193,-2.5392702,7.088928,165.0
16947,12.984705,19.027237,-6.7643414,9.858655,-2.907788,7.229114,165.0
16948,3.2697449,23.736923,-5.118347,9.858655,-2.907788,7.229114,165.0
16949,3.2697449,23.736923,-5.118347,10.027514,-3.2773683,5.8623047,165.0
16950,3.2697449,23.736923,-5.118347,10.027514,-3.2773683,5.8623047,163.0
16951,-6.101246,26.972157,-3.132862,10.027514,-3.2773683,5.8623047,163.0
16952,-6.101246,26.972157,-3.132862,8.930457,-3.1934693,4.089807,163.0
16953,-13.095474,28.108242,-2.1889305,8.930457,-3.1934693,4.089807,163.0
16954,-13.095474,28.108242,-2.1889305,6.1957765,-3.0129273,2.3757203,163.0
16955,-13.095474,28.108242,-2.1889305,3.1255004,-3.4940186,0.42905274,163.0
16956,-16.884169,25.283344,-0.27996635,3.1255004,-3.4940186,0.42905274,163.0
16957,-15.646605,18.266922,2.5548344,3.1255004,-3.4940186,0.42905274,163.0
16958,-15.646605,18.266922,2.5548344,1.3838013,-4.3043337,-0.6669434,163.0
16959,-9.948143,11.229458,4.1054764,1.3838013,-4.3043337,-0.6669434,163.0
16960,-9.948143,11.229458,4.1054764,-0.55543214,-3.429236,-1.3328247,163.0
16961,-4.2022886,6.318943,4.480976,-0.55543214,-3.429236,-1.3328247,163.0
16962,-4.2022886,6.318943,4.480976,-3.0639038,-2.6953857,-1.906311,163.0
16963,-1.0655661,1.9977303,4.2387123,-3.0639038,-2.6953857,-1.906311,163.0
16964,-1.0655661,1.9977303,4.2387123,-4.6601076,-1.4358399,-2.241907,163.0
16965,-0.12767315,-1.7279015,3.6723785,-4.6601076,-1.4358399,-2.241907,163.0
16966,-0.12767315,-1.7279015,3.6723785,-5.8516846,-0.76358646,-2.2089844,163.0
16967,0.9250593,-3.2611923,2.6415405,-5.8516846,-0.76358646,-2.2089844,163.0
16968,0.9250593,-3.2611923,2.6415405,-7.7346315,-0.61065674,-2.1941164,163.0
16969,4.7691,-3.561592,0.022693634,-7.7346315,-0.61065674,-2.1941164,163.0
16970,4.7691,-3.561592,0.022693634,-11.211658,0.19328614,-1.6992188,163.0
16971,11.271505,-6.688774,-4.4650364,-11.211658,0.19328614,-1.6992188,163.0
16972,11.271505,-6.688774,-4.4650364,-15.282349,3.180725,-1.2935303,163.0
16973,14.044193,-12.1399,-8.50024,-15.282349,3.180725,-1.2935303,163.0
16974,14.044193,-12.1399,-8.50024,-16.34436,6.0141726,-0.91757816,163.0
16975,14.044193,-12.1399,-8.50024,-14.516639,6.6471314,-0.41418457,163.0
16976,8.820522,-14.287334,-9.595055,-14.516639,6.6471314,-0.41418457,163.0
16977,1.0830765,-12.854576,-8.887848,-14.516639,6.6471314,-0.41418457,163.0
16978,1.0830765,-12.854576,-8.887848,-13.197619,6.70448,-0.9122681,163.0
16979,1.0830765,-12.854576,-8.887848,-10.535156,7.247168,-2.2153566,163.0
16980,-3.1930733,-13.168339,-8.150843,-10.535156,7.247168,-2.2153566,163.0
16981,-5.4859295,-17.61237,-7.2215405,-10.535156,7.247168,-2.2153566,163.0
16982,-5.4859295,-17.61237,-7.2215405,-5.577686,7.3820434,-4.0420165,163.0
16983,-10.00947,-23.007599,-5.482773,-5.577686,7.3820434,-4.0420165,163.0
16984,-10.00947,-23.007599,-5.482773,-0.06796875,5.684949,-3.609778,163.0
16985,-17.685091,-23.120628,-0.68253136,-0.06796875,5.684949,-3.609778,163.0
16986,-17.685091,-23.120628,-0.68253136,1.3668091,3.696863,-3.274182,163.0
16987,-22.930616,-16.371384,7.387642,1.3668091,3.696863,-3.274182,163.0
16988,-22.930616,-16.371384,7.387642,-1.1321045,-0.49064943,-1.7087768,163.0
16989,-20.07633,-12.41478,10.299419,-1.1321045,-0.49064943,-1.7087768,163.0
16990,-20.07633,-12.41478,10.299419,-5.1900516,-0.91120607,-0.8092529,163.0
16991,-14.038103,-14.783951,6.9070396,-5.1900516,-0.91120607,-0.8092529,163.0
16992,-14.038103,-14.783951,6.9070396,-3.074524,0.16673584,-1.4262818,163.0
16993,-11.637342,-16.536743,5.6369095,-3.074524,0.16673584,-1.4262818,163.0
16994,-11.637342,-16.536743,5.6369095,0.3695801,-1.6408081,0.20496826,163.0
16995,-10.251305,-14.644455,7.7596626,0.3695801,-1.6408081,0.20496826,163.0
16996,-10.251305,-14.644455,7.7596626,3.7404053,-2.3279297,1.5834595,163.0
16997,-7.112543,-10.029236,9.528069,3.7404053,-2.3279297,1.5834595,163.0
16998,-7.112543,-10.029236,9.528069,4.265039,-2.6327271,2.3204956,163.0
16999,-3.297285,-4.6361313,9.045479,4.265039,-2.6327271,2.3204956,163.0
17000,-3.297285,-4.6361313,9.045479,3.8243043,-3.0670898,3.444104,163.0
17001,1.2398815,-0.57196045,6.0254707,3.8243043,-3.0670898,3.444104,163.0
17002,1.2398815,-0.57196045,6.0254707,3.2837403,-3.1541748,4.061133,163.0
17003,7.782225,1.3107758,1.2962914,3.2837403,-3.1541748,4.061133,163.0
17004,7.782225,1.3107758,1.2962914,2.7537963,-3.625708,4.995703,163.0
17005,18.86162,1.7592468,-4.33041,2.7537963,-3.625708,4.995703,163.0
17006,18.86162,1.7592468,-4.33041,2.261023,-2.8748658,4.5528445,163.0
17007,27.311977,5.4607544,-7.1097374,2.261023,-2.8748658,4.5528445,163.0
17008,27.311977,5.4607544,-7.1097374,0.96218264,-1.1246704,6.125684,163.0
17009,25.496555,10.652191,-4.731041,0.96218264,-1.1246704,6.125684,163.0
17010,25.496555,10.652191,-4.731041,-0.2538208,-4.15459,6.333838,163.0
17011,19.409414,12.1334,-2.3822098,-0.2538208,-4.15459,6.333838,163.0
17012,19.409414,12.1334,-2.3822098,2.156946,-5.613794,5.503345,163.0
17013,16.076677,13.472282,-3.0144596,2.156946,-5.613794,5.503345,163.0
17014,16.076677,13.472282,-3.0144596,5.0838504,-6.6864257,5.4831667,163.0
17015,14.892092,16.611015,-3.0762043,5.0838504,-6.6864257,5.4831667,163.0
17016,14.892092,16.611015,-3.0762043,6.591907,-7.1154785,6.154358,163.0
17017,11.906801,18.6456,0.6614971,6.591907,-7.1154785,6.154358,163.0
17018,11.906801,18.6456,0.6614971,6.9232545,-7.41709,5.41626,163.0
17019,5.156641,20.237106,5.753294,6.9232545,-7.41709,5.41626,163.0
17020,5.156641,20.237106,5.753294,8.937891,-6.751209,3.5513673,163.0
17021,-3.4033852,23.297363,7.98098,8.937891,-6.751209,3.5513673,163.0
17022,-3.4033852,23.297363,7.98098,9.142859,-5.1741214,1.9158691,163.0
17023,-10.256216,25.354565,8.212982,9.142859,-5.1741214,1.9158691,163.0
17024,-10.256216,25.354565,8.212982,7.7972903,-4.1014895,0.2793091,163.0
17025,-12.546343,22.645405,8.400219,7.7972903,-4.1014895,0.2793091,163.0
17026,-12.546343,22.645405,8.400219,6.044971,-4.060071,-1.081128,163.0
17027,-9.727089,16.050076,7.839939,6.044971,-4.060071,-1.081128,163.0
17028,-9.727089,16.050076,7.839939,4.079187,-3.8391724,-1.9615357,163.0
17029,-4.02392,8.890133,6.217228,4.079187,-3.8391724,-1.9615357,163.0
17030,-4.02392,8.890133,6.217228,2.272705,-3.2104614,-2.9290283,163.0
17031,0.74617195,4.159775,3.404007,2.272705,-3.2104614,-2.9290283,163.0
17032,0.74617195,4.159775,3.404007,-0.060534667,-1.9562256,-3.2879884,163.0
17033,2.035902,2.4548225,0.53674316,-0.060534667,-1.9562256,-3.2879884,163.0
17034,2.035902,2.4548225,0.53674316,-3.342151,-0.64570314,-3.4717164,163.0
17035,0.933115,1.3124084,-0.6444092,-3.342151,-0.64570314,-3.4717164,163.0
17036,0.933115,1.3124084,-0.6444092,-6.3487062,0.41843262,-3.62677,163.0
17037,0.9197712,-1.0714607,-0.6451187,-6.3487062,0.41843262,-3.62677,163.0
17038,0.9197712,-1.0714607,-0.6451187,-9.177905,1.4719483,-4.054761,163.0
17039,4.3457775,-3.9454498,-2.051567,-9.177905,1.4719483,-4.054761,163.0
17040,4.3457775,-3.9454498,-2.051567,-11.586548,3.1594849,-4.5039916,163.0
17041,8.270531,-6.6401978,-5.4774246,-11.586548,3.1594849,-4.5039916,163.0
17042,8.270531,-6.6401978,-5.4774246,-14.099268,5.2898803,-4.6632934,163.0
17043,10.534002,-9.301147,-9.543549,-14.099268,5.2898803,-4.6632934,163.0
17044,10.534002,-9.301147,-9.543549,-15.984339,5.797522,-4.064319,163.0
17045,11.942705,-12.131241,-14.200451,-15.984339,5.797522,-4.064319,163.0
17046,11.942705,-12.131241,-14.200451,-16.51216,7.049634,-2.8345094,163.0
17047,10.056349,-15.838818,-18.551401,-16.51216,7.049634,-2.8345094,163.0
17048,10.056349,-15.838818,-18.551401,-14.067408,8.230591,-1.7034668,163.0
17049,2.5941277,-19.933872,-17.454866,-14.067408,8.230591,-1.7034668,163.0
17050,2.5941277,-19.933872,-17.454866,-8.581055,8.532203,-2.0581787,163.0
17051,-7.808304,-23.119621,-8.971218,-8.581055,8.532203,-2.0581787,163.0
17052,-7.808304,-23.119621,-8.971218,-1.9094971,6.9296265,-3.2763062,163.0
17053,-16.11388,-23.438179,0.06844711,-1.9094971,6.9296265,-3.2763062,163.0
17054,-16.11388,-23.438179,0.06844711,4.4593873,5.3036866,-4.4763794,163.0
17055,-20.696756,-18.550613,3.896103,4.4593873,5.3036866,-4.4763794,163.0
17056,-20.696756,-18.550613,3.896103,7.1919436,4.967029,-4.4625735,163.0
17057,-20.696756,-18.550613,3.896103,7.1919436,4.967029,-4.4625735,159.0
17058,-23.441975,-10.877365,5.085741,7.1919436,4.967029,-4.4625735,159.0
17059,-23.441975,-10.877365,5.085741,4.2968993,3.6395142,-4.0409546,159.0
17060,-23.929033,-7.6870728,5.054348,4.2968993,3.6395142,-4.0409546,159.0
17061,-23.929033,-7.6870728,5.054348,-1.2882203,1.7416992,-2.1388917,159.0
17062,-21.355227,-11.155655,1.955967,-1.2882203,1.7416992,-2.1388917,159.0
17063,-21.355227,-11.155655,1.955967,-3.0500977,1.8447144,0.02442627,159.0
17064,-17.95995,-14.530197,-0.90278053,-3.0500977,1.8447144,0.02442627,159.0
17065,-17.95995,-14.530197,-0.90278053,-1.5292969,0.26550293,1.3912354,159.0
17066,-15.037955,-13.320511,-1.2667923,-1.5292969,0.26550293,1.3912354,159.0
17067,-15.037955,-13.320511,-1.2667923,-0.4704712,-0.64995116,1.6832886,159.0
17068,-11.67099,-9.571091,0.07675171,-0.4704712,-0.64995116,1.6832886,159.0
17069,-11.67099,-9.571091,0.07675171,2.447937,-2.2281005,2.2896974,159.0
17070,-6.445239,-4.5789795,1.5450554,2.447937,-2.2281005,2.2896974,159.0
17071,-6.445239,-4.5789795,1.5450554,4.35531,-3.2242677,3.1424928,159.0
17072,0.43794918,1.0303116,2.6496181,4.35531,-3.2242677,3.1424928,159.0
17073,0.43794918,1.0303116,2.6496181,3.8466065,-4.0133424,3.9411256,159.0
17074,7.8955374,3.9881287,3.8733559,3.8466065,-4.0133424,3.9411256,159.0
17075,7.8955374,3.9881287,3.8733559,2.9672608,-6.3784423,4.71427,159.0
17076,18.403393,2.6214828,2.8322182,2.9672608,-6.3784423,4.71427,159.0
17077,18.403393,2.6214828,2.8322182,4.1981325,-6.84679,4.168396,159.0
17078,29.541502,3.671646,-0.020637512,4.1981325,-6.84679,4.168396,159.0
17079,29.541502,3.671646,-0.020637512,6.3487062,-3.3952515,5.4693604,159.0
17080,33.021275,9.080254,-0.2862358,6.3487062,-3.3952515,5.4693604,159.0
17081,33.021275,9.080254,-0.2862358,5.7051272,-3.9453735,6.245691,159.0
17082,28.59329,12.854324,1.4129906,5.7051272,-3.9453735,6.245691,159.0
17083,28.59329,12.854324,1.4129906,6.050281,-4.0866213,7.218494,159.0
17084,23.05658,13.799278,1.5194054,6.050281,-4.0866213,7.218494,159.0
17085,23.05658,13.799278,1.5194054,6.6481934,-4.1429076,8.159436,159.0
17086,18.580284,13.275589,-0.13037491,6.6481934,-4.1429076,8.159436,159.0
17087,18.580284,13.275589,-0.13037491,8.902844,-3.9453735,9.137549,159.0
17088,14.742546,11.996559,-1.1983795,8.902844,-3.9453735,9.137549,159.0
17089,14.742546,11.996559,-1.1983795,11.367774,-3.5131347,8.989929,159.0
17090,9.130341,13.49218,-1.4411983,11.367774,-3.5131347,8.989929,159.0
17091,9.130341,13.49218,-1.4411983,11.570618,-2.3980224,8.680884,159.0
17092,0.5231209,20.777145,-2.1124554,11.570618,-2.3980224,8.680884,159.0
17093,0.5231209,20.777145,-2.1124554,7.23761,-0.817749,8.194483,159.0
17094,-9.171799,29.40675,-1.5201283,7.23761,-0.817749,8.194483,159.0
17095,-9.171799,29.40675,-1.5201283,1.4199097,-0.6000366,7.319385,159.0
17096,-16.79867,31.66401,1.3652706,1.4199097,-0.6000366,7.319385,159.0
17097,-16.79867,31.66401,1.3652706,-0.3536499,-1.4581422,3.5672975,159.0
17098,-18.928205,27.749908,3.78162,-0.3536499,-1.4581422,3.5672975,159.0
17099,-18.928205,27.749908,3.78162,1.0673218,-1.905249,-0.72216797,159.0
17100,-14.417236,20.600452,4.851078,1.0673218,-1.905249,-0.72216797,159.0
17101,-14.417236,20.600452,4.851078,-0.7540283,-2.6380372,-4.6792235,159.0
17102,-4.5828133,10.860123,4.602909,-0.7540283,-2.6380372,-4.6792235,159.0
17103,-4.5828133,10.860123,4.602909,-2.7718506,-2.5477662,-6.5228763,159.0
17104,4.9077244,0.6598282,3.0190105,-2.7718506,-2.5477662,-6.5228763,159.0
17105,4.9077244,0.6598282,3.0190105,-4.2193727,-1.632312,-7.163269,159.0
17106,9.402218,-6.8171577,1.0891094,-4.2193727,-1.632312,-7.163269,159.0
17107,9.402218,-6.8171577,1.0891094,-5.0456176,-0.635083,-8.154126,159.0
17108,11.111887,-10.426918,-0.07265854,-5.0456176,-0.635083,-8.154126,159.0
17109,11.111887,-10.426918,-0.07265854,-6.784131,0.46834716,-9.030286,159.0
17110,12.438339,-12.2322235,0.7061424,-6.784131,0.46834716,-9.030286,159.0
17111,12.438339,-12.2322235,0.7061424,-8.746729,1.0662597,-9.995654,159.0
17112,14.808311,-14.532776,1.936348,-8.746729,1.0662597,-9.995654,159.0
17113,14.808311,-14.532776,1.936348,-10.174072,1.535669,-10.391785,159.0
17114,16.317863,-15.948048,0.555912,-10.174072,1.535669,-10.391785,159.0
17115,16.317863,-15.948048,0.555912,-10.975891,2.4150147,-9.614392,159.0
17116,11.742256,-14.393654,-3.9556236,-10.975891,2.4150147,-9.614392,159.0
17117,11.742256,-14.393654,-3.9556236,-12.743079,3.99635,-6.602527,159.0
17118,1.4508591,-12.263798,-9.337486,-12.743079,3.99635,-6.602527,159.0
17119,1.4508591,-12.263798,-9.337486,-15.401294,5.2962527,-3.4154298,159.0
17120,-9.348164,-13.451248,-11.881805,-15.401294,5.2962527,-3.4154298,159.0
17121,-9.348164,-13.451248,-11.881805,-16.931654,5.607422,-2.6465333,159.0
17122,-17.10712,-16.818619,-10.949402,-16.931654,5.607422,-2.6465333,159.0
17123,-17.10712,-16.818619,-10.949402,-12.825915,5.717871,-1.635498,159.0
17124,-22.823746,-19.422356,-9.286926,-12.825915,5.717871,-1.635498,159.0
17125,-22.823746,-19.422356,-9.286926,-5.482105,5.864429,-1.3168945,159.0
17126,-28.018263,-19.441132,-6.5284424,-5.482105,5.864429,-1.3168945,159.0
17127,-28.018263,-19.441132,-6.5284424,-0.28355715,4.647363,-1.7470093,159.0
17128,-30.332226,-15.377914,-1.6812019,-0.28355715,4.647363,-1.7470093,159.0
17129,-30.332226,-15.377914,-1.6812019,0.75296634,1.7778076,-1.5802735,159.0
17130,-27.206003,-10.014687,1.9810753,0.75296634,1.7778076,-1.5802735,159.0
17131,-27.206003,-10.014687,1.9810753,-0.69136965,0.33665773,-0.9239502,159.0
17132,-21.30848,-7.467575,2.1029282,-0.69136965,0.33665773,-0.9239502,159.0
17133,-21.30848,-7.467575,2.1029282,-0.7678345,0.07434082,-0.2793091,159.0
17134,-16.910566,-7.29422,0.84688187,-0.7678345,0.07434082,-0.2793091,159.0
17135,-16.910566,-7.29422,0.84688187,1.354065,-1.0259033,0.29311523,159.0
17136,-13.560947,-6.3570404,1.028017,1.354065,-1.0259033,0.29311523,159.0
17137,-13.560947,-6.3570404,1.028017,2.3757203,-1.9572877,0.67650145,159.0
17138,-7.85828,-4.877571,4.680275,2.3757203,-1.9572877,0.67650145,159.0
17139,-7.85828,-4.877571,4.680275,5.165625,-3.8710327,1.6174439,159.0
17140,-4.2286406,-2.6181183,6.281988,5.165625,-3.8710327,1.6174439,159.0
17141,-4.2286406,-2.6181183,6.281988,6.1001954,-4.2023807,1.9710938,159.0
17142,3.6557713,1.7528381,9.267767,6.1001954,-4.2023807,1.9710938,159.0
17143,3.6557713,1.7528381,9.267767,8.302808,-6.5388064,3.4918945,159.0
17144,7.5391316,3.246193,7.9375534,8.302808,-6.5388064,3.4918945,159.0
17145,7.5391316,3.246193,7.9375534,8.395203,-7.202564,3.7775757,159.0
17146,29.097273,7.4516068,2.6961136,8.395203,-7.202564,3.7775757,159.0
17147,29.097273,7.4516068,2.6961136,8.713806,-2.531836,4.4785037,159.0
17148,29.605114,10.142662,2.5532894,8.713806,-2.531836,4.4785037,159.0
17149,29.605114,10.142662,2.5532894,8.441932,-2.8706176,6.0545287,159.0
17150,25.137691,14.730698,6.9886513,8.441932,-2.8706176,6.0545287,159.0
17151,25.137691,14.730698,6.9886513,7.7633057,-3.364453,7.680469,159.0
17152,19.515415,12.97612,6.3068504,7.7633057,-3.364453,7.680469,159.0
17153,19.515415,12.97612,6.3068504,7.597632,-3.3602052,7.948096,159.0
17154,13.271463,9.235573,4.5441856,7.597632,-3.3602052,7.948096,159.0
17155,13.271463,9.235573,4.5441856,6.1957765,-2.8015869,7.409656,159.0
17156,10.624985,7.88752,2.6355324,6.1957765,-2.8015869,7.409656,159.0
17157,10.624985,7.88752,2.6355324,6.3986206,-2.5976808,6.968921,159.0
17158,2.5729866,11.281548,0.70690155,6.3986206,-2.5976808,6.968921,159.0
17159,2.5729866,11.281548,0.70690155,8.656458,-1.2499878,6.244629,159.0
17160,-0.676157,12.684723,-0.5586853,8.656458,-1.2499878,6.244629,159.0
17161,-0.676157,12.684723,-0.5586853,8.410071,-0.7975708,6.2584352,159.0
17162,-0.676157,12.684723,-0.5586853,8.410071,-0.7975708,6.2584352,158.0
17163,-11.733114,22.579052,-0.815979,8.410071,-0.7975708,6.2584352,158.0
17164,-11.733114,22.579052,-0.815979,3.3039186,-0.06478272,5.262268,158.0
17165,-12.436541,21.61496,-0.46442795,3.3039186,-0.06478272,5.262268,158.0
17166,-12.436541,21.61496,-0.46442795,1.0397094,-0.41312256,4.6590457,158.0
17167,-21.065884,15.967236,-1.1207962,1.0397094,-0.41312256,4.6590457,158.0
17168,-21.065884,15.967236,-1.1207962,-1.1002442,-1.4984986,1.179895,158.0
17169,-17.536203,11.877171,-7.794611,-1.1002442,-1.4984986,1.179895,158.0
17170,-17.536203,11.877171,-7.794611,-0.54587406,-1.629126,-0.46516114,158.0
17171,-12.667025,5.5669823,-4.458296,-0.54587406,-1.629126,-0.46516114,158.0
17172,-12.667025,5.5669823,-4.458296,-0.3982544,-1.9349854,-3.4749024,158.0
17173,-12.667025,5.5669823,-4.458296,-1.9126831,-1.634436,-4.801355,158.0
17174,-5.360548,0.16922379,-3.2910023,-1.9126831,-1.634436,-4.801355,158.0
17175,14.015102,-11.428707,-9.299501,-1.9126831,-1.634436,-4.801355,158.0
17176,14.015102,-11.428707,-9.299501,-4.3829226,-0.16142578,-5.0211916,158.0
17177,14.015102,-11.428707,-9.299501,-6.3072877,1.7342652,-5.0222535,158.0
17178,14.015102,-11.428707,-9.299501,-7.319385,3.6936767,-5.182617,158.0
17179,13.186594,-9.839424,-7.403322,-7.319385,3.6936767,-5.182617,158.0
17180,13.186594,-9.839424,-7.403322,-7.7314453,4.330884,-5.3206787,158.0
17181,13.23492,-11.278511,-4.9876366,-7.7314453,4.330884,-5.3206787,158.0
17182,13.23492,-11.278511,-4.9876366,-8.2401495,3.2370117,-5.900537,158.0
17183,10.64764,-9.75396,-2.553011,-8.2401495,3.2370117,-5.900537,158.0
17184,10.64764,-9.75396,-2.553011,-8.225281,2.7601686,-5.888855,158.0
17185,8.178684,-10.03083,-0.016298294,-8.225281,2.7601686,-5.888855,158.0
17186,8.178684,-10.03083,-0.016298294,-7.587012,1.7661256,-5.3036866,158.0
17187,4.3869534,-8.579681,1.0197983,-7.587012,1.7661256,-5.3036866,158.0
17188,4.3869534,-8.579681,1.0197983,-5.871863,1.4804443,-3.8742187,158.0
17189,-0.65836906,-6.524231,0.8008003,-5.871863,1.4804443,-3.8742187,158.0
17190,-0.65836906,-6.524231,0.8008003,-4.0462646,1.5579712,-2.165442,158.0
17191,-5.899315,-5.519371,0.94187164,-4.0462646,1.5579712,-2.165442,158.0
17192,-5.899315,-5.519371,0.94187164,-4.3043337,2.0571167,-1.1204224,158.0
17193,-10.651178,-4.8379974,2.2179737,-4.3043337,2.0571167,-1.1204224,158.0
17194,-10.651178,-4.8379974,2.2179737,-5.899475,2.5881226,-0.27506104,158.0
17195,-15.198079,-4.5353928,3.3533592,-5.899475,2.5881226,-0.27506104,158.0
17196,-15.198079,-4.5353928,3.3533592,-7.065564,3.7181032,-0.009558106,158.0
17197,-20.487638,-5.2755356,2.5138874,-7.065564,3.7181032,-0.009558106,158.0
17198,-20.487638,-5.2755356,2.5138874,-6.0311646,3.9995363,-1.088562,158.0
17199,-24.441942,-5.265312,-0.36611176,-6.0311646,3.9995363,-1.088562,158.0
17200,-24.441942,-5.265312,-0.36611176,-3.538623,1.7119629,0.5171997,158.0
17201,-22.410439,-6.1032867,-4.105255,-3.538623,1.7119629,0.5171997,158.0
17202,-22.410439,-6.1032867,-4.105255,-1.1852051,-0.43967286,0.8421753,158.0
17203,-16.465998,-6.28833,-3.903614,-1.1852051,-0.43967286,0.8421753,158.0
17204,-16.465998,-6.28833,-3.903614,0.39294434,-0.72854006,0.42692873,158.0
17205,-10.1612015,-7.2509384,-3.118887,0.39294434,-0.72854006,0.42692873,158.0
17206,-10.1612015,-7.2509384,-3.118887,4.585767,-2.2079225,0.13487549,158.0
17207,-5.715045,-5.8865433,-1.0068779,4.585767,-2.2079225,0.13487549,158.0
17208,-5.715045,-5.8865433,-1.0068779,7.134595,-3.9326293,1.3307008,158.0
17209,-0.6374283,-2.618454,0.48022652,7.134595,-3.9326293,1.3307008,158.0
17210,-0.6374283,-2.618454,0.48022652,7.8981814,-4.8703856,3.536499,158.0
17211,5.6272526,-0.22143555,0.9835453,7.8981814,-4.8703856,3.536499,158.0
17212,5.6272526,-0.22143555,0.9835453,6.7490845,-4.439209,5.8389406,158.0
17213,11.136703,-2.7182999,1.1524487,6.7490845,-4.439209,5.8389406,158.0
17214,11.136703,-2.7182999,1.1524487,7.155835,-4.7397585,5.3557253,158.0
17215,18.637976,-8.816879,-0.6539211,7.155835,-4.7397585,5.3557253,158.0
17216,18.637976,-8.816879,-0.6539211,9.05896,-3.1201904,5.0955324,158.0
17217,30.111248,-11.166283,-4.2536545,9.05896,-3.1201904,5.0955324,158.0
17218,30.111248,-11.166283,-4.2536545,8.755225,-1.2807862,5.1751833,158.0
17219,36.142746,-4.789055,-7.316498,8.755225,-1.2807862,5.1751833,158.0
17220,36.142746,-4.789055,-7.316498,4.421155,-0.7869507,7.123975,158.0
17221,29.383766,5.3388367,-5.945324,4.421155,-0.7869507,7.123975,158.0
17222,29.383766,5.3388367,-5.945324,2.2089844,-1.8595825,7.5562134,158.0
17223,15.962799,10.646339,-1.2747765,2.2089844,-1.8595825,7.5562134,158.0
17224,15.962799,10.646339,-1.2747765,5.3100586,-4.073877,7.0814943,158.0
17225,5.113304,11.345932,-1.0605812,5.3100586,-4.073877,7.0814943,158.0
17226,5.113304,11.345932,-1.0605812,7.590198,-4.3000855,6.1384277,158.0
17227,-1.6378479,14.249901,-5.0777855,7.590198,-4.3000855,6.1384277,158.0
17228,-1.6378479,14.249901,-5.0777855,5.1146483,-2.3693483,4.0929933,158.0
17229,-8.189625,21.71193,-4.727352,5.1146483,-2.3693483,4.0929933,158.0
17230,-8.189625,21.71193,-4.727352,1.9498535,-1.4645141,2.8727417,158.0
17231,-15.4598675,24.717957,1.2551174,1.9498535,-1.4645141,2.8727417,158.0
17232,-15.4598675,24.717957,1.2551174,-0.83049315,-2.1452637,1.0014771,158.0
17233,-18.870056,17.436192,6.7959766,-0.83049315,-2.1452637,1.0014771,158.0
17234,-18.870056,17.436192,6.7959766,0.28674316,-2.7729127,-2.5169678,158.0
17235,-15.387255,7.5726585,8.300686,0.28674316,-2.7729127,-2.5169678,158.0
17236,-15.387255,7.5726585,8.300686,0.90802,-3.0723999,-3.9251955,158.0
17237,-8.497537,1.753891,6.4037437,0.90802,-3.0723999,-3.9251955,158.0
17238,-8.497537,1.753891,6.4037437,0.015930176,-2.3820922,-3.9230714,158.0
17239,-3.3469677,-0.86699295,3.6466885,0.015930176,-2.3820922,-3.9230714,158.0
17240,-3.3469677,-0.86699295,3.6466885,-1.6195679,-1.8245362,-4.489124,158.0
17241,-0.6914172,-2.1731377,1.6433525,-1.6195679,-1.8245362,-4.489124,158.0
17242,-0.6914172,-2.1731377,1.6433525,-2.9460206,-0.96430665,-4.3999147,158.0
17243,0.6423378,-2.5938568,0.7942238,-2.9460206,-0.96430665,-4.3999147,158.0
17244,0.6423378,-2.5938568,0.7942238,-3.8752809,0.36851808,-3.7796998,158.0
17245,0.7702427,-2.8582764,1.0535545,-3.8752809,0.36851808,-3.7796998,158.0
17246,0.7702427,-2.8582764,1.0535545,-4.460449,0.98129886,-3.4281738,158.0
17247,1.757967,-3.5956764,1.1391563,-4.460449,0.98129886,-3.4281738,158.0
17248,1.757967,-3.5956764,1.1391563,-5.2006717,0.9505005,-3.5407472,158.0
17249,5.898513,-5.2831573,0.15535545,-5.2006717,0.9505005,-3.5407472,158.0
17250,5.898513,-5.2831573,0.15535545,-6.3752565,2.255713,-4.364868,158.0
17251,10.998864,-8.803146,-1.3820763,-6.3752565,2.255713,-4.364868,158.0
17252,10.998864,-8.803146,-1.3820763,-7.151587,2.447937,-5.060486,158.0
17253,12.868317,-12.455673,-2.5951023,-7.151587,2.447937,-5.060486,158.0
17254,12.868317,-12.455673,-2.5951023,-8.212537,3.717041,-4.3861084,158.0
17255,9.955921,-12.09951,-1.7032795,-8.212537,3.717041,-4.3861084,158.0
17256,9.955921,-12.09951,-1.7032795,-9.474207,3.7489014,-1.4305298,158.0
17257,3.9660072,-8.220222,0.66088676,-9.474207,3.7489014,-1.4305298,158.0
17258,3.9660072,-8.220222,0.66088676,-11.417688,2.6741455,0.8846558,158.0
17259,-3.423483,-5.76635,0.4520378,-11.417688,2.6741455,0.8846558,158.0
17260,-3.423483,-5.76635,0.4520378,-9.571912,2.165442,2.075171,158.0
17261,-10.6315365,-5.3650208,-2.1111736,-9.571912,2.165442,2.075171,158.0
17262,-10.6315365,-5.3650208,-2.1111736,-6.603589,2.552014,1.6195679,158.0
17263,-15.771025,-4.234268,-2.4364376,-6.603589,2.552014,1.6195679,158.0
17264,-15.771025,-4.234268,-2.4364376,-3.9071412,2.608301,1.0269654,158.0
17265,-18.87373,-1.2214737,1.1159248,-3.9071412,2.608301,1.0269654,158.0
17266,-18.87373,-1.2214737,1.1159248,-2.6868896,1.6684204,0.32709962,158.0
17267,-20.30035,2.297493,5.3306046,-2.6868896,1.6684204,0.32709962,158.0
17268,-20.30035,2.297493,5.3306046,-2.4033325,0.2357666,0.9515625,158.0
17269,-19.195822,4.2102356,7.162958,-2.4033325,0.2357666,0.9515625,158.0
17270,-19.195822,4.2102356,7.162958,-2.1781862,-1.1002442,1.9148072,158.0
17271,-15.657342,3.7415314,6.667721,-2.1781862,-1.1002442,1.9148072,158.0
17272,-15.657342,3.7415314,6.667721,-1.7300171,-1.6153198,2.077295,158.0
17273,-11.446712,1.9357529,5.4921837,-1.7300171,-1.6153198,2.077295,158.0
17274,-11.446712,1.9357529,5.4921837,-0.73809814,-2.3279297,2.1399536,158.0
17275,-7.583907,0.3085251,4.317734,-0.73809814,-2.3279297,2.1399536,158.0
17276,-7.583907,0.3085251,4.317734,0.56392825,-3.09364,2.0942872,158.0
17277,-7.583907,0.3085251,4.317734,0.56392825,-3.09364,2.0942872,158.0
17278,-3.8129635,-0.45246124,3.0717163,0.56392825,-3.09364,2.0942872,158.0
17279,-3.8129635,-0.45246124,3.0717163,2.1250856,-3.9581177,2.2121704,158.0
17280,-0.012187958,-0.47309113,1.5692635,2.1250856,-3.9581177,2.2121704,158.0
17281,-0.012187958,-0.47309113,1.5692635,3.4727783,-4.799231,2.4681153,158.0
17282,3.483182,-0.09763336,-0.63337135,3.4727783,-4.799231,2.4681153,158.0
17283,3.483182,-0.09763336,-0.63337135,4.2554812,-5.341919,2.720874,158.0
17284,6.3632307,-0.4208908,-3.8797798,4.2554812,-5.341919,2.720874,158.0
17285,6.3632307,-0.4208908,-3.8797798,4.7694945,-5.779468,2.8663697,158.0
17286,9.112473,-4.601822,-8.074087,4.7694945,-5.779468,2.8663697,158.0
17287,9.112473,-4.601822,-8.074087,5.6775146,-5.985498,2.540332,158.0
17288,12.599902,-10.769127,-12.258745,5.6775146,-5.985498,2.540332,158.0
17289,12.599902,-10.769127,-12.258745,8.533264,-5.0243773,0.48321533,158.0
17290,17.892971,-11.387985,-14.278456,8.533264,-5.0243773,0.48321533,158.0
17291,17.892971,-11.387985,-14.278456,8.505652,-3.7297852,0.6085327,158.0
17292,21.794724,-4.949402,-11.503319,8.505652,-3.7297852,0.6085327,158.0
17293,21.794724,-4.949402,-11.503319,5.254834,-2.6752076,1.4082276,158.0
17294,18.145288,2.0887222,-4.602606,5.254834,-2.6752076,1.4082276,158.0
17295,18.145288,2.0887222,-4.602606,3.178601,-3.812622,2.5732543,158.0
17296,9.050716,6.3488846,1.4012775,3.178601,-3.812622,2.5732543,158.0
17297,9.050716,6.3488846,1.4012775,2.896106,-4.358496,1.7576294,158.0
17298,1.7503262,9.717049,3.5079975,2.896106,-4.358496,1.7576294,158.0
17299,1.7503262,9.717049,3.5079975,2.984253,-4.0016603,1.9530395,158.0
17300,1.7503262,9.717049,3.5079975,2.2843874,-3.439856,1.0354614,158.0
17301,-2.0607128,12.056793,3.3006477,2.2843874,-3.439856,1.0354614,158.0
17302,-8.662621,17.46019,7.9478416,2.2843874,-3.439856,1.0354614,158.0
17303,-8.662621,17.46019,7.9478416,1.3668091,-2.5063477,-0.6064087,158.0
17304,-8.662621,17.46019,7.9478416,0.5012695,-2.272705,-0.9568726,158.0
17305,-8.662621,17.46019,7.9478416,-0.046728518,-2.166504,-1.6514282,158.0
17306,-7.4250917,11.640732,7.431797,-0.046728518,-2.166504,-1.6514282,158.0
17307,-7.4250917,11.640732,7.431797,0.1996582,-1.8808228,-2.3332398,158.0
17308,-4.5925026,7.1083107,5.67404,0.1996582,-1.8808228,-2.3332398,158.0
17309,-4.5925026,7.1083107,5.67404,-0.4088745,-1.1076783,-2.6752076,158.0
17310,-1.6359773,4.4469643,3.3645363,-0.4088745,-1.1076783,-2.6752076,158.0
17311,-1.6359773,4.4469643,3.3645363,-1.3009644,0.083898924,-2.9407105,158.0
17312,0.06496096,2.708023,1.5581932,-1.3009644,0.083898924,-2.9407105,158.0
17313,0.06496096,2.708023,1.5581932,-2.1102173,0.998291,-3.1361206,158.0
17314,0.80492306,1.2808456,0.9978485,-2.1102173,0.998291,-3.1361206,158.0
17315,0.80492306,1.2808456,0.9978485,-3.1849732,1.8011719,-3.2327638,158.0
17316,2.2001762,-0.3714676,1.046669,-3.1849732,1.8011719,-3.2327638,158.0
17317,2.2001762,-0.3714676,1.046669,-4.0462646,2.1091554,-3.6788087,158.0
17318,6.134897,-3.219551,-0.13515091,-4.0462646,2.1091554,-3.6788087,158.0
17319,6.134897,-3.219551,-0.13515091,-5.1953616,3.2890503,-4.248047,158.0
17320,11.106977,-8.714642,-2.238615,-5.1953616,3.2890503,-4.248047,158.0
17321,11.106977,-8.714642,-2.238615,-4.8650756,4.527356,-5.243152,158.0
17322,12.398839,-13.379883,-2.9692364,-4.8650756,4.527356,-5.243152,158.0
17323,12.398839,-13.379883,-2.9692364,-4.0632567,5.233594,-5.3217406,158.0
17324,8.682304,-10.908325,-1.6594963,-4.0632567,5.233594,-5.3217406,158.0
17325,8.682304,-10.908325,-1.6594963,-4.032459,4.6463013,-3.8338623,158.0
17326,3.14892,-4.376587,0.10932922,-4.032459,4.6463013,-3.8338623,158.0
17327,3.14892,-4.376587,0.10932922,-6.685364,4.2278686,-2.8376954,158.0
17328,-2.1042652,-0.7127228,0.28077316,-6.685364,4.2278686,-2.8376954,158.0
17329,-2.1042652,-0.7127228,0.28077316,-9.552795,4.009094,-2.362976,158.0
17330,-7.1883926,-0.17871857,-1.0522366,-9.552795,4.009094,-2.362976,158.0
17331,-7.1883926,-0.17871857,-1.0522366,-10.512855,4.246985,-1.8786987,158.0
17332,-11.511004,-1.6701813,-2.4173622,-10.512855,4.246985,-1.8786987,158.0
17333,-11.511004,-1.6701813,-2.4173622,-8.187049,4.364868,-1.7002808,158.0
17334,-14.648037,-4.1798477,-2.5911407,-8.187049,4.364868,-1.7002808,158.0
17335,-14.648037,-4.1798477,-2.5911407,-3.6979249,4.242737,-1.9307374,158.0
17336,-16.989681,-4.9023895,-0.55656815,-3.6979249,4.242737,-1.9307374,158.0
17337,-16.989681,-4.9023895,-0.55656815,-0.6796875,3.1977174,-2.1325195,158.0
17338,-18.332506,-2.8188019,3.1705418,-0.6796875,3.1977174,-2.1325195,158.0
17339,-18.332506,-2.8188019,3.1705418,-0.4715332,0.71367186,-1.4793824,158.0
17340,-16.554396,-0.5329819,5.426779,-0.4715332,0.71367186,-1.4793824,158.0
17341,-16.554396,-0.5329819,5.426779,-1.1416626,-0.7742066,0.0031860352,158.0
17342,-11.882397,-0.72232056,4.6873207,-1.1416626,-0.7742066,0.0031860352,158.0
17343,-11.882397,-0.72232056,4.6873207,-0.5649902,-1.0216553,0.39400634,158.0
17344,-7.895029,-2.6206207,3.7651653,-0.5649902,-1.0216553,0.39400634,158.0
17345,-7.895029,-2.6206207,3.7651653,1.448584,-1.3848633,1.2988404,158.0
17346,-5.336629,-3.7855377,4.4049416,1.448584,-1.3848633,1.2988404,158.0
17347,-5.336629,-3.7855377,4.4049416,3.6522584,-2.707068,2.5668824,158.0
17348,-2.0657873,-3.3924255,4.565958,3.6522584,-2.707068,2.5668824,158.0
17349,-2.0657873,-3.3924255,4.565958,5.0445557,-3.2922363,3.619336,158.0
17350,2.293952,-2.3442154,3.2186852,5.0445557,-3.2922363,3.619336,158.0
17351,2.293952,-2.3442154,3.2186852,5.4109497,-3.8731568,4.620813,158.0
17352,7.1586485,-2.7424164,1.3861923,5.4109497,-3.8731568,4.620813,158.0
17353,7.1586485,-2.7424164,1.3861923,5.076416,-5.27926,5.498035,158.0
17354,14.530386,-5.97052,-1.6536922,5.076416,-5.27926,5.498035,158.0
17355,14.530386,-5.97052,-1.6536922,4.8247194,-5.1688113,4.7748046,158.0
17356,24.599346,-7.8401794,-5.756523,4.8247194,-5.1688113,4.7748046,158.0
17357,24.599346,-7.8401794,-5.756523,6.6736817,-1.9137452,3.7945678,158.0
17358,27.9572,-4.687027,-7.9604683,6.6736817,-1.9137452,3.7945678,158.0
17359,27.9572,-4.687027,-7.9604683,6.3423343,-2.1388917,4.7748046,158.0
17360,22.129395,0.5028763,-7.114847,6.3423343,-2.1388917,4.7748046,158.0
17361,22.129395,0.5028763,-7.114847,5.0063233,-2.6486573,4.6537356,158.0
17362,13.48418,4.9993744,-4.8977623,5.0063233,-2.6486573,4.6537356,158.0
17363,13.48418,4.9993744,-4.8977623,4.987207,-2.9300904,4.3733644,158.0
17364,4.3489037,9.524414,-3.2681007,4.987207,-2.9300904,4.3733644,158.0
17365,4.3489037,9.524414,-3.2681007,5.0116334,-2.893982,4.0929933,158.0
17366,-3.3883705,13.807167,-3.2879295,5.0116334,-2.893982,4.0929933,158.0
17367,-3.3883705,13.807167,-3.2879295,5.26864,-2.8472536,3.5938478,158.0
17368,-8.182376,15.849052,-3.2243137,5.26864,-2.8472536,3.5938478,158.0
17369,-8.182376,15.849052,-3.2243137,3.3952515,-2.727246,2.1919923,158.0
17370,-10.186037,16.158676,-1.3357868,3.3952515,-2.727246,2.1919923,158.0
17371,-10.186037,16.158676,-1.3357868,2.5074098,-2.3725343,0.8750977,158.0
17372,-10.734023,14.338539,1.1386833,2.5074098,-2.3725343,0.8750977,158.0
