,accx,accy,accz,gyrox,gyroy,gyroz,heart rate
17742,run,run,run,run,run,run,run
17743,-0.15934658,0.4018898,-0.60110474,-0.13699952,0.14337158,0.14230958,68.0
17744,-0.15934658,0.4018898,-0.60110474,-0.09770508,0.10938721,0.19222413,68.0
17745,-0.088219166,0.40071106,-0.48110962,-0.09770508,0.10938721,0.19222413,68.0
17746,-0.088219166,0.40071106,-0.48110962,-0.14337158,0.06478272,0.54587406,68.0
17747,-0.025897503,0.40797043,-0.38719177,-0.14337158,0.06478272,0.54587406,68.0
17748,-0.025897503,0.40797043,-0.38719177,-0.1996582,0.08283692,0.61065674,68.0
17749,-2.2076077,0.29693222,0.29841614,-0.1996582,0.08283692,0.61065674,68.0
17750,-2.2076077,0.29693222,0.29841614,-0.23682861,0.035046387,0.5341919,68.0
17751,-1.6251802,0.318758,0.43197632,-0.23682861,0.035046387,0.5341919,68.0
17752,-1.6251802,0.318758,0.43197632,-0.25913087,0.009558106,0.5331299,68.0
17753,-1.1625834,0.3189335,0.47366333,-0.25913087,0.009558106,0.5331299,68.0
17754,-1.1625834,0.3189335,0.47366333,-0.16142578,0.06903076,0.5320679,68.0
17755,-0.70277166,0.31724358,0.54341125,-0.16142578,0.06903076,0.5320679,68.0
17756,-0.70277166,0.31724358,0.54341125,-0.16248779,0.043542482,0.47365722,68.0
17757,-0.48410416,0.33887863,0.3861084,-0.16248779,0.043542482,0.47365722,68.0
17758,-0.48410416,0.33887863,0.3861084,-0.15505372,0.04460449,0.44073486,68.0
17759,-0.14700031,0.46944237,-0.1292572,-0.15505372,0.04460449,0.44073486,68.0
17760,-0.14700031,0.46944237,-0.1292572,-0.21240234,0.05522461,0.3993164,68.0
17761,-0.14700031,0.46944237,-0.1292572,-0.24107666,0.020178223,0.39506838,68.0
17762,-0.030759811,0.4771042,-0.26774597,-0.24107666,0.020178223,0.39506838,68.0
17763,0.21682262,0.38290405,-0.6600647,-0.24107666,0.020178223,0.39506838,68.0
17764,0.21682262,0.38290405,-0.6600647,-0.28355715,-0.06159668,0.35471192,68.0
17765,0.30459833,0.29798508,-0.5823822,-0.28355715,-0.06159668,0.35471192,68.0
17766,0.30459833,0.29798508,-0.5823822,-0.2782471,-0.08814698,0.32285157,68.0
17767,0.63165474,0.16763496,-0.47525024,-0.2782471,-0.08814698,0.32285157,68.0
17768,0.63165474,0.16763496,-0.47525024,-0.24213867,-0.12956543,0.20921631,68.0
17769,0.631227,0.15387154,-0.3348236,-0.24213867,-0.12956543,0.20921631,68.0
17770,0.631227,0.15387154,-0.3348236,-0.23682861,-0.14230958,0.16461182,68.0
17771,0.6940808,0.3036766,-0.31965637,-0.23682861,-0.14230958,0.16461182,68.0
17772,0.6940808,0.3036766,-0.31965637,-0.32072756,-0.19328614,0.026550293,68.0
17773,0.5727453,0.31626892,-0.28938293,-0.32072756,-0.19328614,0.026550293,68.0
17774,0.5727453,0.31626892,-0.28938293,-0.36745605,-0.24213867,-0.033984374,68.0
17775,0.5025568,0.27274132,-0.37734985,-0.36745605,-0.24213867,-0.033984374,68.0
17776,0.5025568,0.27274132,-0.37734985,-0.38763428,-0.3079834,-0.17416993,68.0
17777,0.470881,-0.0116539,-0.43156433,-0.38763428,-0.3079834,-0.17416993,68.0
17778,0.470881,-0.0116539,-0.43156433,-0.3695801,-0.35577393,-0.34727785,68.0
17779,0.43838692,-0.40727234,-0.3380127,-0.3695801,-0.35577393,-0.34727785,68.0
17780,0.43838692,-0.40727234,-0.3380127,-0.2984253,-0.42268068,-0.541626,68.0
17781,0.43117857,-0.6924801,-0.044570923,-0.2984253,-0.42268068,-0.541626,68.0
17782,0.43117857,-0.6924801,-0.044570923,-0.23364258,-0.49277344,-0.7604004,68.0
17783,0.54565096,-0.7733078,0.3901825,-0.23364258,-0.49277344,-0.7604004,68.0
17784,0.54565096,-0.7733078,0.3901825,-0.38763428,-0.634021,-1.0365235,68.0
17785,0.9704566,-0.9258003,0.78611755,-0.38763428,-0.634021,-1.0365235,68.0
17786,0.9704566,-0.9258003,0.78611755,-0.72641605,-0.71579593,-1.3200806,68.0
17787,0.9704566,-0.9258003,0.78611755,-1.0131592,-0.6180908,-1.5462891,68.0
17788,1.5417337,-1.3603172,0.84754944,-1.0131592,-0.6180908,-1.5462891,68.0
17789,1.665992,-1.8234215,0.47821045,-1.0131592,-0.6180908,-1.5462891,68.0
17790,1.665992,-1.8234215,0.47821045,-1.0938721,-0.544812,-1.6588624,68.0
17791,1.3500178,-1.9221287,-0.112472534,-1.0938721,-0.544812,-1.6588624,68.0
17792,1.3500178,-1.9221287,-0.112472534,-1.2096313,-0.5734863,-1.7640015,68.0
17793,1.1184664,-1.6671944,-0.7508545,-1.2096313,-0.5734863,-1.7640015,68.0
17794,1.1184664,-1.6671944,-0.7508545,-1.4592041,-0.5968506,-1.9275513,68.0
17795,1.1991553,-1.3434963,-1.2737427,-1.4592041,-0.5968506,-1.9275513,68.0
17796,1.1991553,-1.3434963,-1.2737427,-1.8786987,-0.6000366,-2.081543,68.0
17797,1.4775984,-1.2166424,-1.4528656,-1.8786987,-0.6000366,-2.081543,68.0
17798,1.4775984,-1.2166424,-1.4528656,-2.5976808,-0.5692383,-2.2780151,68.0
17799,1.8189073,-1.3419304,-1.2423096,-2.5976808,-0.5692383,-2.2780151,68.0
17800,1.8189073,-1.3419304,-1.2423096,-3.792444,-0.48640138,-2.4819214,68.0
17801,2.192284,-2.1635818,-0.7193756,-3.792444,-0.48640138,-2.4819214,68.0
17802,2.192284,-2.1635818,-0.7193756,-4.9999514,-0.59472656,-2.8525636,68.0
17803,2.6902895,-3.9152412,-0.3089447,-4.9999514,-0.59472656,-2.8525636,68.0
17804,2.6902895,-3.9152412,-0.3089447,-5.5511355,-0.47896728,-3.255066,68.0
17805,2.6902895,-3.9152412,-0.3089447,-5.4608645,-0.33984375,-3.5566773,68.0
17806,3.0236063,-5.9532623,-0.28149414,-5.4608645,-0.33984375,-3.5566773,68.0
17807,2.9436288,-7.316908,-0.4710083,-5.4608645,-0.33984375,-3.5566773,68.0
17808,2.9436288,-7.316908,-0.4710083,-5.260144,-0.046728518,-3.6522584,68.0
17809,2.4127889,-7.660838,-0.59835815,-5.260144,-0.046728518,-3.6522584,68.0
17810,2.4127889,-7.660838,-0.59835815,-5.3939576,0.2262085,-3.5120728,68.0
17811,1.4488956,-7.2197227,-0.57121277,-5.3939576,0.2262085,-3.5120728,68.0
17812,1.4488956,-7.2197227,-0.57121277,-6.180908,0.5140137,-3.1977174,68.0
17813,0.3372048,-6.43237,-0.90878296,-6.180908,0.5140137,-3.1977174,68.0
17814,0.3372048,-6.43237,-0.90878296,-7.2567263,0.8729736,-2.8599975,68.0
17815,-0.64108825,-5.7001686,-1.9433136,-7.2567263,0.8729736,-2.8599975,68.0
17816,-0.64108825,-5.7001686,-1.9433136,-8.15625,1.3328247,-2.51803,68.0
17817,-1.5376265,-4.9921293,-3.5095215,-8.15625,1.3328247,-2.51803,68.0
17818,-1.5376265,-4.9921293,-3.5095215,-8.5651245,1.7013428,-2.2875733,68.0
17819,-2.402733,-4.122048,-4.9442444,-8.5651245,1.7013428,-2.2875733,68.0
17820,-2.402733,-4.122048,-4.9442444,-8.28263,1.9307374,-2.2281005,68.0
17821,-3.097919,-3.2519722,-5.711899,-8.28263,1.9307374,-2.2281005,68.0
17822,-3.097919,-3.2519722,-5.711899,-7.0082154,1.9445435,-2.2992554,68.0
17823,-3.5199733,-2.6553617,-5.4617004,-7.0082154,1.9445435,-2.2992554,68.0
17824,-3.5199733,-2.6553617,-5.4617004,-4.8140993,1.8659546,-2.3905885,68.0
17825,-3.7630613,-2.1729708,-4.2043,-4.8140993,1.8659546,-2.3905885,68.0
17826,-3.7630613,-2.1729708,-4.2043,-2.788843,1.7586914,-2.4606812,68.0
17827,-3.8341184,-1.6336403,-2.8837585,-2.788843,1.7586914,-2.4606812,68.0
17828,-3.8341184,-1.6336403,-2.8837585,-1.7565674,1.5059327,-2.4914796,68.0
17829,-3.3029757,-1.4417267,-2.61438,-1.7565674,1.5059327,-2.4914796,68.0
17830,-3.3029757,-1.4417267,-2.61438,-1.9710938,1.1331666,-2.3183715,68.0
17831,-1.8523779,-1.9713869,-3.4029694,-1.9710938,1.1331666,-2.3183715,68.0
17832,-1.8523779,-1.9713869,-3.4029694,-2.5084717,0.9366943,-1.899939,68.0
17833,0.17467737,-3.333726,-4.1721954,-2.5084717,0.9366943,-1.899939,68.0
17834,0.17467737,-3.333726,-4.1721954,-2.6698976,0.8931519,-1.4103516,68.0
17835,2.450826,-5.2751226,-4.155197,-2.6698976,0.8931519,-1.4103516,68.0
17836,2.450826,-5.2751226,-4.155197,-2.5615723,0.80394286,-0.6860596,68.0
17837,4.7645793,-7.0311947,-3.3293457,-2.5615723,0.80394286,-0.6860596,68.0
17838,4.7645793,-7.0311947,-3.3293457,-1.6174439,0.630835,0.1263794,68.0
17839,6.874371,-7.995012,-2.1764984,-1.6174439,0.630835,0.1263794,68.0
17840,6.874371,-7.995012,-2.1764984,-0.012744141,0.2824951,0.99510497,68.0
17841,8.629978,-7.846718,-1.4178467,-0.012744141,0.2824951,0.99510497,68.0
17842,8.629978,-7.846718,-1.4178467,1.7013428,0.0031860352,1.9498535,68.0
17843,9.410318,-5.6976624,-1.0869904,1.7013428,0.0031860352,1.9498535,68.0
17844,9.410318,-5.6976624,-1.0869904,2.7283082,-0.14124756,2.8557496,68.0
17845,8.381855,-1.6531739,-0.6188507,2.7283082,-0.14124756,2.8557496,68.0
17846,8.381855,-1.6531739,-0.6188507,3.1966553,-0.1901001,3.3771973,68.0
17847,5.7488317,2.6209178,-0.21435547,3.1966553,-0.1901001,3.3771973,68.0
17848,5.7488317,2.6209178,-0.21435547,3.0957642,-0.22514649,3.4727783,68.0
17849,2.483758,5.8864193,-0.099624634,3.0957642,-0.22514649,3.4727783,68.0
17850,2.483758,5.8864193,-0.099624634,2.7707887,-0.42799073,3.258252,68.0
17851,-0.547112,7.9719777,0.2872162,2.7707887,-0.42799073,3.258252,68.0
17852,-0.547112,7.9719777,0.2872162,2.5806885,-0.84323734,2.9343383,68.0
17853,-2.720807,9.376251,1.106308,2.5806885,-0.84323734,2.9343383,68.0
17854,-2.720807,9.376251,1.106308,2.5870607,-1.2011353,2.5934327,68.0
17855,-4.04542,10.192347,1.8428802,2.5870607,-1.2011353,2.5934327,68.0
17856,-4.04542,10.192347,1.8428802,2.616797,-1.5484132,2.3162477,68.0
17857,-4.646749,9.830025,2.1321259,2.616797,-1.5484132,2.3162477,68.0
17858,-4.646749,9.830025,2.1321259,3.260376,-1.8181641,1.8925049,68.0
17859,-4.512065,8.865387,1.8440552,3.260376,-1.8181641,1.8925049,68.0
17860,-4.512065,8.865387,1.8440552,3.42074,-1.2860962,1.6153198,68.0
17861,-4.346615,8.383191,1.1990967,3.42074,-1.2860962,1.6153198,68.0
17862,-4.346615,8.383191,1.1990967,2.6157348,-0.94731444,1.3275146,68.0
17863,-4.509165,8.259739,0.4190216,2.6157348,-0.94731444,1.3275146,68.0
17864,-4.509165,8.259739,0.4190216,1.2075074,-0.5256958,0.815625,68.0
17865,-4.3352127,7.673929,-0.286026,1.2075074,-0.5256958,0.815625,68.0
17866,-4.3352127,7.673929,-0.286026,-0.13806152,-0.18372802,0.07646485,68.0
17867,-3.382208,6.4235554,-0.68348694,-0.13806152,-0.18372802,0.07646485,68.0
17868,-3.382208,6.4235554,-0.68348694,-0.9781128,0.54587406,-0.6053467,68.0
17869,-2.006548,4.6320457,-0.53982544,-0.9781128,0.54587406,-0.6053467,68.0
17870,-2.006548,4.6320457,-0.53982544,-1.359375,1.3678712,-1.4007934,68.0
17871,-0.04008937,1.9527073,-0.4685974,-1.359375,1.3678712,-1.4007934,68.0
17872,-0.04008937,1.9527073,-0.4685974,-1.7438233,2.2843874,-2.5732543,68.0
17873,2.736715,-2.0782146,-1.3166504,-1.7438233,2.2843874,-2.5732543,68.0
17874,2.736715,-2.0782146,-1.3166504,-2.2227905,2.9354005,-3.7701416,68.0
17875,5.705083,-9.273631,-1.9449158,-2.2227905,2.9354005,-3.7701416,68.0
17876,5.705083,-9.273631,-1.9449158,-1.8627685,2.5647583,-4.963843,68.0
17877,9.487028,-18.851048,-0.95436096,-1.8627685,2.5647583,-4.963843,68.0
17878,9.487028,-18.851048,-0.95436096,0.42268068,3.3729494,-5.347229,68.0
17879,11.4653425,-21.01133,2.5482788,0.42268068,3.3729494,-5.347229,68.0
17880,11.4653425,-21.01133,2.5482788,-0.9324463,3.7181032,-3.1106324,68.0
17881,7.5826874,-12.312006,7.2678986,-0.9324463,3.7181032,-3.1106324,68.0
17882,7.5826874,-12.312006,7.2678986,-6.085327,2.1930542,-0.30479738,68.0
17883,0.36048603,-3.4414754,8.540649,-6.085327,2.1930542,-0.30479738,68.0
17884,0.36048603,-3.4414754,8.540649,-6.17666,0.8793457,0.5479981,68.0
17885,-5.2244287,0.5520077,4.786957,-6.17666,0.8793457,0.5479981,68.0
17886,-5.2244287,0.5520077,4.786957,-3.4972045,-0.022302246,0.8666016,68.0
17887,-7.507326,2.014592,-0.6863098,-3.4972045,-0.022302246,0.8666016,68.0
17888,-7.507326,2.014592,-0.6863098,-1.3657471,-0.2548828,0.96430665,68.0
17889,-7.664272,2.2493935,-3.9021149,-1.3657471,-0.2548828,0.96430665,68.0
17890,-7.664272,2.2493935,-3.9021149,1.1352905,0.08814698,0.9451904,68.0
17891,-7.3374724,3.2759917,-3.7010498,1.1352905,0.08814698,0.9451904,68.0
17892,-7.3374724,3.2759917,-3.7010498,2.6380372,0.2166504,0.8496094,68.0
17893,-7.3205028,6.0097337,-2.0270844,2.6380372,0.2166504,0.8496094,68.0
17894,-7.3205028,6.0097337,-2.0270844,1.7310791,0.37807617,0.62764895,68.0
17895,-7.0398374,8.291905,-0.88908386,1.7310791,0.37807617,0.62764895,68.0
17896,-7.0398374,8.291905,-0.88908386,0.2166504,0.632959,0.2262085,68.0
17897,-6.032261,8.004789,-0.6704407,0.2166504,0.632959,0.2262085,68.0
17898,-6.032261,8.004789,-0.6704407,-0.47578126,0.81987303,0.12956543,68.0
17899,-4.55253,5.8278675,-0.95466614,-0.47578126,0.81987303,0.12956543,68.0
17900,-4.55253,5.8278675,-0.95466614,-0.540564,0.9547486,0.121069334,68.0
17901,-3.1140208,3.5072527,-1.320404,-0.540564,0.9547486,0.121069334,68.0
17902,-3.1140208,3.5072527,-1.320404,-0.5076416,1.0503296,0.2984253,68.0
17903,-2.0584893,1.6278839,-1.4477997,-0.5076416,1.0503296,0.2984253,68.0
17904,-2.0584893,1.6278839,-1.4477997,-0.48746338,1.0492676,0.49171144,68.0
17905,-1.3950338,-0.848609,-0.98939514,-0.48746338,1.0492676,0.49171144,68.0
17906,-1.3950338,-0.848609,-0.98939514,0.046728518,0.7784546,0.45666504,68.0
17907,-0.61374474,-5.7171316,0.38319397,0.046728518,0.7784546,0.45666504,68.0
17908,-0.61374474,-5.7171316,0.38319397,0.814563,0.2516968,-0.035046387,68.0
17909,1.7020588,-12.643456,2.2044525,0.814563,0.2516968,-0.035046387,68.0
17910,1.7020588,-12.643456,2.2044525,1.3530029,-0.1274414,-0.59260255,68.0
17911,7.1165786,-17.796625,3.2064514,1.3530029,-0.1274414,-0.59260255,68.0
17912,7.1165786,-17.796625,3.2064514,2.163318,0.13912354,-0.542688,68.0
17913,14.037477,-17.425827,2.940628,2.163318,0.13912354,-0.542688,68.0
17914,14.037477,-17.425827,2.940628,3.2858644,0.33665773,0.9197022,68.0
17915,16.612415,-11.456299,1.5755768,3.2858644,0.33665773,0.9197022,68.0
17916,16.612415,-11.456299,1.5755768,3.98573,0.60959476,2.1452637,68.0
17917,12.486174,-2.5704222,-0.7449188,3.98573,0.60959476,2.1452637,68.0
17918,12.486174,-2.5704222,-0.7449188,2.8621216,0.57242435,3.429236,68.0
17919,5.6839705,5.8511453,-2.4502106,2.8621216,0.57242435,3.429236,68.0
17920,5.6839705,5.8511453,-2.4502106,0.8878418,-0.36745605,4.134412,68.0
17921,0.5011072,11.807271,-1.8721619,0.8878418,-0.36745605,4.134412,68.0
17922,0.5011072,11.807271,-1.8721619,-0.71791995,-1.4262818,4.4710693,68.0
17923,-2.1710134,14.464311,0.107040405,-0.71791995,-1.4262818,4.4710693,68.0
17924,-2.1710134,14.464311,0.107040405,-2.177124,-2.151636,4.3510623,68.0
17925,-3.7468696,13.359596,1.2757416,-2.177124,-2.151636,4.3510623,68.0
17926,-3.7468696,13.359596,1.2757416,-2.5052857,-2.4999757,3.4844606,68.0
17927,-4.6995096,10.190118,0.8423767,-2.5052857,-2.4999757,3.4844606,68.0
17928,-4.6995096,10.190118,0.8423767,-2.2057984,-2.6433473,2.5488281,68.0
17929,-5.007704,7.362299,-0.5082855,-2.2057984,-2.6433473,2.5488281,68.0
17930,-5.007704,7.362299,-0.5082855,-1.8659546,-2.6752076,1.5834595,68.0
17931,-4.785106,6.119917,-1.8620605,-1.8659546,-2.6752076,1.5834595,68.0
17932,-4.785106,6.119917,-1.8620605,-1.3275146,-2.252527,0.13381349,68.0
17933,-3.9684172,6.945567,-2.6489105,-1.3275146,-2.252527,0.13381349,68.0
17934,-3.9684172,6.945567,-2.6489105,-0.77526855,-1.269104,-0.6637573,68.0
17935,-3.0394068,8.331539,-2.8018036,-0.77526855,-1.269104,-0.6637573,68.0
17936,-3.0394068,8.331539,-2.8018036,-0.6053467,-0.010620117,-1.0768799,68.0
17937,-2.5139594,8.007162,-2.3779297,-0.6053467,-0.010620117,-1.0768799,68.0
17938,-2.5139594,8.007162,-2.3779297,-0.9366943,1.3094605,-1.4347779,68.0
17939,-1.8116559,5.1839523,-1.9218445,-0.9366943,1.3094605,-1.4347779,68.0
17940,-1.8116559,5.1839523,-1.9218445,-0.9568726,2.451123,-2.1983643,68.0
17941,-0.09685886,1.111126,-2.425766,-0.9568726,2.451123,-2.1983643,68.0
17942,-0.09685886,1.111126,-2.425766,-1.2213135,3.5800416,-3.1467407,68.0
17943,2.3523226,-4.108341,-3.6922302,-1.2213135,3.5800416,-3.1467407,68.0
17944,2.3523226,-4.108341,-3.6922302,-1.2754761,4.4540772,-4.3276978,68.0
17945,4.842185,-14.545206,-4.047409,-1.2754761,4.4540772,-4.3276978,68.0
17946,4.842185,-14.545206,-4.047409,1.5165528,3.880591,-6.492078,68.0
17947,7.375616,-27.606441,-1.7441101,1.5165528,3.880591,-6.492078,68.0
17948,7.375616,-27.606441,-1.7441101,9.318091,3.2051513,-8.369715,68.0
17949,9.503862,-25.61794,5.0671844,9.318091,3.2051513,-8.369715,68.0
17950,9.503862,-25.61794,5.0671844,8.310242,3.2380738,-5.2102294,68.0
17951,8.581398,-6.8262625,13.33725,8.310242,3.2380738,-5.2102294,68.0
17952,8.581398,-6.8262625,13.33725,0.4056885,0.30161133,-2.628479,68.0
17953,3.0113707,7.2538705,14.626495,0.4056885,0.30161133,-2.628479,68.0
17954,3.0113707,7.2538705,14.626495,-3.3655152,-0.32178956,1.6949707,68.0
17955,-3.1516457,9.462898,7.6367645,-3.3655152,-0.32178956,1.6949707,68.0
17956,-3.1516457,9.462898,7.6367645,-6.0216064,-0.71579593,1.9158691,68.0
17957,-6.8463774,6.4538517,-0.41426086,-6.0216064,-0.71579593,1.9158691,68.0
17958,-6.8463774,6.4538517,-0.41426086,-6.9381227,-0.65844727,2.1335816,68.0
17959,-8.857998,2.6152663,-4.827835,-6.9381227,-0.65844727,2.1335816,68.0
17960,-8.857998,2.6152663,-4.827835,-5.44281,-0.7083618,1.6599244,68.0
17961,-8.858871,0.75262594,-5.612747,-5.44281,-0.7083618,1.6599244,68.0
17962,-8.858871,0.75262594,-5.612747,-2.2833252,-0.44179687,0.8591675,68.0
17963,-7.3531375,2.0162973,-4.4652557,-2.2833252,-0.44179687,0.8591675,68.0
17964,-7.3531375,2.0162973,-4.4652557,0.07646485,0.21983643,0.6403931,68.0
17965,-6.0019436,5.2373056,-2.727005,0.07646485,0.21983643,0.6403931,68.0
17966,-6.0019436,5.2373056,-2.727005,0.45347902,0.5734863,0.26125488,68.0
17967,-5.328081,7.3973026,-1.2615356,0.45347902,0.5734863,0.26125488,68.0
17968,-5.328081,7.3973026,-1.2615356,0.38763428,0.59047854,-0.10089111,68.0
17969,-5.328081,7.3973026,-1.2615356,0.38763428,0.59047854,-0.10089111,0.0
17970,-4.451063,6.922529,-0.55744934,0.38763428,0.59047854,-0.10089111,0.0
17971,-4.451063,6.922529,-0.55744934,0.41737062,0.7072998,-0.14655761,0.0
17972,-3.330223,4.550804,-0.50849915,0.41737062,0.7072998,-0.14655761,0.0
17973,-3.330223,4.550804,-0.50849915,0.47578126,0.9133301,-0.07646485,0.0
17974,-2.6486754,1.2051945,-0.5809326,0.47578126,0.9133301,-0.07646485,0.0
17975,-2.6486754,1.2051945,-0.5809326,0.8219971,0.9281983,-0.21240234,0.0
17976,-2.4311104,-4.3394213,-0.11129761,0.8219971,0.9281983,-0.21240234,0.0
17977,-2.4311104,-4.3394213,-0.11129761,1.6004517,0.5968506,-0.90695804,0.0
17978,-1.8667512,-12.589323,1.2469635,1.6004517,0.5968506,-0.90695804,0.0
17979,-1.8667512,-12.589323,1.2469635,2.895044,-0.03079834,-1.8914429,0.0
17980,1.408308,-19.910007,3.1963806,2.895044,-0.03079834,-1.8914429,0.0
17981,1.408308,-19.910007,3.1963806,5.085974,-1.5303589,-3.5205688,0.0
17982,11.495251,-22.200005,4.5253754,5.085974,-1.5303589,-3.5205688,0.0
17983,11.495251,-22.200005,4.5253754,8.242273,-1.7002808,-3.5927856,0.0
17984,22.866917,-17.176006,4.8051453,8.242273,-1.7002808,-3.5927856,0.0
17985,22.866917,-17.176006,4.8051453,10.277087,1.7523193,-1.537793,0.0
17986,22.293888,-3.585556,3.88031,10.277087,1.7523193,-1.537793,0.0
17987,22.293888,-3.585556,3.88031,3.4186158,2.4086425,1.3922974,0.0
17988,11.439517,9.28468,0.5961151,3.4186158,2.4086425,1.3922974,0.0
17989,11.439517,9.28468,0.5961151,0.0063720704,0.64995116,3.8168702,0.0
17990,1.6840591,14.101573,-3.5305023,0.0063720704,0.64995116,3.8168702,0.0
17991,1.6840591,14.101573,-3.5305023,-0.9122681,0.29099122,6.078955,0.0
17992,-2.539032,14.742171,-4.5043793,-0.9122681,0.29099122,6.078955,0.0
17993,-2.539032,14.742171,-4.5043793,-3.2370117,-0.1178833,6.9211307,0.0
17994,-3.2900763,12.495861,-2.0718536,-3.2370117,-0.1178833,6.9211307,0.0
17995,-3.2900763,12.495861,-2.0718536,-5.077478,-0.4619751,6.6758056,0.0
17996,-3.680828,6.5977874,-0.02406311,-5.077478,-0.4619751,6.6758056,0.0
17997,-3.680828,6.5977874,-0.02406311,-1.179895,0.1083252,5.59574,0.0
17998,-5.146945,1.0374703,-0.42451477,-1.179895,0.1083252,5.59574,0.0
17999,-5.146945,1.0374703,-0.42451477,1.8425903,0.7327881,5.04668,0.0
18000,-6.084048,0.23711729,-1.6165924,1.8425903,0.7327881,5.04668,0.0
18001,-6.084048,0.23711729,-1.6165924,2.5902467,0.6180908,2.1261475,0.0
18002,-5.3759174,5.210519,-2.7150269,2.5902467,0.6180908,2.1261475,0.0
18003,-5.3759174,5.210519,-2.7150269,2.3194337,0.2623169,0.79332274,0.0
18004,-4.5016127,11.375495,-3.934372,2.3194337,0.2623169,0.79332274,0.0
18005,-4.5016127,11.375495,-3.934372,0.57242435,0.21452637,0.1720459,0.0
18006,-3.9806728,12.493194,-4.631012,0.57242435,0.21452637,0.1720459,0.0
18007,-3.9806728,12.493194,-4.631012,-0.35789797,0.4980835,-0.43011475,0.0
18008,-2.9764206,8.56394,-3.8004913,-0.35789797,0.4980835,-0.43011475,0.0
18009,-2.9764206,8.56394,-3.8004913,-0.62340087,1.1363525,-1.5792115,0.0
18010,-1.262057,2.911625,-1.9186401,-0.62340087,1.1363525,-1.5792115,0.0
18011,-1.262057,2.911625,-1.9186401,-1.5080566,1.5165528,-3.5078247,0.0
18012,0.73827934,-2.808981,0.14274597,-1.5080566,1.5165528,-3.5078247,0.0
18013,0.73827934,-2.808981,0.14274597,-1.9625977,1.2223755,-5.690259,0.0
18014,2.375914,-9.2977705,2.64682,-1.9625977,1.2223755,-5.690259,0.0
18015,2.375914,-9.2977705,2.64682,-1.350879,-0.33665773,-7.505237,0.0
18016,3.9344838,-17.839645,4.487335,-1.350879,-0.33665773,-7.505237,0.0
18017,3.9344838,-17.839645,4.487335,2.6953857,-1.4825684,-9.3287115,0.0
18018,6.6088786,-21.549463,4.891617,2.6953857,-1.4825684,-9.3287115,0.0
18019,6.6088786,-21.549463,4.891617,7.517981,-0.14230958,-7.715515,0.0
18020,9.574249,-12.865938,8.631378,7.517981,-0.14230958,-7.715515,0.0
18021,9.574249,-12.865938,8.631378,4.059009,-0.9228882,-3.4738405,0.0
18022,8.914014,-0.14391005,14.468887,4.059009,-0.9228882,-3.4738405,0.0
18023,8.914014,-0.14391005,14.468887,-0.04141846,-1.7586914,-0.19222413,0.0
18024,2.8051739,5.9901576,12.9144745,-0.04141846,-1.7586914,-0.19222413,0.0
18025,2.8051739,5.9901576,12.9144745,-3.521631,-1.5431031,1.6142578,0.0
18026,-4.016774,4.93341,4.869568,-3.521631,-1.5431031,1.6142578,0.0
18027,-4.016774,4.93341,4.869568,-5.3790894,-1.084314,2.3353639,0.0
18028,-7.861527,2.1467528,-2.7894897,-5.3790894,-1.084314,2.3353639,0.0
18029,-7.861527,2.1467528,-2.7894897,-5.6371584,-0.42905274,2.085791,0.0
18030,-8.919056,1.6004343,-7.2733917,-5.6371584,-0.42905274,2.085791,0.0
18031,-8.919056,1.6004343,-7.2733917,-4.70896,-0.022302246,1.5866455,0.0
18032,-8.449978,3.1128917,-8.09285,-4.70896,-0.022302246,1.5866455,0.0
18033,-8.449978,3.1128917,-8.09285,-3.5099487,0.3345337,1.3083985,0.0
18034,-7.5987644,5.047491,-6.309906,-3.5099487,0.3345337,1.3083985,0.0
18035,-7.5987644,5.047491,-6.309906,-2.53396,0.362146,0.95793456,0.0
18036,-6.962154,5.8801804,-3.8694458,-2.53396,0.362146,0.95793456,0.0
18037,-6.962154,5.8801804,-3.8694458,-1.3530029,0.29311523,0.725354,0.0
18038,-6.3600187,5.3288155,-2.070465,-1.3530029,0.29311523,0.725354,0.0
18039,-6.3600187,5.3288155,-2.070465,-0.29736328,0.04141846,0.29205322,0.0
18040,-5.326211,4.1569366,-1.335907,-0.29736328,0.04141846,0.29205322,0.0
18041,-5.326211,4.1569366,-1.335907,0.33984375,-0.21346436,0.029736329,0.0
18042,-4.1427803,2.8882322,-1.417099,0.33984375,-0.21346436,0.029736329,0.0
18043,-4.1427803,2.8882322,-1.417099,0.7699585,-0.2442627,0.014868164,0.0
18044,-3.6697664,0.34260464,-1.19133,0.7699585,-0.2442627,0.014868164,0.0
18045,-3.6697664,0.34260464,-1.19133,1.357251,-0.6467652,-0.30267334,0.0
18046,-3.5145488,-5.23246,0.2704773,1.357251,-0.6467652,-0.30267334,0.0
18047,-3.5145488,-5.23246,0.2704773,2.4213867,-1.1586548,-1.1172364,0.0
18048,-2.1312804,-12.66065,2.8986664,2.4213867,-1.1586548,-1.1172364,0.0
18049,-2.1312804,-12.66065,2.8986664,4.7790527,-2.0210083,-2.5881226,0.0
18050,3.2817068,-18.225151,5.2077026,4.7790527,-2.0210083,-2.5881226,0.0
18051,3.2817068,-18.225151,5.2077026,6.7713866,-3.0299194,-4.2023807,0.0
18052,15.4612665,-19.12629,5.673477,6.7713866,-3.0299194,-4.2023807,0.0
18053,15.4612665,-19.12629,5.673477,8.46211,-1.2266235,-4.0027223,0.0
18054,24.911934,-12.513678,4.9941254,8.46211,-1.2266235,-4.0027223,0.0
18055,24.911934,-12.513678,4.9941254,4.9171143,2.628479,-1.9222412,0.0
18056,21.405548,-0.9568281,3.4258118,4.9171143,2.628479,-1.9222412,0.0
18057,21.405548,-0.9568281,3.4258118,-0.17947999,1.9307374,0.08920898,0.0
18058,11.570923,6.6946697,-0.56417847,-0.17947999,1.9307374,0.08920898,0.0
18059,11.570923,6.6946697,-0.56417847,-0.58304447,1.8224121,2.537146,0.0
18060,2.8575802,9.092772,-5.0046387,-0.58304447,1.8224121,2.537146,0.0
18061,2.8575802,9.092772,-5.0046387,-0.76464844,1.355127,5.397144,0.0
18062,-2.1676226,11.207665,-5.361786,-0.76464844,1.355127,5.397144,0.0
18063,-2.1676226,11.207665,-5.361786,-1.6333741,0.18266602,6.969983,0.0
18064,-3.1736984,13.291511,-2.1689606,-1.6333741,0.18266602,6.969983,0.0
18065,-3.1736984,13.291511,-2.1689606,-3.7457154,0.4439209,7.1823854,0.0
18066,-4.138715,11.075029,0.39961243,-3.7457154,0.4439209,7.1823854,0.0
18067,-4.138715,11.075029,0.39961243,-3.5524292,0.540564,6.6736817,0.0
18068,-6.890379,4.845497,-0.1355133,-3.5524292,0.540564,6.6736817,0.0
18069,-6.890379,4.845497,-0.1355133,-1.7703736,0.5979126,6.5281863,0.0
18070,-6.890379,4.845497,-0.1355133,-1.7703736,0.5979126,6.5281863,0.0
18071,-8.83828,-0.7618351,-2.476822,-1.7703736,0.5979126,6.5281863,0.0
18072,-8.83828,-0.7618351,-2.476822,0.3154175,-0.10089111,3.4674683,0.0
18073,-7.177045,-0.037459373,-4.5838013,0.3154175,-0.10089111,3.4674683,0.0
18074,-7.177045,-0.037459373,-4.5838013,2.6868896,0.26656494,1.1947632,0.0
18075,-4.6388283,8.218178,-5.5290833,2.6868896,0.26656494,1.1947632,0.0
18076,-4.6388283,8.218178,-5.5290833,1.8001099,0.6488892,0.9600586,0.0
18077,-4.325101,14.622296,-5.2194366,1.8001099,0.6488892,0.9600586,0.0
18078,-4.325101,14.622296,-5.2194366,-0.38444826,1.0312134,0.34090576,0.0
18079,-4.1570535,12.263756,-4.596237,-0.38444826,1.0312134,0.34090576,0.0
18080,-4.1570535,12.263756,-4.596237,-0.89102787,2.0093262,-1.1013062,0.0
18081,-2.8471515,4.45047,-4.214798,-0.89102787,2.0093262,-1.1013062,0.0
18082,-2.8471515,4.45047,-4.214798,-1.6960328,2.5838745,-3.6331422,0.0
18083,-0.9694937,-3.156128,-2.4016266,-1.6960328,2.5838745,-3.6331422,0.0
18084,-0.9694937,-3.156128,-2.4016266,-1.9583496,1.9753418,-6.32959,0.0
18085,1.036075,-11.144495,2.2008362,-1.9583496,1.9753418,-6.32959,0.0
18086,1.036075,-11.144495,2.2008362,-0.9451904,-1.0567017,-8.122266,0.0
18087,4.732278,-20.935532,5.685379,-0.9451904,-1.0567017,-8.122266,0.0
18088,4.732278,-20.935532,5.685379,3.0575318,-0.94412845,-9.516687,0.0
18089,10.040559,-21.021215,6.978241,3.0575318,-0.94412845,-9.516687,0.0
18090,10.040559,-21.021215,6.978241,4.258667,0.66588134,-5.0328736,0.0
18091,11.859058,-8.073149,10.298798,4.258667,0.66588134,-5.0328736,0.0
18092,11.859058,-8.073149,10.298798,-0.9866089,-2.061365,-1.988086,0.0
18093,7.345914,0.310951,12.241821,-0.9866089,-2.061365,-1.988086,0.0
18094,7.345914,0.310951,12.241821,-3.0235474,-1.7735596,1.62594,0.0
18095,-0.25337124,0.81288433,7.676712,-3.0235474,-1.7735596,1.62594,0.0
18096,-0.25337124,0.81288433,7.676712,-3.8667848,-1.2924683,1.9859619,0.0
18097,-6.850329,0.7018211,0.14019775,-3.8667848,-1.2924683,1.9859619,0.0
18098,-6.850329,0.7018211,0.14019775,-3.8497925,-1.0556396,2.080481,0.0
18099,-10.324831,0.9847846,-5.322281,-3.8497925,-1.0556396,2.080481,0.0
18100,-10.324831,0.9847846,-5.322281,-2.992749,-0.9526245,1.5505371,0.0
18101,-10.045021,2.7237654,-6.8579254,-2.992749,-0.9526245,1.5505371,0.0
18102,-10.045021,2.7237654,-6.8579254,-1.6928467,-0.74871826,0.81881106,0.0
18103,-8.047406,5.4488244,-5.4403534,-1.6928467,-0.74871826,0.81881106,0.0
18104,-8.047406,5.4488244,-5.4403534,-0.5936646,-0.540564,0.4694092,0.0
18105,-6.68325,7.4654436,-3.0186157,-0.5936646,-0.540564,0.4694092,0.0
18106,-6.68325,7.4654436,-3.0186157,0.10513916,-0.5065796,0.13487549,0.0
18107,-6.2639585,7.7718544,-1.1381531,0.10513916,-0.5065796,0.13487549,0.0
18108,-6.2639585,7.7718544,-1.1381531,0.45454103,-0.61065674,0.028674318,0.0
18109,-5.9399023,6.5669346,-0.29421997,0.45454103,-0.61065674,0.028674318,0.0
18110,-5.9399023,6.5669346,-0.29421997,0.6786255,-0.7975708,-0.0053100586,0.0
18111,-5.323785,4.50074,-0.34780884,0.6786255,-0.7975708,-0.0053100586,0.0
18112,-5.323785,4.50074,-0.34780884,0.4885254,-0.7742066,0.008496094,0.0
18113,-4.974043,1.0812922,-0.49499512,0.4885254,-0.7742066,0.008496094,0.0
18114,-4.974043,1.0812922,-0.49499512,0.33878174,-0.73597413,-0.30161133,0.0
18115,-4.8922715,-6.022601,0.17362976,0.33878174,-0.73597413,-0.30161133,0.0
18116,-4.8922715,-6.022601,0.17362976,0.89208984,-0.88359374,-1.5048707,0.0
18117,-3.2001572,-16.56398,1.7001648,0.89208984,-0.88359374,-1.5048707,0.0
18118,-3.2001572,-16.56398,1.7001648,3.0394776,-1.6588624,-2.9067261,0.0
18119,3.4694276,-24.423168,2.9822235,3.0394776,-1.6588624,-2.9067261,0.0
18120,3.4694276,-24.423168,2.9822235,5.667957,-1.5101807,-3.5630493,0.0
18121,16.512981,-24.997337,3.0455933,5.667957,-1.5101807,-3.5630493,0.0
18122,16.512981,-24.997337,3.0455933,9.546424,-0.97386473,-3.7340333,0.0
18123,25.647715,-16.549383,2.168808,9.546424,-0.97386473,-3.7340333,0.0
18124,25.647715,-16.549383,2.168808,11.287061,2.5063477,-1.7926759,0.0
18125,21.4623,-9.689331E-4,0.9988556,11.287061,2.5063477,-1.7926759,0.0
18126,21.4623,-9.689331E-4,0.9988556,2.9088502,3.7648315,0.56392825,0.0
18127,9.97432,12.581891,-0.98387146,2.9088502,3.7648315,0.56392825,0.0
18128,9.97432,12.581891,-0.98387146,-1.2075074,2.18562,2.9269044,0.0
18129,0.9805546,14.480125,-3.982071,-1.2075074,2.18562,2.9269044,0.0
18130,0.9805546,14.480125,-3.982071,-1.3678712,1.8521484,5.423694,0.0
18131,-1.9431686,13.4038515,-4.5720825,-1.3678712,1.8521484,5.423694,0.0
18132,-1.9431686,13.4038515,-4.5720825,-2.1442018,0.8963379,7.259912,0.0
18133,-1.5122013,14.242186,-1.4410095,-2.1442018,0.8963379,7.259912,0.0
18134,-1.5122013,14.242186,-1.4410095,-4.2788453,0.6988037,7.855701,0.0
18135,-2.669075,13.149498,1.7910004,-4.2788453,0.6988037,7.855701,0.0
18136,-2.669075,13.149498,1.7910004,-4.901184,0.2177124,7.784546,0.0
18137,-6.6831727,6.8725166,1.7714233,-4.901184,0.2177124,7.784546,0.0
18138,-6.6831727,6.8725166,1.7714233,-1.6015137,-0.08814698,6.961487,0.0
18139,-9.062981,0.016153336,-0.7046814,-1.6015137,-0.08814698,6.961487,0.0
18140,-9.062981,0.016153336,-0.7046814,0.66481936,-0.3090454,3.725537,0.0
18141,-7.33664,0.77188206,-2.773407,0.66481936,-0.3090454,3.725537,0.0
18142,-7.33664,0.77188206,-2.773407,2.2270386,-0.60322267,1.3487549,0.0
18143,-4.925928,9.430311,-3.804779,2.2270386,-0.60322267,1.3487549,0.0
18144,-4.925928,9.430311,-3.804779,1.3721192,-0.32497558,1.0163453,0.0
18145,-4.491353,15.507103,-3.5793915,1.3721192,-0.32497558,1.0163453,0.0
18146,-4.491353,15.507103,-3.5793915,-0.35577393,0.08602295,0.41312256,0.0
18147,-4.2725625,12.788019,-2.7091522,-0.35577393,0.08602295,0.41312256,0.0
18148,-4.2725625,12.788019,-2.7091522,-0.8867798,0.96218264,-0.8772217,0.0
18149,-3.2691975,4.8936977,-2.2920685,-0.8867798,0.96218264,-0.8772217,0.0
18150,-3.2691975,4.8936977,-2.2920685,-1.8213501,1.5887696,-3.1191285,0.0
18151,-2.2745132,-4.1046467,-0.9383087,-1.8213501,1.5887696,-3.1191285,0.0
18152,-2.2745132,-4.1046467,-0.9383087,-1.6949707,0.98873293,-5.680701,0.0
18153,-1.0121399,-13.453127,1.9284668,-1.6949707,0.98873293,-5.680701,0.0
18154,-1.0121399,-13.453127,1.9284668,-0.32391357,-0.0998291,-7.0167117,0.0
18155,1.8755176,-20.747513,3.9176178,-0.32391357,-0.0998291,-7.0167117,0.0
18156,1.8755176,-20.747513,3.9176178,2.4171388,0.20178223,-7.2174315,0.0
18157,6.556823,-19.407446,5.914688,2.4171388,0.20178223,-7.2174315,0.0
18158,6.556823,-19.407446,5.914688,3.0511596,1.1342286,-4.615503,0.0
18159,8.355407,-9.672808,10.122009,3.0511596,1.1342286,-4.615503,0.0
18160,8.355407,-9.672808,10.122009,-2.1080933,-0.8889038,-1.3827393,0.0
18161,4.2756586,-2.6918473,12.082336,-2.1080933,-0.8889038,-1.3827393,0.0
18162,4.2756586,-2.6918473,12.082336,-4.8640137,-1.5346069,0.7943848,0.0
18163,-1.9278252,-1.0550525,7.8338165,-4.8640137,-1.5346069,0.7943848,0.0
18164,-1.9278252,-1.0550525,7.8338165,-4.2151246,-2.182434,1.2882203,0.0
18165,-6.3849974,-0.45124418,0.8295288,-4.2151246,-2.182434,1.2882203,0.0
18166,-6.3849974,-0.45124418,0.8295288,-2.7389283,-2.3204956,1.1119263,0.0
18167,-7.9366236,0.025857687,-3.8644867,-2.7389283,-2.3204956,1.1119263,0.0
18168,-7.9366236,0.025857687,-3.8644867,0.34833986,-2.1973023,0.9143921,0.0
18169,-7.008503,2.1912062,-4.6192627,0.34833986,-2.1973023,0.9143921,0.0
18170,-7.008503,2.1912062,-4.6192627,2.8833618,-2.0156982,0.99935305,0.0
18171,-7.008503,2.1912062,-4.6192627,2.8833618,-2.0156982,0.99935305,0.0
18172,-5.5516753,6.307396,-3.1741486,2.8833618,-2.0156982,0.99935305,0.0
18173,-5.5516753,6.307396,-3.1741486,3.5141969,-1.9721558,1.2807862,0.0
18174,-4.9712477,9.518219,-1.7875366,3.5141969,-1.9721558,1.2807862,0.0
18175,-4.9712477,9.518219,-1.7875366,2.546704,-1.8893188,1.3285767,0.0
18176,-4.7024136,10.025244,-1.1491241,2.546704,-1.8893188,1.3285767,0.0
18177,-4.7024136,10.025244,-1.1491241,1.178833,-1.7650635,1.2977784,0.0
18178,-4.2289104,8.299284,-0.81980896,1.178833,-1.7650635,1.2977784,0.0
18179,-4.2289104,8.299284,-0.81980896,0.15717773,-1.7629395,1.2468017,0.0
18180,-3.9220686,5.5650005,-0.5052643,0.15717773,-1.7629395,1.2468017,0.0
18181,-3.9220686,5.5650005,-0.5052643,-0.5331299,-1.7151489,1.0503296,0.0
18182,-4.209835,2.304943,0.010879517,-0.5331299,-1.7151489,1.0503296,0.0
18183,-4.209835,2.304943,0.010879517,-0.7147339,-1.6429322,0.59897465,0.0
18184,-4.9034758,-3.6042147,1.1246338,-0.7147339,-1.6429322,0.59897465,0.0
18185,-4.9034758,-3.6042147,1.1246338,-0.07540283,-1.6939087,-0.57242435,0.0
18186,-4.516262,-13.8371315,2.4713287,-0.07540283,-1.6939087,-0.57242435,0.0
18187,-4.516262,-13.8371315,2.4713287,1.3689331,-1.9721558,-2.0454347,0.0
18188,0.05301857,-24.05491,2.852127,1.3689331,-1.9721558,-2.0454347,0.0
18189,0.05301857,-24.05491,2.852127,3.7234132,-1.5834595,-2.532898,0.0
18190,10.422616,-26.204561,2.4573975,3.7234132,-1.5834595,-2.532898,0.0
18191,10.422616,-26.204561,2.4573975,6.4750857,-0.093457036,-1.4124756,0.0
18192,19.072823,-18.103848,2.3587952,6.4750857,-0.093457036,-1.4124756,0.0
18193,19.072823,-18.103848,2.3587952,8.260327,0.7349121,-0.6435791,0.0
18194,18.00611,-4.051937,1.4567261,8.260327,0.7349121,-0.6435791,0.0
18195,18.00611,-4.051937,1.4567261,7.6549807,2.2185426,0.8251831,0.0
18196,10.145329,9.578922,-1.1613464,7.6549807,2.2185426,0.8251831,0.0
18197,10.145329,9.578922,-1.1613464,2.712378,2.9598267,2.4808595,0.0
18198,2.0192912,16.269657,-4.073883,2.712378,2.9598267,2.4808595,0.0
18199,2.0192912,16.269657,-4.073883,-1.4284058,1.9158691,3.899707,0.0
18200,-1.6223357,16.000076,-5.442032,-1.4284058,1.9158691,3.899707,0.0
18201,-1.6223357,16.000076,-5.442032,-3.0362916,1.0471436,5.244214,0.0
18202,-0.9242356,14.408789,-3.7587585,-3.0362916,1.0471436,5.244214,0.0
18203,-0.9242356,14.408789,-3.7587585,-4.2374268,-0.047790527,6.1267457,0.0
18204,-0.037862778,13.170366,-0.0017547607,-4.2374268,-0.047790527,6.1267457,0.0
18205,-0.037862778,13.170366,-0.0017547607,-3.6076539,-0.9239502,6.1904664,0.0
18206,-1.6117966,10.163832,2.1184692,-3.6076539,-0.9239502,6.1904664,0.0
18207,-1.6117966,10.163832,2.1184692,-0.9802368,-0.6488892,6.3030396,0.0
18208,-3.8483362,5.897606,1.3882599,-0.9802368,-0.6488892,6.3030396,0.0
18209,-3.8483362,5.897606,1.3882599,1.3275146,-0.7540283,5.0010133,0.0
18210,-4.1120796,3.7630558,-0.575058,1.3275146,-0.7540283,5.0010133,0.0
18211,-4.1120796,3.7630558,-0.575058,2.6560915,-0.48746338,2.9194703,0.0
18212,-3.2842805,6.4254837,-2.057846,2.6560915,-0.48746338,2.9194703,0.0
18213,-3.2842805,6.4254837,-2.057846,2.1155274,-0.89421386,1.178833,0.0
18214,-2.789961,11.113018,-2.325409,2.1155274,-0.89421386,1.178833,0.0
18215,-2.789961,11.113018,-2.325409,0.4354248,-0.5278198,-0.059472658,0.0
18216,-2.49796,11.769554,-1.7094727,0.4354248,-0.5278198,-0.059472658,0.0
18217,-2.49796,11.769554,-1.7094727,-1.4570801,-0.050976563,-1.6046997,0.0
18218,-1.9996986,6.8589535,-1.1932373,-1.4570801,-0.050976563,-1.6046997,0.0
18219,-1.9996986,6.8589535,-1.1932373,-2.5902467,0.40462646,-3.2922363,0.0
18220,-1.3311188,-1.3266068,-0.07046509,-2.5902467,0.40462646,-3.2922363,0.0
18221,-1.3311188,-1.3266068,-0.07046509,-2.812207,-0.10301514,-5.4003296,0.0
18222,-0.16683602,-11.064386,2.146408,-2.812207,-0.10301514,-5.4003296,0.0
18223,-0.16683602,-11.064386,2.146408,-0.53737795,-1.263794,-7.033704,0.0
18224,3.2519803,-18.72197,3.2218475,-0.53737795,-1.263794,-7.033704,0.0
18225,3.2519803,-18.72197,3.2218475,3.167981,0.45878908,-7.220618,0.0
18226,8.305406,-16.19126,6.7976685,3.167981,0.45878908,-7.220618,0.0
18227,8.305406,-16.19126,6.7976685,1.2298096,0.814563,-3.2157714,0.0
18228,8.812781,-9.746172,12.974274,1.2298096,0.814563,-3.2157714,0.0
18229,8.812781,-9.746172,12.974274,-4.9426026,-0.8995239,-0.51082766,0.0
18230,3.0756767,-8.223757,11.806534,-4.9426026,-0.8995239,-0.51082766,0.0
18231,3.0756767,-8.223757,11.806534,-6.7989993,-0.32497558,1.442212,0.0
18232,-3.9496396,-6.271913,3.9419403,-6.7989993,-0.32497558,1.442212,0.0
18233,-3.9496396,-6.271913,3.9419403,-4.85658,-0.8687256,1.6864747,0.0
18234,-8.572139,-2.4537244,-2.2515411,-4.85658,-0.8687256,1.6864747,0.0
18235,-8.572139,-2.4537244,-2.2515411,-2.2843874,-0.9122681,1.4145997,0.0
18236,-9.065011,1.0346768,-3.5807953,-2.2843874,-0.9122681,1.4145997,0.0
18237,-9.065011,1.0346768,-3.5807953,0.270813,-0.90908206,0.7699585,0.0
18238,-7.27696,4.8329782,-2.5640564,0.270813,-0.90908206,0.7699585,0.0
18239,-7.27696,4.8329782,-2.5640564,1.7321411,-0.69349366,0.6042847,0.0
18240,-6.13867,8.610633,-1.9294434,1.7321411,-0.69349366,0.6042847,0.0
18241,-6.13867,8.610633,-1.9294434,1.7767457,-0.6605713,0.50020754,0.0
18242,-5.9341297,10.366302,-2.1947174,1.7767457,-0.6605713,0.50020754,0.0
18243,-5.9341297,10.366302,-2.1947174,0.7869507,-0.66269535,0.37595215,0.0
18244,-5.529872,9.287487,-2.5385895,0.7869507,-0.66269535,0.37595215,0.0
18245,-5.529872,9.287487,-2.5385895,-0.2166504,-0.635083,0.4800293,0.0
18246,-4.571603,6.4306736,-2.2330933,-0.2166504,-0.635083,0.4800293,0.0
18247,-4.571603,6.4306736,-2.2330933,-0.97280276,-0.64995116,0.62977296,0.0
18248,-3.6517773,3.1788778,-1.3783875,-0.97280276,-0.64995116,0.62977296,0.0
18249,-3.6517773,3.1788778,-1.3783875,-1.0864381,-0.630835,0.83686525,0.0
18250,-3.5741682,-0.45756912,-0.37243652,-1.0864381,-0.630835,0.83686525,0.0
18251,-3.5741682,-0.45756912,-0.37243652,-0.2548828,-0.72004396,0.7041138,0.0
18252,-3.4440517,-2.8738556,0.25686646,-0.2548828,-0.72004396,0.7041138,0.0
18253,-3.4440517,-2.8738556,0.25686646,0.40250245,-0.84748536,0.36002198,0.0
18254,-2.9751625,-15.699109,1.7625427,0.40250245,-0.84748536,0.36002198,0.0
18255,-2.9751625,-15.699109,1.7625427,2.1962402,-1.0460815,-0.8358032,0.0
18256,-0.6664467,-17.540281,1.7952881,2.1962402,-1.0460815,-0.8358032,0.0
18257,-0.6664467,-17.540281,1.7952881,2.9247804,-0.7072998,-1.0503296,0.0
18258,10.464353,-20.669151,1.2647858,2.9247804,-0.7072998,-1.0503296,0.0
18259,10.464353,-20.669151,1.2647858,3.8551025,0.9228882,-0.0010620117,0.0
18260,11.886778,-14.98354,0.9328308,3.8551025,0.9228882,-0.0010620117,0.0
18261,11.886778,-14.98354,0.9328308,3.8381104,1.085376,0.6000366,0.0
18262,12.833837,-1.8591218,-0.59465027,3.8381104,1.085376,0.6000366,0.0
18263,12.833837,-1.8591218,-0.59465027,3.0076172,1.7353271,2.261023,0.0
18264,9.472404,2.6835642,-1.7901001,3.0076172,1.7353271,2.261023,0.0
18265,9.472404,2.6835642,-1.7901001,2.2907593,1.720459,2.8398194,0.0
18266,4.5524716,12.2214365,-4.476471,2.2907593,1.720459,2.8398194,0.0
18267,4.5524716,12.2214365,-4.476471,-0.60322267,0.04248047,4.4785037,0.0
18268,3.0882297,13.122999,-3.3193054,-0.60322267,0.04248047,4.4785037,0.0
18269,3.0882297,13.122999,-3.3193054,-1.26167,-0.7582764,4.7801147,0.0
18270,1.7469387,17.181932,1.143631,-1.26167,-0.7582764,4.7801147,0.0
18271,1.7469387,17.181932,1.143631,-2.1951783,-2.7060058,5.249524,0.0
18272,1.2580247,15.017177,2.2291565,-2.1951783,-2.7060058,5.249524,0.0
18273,1.2580247,15.017177,2.2291565,-2.175,-2.9152222,4.997827,0.0
18274,-0.07207149,10.550339,0.5624237,-2.175,-2.9152222,4.997827,0.0
18275,-0.07207149,10.550339,0.5624237,-0.24001466,-2.8684938,3.7467773,0.0
18276,0.01125145,8.035034,-0.64126587,-0.24001466,-2.8684938,3.7467773,0.0
18277,0.01125145,8.035034,-0.64126587,0.26656494,-2.8355713,3.533313,0.0
18278,-0.4813553,7.2005367,-4.3285217,0.26656494,-2.8355713,3.533313,0.0
18279,-0.4813553,7.2005367,-4.3285217,0.5278198,-1.7640015,1.6025757,0.0
18280,-0.39907354,7.197735,-4.1669617,0.5278198,-1.7640015,1.6025757,0.0
18281,-0.39907354,7.197735,-4.1669617,0.32816163,-1.3115845,1.002539,0.0
18282,-0.5176597,8.949326,-3.608841,0.32816163,-1.3115845,1.002539,0.0
18283,-0.5176597,8.949326,-3.608841,-0.3536499,-0.23789063,-0.06159668,0.0
18284,-0.6713666,8.403955,-1.3976746,-0.3536499,-0.23789063,-0.06159668,0.0
18285,-0.6713666,8.403955,-1.3976746,-1.2075074,0.79969484,-1.2935303,0.0
18286,-0.63305277,4.1452236,0.62680054,-1.2075074,0.79969484,-1.2935303,0.0
18287,-0.63305277,4.1452236,0.62680054,-1.3020264,1.7024049,-2.8334472,0.0
18288,-0.50773615,-2.9687462,1.3598785,-1.3020264,1.7024049,-2.8334472,0.0
18289,-0.50773615,-2.9687462,1.3598785,-0.3971924,2.1983643,-4.516736,0.0
18290,-0.6064453,-17.773874,2.5168,-0.3971924,2.1983643,-4.516736,0.0
18291,-0.6064453,-17.773874,2.5168,3.076648,1.445398,-7.0114017,0.0
18292,-0.17823485,-19.418232,2.9113312,3.076648,1.445398,-7.0114017,0.0
18293,-0.17823485,-19.418232,2.9113312,4.319202,1.6832886,-7.2280517,0.0
18294,2.3146143,-18.927214,6.766266,4.319202,1.6832886,-7.2280517,0.0
18295,2.3146143,-18.927214,6.766266,2.896106,1.4889405,-5.2102294,0.0
18296,3.9023995,-10.994652,11.292892,2.896106,1.4889405,-5.2102294,0.0
18297,3.9023995,-10.994652,11.292892,-2.3417358,0.30161133,-1.9859619,0.0
18298,1.2640827,-3.5887513,11.002838,-2.3417358,0.30161133,-1.9859619,0.0
18299,1.2640827,-3.5887513,11.002838,-5.543701,-0.020178223,0.40356445,0.0
18300,-3.9652843,1.5103955,5.9263763,-5.543701,-0.020178223,0.40356445,0.0
18301,-3.9652843,1.5103955,5.9263763,-5.882483,-0.88040775,1.2956543,0.0
18302,-7.6971664,3.907999,0.46166992,-5.882483,-0.88040775,1.2956543,0.0
18303,-7.6971664,3.907999,0.46166992,-4.262915,-1.2266235,0.7742066,0.0
18304,-8.294636,3.3490067,-2.765503,-4.262915,-1.2266235,0.7742066,0.0
18305,-8.294636,3.3490067,-2.765503,-1.3986695,-1.2298096,0.6637573,0.0
18306,-7.1051416,3.445221,-4.389572,-1.3986695,-1.2298096,0.6637573,0.0
18307,-7.1051416,3.445221,-4.389572,2.2057984,-0.725354,0.39294434,0.0
18308,-5.780341,4.391138,-3.7058258,2.2057984,-0.725354,0.39294434,0.0
18309,-5.780341,4.391138,-3.7058258,2.0826051,-0.72641605,0.32285157,0.0
18310,-5.1568294,7.3743114,-3.0900726,2.0826051,-0.72641605,0.32285157,0.0
18311,-5.1568294,7.3743114,-3.0900726,0.90908206,-0.69986576,0.07540283,0.0
18312,-4.539734,8.409519,-2.087204,0.90908206,-0.69986576,0.07540283,0.0
18313,-4.539734,8.409519,-2.087204,-0.24744873,-0.6064087,0.0031860352,0.0
18314,-3.592041,6.8710365,-0.93351746,-0.24744873,-0.6064087,0.0031860352,0.0
18315,-3.592041,6.8710365,-0.93351746,-1.075818,-0.3802002,0.29736328,0.0
18316,-2.9506102,3.6830845,-0.11039734,-1.075818,-0.3802002,0.29736328,0.0
18317,-2.9506102,3.6830845,-0.11039734,-1.0460815,-0.2623169,0.58623046,0.0
18318,-3.0075226,-0.389616,0.23657227,-1.0460815,-0.2623169,0.58623046,0.0
18319,-3.0075226,-0.389616,0.23657227,-0.015930176,-0.20072022,0.59047854,0.0
18320,-3.2922478,-5.7490587,0.5097656,-0.015930176,-0.20072022,0.59047854,0.0
18321,-3.2922478,-5.7490587,0.5097656,1.1448487,-0.32285157,0.16461182,0.0
18322,-2.6613493,-12.019425,0.9430542,1.1448487,-0.32285157,0.16461182,0.0
18323,-2.6613493,-12.019425,0.9430542,2.0687988,-0.28674316,0.08283692,0.0
18324,0.56950474,-16.496424,1.4775085,2.0687988,-0.28674316,0.08283692,0.0
18325,0.56950474,-16.496424,1.4775085,3.3803833,0.098767094,0.11363526,0.0
18326,0.56950474,-16.496424,1.4775085,3.3803833,0.098767094,0.11363526,152.0
18327,10.780714,-18.603048,1.8189087,3.3803833,0.098767094,0.11363526,152.0
18328,10.780714,-18.603048,1.8189087,3.9517457,1.7703736,1.0970582,152.0
18329,11.716563,-14.298943,1.109375,3.9517457,1.7703736,1.0970582,152.0
18330,11.716563,-14.298943,1.109375,3.6947389,2.2812011,1.2032593,152.0
18331,11.836996,-6.405243,-0.37078857,3.6947389,2.2812011,1.2032593,152.0
18332,11.836996,-6.405243,-0.37078857,1.7682495,2.9704468,1.9381714,152.0
18333,7.6584396,3.5422242,-3.2787476,1.7682495,2.9704468,1.9381714,152.0
18334,7.6584396,3.5422242,-3.2787476,-1.4114136,2.6656494,2.9470825,152.0
18335,3.4239807,10.281399,-5.6790466,-1.4114136,2.6656494,2.9470825,152.0
18336,3.4239807,10.281399,-5.6790466,-3.79032,0.9143921,3.79032,152.0
18337,2.006116,13.146042,-4.0827637,-3.79032,0.9143921,3.79032,152.0
18338,2.006116,13.146042,-4.0827637,-4.483814,-1.2563599,4.0929933,152.0
18339,2.2618873,14.423865,0.8974457,-4.483814,-1.2563599,4.0929933,152.0
18340,2.2618873,14.423865,0.8974457,-3.9581177,-3.348523,3.9528077,152.0
18341,1.4896246,13.561249,3.982605,-3.9581177,-3.348523,3.9528077,152.0
18342,1.4896246,13.561249,3.982605,-2.1335816,-4.254419,2.7389283,152.0
18343,0.6278081,10.754663,2.2949677,-2.1335816,-4.254419,2.7389283,152.0
18344,0.6278081,10.754663,2.2949677,-0.22939454,-4.2830935,1.989148,152.0
18345,0.4821415,8.058699,-2.1084595,-0.22939454,-4.2830935,1.989148,152.0
18346,0.4821415,8.058699,-2.1084595,1.6928467,-3.888025,1.4103516,152.0
18347,0.5216141,7.3558083,-5.763443,1.6928467,-3.888025,1.4103516,152.0
18348,0.5216141,7.3558083,-5.763443,2.066675,-2.4882934,0.48215333,152.0
18349,0.6777527,8.43251,-6.209656,2.066675,-2.4882934,0.48215333,152.0
18350,0.6777527,8.43251,-6.209656,1.0726318,-1.1459106,-0.2177124,152.0
18351,0.6775415,8.746044,-3.3220215,1.0726318,-1.1459106,-0.2177124,152.0
18352,0.6775415,8.746044,-3.3220215,-0.271875,-0.013806152,-1.2489258,152.0
18353,0.2554121,5.935848,0.42222595,-0.271875,-0.013806152,-1.2489258,152.0
18354,0.2554121,5.935848,0.42222595,-1.2807862,0.815625,-2.7006958,152.0
18355,0.21402204,-0.66958237,2.1094666,-1.2807862,0.815625,-2.7006958,152.0
18356,0.21402204,-0.66958237,2.1094666,-0.75721437,1.7905518,-4.0165286,152.0
18357,0.21402204,-0.66958237,2.1094666,1.1544068,1.9328613,-5.6382203,152.0
18358,0.73232603,-10.391563,1.8983002,1.1544068,1.9328613,-5.6382203,152.0
18359,3.5946376,-21.1409,9.934036,1.1544068,1.9328613,-5.6382203,152.0
18360,3.5946376,-21.1409,9.934036,3.6087158,2.4861696,-6.6577516,152.0
18361,3.5946376,-21.1409,9.934036,2.5658205,2.3321779,-5.815576,152.0
18362,3.5946376,-21.1409,9.934036,-1.453894,1.9328613,-3.274182,152.0
18363,1.5970845,-11.990881,9.043518,-1.453894,1.9328613,-3.274182,152.0
18364,1.5970845,-11.990881,9.043518,-4.6399293,1.5834595,-0.99085695,152.0
18365,-3.179205,-5.321685,4.6691895,-4.6399293,1.5834595,-0.99085695,152.0
18366,-3.179205,-5.321685,4.6691895,-5.6329103,0.9165161,0.45135498,152.0
18367,-7.4156666,-0.9207392,0.62220764,-5.6329103,0.9165161,0.45135498,152.0
18368,-7.4156666,-0.9207392,0.62220764,-4.6484256,0.07327881,0.2623169,152.0
18369,-8.681447,0.6060238,-1.6696472,-4.6484256,0.07327881,0.2623169,152.0
18370,-8.681447,0.6060238,-1.6696472,-2.617859,-0.20496826,0.021240234,152.0
18371,-7.8776283,0.7304735,-2.604004,-2.617859,-0.20496826,0.021240234,152.0
18372,-7.8776283,0.7304735,-2.604004,0.043542482,-0.0541626,-0.013806152,152.0
18373,-7.0672884,1.7841339,-2.7412567,0.043542482,-0.0541626,-0.013806152,152.0
18374,-7.0672884,1.7841339,-2.7412567,1.901001,0.058410645,-0.0010620117,152.0
18375,-6.936521,3.8614388,-2.63562,1.901001,0.058410645,-0.0010620117,152.0
18376,-6.936521,3.8614388,-2.63562,1.627002,-0.046728518,-0.011682129,152.0
18377,-6.661766,5.143155,-2.6126099,1.627002,-0.046728518,-0.011682129,152.0
18378,-6.661766,5.143155,-2.6126099,0.2548828,-0.07646485,-0.19328614,152.0
18379,-5.4460144,4.5611057,-2.5944214,0.2548828,-0.07646485,-0.19328614,152.0
18380,-5.4460144,4.5611057,-2.5944214,-0.48746338,0.093457036,-0.09770508,152.0
18381,-3.7374516,2.7666216,-2.332199,-0.48746338,0.093457036,-0.09770508,152.0
18382,-3.7374516,2.7666216,-2.332199,-0.7391602,0.2793091,0.30267334,152.0
18383,-2.514021,0.43013,-1.8755798,-0.7391602,0.2793091,0.30267334,152.0
18384,-2.514021,0.43013,-1.8755798,-0.32178956,0.4428589,0.6945557,152.0
18385,-2.2523174,-3.0639286,-1.0785065,-0.32178956,0.4428589,0.6945557,152.0
18386,-2.2523174,-3.0639286,-1.0785065,0.8612915,0.38657227,0.5533081,152.0
18387,-2.058177,-9.14117,0.1459198,0.8612915,0.38657227,0.5533081,152.0
18388,-2.058177,-9.14117,0.1459198,1.635498,0.016992187,-0.1359375,152.0
18389,0.4737835,-15.596298,0.89126587,1.635498,0.016992187,-0.1359375,152.0
18390,0.4737835,-15.596298,0.89126587,2.6008668,0.25806886,-0.5777344,152.0
18391,6.4690666,-17.651234,1.0484619,2.6008668,0.25806886,-0.5777344,152.0
18392,6.4690666,-17.651234,1.0484619,3.1297486,1.0397094,0.0031860352,152.0
18393,12.278025,-14.084427,1.7790375,3.1297486,1.0397094,0.0031860352,152.0
18394,12.278025,-14.084427,1.7790375,2.7251222,1.4252198,1.183081,152.0
18395,13.0251665,-6.928381,2.2478333,2.7251222,1.4252198,1.183081,152.0
18396,13.0251665,-6.928381,2.2478333,0.6435791,1.5218629,2.3693483,152.0
18397,9.360294,0.5295486,0.61157227,0.6435791,1.5218629,2.3693483,152.0
18398,9.360294,0.5295486,0.61157227,-1.2298096,0.817749,3.345337,152.0
18399,5.302762,6.7056212,-1.3873291,-1.2298096,0.817749,3.345337,152.0
18400,5.302762,6.7056212,-1.3873291,-2.1898682,-0.8644776,4.054761,152.0
18401,2.9086037,12.06706,-0.4237976,-2.1898682,-0.8644776,4.054761,152.0
18402,2.9086037,12.06706,-0.4237976,-2.2737672,-2.8674316,4.196008,152.0
18403,1.7065461,14.904003,2.4029083,-2.2737672,-2.8674316,4.196008,152.0
18404,1.7065461,14.904003,2.4029083,-1.6439942,-4.2374268,3.7616456,152.0
18405,1.1629053,13.761142,3.0889587,-1.6439942,-4.2374268,3.7616456,152.0
18406,1.1629053,13.761142,3.0889587,-0.2442627,-4.1269774,2.885486,152.0
18407,1.0257344,10.600954,0.30369568,-0.2442627,-4.1269774,2.885486,152.0
18408,1.0257344,10.600954,0.30369568,1.1841431,-3.6533203,2.546704,152.0
18409,0.52438396,8.031019,-3.7107239,1.1841431,-3.6533203,2.546704,152.0
18410,0.52438396,8.031019,-3.7107239,0.9483765,-2.7824707,1.4071655,152.0
18411,-0.054967925,7.927965,-5.6688843,0.9483765,-2.7824707,1.4071655,152.0
18412,-0.054967925,7.927965,-5.6688843,0.050976563,-1.6726685,0.10513916,152.0
18413,0.045014918,9.382742,-4.5731354,0.050976563,-1.6726685,0.10513916,152.0
18414,0.045014918,9.382742,-4.5731354,-0.9345703,-0.5511841,-0.7582764,152.0
18415,0.3194592,8.767363,-1.7109833,-0.9345703,-0.5511841,-0.7582764,152.0
18416,0.3194592,8.767363,-1.7109833,-1.897815,0.4078125,-1.2988404,152.0
18417,0.1981821,4.3391953,0.86338806,-1.897815,0.4078125,-1.2988404,152.0
18418,0.1981821,4.3391953,0.86338806,-1.5282348,1.2149414,-2.258899,152.0
18419,0.1981821,4.3391953,0.86338806,-1.5282348,1.2149414,-2.258899,154.0
18420,0.49233475,-2.3021774,1.1229858,-1.5282348,1.2149414,-2.258899,154.0
18421,0.49233475,-2.3021774,1.1229858,0.04991455,2.3353639,-3.432422,154.0
18422,1.0297077,-9.563654,-0.42926025,0.04991455,2.3353639,-3.432422,154.0
18423,1.0297077,-9.563654,-0.42926025,1.9116211,2.8493774,-4.963843,154.0
18424,1.0297077,-9.563654,-0.42926025,3.793506,2.6518433,-6.163916,154.0
18425,1.0914907,-16.112959,-0.83558655,3.793506,2.6518433,-6.163916,154.0
18426,2.198278,-14.125999,11.244949,3.793506,2.6518433,-6.163916,154.0
18427,2.198278,-14.125999,11.244949,4.303272,2.2822633,-5.8973513,154.0
18428,2.198278,-14.125999,11.244949,1.2393677,1.8627685,-3.5184448,154.0
18429,2.198278,-14.125999,11.244949,-3.1828492,1.1947632,-0.901648,154.0
18430,-2.0245807,-5.364814,7.7596893,-3.1828492,1.1947632,-0.901648,154.0
18431,-2.0245807,-5.364814,7.7596893,-5.5914917,0.5320679,0.7742066,154.0
18432,-6.2585683,-0.05325222,2.7877502,-5.5914917,0.5320679,0.7742066,154.0
18433,-6.2585683,-0.05325222,2.7877502,-5.5798097,-0.3069214,0.8995239,154.0
18434,-7.8511906,1.0993662,-0.7722473,-5.5798097,-0.3069214,0.8995239,154.0
18435,-7.8511906,1.0993662,-0.7722473,-3.889087,-0.5872925,0.4609131,154.0
18436,-7.2755938,0.09884071,-2.6343079,-3.889087,-0.5872925,0.4609131,154.0
18437,-7.2755938,0.09884071,-2.6343079,-0.75296634,-0.39082032,0.28780517,154.0
18438,-6.275236,0.6624098,-3.1437836,-0.75296634,-0.39082032,0.28780517,154.0
18439,-6.275236,0.6624098,-3.1437836,1.8903809,-0.023364259,0.20284425,154.0
18440,-5.8694563,3.7603235,-2.8343964,1.8903809,-0.023364259,0.20284425,154.0
18441,-5.8694563,3.7603235,-2.8343964,2.0995972,0.1178833,0.22302246,154.0
18442,-5.794503,6.6160717,-2.2890472,2.0995972,0.1178833,0.22302246,154.0
18443,-5.794503,6.6160717,-2.2890472,0.6839356,0.20390625,0.11682129,154.0
18444,-5.2851505,6.885729,-1.7832947,0.6839356,0.20390625,0.11682129,154.0
18445,-5.2851505,6.885729,-1.7832947,-0.80606693,0.31966552,0.1720459,154.0
18446,-4.364107,4.685158,-1.2588501,-0.80606693,0.31966552,0.1720459,154.0
18447,-4.364107,4.685158,-1.2588501,-1.5133667,0.37701416,0.41524658,154.0
18448,-3.5709734,0.9749088,-0.80326843,-1.5133667,0.37701416,0.41524658,154.0
18449,-3.5709734,0.9749088,-0.80326843,-1.0163453,0.47578126,0.6605713,154.0
18450,-3.2125406,-4.070915,-0.1793518,-1.0163453,0.47578126,0.6605713,154.0
18451,-3.2125406,-4.070915,-0.1793518,0.6945557,0.35895997,0.5320679,154.0
18452,-2.4559326,-10.638056,1.0411987,0.6945557,0.35895997,0.5320679,154.0
18453,-2.4559326,-10.638056,1.0411987,2.2281005,0.33984375,0.19222413,154.0
18454,0.5349369,-16.150875,2.2550812,2.2281005,0.33984375,0.19222413,154.0
18455,0.5349369,-16.150875,2.2550812,3.0469117,0.9505005,0.007434082,154.0
18456,6.099592,-17.888094,2.9716644,3.0469117,0.9505005,0.007434082,154.0
18457,6.099592,-17.888094,2.9716644,2.4851074,1.6641724,0.7412842,154.0
18458,10.876683,-15.501357,3.2017212,2.4851074,1.6641724,0.7412842,154.0
18459,10.876683,-15.501357,3.2017212,0.9791748,2.073047,1.6142578,154.0
18460,11.310001,-9.057544,1.7389984,0.9791748,2.073047,1.6142578,154.0
18461,11.310001,-9.057544,1.7389984,-1.1108643,1.9997681,2.5159059,154.0
18462,8.327896,-0.28377897,-1.4783783,-1.1108643,1.9997681,2.5159059,154.0
18463,8.327896,-0.28377897,-1.4783783,-3.0384157,0.92501223,3.2752442,154.0
18464,5.030371,8.138248,-2.8992767,-3.0384157,0.92501223,3.2752442,154.0
18465,5.030371,8.138248,-2.8992767,-3.9687378,-1.363623,3.619336,154.0
18466,2.817107,13.792483,-0.73295593,-3.9687378,-1.363623,3.619336,154.0
18467,2.817107,13.792483,-0.73295593,-3.2837403,-3.5853517,3.2667482,154.0
18468,1.5310172,14.948379,1.5515747,-3.2837403,-3.5853517,3.2667482,154.0
18469,1.5310172,14.948379,1.5515747,-1.3434448,-4.5719604,2.4766114,154.0
18470,1.1625212,12.5154295,0.4555359,-1.3434448,-4.5719604,2.4766114,154.0
18471,1.1625212,12.5154295,0.4555359,1.1374146,-4.196008,1.8489624,154.0
18472,1.249768,9.112832,-3.144638,1.1374146,-4.196008,1.8489624,154.0
18473,1.249768,9.112832,-3.144638,3.0235474,-3.359143,1.3774292,154.0
18474,1.099729,7.691475,-5.7598114,3.0235474,-3.359143,1.3774292,154.0
18475,1.099729,7.691475,-5.7598114,2.9215944,-2.342798,0.35683593,154.0
18476,1.034959,9.101618,-5.3720703,2.9215944,-2.342798,0.35683593,154.0
18477,1.034959,9.101618,-5.3720703,1.2903442,-1.44115,-0.49064943,154.0
18478,0.9015756,10.3825035,-2.9932556,1.2903442,-1.44115,-0.49064943,154.0
18479,0.9015756,10.3825035,-2.9932556,-1.2181275,-0.61065674,-1.1639649,154.0
18480,0.32880443,8.190487,-0.4412384,-1.2181275,-0.61065674,-1.1639649,154.0
18481,0.32880443,8.190487,-0.4412384,-2.5891845,0.013806152,-1.8521484,154.0
18482,-0.15825772,2.4113503,1.2812195,-2.5891845,0.013806152,-1.8521484,154.0
18483,-0.15825772,2.4113503,1.2812195,-1.5898316,0.7391602,-2.70813,154.0
18484,0.2915823,-4.95759,1.6606598,-1.5898316,0.7391602,-2.70813,154.0
18485,0.2915823,-4.95759,1.6606598,0.41418457,1.6004517,-4.0409546,154.0
18486,0.2915823,-4.95759,1.6606598,2.6879518,1.8617066,-5.4396243,154.0
18487,1.2488542,-12.519001,0.9925995,2.6879518,1.8617066,-5.4396243,154.0
18488,2.98413,-19.963236,9.475082,2.6879518,1.8617066,-5.4396243,154.0
18489,2.98413,-19.963236,9.475082,4.2055664,2.0061402,-6.3349,154.0
18490,2.98413,-19.963236,9.475082,3.2964845,1.5271729,-5.690259,154.0
18491,2.98413,-19.963236,9.475082,-0.46834716,1.0673218,-3.248694,154.0
18492,1.7543082,-10.925484,8.968536,-0.46834716,1.0673218,-3.248694,154.0
18493,1.7543082,-10.925484,8.968536,-3.8508546,0.88359374,-0.6552612,154.0
18494,-1.935677,-2.7616386,4.587372,-3.8508546,0.88359374,-0.6552612,154.0
18495,-1.935677,-2.7616386,4.587372,-5.5543213,0.271875,1.2096313,154.0
18496,-6.0775213,2.11481,1.017395,-5.5543213,0.271875,1.2096313,154.0
18497,-6.0775213,2.11481,1.017395,-5.3005004,-0.541626,1.3763672,154.0
18498,-7.973174,2.546853,-0.7855377,-5.3005004,-0.541626,1.3763672,154.0
18499,-7.973174,2.546853,-0.7855377,-3.5821655,-0.8028809,0.8485474,154.0
18500,-7.6038694,0.8694525,-1.920639,-3.5821655,-0.8028809,0.8485474,154.0
18501,-7.6038694,0.8694525,-1.920639,-0.88996583,-0.73809814,0.69986576,154.0
18502,-6.6033106,0.7304621,-2.7534332,-0.88996583,-0.73809814,0.69986576,154.0
18503,-6.6033106,0.7304621,-2.7534332,1.4241577,-0.4619751,0.45347902,154.0
18504,-5.862055,3.1175365,-3.1260223,1.4241577,-0.4619751,0.45347902,154.0
18505,-5.862055,3.1175365,-3.1260223,1.4007934,-0.3345337,0.4067505,154.0
18506,-5.337288,5.6619987,-2.9857178,1.4007934,-0.3345337,0.4067505,154.0
18507,-5.337288,5.6619987,-2.9857178,0.3164795,-0.23151855,0.10089111,154.0
18508,-4.362812,6.111252,-2.4315033,0.3164795,-0.23151855,0.10089111,154.0
18509,-4.362812,6.111252,-2.4315033,-0.4428589,-0.059472658,0.06584473,154.0
18510,-2.9707432,4.350647,-1.6789246,-0.4428589,-0.059472658,0.06584473,154.0
18511,-2.9707432,4.350647,-1.6789246,-0.84323734,0.17416993,0.40462646,154.0
18512,-2.1272297,1.0625248,-1.0737762,-0.84323734,0.17416993,0.40462646,154.0
18513,-2.1272297,1.0625248,-1.0737762,-0.42268068,0.34833986,0.72960204,154.0
18514,-2.3043108,-3.9688034,-0.21568298,-0.42268068,0.34833986,0.72960204,154.0
18515,-2.3043108,-3.9688034,-0.21568298,0.998291,0.16992188,0.37382814,154.0
18516,-2.1565466,-11.342048,1.1862183,0.998291,0.16992188,0.37382814,154.0
18517,-2.1565466,-11.342048,1.1862183,2.0199463,-0.08283692,-0.46516114,154.0
18518,1.0705519,-18.270832,1.9087219,2.0199463,-0.08283692,-0.46516114,154.0
18519,1.0705519,-18.270832,1.9087219,3.3145387,0.29311523,-0.8708496,154.0
18520,7.9522915,-19.893606,2.087616,3.3145387,0.29311523,-0.8708496,154.0
18521,7.9522915,-19.893606,2.087616,4.3181396,1.3880494,0.14761963,154.0
18522,13.04384,-14.437223,3.0698547,4.3181396,1.3880494,0.14761963,154.0
18523,13.04384,-14.437223,3.0698547,2.6529052,1.7406372,1.5229248,154.0
18524,13.04384,-14.437223,3.0698547,2.6529052,1.7406372,1.5229248,160.0
18525,12.025026,-5.1152086,2.833725,2.6529052,1.7406372,1.5229248,160.0
18526,12.025026,-5.1152086,2.833725,-0.86766356,1.635498,2.9640749,160.0
18527,7.6921763,3.3174155,-0.105911255,-0.86766356,1.635498,2.9640749,160.0
18528,7.6921763,3.3174155,-0.105911255,-3.090454,0.63720703,3.9421875,160.0
18529,3.8037655,9.702895,-2.255371,-3.090454,0.63720703,3.9421875,160.0
18530,3.8037655,9.702895,-2.255371,-3.8742187,-1.5027466,4.2108765,160.0
18531,1.6222606,13.563829,-1.0626678,-3.8742187,-1.5027466,4.2108765,160.0
18532,1.6222606,13.563829,-1.0626678,-3.2009034,-3.5003908,3.792444,160.0
18533,0.820538,13.648452,0.8119049,-3.2009034,-3.5003908,3.792444,160.0
18534,0.820538,13.648452,0.8119049,-1.2839721,-4.2161865,2.9396484,160.0
18535,0.91009253,11.344445,0.3253479,-1.2839721,-4.2161865,2.9396484,160.0
18536,0.91009253,11.344445,0.3253479,0.7943848,-4.1036134,2.2206666,160.0
18537,1.2344706,9.118549,-2.360489,0.7943848,-4.1036134,2.2206666,160.0
18538,1.2344706,9.118549,-2.360489,2.2950075,-3.619336,1.7066529,160.0
18539,1.0885652,8.757254,-5.1381073,2.2950075,-3.619336,1.7066529,160.0
18540,1.0885652,8.757254,-5.1381073,2.0326905,-2.4182007,0.71367186,160.0
18541,0.6933864,10.266972,-5.802063,2.0326905,-2.4182007,0.71367186,160.0
18542,0.6933864,10.266972,-5.802063,0.58198243,-1.2510499,-0.1720459,160.0
18543,0.34767786,10.967802,-4.089203,0.58198243,-1.2510499,-0.1720459,160.0
18544,0.34767786,10.967802,-4.089203,-1.3062744,-0.18266602,-0.9345703,160.0
18545,-0.06635234,8.423363,-1.4223175,-1.3062744,-0.18266602,-0.9345703,160.0
18546,-0.06635234,8.423363,-1.4223175,-2.5913086,0.62977296,-1.7087768,160.0
18547,-0.27322346,2.7276669,0.791687,-2.5913086,0.62977296,-1.7087768,160.0
18548,-0.27322346,2.7276669,0.791687,-1.7151489,1.3530029,-2.8015869,160.0
18549,0.5693607,-4.216011,1.243103,-1.7151489,1.3530029,-2.8015869,160.0
18550,0.5693607,-4.216011,1.243103,0.11151123,2.35448,-4.179016,160.0
18551,1.9498733,-11.425665,-0.20751953,0.11151123,2.35448,-4.179016,160.0
18552,1.9498733,-11.425665,-0.20751953,1.8925049,2.89292,-5.550073,160.0
18553,1.9498733,-11.425665,-0.20751953,2.9385865,3.2826784,-6.6619997,160.0
18554,2.9209704,-17.887236,-0.9529114,2.9385865,3.2826784,-6.6619997,160.0
18555,5.1422453,-21.066978,6.981415,2.9385865,3.2826784,-6.6619997,160.0
18556,5.1422453,-21.066978,6.981415,1.2956543,2.8886719,-5.969568,160.0
18557,5.1422453,-21.066978,6.981415,-2.5891845,2.7431762,-3.3931274,160.0
18558,5.1422453,-21.066978,6.981415,-5.698755,2.0709229,-0.7508423,160.0
18559,3.2909448,-13.575275,7.6469727,-5.698755,2.0709229,-0.7508423,160.0
18560,-11.237472,1.6742277,1.506546,-5.698755,2.0709229,-0.7508423,160.0
18561,-11.237472,1.6742277,1.506546,-5.892041,0.49489745,0.54375,160.0
18562,-11.237472,1.6742277,1.506546,-3.2529418,-0.67650145,0.3345337,160.0
18563,-11.237472,1.6742277,1.506546,-1.2404298,-1.0556396,0.30267334,160.0
18564,-9.668591,1.6335468,-0.98695374,-1.2404298,-1.0556396,0.30267334,160.0
18565,-9.668591,1.6335468,-0.98695374,1.0067872,-0.73703617,0.18903808,160.0
18566,-8.28574,2.4843273,-2.4909363,1.0067872,-0.73703617,0.18903808,160.0
18567,-8.28574,2.4843273,-2.4909363,3.1297486,-0.4354248,0.3090454,160.0
18568,-8.019278,5.1565905,-3.024475,3.1297486,-0.4354248,0.3090454,160.0
18569,-8.019278,5.1565905,-3.024475,2.51803,-0.23364258,0.4704712,160.0
18570,-8.047526,7.5648966,-2.6764526,2.51803,-0.23364258,0.4704712,160.0
18571,-8.047526,7.5648966,-2.6764526,0.24638672,-0.022302246,0.28568116,160.0
18572,-7.19454,7.6046143,-1.7524414,0.24638672,-0.022302246,0.28568116,160.0
18573,-7.19454,7.6046143,-1.7524414,-1.0269654,0.25806886,0.26975098,160.0
18574,-5.6064625,5.544421,-0.8000641,-1.0269654,0.25806886,0.26975098,160.0
18575,-5.6064625,5.544421,-0.8000641,-1.3498169,0.51188964,0.5161377,160.0
18576,-4.055397,2.5787506,-0.4229126,-1.3498169,0.51188964,0.5161377,160.0
18577,-4.055397,2.5787506,-0.4229126,-0.9897949,0.6488892,0.81031495,160.0
18578,-2.989544,-0.5542965,-0.6821289,-0.9897949,0.6488892,0.81031495,160.0
18579,-2.989544,-0.5542965,-0.6821289,0.07115479,0.88253176,1.0067872,160.0
18580,-2.6328096,-4.8849773,-0.5179291,0.07115479,0.88253176,1.0067872,160.0
18581,-2.6328096,-4.8849773,-0.5179291,1.2160034,0.79969484,0.44604492,160.0
18582,-1.8107033,-12.179711,0.26657104,1.2160034,0.79969484,0.44604492,160.0
18583,-1.8107033,-12.179711,0.26657104,1.2011353,0.3069214,-0.48321533,160.0
18584,2.031063,-18.833662,0.4786682,1.2011353,0.3069214,-0.48321533,160.0
18585,2.031063,-18.833662,0.4786682,1.8340943,0.59472656,-0.45666504,160.0
18586,8.676462,-19.249218,0.41064453,1.8340943,0.59472656,-0.45666504,160.0
18587,8.676462,-19.249218,0.41064453,1.8277222,1.0683838,0.84323734,160.0
18588,13.183345,-13.54017,0.8593292,1.8277222,1.0683838,0.84323734,160.0
18589,13.183345,-13.54017,0.8593292,0.6159668,1.2574219,2.2950075,160.0
18590,12.314718,-5.246626,0.95262146,0.6159668,1.2574219,2.2950075,160.0
18591,12.314718,-5.246626,0.95262146,-0.903772,0.3791382,3.4876466,160.0
18592,8.456804,3.1946182,0.69415283,-0.903772,0.3791382,3.4876466,160.0
18593,8.456804,3.1946182,0.69415283,-1.4613281,-1.2829102,3.978296,160.0
18594,4.913295,10.722431,1.7887726,-1.4613281,-1.2829102,3.978296,160.0
18595,4.913295,10.722431,1.7887726,-0.9653687,-3.243384,3.8848388,160.0
18596,2.716329,15.074123,3.2957458,-0.9653687,-3.243384,3.8848388,160.0
18597,2.716329,15.074123,3.2957458,-0.14230958,-4.2278686,3.4218018,160.0
18598,1.6736982,14.88729,2.3933105,-0.14230958,-4.2278686,3.4218018,160.0
18599,1.6736982,14.88729,2.3933105,1.0949341,-4.059009,2.7877808,160.0
18600,1.1346495,12.192156,-1.0270691,1.0949341,-4.059009,2.7877808,160.0
18601,1.1346495,12.192156,-1.0270691,1.81073,-3.5131347,2.4213867,160.0
18602,0.40666977,9.968764,-4.4026794,1.81073,-3.5131347,2.4213867,160.0
18603,0.40666977,9.968764,-4.4026794,0.82836914,-2.6794555,1.3243287,160.0
18604,-0.11216419,9.946178,-5.329788,0.82836914,-2.6794555,1.3243287,160.0
18605,-0.11216419,9.946178,-5.329788,-0.33028564,-1.9158691,0.27399904,160.0
18606,0.059597254,10.6832485,-3.6825867,-0.33028564,-1.9158691,0.27399904,160.0
18607,0.059597254,10.6832485,-3.6825867,-1.5250489,-1.0726318,-0.2899292,160.0
18608,0.22089559,9.311016,-1.091156,-1.5250489,-1.0726318,-0.2899292,160.0
18609,0.22089559,9.311016,-1.091156,-2.3130615,-0.24107666,-0.75615233,160.0
18610,-0.21616682,5.335104,0.9164429,-2.3130615,-0.24107666,-0.75615233,160.0
18611,-0.21616682,5.335104,0.9164429,-1.7937378,0.39082032,-1.4889405,160.0
18612,-0.51739144,0.63497925,1.6654205,-1.7937378,0.39082032,-1.4889405,160.0
18613,-0.51739144,0.63497925,1.6654205,-0.2782471,1.1650269,-2.5530763,160.0
18614,-0.51739144,0.63497925,1.6654205,1.0492676,1.9487915,-3.8264282,160.0
18615,0.24117716,-3.8190308,0.8660736,1.0492676,1.9487915,-3.8264282,160.0
18616,3.2028294,-23.176003,2.1524048,1.0492676,1.9487915,-3.8264282,160.0
18617,3.2028294,-23.176003,2.1524048,2.3874023,2.52334,-5.0190673,160.0
18618,3.2028294,-23.176003,2.1524048,3.364453,2.608301,-6.065149,160.0
18619,3.2028294,-23.176003,2.1524048,2.7463624,2.4288208,-5.6148562,160.0
18620,2.5622637,-18.540802,1.7219238,2.7463624,2.4288208,-5.6148562,160.0
18621,-2.3771544,-7.831568,9.089996,2.7463624,2.4288208,-5.6148562,160.0
18622,-2.3771544,-7.831568,9.089996,2.7463624,2.4288208,-5.6148562,161.0
18623,-2.3771544,-7.831568,9.089996,-0.7476563,2.16969,-3.1998413,161.0
18624,-2.3771544,-7.831568,9.089996,-4.611255,1.4942505,-0.7412842,161.0
18625,-2.3771544,-7.831568,9.089996,-6.2860475,0.41099855,0.67437744,161.0
18626,-6.8178616,-1.1021442,4.5967865,-6.2860475,0.41099855,0.67437744,161.0
18627,-6.8178616,-1.1021442,4.5967865,-4.71427,-0.67650145,0.4715332,161.0
18628,-8.144206,1.1713734,1.031662,-4.71427,-0.67650145,0.4715332,161.0
18629,-8.144206,1.1713734,1.031662,-2.2440307,-1.0216553,0.3345337,161.0
18630,-7.124911,0.99653435,-1.2992401,-2.2440307,-1.0216553,0.3345337,161.0
18631,-7.124911,0.99653435,-1.2992401,0.6138428,-0.70092773,0.33134767,161.0
18632,-5.917495,1.928648,-2.5986938,0.6138428,-0.70092773,0.33134767,161.0
18633,-5.917495,1.928648,-2.5986938,2.8631837,-0.32603762,0.49489745,161.0
18634,-5.6532955,4.681053,-3.0274963,2.8631837,-0.32603762,0.49489745,161.0
18635,-5.6532955,4.681053,-3.0274963,2.3141236,-0.060534667,0.6159668,161.0
18636,-5.7795944,7.1697693,-2.6880646,2.3141236,-0.060534667,0.6159668,161.0
18637,-5.7795944,7.1697693,-2.6880646,0.25806886,0.22939454,0.3717041,161.0
18638,-5.309662,7.4803104,-1.8665771,0.25806886,0.22939454,0.3717041,161.0
18639,-5.309662,7.4803104,-1.8665771,-1.1926392,0.4980835,0.4333008,161.0
18640,-4.1480713,5.557905,-1.1834412,-1.1926392,0.4980835,0.4333008,161.0
18641,-4.1480713,5.557905,-1.1834412,-1.7863038,0.74871826,0.727478,161.0
18642,-2.8630743,2.4154892,-1.1726532,-1.7863038,0.74871826,0.727478,161.0
18643,-2.8630743,2.4154892,-1.1726532,-1.26167,0.8878418,1.1129884,161.0
18644,-2.0796194,-0.88924026,-1.5266724,-1.26167,0.8878418,1.1129884,161.0
18645,-2.0796194,-0.88924026,-1.5266724,0.025488282,1.0418335,1.1915772,161.0
18646,-1.9957142,-5.0201817,-1.214325,0.025488282,1.0418335,1.1915772,161.0
18647,-1.9957142,-5.0201817,-1.214325,1.2595459,0.8952759,0.5586182,161.0
18648,-1.368495,-11.683236,-0.292511,1.2595459,0.8952759,0.5586182,161.0
18649,-1.368495,-11.683236,-0.292511,1.5250489,0.6860596,-0.2814331,161.0
18650,2.0098057,-17.830452,0.17488098,1.5250489,0.6860596,-0.2814331,161.0
18651,2.0098057,-17.830452,0.17488098,1.6758546,1.183081,-0.38657227,161.0
18652,7.5257397,-18.444328,0.5888214,1.6758546,1.183081,-0.38657227,161.0
18653,7.5257397,-18.444328,0.5888214,0.60216063,1.5335449,0.5692383,161.0
18654,11.124462,-13.696699,1.2443542,0.60216063,1.5335449,0.5692383,161.0
18655,11.124462,-13.696699,1.2443542,-1.4581422,1.5038086,1.6206299,161.0
18656,10.755259,-6.638963,1.0245819,-1.4581422,1.5038086,1.6206299,161.0
18657,10.755259,-6.638963,1.0245819,-2.8302612,0.74871826,2.4914796,161.0
18658,7.6316967,1.22954,0.6452942,-2.8302612,0.74871826,2.4914796,161.0
18659,7.6316967,1.22954,0.6452942,-2.5721924,-1.1979493,3.0044312,161.0
18660,4.075316,8.565065,1.6815796,-2.5721924,-1.1979493,3.0044312,161.0
18661,4.075316,8.565065,1.6815796,-0.7476563,-3.5949097,2.9407105,161.0
18662,1.8647816,12.997084,2.920456,-0.7476563,-3.5949097,2.9407105,161.0
18663,1.8647816,12.997084,2.920456,1.2032593,-4.9319825,2.7676027,161.0
18664,1.2218546,13.638573,2.0410767,1.2032593,-4.9319825,2.7676027,161.0
18665,1.2218546,13.638573,2.0410767,2.5201538,-4.868262,2.4182007,161.0
18666,1.5378108,11.979841,-1.1970978,2.5201538,-4.868262,2.4182007,161.0
18667,1.5378108,11.979841,-1.1970978,3.6554444,-4.190698,2.2281005,161.0
18668,1.4656247,10.245653,-4.5497437,3.6554444,-4.190698,2.2281005,161.0
18669,1.4656247,10.245653,-4.5497437,2.3895264,-3.1998413,1.6875366,161.0
18670,0.7257346,10.091506,-5.6341553,2.3895264,-3.1998413,1.6875366,161.0
18671,0.7257346,10.091506,-5.6341553,-0.21134034,-2.4553711,0.26656494,161.0
18672,0.53938895,11.095873,-4.3231354,-0.21134034,-2.4553711,0.26656494,161.0
18673,0.53938895,11.095873,-4.3231354,-2.163318,-1.632312,-0.6446411,161.0
18674,0.9648974,10.234047,-1.9603882,-2.163318,-1.632312,-0.6446411,161.0
18675,0.9648974,10.234047,-1.9603882,-3.3081665,-0.54587406,-1.1161743,161.0
18676,0.88169575,5.9240417,0.29618835,-3.3081665,-0.54587406,-1.1161743,161.0
18677,0.88169575,5.9240417,0.29618835,-2.9385865,0.39613038,-1.6408081,161.0
18678,0.28539813,-0.39711952,1.6751404,-2.9385865,0.39613038,-1.6408081,161.0
18679,0.28539813,-0.39711952,1.6751404,-0.79119873,1.447522,-2.5509522,161.0
18680,0.2644147,-6.968891,1.564148,-0.79119873,1.447522,-2.5509522,161.0
18681,0.2644147,-6.968891,1.564148,1.9944581,2.0687988,-4.079187,161.0
18682,0.7548057,-13.882376,0.80973816,1.9944581,2.0687988,-4.079187,161.0
18683,0.7548057,-13.882376,0.80973816,4.805603,2.005078,-6.0141726,161.0
18684,1.4447381,-18.50473,1.3952942,4.805603,2.005078,-6.0141726,161.0
18685,1.4447381,-18.50473,1.3952942,6.5409303,1.8171021,-7.1027346,161.0
18686,2.6175094,-15.609436,4.700638,6.5409303,1.8171021,-7.1027346,161.0
18687,2.6175094,-15.609436,4.700638,5.071106,1.3052124,-5.538391,161.0
18688,3.9510264,-6.9,9.149796,5.071106,1.3052124,-5.538391,161.0
18689,3.9510264,-6.9,9.149796,-0.42692873,1.0747559,-2.9364624,161.0
18690,2.7809873,0.25032473,9.886475,-0.42692873,1.0747559,-2.9364624,161.0
18691,2.7809873,0.25032473,9.886475,-4.526294,1.080066,-0.36533204,161.0
18692,-1.9893339,3.3665314,5.974167,-4.526294,1.080066,-0.36533204,161.0
18693,-1.9893339,3.3665314,5.974167,-6.0874515,0.5076416,0.9324463,161.0
18694,-6.905286,3.7548218,1.0061493,-6.0874515,0.5076416,0.9324463,161.0
18695,-6.905286,3.7548218,1.0061493,-5.59574,-0.04460449,1.0099732,161.0
18696,-9.019602,2.2793703,-2.5652313,-5.59574,-0.04460449,1.0099732,161.0
18697,-9.019602,2.2793703,-2.5652313,-3.622522,-0.2888672,0.7869507,161.0
18698,-8.443525,1.1565533,-4.272934,-3.622522,-0.2888672,0.7869507,161.0
18699,-8.443525,1.1565533,-4.272934,-0.54587406,0.021240234,0.60216063,161.0
18700,-7.0476065,2.4593248,-4.685913,-0.54587406,0.021240234,0.60216063,161.0
18701,-7.0476065,2.4593248,-4.685913,1.635498,0.59472656,0.6881836,161.0
18702,-6.5004873,5.639433,-4.422989,1.635498,0.59472656,0.6881836,161.0
18703,-6.5004873,5.639433,-4.422989,1.1246704,0.7519043,0.7051758,161.0
18704,-6.705883,7.775669,-3.8065186,1.1246704,0.7519043,0.7051758,161.0
18705,-6.705883,7.775669,-3.8065186,-0.30373535,0.5809204,0.44816896,161.0
18706,-6.037924,7.2336216,-3.0877228,-0.30373535,0.5809204,0.44816896,161.0
18707,-6.037924,7.2336216,-3.0877228,-1.0577637,0.60109866,0.41524658,161.0
18708,-4.1769695,4.7347374,-2.675583,-1.0577637,0.60109866,0.41524658,161.0
18709,-4.1769695,4.7347374,-2.675583,-1.2361816,0.8485474,0.70092773,161.0
18710,-2.545164,1.613718,-2.7784882,-1.2361816,0.8485474,0.70092773,161.0
18711,-2.545164,1.613718,-2.7784882,-0.81031495,1.089624,1.0004151,161.0
18712,-2.120201,-2.1095142,-2.756134,-0.81031495,1.089624,1.0004151,161.0
18713,-2.120201,-2.1095142,-2.756134,0.18160401,1.1023682,0.78376466,161.0
18714,-2.3785706,-8.314992,-1.864685,0.18160401,1.1023682,0.78376466,161.0
18715,-2.3785706,-8.314992,-1.864685,1.0067872,0.72960204,0.03717041,161.0
18716,-0.8427248,-15.591093,-0.5700989,1.0067872,0.72960204,0.03717041,161.0
18717,-0.8427248,-15.591093,-0.5700989,1.4517701,0.6754395,-0.67331547,161.0
18718,4.4696674,-18.413378,0.41862488,1.4517701,0.6754395,-0.67331547,161.0
18719,4.4696674,-18.413378,0.41862488,1.0418335,1.536731,-0.16036378,161.0
18720,10.333681,-15.669704,2.0417786,1.0418335,1.536731,-0.16036378,161.0
18721,10.333681,-15.669704,2.0417786,-0.75296634,1.7831177,1.269104,161.0
18722,11.747988,-10.680344,3.5798035,-0.75296634,1.7831177,1.269104,161.0
18723,11.747988,-10.680344,3.5798035,-3.08833,0.90058595,2.5753784,161.0
18724,8.844264,-4.740979,2.8173065,-3.08833,0.90058595,2.5753784,161.0
18725,8.844264,-4.740979,2.8173065,-3.1042602,-0.75615233,3.25188,161.0
18726,5.289327,2.8680444,1.6128235,-3.1042602,-0.75615233,3.25188,161.0
18727,5.289327,2.8680444,1.6128235,-1.7278931,-3.2922363,3.4526002,161.0
18728,3.2646163,10.468459,2.4036713,-1.7278931,-3.2922363,3.4526002,161.0
18729,3.2646163,10.468459,2.4036713,0.44498292,-5.415198,3.338965,161.0
18730,2.662157,14.7098255,3.3425293,0.44498292,-5.415198,3.338965,161.0
18731,2.662157,14.7098255,3.3425293,2.084729,-5.974878,3.1743531,161.0
18732,2.8785782,14.687563,1.39505,2.084729,-5.974878,3.1743531,161.0
18733,2.8785782,14.687563,1.39505,3.6575685,-5.232532,2.814331,161.0
18734,2.6839294,12.264541,-3.1228333,3.6575685,-5.232532,2.814331,161.0
18735,2.6839294,12.264541,-3.1228333,3.516321,-3.7754517,2.7569826,161.0
18736,2.6839294,12.264541,-3.1228333,3.516321,-3.7754517,2.7569826,161.0
18737,1.4132569,11.090026,-6.2344666,3.516321,-3.7754517,2.7569826,161.0
18738,1.4132569,11.090026,-6.2344666,0.92076415,-2.5658205,0.9770508,161.0
18739,0.7315332,12.926392,-5.276779,0.92076415,-2.5658205,0.9770508,161.0
18740,0.7315332,12.926392,-5.276779,-1.2627319,-1.4677002,-0.38869628,161.0
18741,0.92212844,13.754017,-1.826416,-1.2627319,-1.4677002,-0.38869628,161.0
18742,0.92212844,13.754017,-1.826416,-3.167981,-0.2177124,-0.83474123,161.0
18743,0.4039259,9.43129,1.2085876,-3.167981,-0.2177124,-0.83474123,161.0
18744,0.4039259,9.43129,1.2085876,-3.4833984,0.7678345,-1.5887696,161.0
18745,-0.45759657,1.6369381,2.0978394,-3.4833984,0.7678345,-1.5887696,161.0
18746,-0.45759657,1.6369381,2.0978394,-1.3763672,1.721521,-2.974695,161.0
18747,-0.008130491,-5.2905464,0.50494385,-1.3763672,1.721521,-2.974695,161.0
18748,-0.008130491,-5.2905464,0.50494385,0.634021,2.9555786,-4.2002563,161.0
18749,-0.008130491,-5.2905464,0.50494385,1.539917,3.7520874,-5.003137,161.0
18750,1.1650532,-10.702641,-2.0595856,1.539917,3.7520874,-5.003137,161.0
18751,3.6365838,-24.78627,3.8398438,1.539917,3.7520874,-5.003137,161.0
18752,3.6365838,-24.78627,3.8398438,2.1781862,4.0802493,-5.5691895,161.0
18753,3.6365838,-24.78627,3.8398438,2.1346436,4.094055,-5.629724,161.0
18754,3.6365838,-24.78627,3.8398438,-1.993396,3.8179321,-3.2072754,161.0
18755,2.5847187,-19.07754,4.3910217,-1.993396,3.8179321,-3.2072754,161.0
18756,2.5847187,-19.07754,4.3910217,-4.3839846,3.4037476,-1.9424194,161.0
18757,-4.051402,-6.9808426,4.029358,-4.3839846,3.4037476,-1.9424194,161.0
18758,-4.051402,-6.9808426,4.029358,-6.1777225,0.50020754,0.12531738,161.0
18759,-5.9963465,-3.0920715,2.3800964,-6.1777225,0.50020754,0.12531738,161.0
18760,-5.9963465,-3.0920715,2.3800964,-4.36593,-0.36533204,0.1529297,161.0
18761,-9.563239,1.5553226,-0.5478363,-4.36593,-0.36533204,0.1529297,161.0
18762,-9.563239,1.5553226,-0.5478363,-0.059472658,-1.628064,0.124255374,161.0
18763,-7.9695616,1.7310257,-0.9901886,-0.059472658,-1.628064,0.124255374,161.0
18764,-7.9695616,1.7310257,-0.9901886,0.9451904,-1.7077149,0.124255374,161.0
18765,-6.3006372,3.5389585,-2.719818,0.9451904,-1.7077149,0.124255374,161.0
18766,-6.3006372,3.5389585,-2.719818,3.5046387,-1.2160034,0.42692873,161.0
18767,-5.2528753,4.5074368,-2.4916077,3.5046387,-1.2160034,0.42692873,161.0
18768,-5.2528753,4.5074368,-2.4916077,3.8253663,-1.1055542,0.61702883,161.0
18769,-5.287798,7.1436815,-2.3155212,3.8253663,-1.1055542,0.61702883,161.0
18770,-5.287798,7.1436815,-2.3155212,2.7421143,-0.8315552,0.77314454,161.0
18771,-5.202614,8.007206,-1.2544861,2.7421143,-0.8315552,0.77314454,161.0
18772,-5.202614,8.007206,-1.2544861,1.1522827,-0.45454103,0.6053467,161.0
18773,-4.2783756,6.4490147,-0.07147217,1.1522827,-0.45454103,0.6053467,161.0
18774,-4.2783756,6.4490147,-0.07147217,0.47471926,0.0053100586,0.5235718,161.0
18775,-2.9903154,3.748701,0.33833313,0.47471926,0.0053100586,0.5235718,161.0
18776,-2.9903154,3.748701,0.33833313,0.60109866,0.30161133,0.39082032,161.0
18777,-1.9513216,-0.20102692,-0.28866577,0.60109866,0.30161133,0.39082032,161.0
18778,-1.9513216,-0.20102692,-0.28866577,1.0205933,0.7625244,0.6202149,161.0
18779,-1.7752781,-1.6819277,-0.24458313,1.0205933,0.7625244,0.6202149,161.0
18780,-1.7752781,-1.6819277,-0.24458313,1.1958252,0.6903076,0.5501221,161.0
18781,-2.0409136,-6.959031,1.1954803,1.1958252,0.6903076,0.5501221,161.0
18782,-2.0409136,-6.959031,1.1954803,1.4167236,0.16036378,-0.04991455,161.0
18783,-0.255167,-13.780739,3.4098816,1.4167236,0.16036378,-0.04991455,161.0
18784,-0.255167,-13.780739,3.4098816,1.7820557,-0.0722168,-0.68499756,161.0
18785,5.743449,-17.346027,4.45372,1.7820557,-0.0722168,-0.68499756,161.0
18786,5.743449,-17.346027,4.45372,1.7894897,0.75615233,0.050976563,161.0
18787,12.057651,-15.130227,3.8489685,1.7894897,0.75615233,0.050976563,161.0
18788,12.057651,-15.130227,3.8489685,1.6620483,1.3328247,1.3455689,161.0
18789,12.858071,-8.417695,1.7777405,1.6620483,1.3328247,1.3455689,161.0
18790,12.858071,-8.417695,1.7777405,0.032922365,1.2213135,2.5594482,161.0
18791,9.288191,-0.49322596,-1.2978363,0.032922365,1.2213135,2.5594482,161.0
18792,9.288191,-0.49322596,-1.2978363,-1.5197388,0.38338622,3.5407472,161.0
18793,5.7862406,6.641247,-2.812088,-1.5197388,0.38338622,3.5407472,161.0
18794,5.7862406,6.641247,-2.812088,-2.1962402,-1.173523,4.150342,161.0
18795,3.6590464,12.502011,-1.1692505,-2.1962402,-1.173523,4.150342,161.0
18796,3.6590464,12.502011,-1.1692505,-2.1240234,-2.9035401,3.9921021,161.0
18797,1.8307528,14.928184,0.80607605,-2.1240234,-2.9035401,3.9921021,161.0
18798,1.8307528,14.928184,0.80607605,1.9243653,-4.177954,2.7686646,161.0
18799,1.6539454,12.372552,0.10333252,1.9243653,-4.177954,2.7686646,161.0
18800,1.6539454,12.372552,0.10333252,3.4133058,-3.792444,2.5775025,161.0
18801,1.7018552,10.441938,-2.9153137,3.4133058,-3.792444,2.5775025,161.0
18802,1.7018552,10.441938,-2.9153137,4.539038,-2.902478,2.6677735,161.0
18803,0.99672586,10.648338,-5.554123,4.539038,-2.902478,2.6677735,161.0
18804,0.99672586,10.648338,-5.554123,2.5775025,-2.340674,1.716211,161.0
18805,-0.3775705,11.340912,-6.5535583,2.5775025,-2.340674,1.716211,161.0
18806,-0.3775705,11.340912,-6.5535583,-0.029736329,-2.1187134,0.2814331,161.0
18807,-0.62610424,10.56753,-5.830765,-0.029736329,-2.1187134,0.2814331,161.0
18808,-0.62610424,10.56753,-5.830765,-1.2149414,-1.2329956,-0.9218262,161.0
18809,-0.16821739,8.21756,-3.474121,-1.2149414,-1.2329956,-0.9218262,161.0
18810,-0.16821739,8.21756,-3.474121,-2.4139526,-0.47471926,-1.6206299,161.0
18811,-0.014200386,4.328211,-0.18278503,-2.4139526,-0.47471926,-1.6206299,161.0
18812,-0.014200386,4.328211,-0.18278503,-2.3831544,0.1709839,-2.3874023,161.0
18813,0.44344926,-1.105011,2.6408844,-2.3831544,0.1709839,-2.3874023,161.0
18814,0.44344926,-1.105011,2.6408844,-1.4007934,0.93775636,-3.6490724,161.0
18815,0.44344926,-1.105011,2.6408844,-0.6956177,1.4018555,-5.1220827,161.0
18816,1.5109363,-7.5155525,3.41922,-0.6956177,1.4018555,-5.1220827,161.0
18817,3.5879726,-21.557169,4.6404724,-0.6956177,1.4018555,-5.1220827,161.0
18818,3.5879726,-21.557169,4.6404724,0.99722904,1.7841797,-6.0885134,161.0
18819,3.5879726,-21.557169,4.6404724,1.9296753,2.3066895,-6.0715213,161.0
18820,3.5879726,-21.557169,4.6404724,0.32816163,1.9562256,-4.252295,161.0
18821,3.7296066,-20.295944,8.400238,0.32816163,1.9562256,-4.252295,161.0
18822,-5.088971,-4.157055,6.229965,0.32816163,1.9562256,-4.252295,161.0
18823,-5.088971,-4.157055,6.229965,-2.6019287,1.5016845,-1.7916138,161.0
18824,-5.088971,-4.157055,6.229965,-4.6271853,0.996167,0.37807617,161.0
18825,-5.088971,-4.157055,6.229965,-4.968091,0.25063476,1.1682129,161.0
18826,-8.169285,1.0214262,2.1182709,-4.968091,0.25063476,1.1682129,161.0
18827,-8.169285,1.0214262,2.1182709,-3.993164,-0.2899292,0.69136965,161.0
18828,-8.209415,1.9105368,-0.073135376,-3.993164,-0.2899292,0.69136965,161.0
18829,-8.209415,1.9105368,-0.073135376,-2.3746583,-0.22302246,0.37489015,161.0
18830,-6.705374,1.3666868,-1.5318451,-2.3746583,-0.22302246,0.37489015,161.0
18831,-6.705374,1.3666868,-1.5318451,-0.7306641,-0.04141846,0.057348635,161.0
18832,-5.57448,2.1699848,-2.7151337,-0.7306641,-0.04141846,0.057348635,161.0
18833,-5.57448,2.1699848,-2.7151337,-0.26019287,0.18266602,-0.10938721,161.0
18834,-5.321974,3.973402,-3.3449554,-0.26019287,0.18266602,-0.10938721,161.0
18835,-5.321974,3.973402,-3.3449554,-0.635083,0.36002198,-0.20921631,161.0
18836,-5.321974,3.973402,-3.3449554,-0.635083,0.36002198,-0.20921631,161.0
18837,-5.3421135,4.941185,-3.0528717,-0.635083,0.36002198,-0.20921631,161.0
18838,-5.3421135,4.941185,-3.0528717,-1.1310425,0.48427734,-0.13699952,161.0
18839,-4.8732395,4.3052063,-2.0581818,-1.1310425,0.48427734,-0.13699952,161.0
18840,-4.8732395,4.3052063,-2.0581818,-1.5165528,0.6510132,0.15930176,161.0
18841,-3.84305,2.2387085,-1.1615295,-1.5165528,0.6510132,0.15930176,161.0
18842,-3.84305,2.2387085,-1.1615295,-1.4655762,0.72216797,0.46622315,161.0
18843,-2.6919575,-0.4993782,-1.0021057,-1.4655762,0.72216797,0.46622315,161.0
18844,-2.6919575,-0.4993782,-1.0021057,-0.8421753,0.8612915,0.7678345,161.0
18845,-2.0464745,-3.4349155,-1.0596008,-0.8421753,0.8612915,0.7678345,161.0
18846,-2.0464745,-3.4349155,-1.0596008,-0.09664307,0.95368654,0.70198977,161.0
18847,-2.0027313,-8.658406,-0.28422546,-0.09664307,0.95368654,0.70198977,161.0
18848,-2.0027313,-8.658406,-0.28422546,0.34090576,0.47790527,-0.04460449,161.0
18849,-0.34591007,-16.444073,0.77119446,0.34090576,0.47790527,-0.04460449,161.0
18850,-0.34591007,-16.444073,0.77119446,1.0195312,0.2442627,-0.56817627,161.0
18851,5.123932,-20.792868,1.1142578,1.0195312,0.2442627,-0.56817627,161.0
18852,5.123932,-20.792868,1.1142578,1.7979859,1.26167,0.081774905,161.0
18853,10.704773,-17.745977,1.403305,1.7979859,1.26167,0.081774905,161.0
18854,10.704773,-17.745977,1.403305,1.0524536,1.4061035,1.356189,161.0
18855,11.765919,-9.452116,1.4051361,1.0524536,1.4061035,1.356189,161.0
18856,11.765919,-9.452116,1.4051361,-1.1013062,1.0620117,2.4989135,161.0
18857,8.854849,0.27848053,0.78370667,-1.1013062,1.0620117,2.4989135,161.0
18858,8.854849,0.27848053,0.78370667,-2.446875,-0.38338622,3.265686,161.0
18859,4.5792894,8.199371,0.7354126,-2.446875,-0.38338622,3.265686,161.0
18860,4.5792894,8.199371,0.7354126,-1.6493043,-2.5010376,3.1626709,161.0
18861,1.3452556,12.328918,1.3502655,-1.6493043,-2.5010376,3.1626709,161.0
18862,1.3452556,12.328918,1.3502655,-0.2824951,-4.0802493,2.8610597,161.0
18863,0.17201757,12.668238,0.9895935,-0.2824951,-4.0802493,2.8610597,161.0
18864,0.17201757,12.668238,0.9895935,1.0057251,-4.495496,2.440503,161.0
18865,0.561491,11.130867,-1.0371094,1.0057251,-4.495496,2.440503,161.0
18866,0.561491,11.130867,-1.0371094,2.4872315,-4.1312256,2.1197755,161.0
18867,1.175499,9.8983345,-3.6812286,2.4872315,-4.1312256,2.1197755,161.0
18868,1.175499,9.8983345,-3.6812286,3.0331056,-3.4855225,1.811792,161.0
18869,1.0472473,9.747965,-5.243637,3.0331056,-3.4855225,1.811792,161.0
18870,1.0472473,9.747965,-5.243637,1.6025757,-2.3990846,1.1055542,161.0
18871,0.4863453,10.111397,-4.642151,1.6025757,-2.3990846,1.1055542,161.0
18872,0.4863453,10.111397,-4.642151,0.04885254,-1.6068238,0.08602295,161.0
18873,0.14698637,10.065754,-2.5486755,0.04885254,-1.6068238,0.08602295,161.0
18874,0.14698637,10.065754,-2.5486755,-1.1512207,-0.80606693,-0.6775635,161.0
18875,-0.008411884,8.258696,-0.40750122,-1.1512207,-0.80606693,-0.6775635,161.0
18876,-0.008411884,8.258696,-0.40750122,-1.8330323,0.029736329,-1.2850342,161.0
18877,-0.14298439,4.1446877,0.8645935,-1.8330323,0.029736329,-1.2850342,161.0
18878,-0.14298439,4.1446877,0.8645935,-1.088562,0.7412842,-1.899939,161.0
18879,0.1082443,-0.7128525,1.3575592,-1.088562,0.7412842,-1.899939,161.0
18880,0.1082443,-0.7128525,1.3575592,1.0131592,1.5781494,-2.6507814,161.0
18881,0.9976428,-5.2041073,0.85980225,1.0131592,1.5781494,-2.6507814,161.0
18882,0.9976428,-5.2041073,0.85980225,2.617859,2.4521852,-3.8402345,161.0
18883,1.6225406,-10.367865,-0.09387207,2.617859,2.4521852,-3.8402345,161.0
18884,1.6225406,-10.367865,-0.09387207,4.1163573,2.624231,-4.980835,161.0
18885,1.6687356,-15.303862,1.1430511,4.1163573,2.624231,-4.980835,161.0
18886,1.6687356,-15.303862,1.1430511,5.0010133,2.438379,-5.96532,161.0
18887,1.9740144,-15.657237,5.583267,5.0010133,2.438379,-5.96532,161.0
18888,1.9740144,-15.657237,5.583267,2.889734,1.7831177,-4.788611,161.0
18889,2.1098268,-11.07872,9.635712,2.889734,1.7831177,-4.788611,161.0
18890,2.1098268,-11.07872,9.635712,-1.540979,0.9781128,-1.8277222,161.0
18891,0.26747572,-5.353455,9.174515,-1.540979,0.9781128,-1.8277222,161.0
18892,0.26747572,-5.353455,9.174515,-4.923486,0.26656494,0.6573853,161.0
18893,-3.5092251,-0.088110924,4.9108276,-4.923486,0.26656494,0.6573853,161.0
18894,-3.5092251,-0.088110924,4.9108276,-5.804956,-0.54587406,1.3338867,161.0
18895,-6.538618,3.167817,0.33015442,-5.804956,-0.54587406,1.3338867,161.0
18896,-6.538618,3.167817,0.33015442,-4.425403,-1.0333375,0.9526245,161.0
18897,-7.084947,3.432166,-2.5310516,-4.425403,-1.0333375,0.9526245,161.0
18898,-7.084947,3.432166,-2.5310516,-1.7756836,-0.8995239,0.6425171,161.0
18899,-5.987648,3.4195127,-3.4977722,-1.7756836,-0.8995239,0.6425171,161.0
18900,-5.987648,3.4195127,-3.4977722,0.49383545,-0.47471926,0.48746338,161.0
18901,-5.019611,5.316128,-3.218155,0.49383545,-0.47471926,0.48746338,161.0
18902,-5.019611,5.316128,-3.218155,0.9876709,-0.08602295,0.35683593,161.0
18903,-4.8559227,7.7786226,-2.5466156,0.9876709,-0.08602295,0.35683593,161.0
18904,-4.8559227,7.7786226,-2.5466156,0.043542482,0.21983643,0.17841797,161.0
18905,-4.87103,8.401609,-1.8685455,0.043542482,0.21983643,0.17841797,161.0
18906,-4.87103,8.401609,-1.8685455,-1.1852051,0.43011475,0.07965088,161.0
18907,-4.3100805,6.6639023,-1.3500366,-1.1852051,0.43011475,0.07965088,161.0
18908,-4.3100805,6.6639023,-1.3500366,-1.7374512,0.67225343,0.3154175,161.0
18909,-3.2481623,3.674591,-1.2497711,-1.7374512,0.67225343,0.3154175,161.0
18910,-3.2481623,3.674591,-1.2497711,-1.4910644,0.8092529,0.67650145,161.0
18911,-2.3647528,0.86076736,-1.5432129,-1.4910644,0.8092529,0.67650145,161.0
18912,-2.3647528,0.86076736,-1.5432129,-0.7476563,0.9239502,1.0439576,161.0
18913,-2.202385,-1.4239712,-1.644516,-0.7476563,0.9239502,1.0439576,161.0
18914,-2.202385,-1.4239712,-1.644516,-0.046728518,0.9366943,1.0567017,161.0
18915,-2.6183167,-5.1261024,-0.8516388,-0.046728518,0.9366943,1.0567017,161.0
18916,-2.6183167,-5.1261024,-0.8516388,0.7423462,0.7423462,0.5320679,161.0
18917,-1.8539305,-12.033511,0.4897461,0.7423462,0.7423462,0.5320679,161.0
18918,-1.8539305,-12.033511,0.4897461,1.2085694,0.5809204,-0.20178223,161.0
18919,2.1001682,-18.20551,0.983078,1.2085694,0.5809204,-0.20178223,161.0
18920,2.1001682,-18.20551,0.983078,1.6620483,1.4273437,-0.34090576,161.0
18921,7.481429,-18.321817,0.9878998,1.6620483,1.4273437,-0.34090576,161.0
18922,7.481429,-18.321817,0.9878998,0.4088745,2.0114503,0.75296634,161.0
18923,10.22976,-12.598359,0.9806671,0.4088745,2.0114503,0.75296634,161.0
18924,10.22976,-12.598359,0.9806671,-2.0401247,1.9233032,1.893567,161.0
18925,10.22976,-12.598359,0.9806671,-2.0401247,1.9233032,1.893567,161.0
18926,9.014473,-4.323902,0.13946533,-2.0401247,1.9233032,1.893567,161.0
18927,9.014473,-4.323902,0.13946533,-3.0458496,0.6818115,2.6943238,161.0
18928,5.6966367,3.8649626,-0.6209717,-3.0458496,0.6818115,2.6943238,161.0
18929,5.6966367,3.8649626,-0.6209717,-2.0380006,-1.4857544,2.8589356,161.0
18930,2.67468,10.056423,-0.054336548,-2.0380006,-1.4857544,2.8589356,161.0
18931,2.67468,10.056423,-0.054336548,-0.13062744,-3.601282,2.6444092,161.0
18932,1.0760598,12.843894,0.66030884,-0.13062744,-3.601282,2.6444092,161.0
18933,1.0760598,12.843894,0.66030884,1.4751343,-4.71958,2.4107666,161.0
18934,1.0479572,12.639337,-0.19108582,1.4751343,-4.71958,2.4107666,161.0
18935,1.0479572,12.639337,-0.19108582,2.703882,-4.516736,2.0656128,161.0
18936,1.6817374,11.170881,-2.6008759,2.703882,-4.516736,2.0656128,161.0
18937,1.6817374,11.170881,-2.6008759,3.4908326,-3.9464357,1.814978,161.0
18938,1.6477091,9.942515,-5.011963,3.4908326,-3.9464357,1.814978,161.0
18939,1.6477091,9.942515,-5.011963,2.0677369,-3.0076172,1.1352905,161.0
18940,1.0714754,9.84487,-5.699768,2.0677369,-3.0076172,1.1352905,161.0
18941,1.0714754,9.84487,-5.699768,-0.10301514,-2.2111084,-0.17523193,161.0
18942,0.87250006,10.29998,-4.260498,-0.10301514,-2.2111084,-0.17523193,161.0
18943,0.87250006,10.29998,-4.260498,-1.9445435,-1.2892822,-1.0004151,161.0
18944,0.83275354,8.814705,-1.7014465,-1.9445435,-1.2892822,-1.0004151,161.0
18945,0.83275354,8.814705,-1.7014465,-3.1180665,-0.36427003,-1.4921265,161.0
18946,0.477592,4.326214,0.717041,-3.1180665,-0.36427003,-1.4921265,161.0
18947,0.477592,4.326214,0.717041,-2.3916504,0.43117675,-2.0390625,161.0
18948,0.29043543,-1.5231113,2.0080872,-2.3916504,0.43117675,-2.0390625,161.0
18949,0.29043543,-1.5231113,2.0080872,0.04141846,1.3699951,-2.9322145,161.0
18950,0.62370574,-7.4222107,1.4081879,0.04141846,1.3699951,-2.9322145,161.0
18951,0.62370574,-7.4222107,1.4081879,2.078357,2.0422485,-3.9283814,161.0
18952,0.8241965,-13.169872,0.38478088,2.078357,2.0422485,-3.9283814,161.0
18953,0.8241965,-13.169872,0.38478088,3.7244751,2.3905885,-4.6717896,161.0
18954,0.78838557,-16.405674,2.04776,3.7244751,2.3905885,-4.6717896,161.0
18955,0.78838557,-16.405674,2.04776,4.067505,2.6072388,-4.8374634,161.0
18956,0.88065964,-15.078945,6.4461517,4.067505,2.6072388,-4.8374634,161.0
18957,0.88065964,-15.078945,6.4461517,1.627002,2.3151855,-3.347461,161.0
18958,0.7369252,-10.607077,9.212204,1.627002,2.3151855,-3.347461,161.0
18959,0.7369252,-10.607077,9.212204,-2.6847656,1.9424194,-1.0821899,161.0
18960,-1.0590316,-4.826238,7.2121735,-2.6847656,1.9424194,-1.0821899,161.0
18961,-1.0590316,-4.826238,7.2121735,-5.058362,1.2043213,0.69136965,161.0
18962,-4.3187585,1.3207846,3.0685425,-5.058362,1.2043213,0.69136965,161.0
18963,-4.3187585,1.3207846,3.0685425,-5.3705935,0.12000733,1.2786621,161.0
18964,-6.4129047,5.22893,0.35713196,-5.3705935,0.12000733,1.2786621,161.0
18965,-6.4129047,5.22893,0.35713196,-3.725537,-0.71367186,0.9324463,161.0
18966,-6.2354875,5.265456,-1.1159973,-3.725537,-0.71367186,0.9324463,161.0
18967,-6.2354875,5.265456,-1.1159973,-0.9611206,-0.81031495,0.6988037,161.0
18968,-4.9736443,4.4855337,-2.3469238,-0.9611206,-0.81031495,0.6988037,161.0
18969,-4.9736443,4.4855337,-2.3469238,1.3253907,-0.5522461,0.55755615,161.0
18970,-4.137949,5.646227,-3.2975922,1.3253907,-0.5522461,0.55755615,161.0
18971,-4.137949,5.646227,-3.2975922,1.7087768,-0.24851075,0.41418457,161.0
18972,-3.9258375,7.599684,-3.6303558,1.7087768,-0.24851075,0.41418457,161.0
18973,-3.9258375,7.599684,-3.6303558,0.58304447,0.083898924,0.14018555,161.0
18974,-3.6646938,8.178221,-3.1229095,0.58304447,0.083898924,0.14018555,161.0
18975,-3.6646938,8.178221,-3.1229095,-0.83686525,0.362146,0.107263185,161.0
18976,-3.1035442,6.742222,-2.0923615,-0.83686525,0.362146,0.107263185,161.0
18977,-3.1035442,6.742222,-2.0923615,-1.6875366,0.62764895,0.31860352,161.0
18978,-2.5211287,3.779337,-1.2795715,-1.6875366,0.62764895,0.31860352,161.0
18979,-2.5211287,3.779337,-1.2795715,-1.5144287,0.8400513,0.6414551,161.0
18980,-2.2640705,0.4215908,-1.0435486,-1.5144287,0.8400513,0.6414551,161.0
18981,-2.2640705,0.4215908,-1.0435486,-0.62340087,0.9366943,0.8241211,161.0
18982,-2.5165539,-2.9143753,-0.94815063,-0.62340087,0.9366943,0.8241211,161.0
18983,-2.5165539,-2.9143753,-0.94815063,0.6074707,0.8421753,0.6531372,161.0
18984,-2.7931013,-7.880596,-0.20484924,0.6074707,0.8421753,0.6531372,161.0
18985,-2.7931013,-7.880596,-0.20484924,1.6694825,0.52888185,0.13275146,161.0
18986,-1.1198444,-14.255234,0.85105896,1.6694825,0.52888185,0.13275146,161.0
18987,-1.1198444,-14.255234,0.85105896,2.1643798,0.6839356,-0.21346436,161.0
18988,3.0866203,-17.406519,1.3964386,2.1643798,0.6839356,-0.21346436,161.0
18989,3.0866203,-17.406519,1.3964386,1.4188477,1.2138795,0.38975832,161.0
18990,6.815707,-15.598165,1.6489716,1.4188477,1.2138795,0.38975832,161.0
18991,6.815707,-15.598165,1.6489716,-0.31010744,1.3360108,1.3859253,161.0
18992,7.7025776,-10.44218,1.1380463,-0.31010744,1.3360108,1.3859253,161.0
18993,7.7025776,-10.44218,1.1380463,-1.803296,0.9791748,2.0496826,161.0
18994,6.227687,-2.739132,-0.34194946,-1.803296,0.9791748,2.0496826,161.0
18995,6.227687,-2.739132,-0.34194946,-2.4734254,-0.2442627,2.4086425,161.0
18996,4.039364,5.5133576,-1.0558777,-2.4734254,-0.2442627,2.4086425,161.0
18997,4.039364,5.5133576,-1.0558777,-1.9445435,-2.1442018,2.4075806,161.0
18998,2.4093232,11.006121,-0.20681763,-1.9445435,-2.1442018,2.4075806,161.0
18999,2.4093232,11.006121,-0.20681763,-0.30479738,-3.885901,2.1261475,161.0
19000,1.797246,12.587807,0.6023102,-0.30479738,-3.885901,2.1261475,161.0
19001,1.797246,12.587807,0.6023102,1.3806152,-4.697278,1.8202881,161.0
19002,2.1604042,11.88509,-0.087509155,1.3806152,-4.697278,1.8202881,161.0
19003,2.1604042,11.88509,-0.087509155,2.6072388,-4.53479,1.5494751,161.0
19004,2.607718,10.650736,-2.083496,2.6072388,-4.53479,1.5494751,161.0
19005,2.607718,10.650736,-2.083496,2.9428346,-3.9889162,1.260608,161.0
19006,2.4869435,9.895771,-4.1410065,2.9428346,-3.9889162,1.260608,161.0
19007,2.4869435,9.895771,-4.1410065,1.6939087,-3.0862062,0.58198243,161.0
19008,2.1799111,9.856363,-4.7942657,1.6939087,-3.0862062,0.58198243,161.0
19009,2.1799111,9.856363,-4.7942657,0.07752686,-2.0443726,-0.26656494,161.0
19010,1.8429646,9.410627,-3.4963837,0.07752686,-2.0443726,-0.26656494,161.0
19011,1.8429646,9.410627,-3.4963837,-1.3912354,-0.96643066,-0.9324463,161.0
19012,1.1956242,7.0645485,-1.1501007,-1.3912354,-0.96643066,-0.9324463,161.0
19013,1.1956242,7.0645485,-1.1501007,-2.0995972,-0.06159668,-1.62594,161.0
19014,0.537786,2.7801418,0.8690338,-2.0995972,-0.06159668,-1.62594,161.0
19015,0.537786,2.7801418,0.8690338,-1.1193603,0.7890747,-2.3640382,161.0
19016,0.62937427,-2.501875,1.3161621,-1.1193603,0.7890747,-2.3640382,161.0
19017,0.62937427,-2.501875,1.3161621,0.5671143,1.8702027,-3.2370117,161.0
19018,0.62937427,-2.501875,1.3161621,2.171814,2.2960694,-3.99104,161.0
19019,1.1068685,-8.083958,0.4882202,2.171814,2.2960694,-3.99104,161.0
19020,1.4866302,-19.492472,9.038345,2.171814,2.2960694,-3.99104,161.0
19021,1.4866302,-19.492472,9.038345,3.804126,2.4086425,-4.669666,161.0
19022,1.4866302,-19.492472,9.038345,4.286279,2.2960694,-4.5549684,161.0
19023,1.4866302,-19.492472,9.038345,2.263147,1.7363892,-3.1074464,161.0
19024,0.9901098,-12.846114,10.711426,2.263147,1.7363892,-3.1074464,161.0
19025,0.9901098,-12.846114,10.711426,-1.6078857,0.9324463,-0.95793456,161.0
19026,-1.1623678,-5.2601805,7.8151093,-1.6078857,0.9324463,-0.95793456,161.0
19027,-1.1623678,-5.2601805,7.8151093,-3.7308471,0.29523927,0.6881836,161.0
19028,-4.1737785,1.1646223,3.445053,-3.7308471,0.29523927,0.6881836,161.0
19029,-4.1737785,1.1646223,3.445053,-4.073877,-0.50020754,1.1862671,161.0
19030,-4.1737785,1.1646223,3.445053,-4.073877,-0.50020754,1.1862671,158.0
19031,-6.0176115,4.290365,0.6611328,-4.073877,-0.50020754,1.1862671,158.0
19032,-6.0176115,4.290365,0.6611328,-2.7516725,-0.8442993,0.7890747,158.0
19033,-6.2494164,3.6621256,-1.0875854,-2.7516725,-0.8442993,0.7890747,158.0
19034,-6.2494164,3.6621256,-1.0875854,-0.47790527,-0.6435791,0.37807617,158.0
19035,-5.6501923,2.79253,-2.7082062,-0.47790527,-0.6435791,0.37807617,158.0
19036,-5.6501923,2.79253,-2.7082062,1.0174073,-0.15080567,-0.13699952,158.0
19037,-4.9880123,4.1584864,-3.724289,1.0174073,-0.15080567,-0.13699952,158.0
19038,-4.9880123,4.1584864,-3.724289,0.991919,0.33240968,-0.4800293,158.0
19039,-4.3999805,6.251936,-3.660614,0.991919,0.33240968,-0.4800293,158.0
19040,-4.3999805,6.251936,-3.660614,-0.24213867,0.6988037,-0.4609131,158.0
19041,-3.7945204,6.5089836,-2.9280853,-0.24213867,0.6988037,-0.4609131,158.0
19042,-3.7945204,6.5089836,-2.9280853,-1.5558472,1.0333375,-0.07646485,158.0
19043,-3.2076502,4.458456,-2.3319702,-1.5558472,1.0333375,-0.07646485,158.0
19044,-3.2076502,4.458456,-2.3319702,-2.095349,1.2574219,0.43117675,158.0
19045,-2.734662,1.4242725,-2.2679596,-2.095349,1.2574219,0.43117675,158.0
19046,-2.734662,1.4242725,-2.2679596,-1.8181641,1.360437,0.82836914,158.0
19047,-2.5447607,-1.5656242,-2.308136,-1.8181641,1.360437,0.82836914,158.0
19048,-2.5447607,-1.5656242,-2.308136,-0.9281983,1.3349488,0.92713624,158.0
19049,-2.657341,-5.6300507,-1.506485,-0.9281983,1.3349488,0.92713624,158.0
19050,-2.657341,-5.6300507,-1.506485,0.3993164,0.94731444,0.45347902,158.0
19051,-1.7621651,-12.382569,0.053329468,0.3993164,0.94731444,0.45347902,158.0
19052,-1.7621651,-12.382569,0.053329468,1.2478638,0.6966797,-0.29948732,158.0
19053,1.8440275,-17.926283,1.1283569,1.2478638,0.6966797,-0.29948732,158.0
19054,1.8440275,-17.926283,1.1283569,1.2754761,1.2552979,-0.26444092,158.0
19055,6.4849024,-17.78595,1.8338776,1.2754761,1.2552979,-0.26444092,158.0
19056,6.4849024,-17.78595,1.8338776,-0.3154175,1.358313,0.93138427,158.0
19057,8.802387,-13.767614,2.1483154,-0.3154175,1.358313,0.93138427,158.0
19058,8.802387,-13.767614,2.1483154,-2.0093262,1.2266235,1.9286133,158.0
19059,8.0324,-7.4328294,1.1316376,-2.0093262,1.2266235,1.9286133,158.0
19060,8.0324,-7.4328294,1.1316376,-2.7516725,0.30479738,2.619983,158.0
19061,5.5076222,0.9434216,-0.2228241,-2.7516725,0.30479738,2.619983,158.0
19062,5.5076222,0.9434216,-0.2228241,-2.546704,-1.5887696,2.8716798,158.0
19063,2.9851503,8.232862,-0.12779236,-2.546704,-1.5887696,2.8716798,158.0
19064,2.9851503,8.232862,-0.12779236,-1.0014771,-3.6384523,2.6720216,158.0
19065,1.5882301,11.742748,0.84051514,-1.0014771,-3.6384523,2.6720216,158.0
19066,1.5882301,11.742748,0.84051514,0.89421386,-4.8257813,2.357666,158.0
19067,1.5205476,12.04985,0.7067108,0.89421386,-4.8257813,2.357666,158.0
19068,1.5205476,12.04985,0.7067108,2.4691772,-4.8597655,1.9859619,158.0
19069,2.0576978,10.998474,-1.2829742,2.4691772,-4.8597655,1.9859619,158.0
19070,2.0576978,10.998474,-1.2829742,3.448352,-4.246985,1.8298463,158.0
19071,2.203104,10.209339,-3.9152985,3.448352,-4.246985,1.8298463,158.0
19072,2.203104,10.209339,-3.9152985,2.537146,-3.265686,1.3285767,158.0
19073,2.0101395,10.676443,-5.028122,2.537146,-3.265686,1.3285767,158.0
19074,2.0101395,10.676443,-5.028122,0.41524658,-2.259961,0.53100586,158.0
19075,1.7187074,11.335833,-3.6930847,0.41524658,-2.259961,0.53100586,158.0
19076,1.7187074,11.335833,-3.6930847,-1.536731,-1.2234375,-0.026550293,158.0
19077,0.97109634,9.725563,-1.1616058,-1.536731,-1.2234375,-0.026550293,158.0
19078,0.97109634,9.725563,-1.1616058,-2.714502,-0.38763428,-0.6881836,158.0
19079,-0.027908087,5.4289,0.7493439,-2.714502,-0.38763428,-0.6881836,158.0
19080,-0.027908087,5.4289,0.7493439,-2.366162,0.38232422,-1.5091187,158.0
19081,-0.43645,0.39425468,1.2688751,-2.366162,0.38232422,-1.5091187,158.0
19082,-0.43645,0.39425468,1.2688751,-0.51932377,1.3179566,-2.3268678,158.0
19083,0.23677754,-4.078615,0.5839081,-0.51932377,1.3179566,-2.3268678,158.0
19084,0.23677754,-4.078615,0.5839081,1.2945923,2.2100465,-3.263562,158.0
19085,0.23677754,-4.078615,0.5839081,3.0267334,2.6454713,-4.152466,158.0
19086,1.3370173,-8.7950325,-0.35003662,3.0267334,2.6454713,-4.152466,158.0
19087,2.1172214,-19.56525,3.9029694,3.0267334,2.6454713,-4.152466,158.0
19088,2.1172214,-19.56525,3.9029694,5.055176,2.3343017,-5.353601,158.0
19089,2.1172214,-19.56525,3.9029694,5.8569946,1.7268311,-5.770972,158.0
19090,1.9733913,-15.066446,8.143524,5.8569946,1.7268311,-5.770972,158.0
19091,1.9733913,-15.066446,8.143524,2.7006958,0.96430665,-3.7404053,158.0
19092,1.551052,-6.9034996,9.81044,2.7006958,0.96430665,-3.7404053,158.0
19093,1.551052,-6.9034996,9.81044,-1.6970948,0.23045655,-0.83898926,158.0
19094,-0.5281526,0.5690336,7.00119,-1.6970948,0.23045655,-0.83898926,158.0
19095,-0.5281526,0.5690336,7.00119,-4.2023807,0.060534667,1.1225464,158.0
19096,-3.984424,4.776125,2.4464417,-4.2023807,0.060534667,1.1225464,158.0
19097,-3.984424,4.776125,2.4464417,-5.2304077,-0.38338622,1.5154908,158.0
19098,-6.8644314,4.5350847,-0.9628906,-5.2304077,-0.38338622,1.5154908,158.0
19099,-6.8644314,4.5350847,-0.9628906,-3.9294434,-0.7126099,0.8591675,158.0
19100,-7.5251756,2.370695,-2.7976074,-3.9294434,-0.7126099,0.8591675,158.0
19101,-7.5251756,2.370695,-2.7976074,-1.7703736,-0.6000366,0.32922363,158.0
19102,-6.3557363,1.8948956,-3.5009613,-1.7703736,-0.6000366,0.32922363,158.0
19103,-6.3557363,1.8948956,-3.5009613,-0.07752686,-0.23682861,0.08814698,158.0
19104,-5.013959,3.5268288,-3.5640564,-0.07752686,-0.23682861,0.08814698,158.0
19105,-5.013959,3.5268288,-3.5640564,0.37382814,0.20390625,0.03717041,158.0
19106,-4.467881,5.508768,-3.2817993,0.37382814,0.20390625,0.03717041,158.0
19107,-4.467881,5.508768,-3.2817993,-0.3154175,0.45772704,0.014868164,158.0
19108,-4.333729,6.0928783,-2.797943,-0.3154175,0.45772704,0.014868164,158.0
19109,-4.333729,6.0928783,-2.797943,-1.2021973,0.66588134,0.16248779,158.0
19110,-3.8898106,4.799986,-2.318512,-1.2021973,0.66588134,0.16248779,158.0
19111,-3.8898106,4.799986,-2.318512,-1.7406372,0.8517334,0.50445557,158.0
19112,-3.223836,2.278246,-2.0832062,-1.7406372,0.8517334,0.50445557,158.0
19113,-3.223836,2.278246,-2.0832062,-1.4825684,0.9218262,0.81031495,158.0
19114,-2.6721954,-0.46544075,-2.009491,-1.4825684,0.9218262,0.81031495,158.0
19115,-2.6721954,-0.46544075,-2.009491,-0.74659425,0.9483765,1.0120972,158.0
19116,-2.5077639,-3.329115,-1.4369354,-0.74659425,0.9483765,1.0120972,158.0
19117,-2.5077639,-3.329115,-1.4369354,0.29417726,0.8315552,0.9218262,158.0
19118,-2.6240463,-8.487022,0.22924805,0.29417726,0.8315552,0.9218262,158.0
19119,-2.6240463,-8.487022,0.22924805,1.4124756,0.30373535,0.19222413,158.0
19120,-0.7355652,-15.372748,1.9693298,1.4124756,0.30373535,0.19222413,158.0
19121,-0.7355652,-15.372748,1.9693298,2.441565,0.23682861,-0.53950197,158.0
19122,5.2064695,-18.683392,2.3934326,2.441565,0.23682861,-0.53950197,158.0
19123,5.2064695,-18.683392,2.3934326,2.6093628,1.1225464,0.12000733,158.0
19124,11.179971,-15.837985,2.0278778,2.6093628,1.1225464,0.12000733,158.0
19125,11.179971,-15.837985,2.0278778,1.5048707,1.7045288,1.2744141,158.0
19126,11.883442,-8.71769,1.1576691,1.5048707,1.7045288,1.2744141,158.0
19127,11.883442,-8.71769,1.1576691,-1.5420411,1.4528321,2.461743,158.0
19128,8.436331,-0.72321254,-0.49005127,-1.5420411,1.4528321,2.461743,158.0
19129,8.436331,-0.72321254,-0.49005127,-3.0840821,0.33028564,3.1977174,158.0
19130,4.4971485,6.397211,-1.0751953,-3.0840821,0.33028564,3.1977174,158.0
19131,4.4971485,6.397211,-1.0751953,-3.2699342,-1.6110718,3.344275,158.0
19132,1.7976334,11.443209,0.6418152,-3.2699342,-1.6110718,3.344275,158.0
19133,1.7976334,11.443209,0.6418152,-2.3417358,-3.6915529,2.897168,158.0
19134,0.693954,12.724611,2.4265747,-2.3417358,-3.6915529,2.897168,158.0
19135,0.693954,12.724611,2.4265747,-2.3417358,-3.6915529,2.897168,147.0
19136,0.693954,12.724611,2.4265747,-0.35895997,-4.771619,2.255713,147.0
19137,0.93354464,11.336476,1.8102417,-0.35895997,-4.771619,2.255713,147.0
19138,0.93354464,11.336476,1.8102417,1.4634522,-4.642053,1.5983276,147.0
19139,1.4720799,9.846342,-1.2992554,1.4634522,-4.642053,1.5983276,147.0
19140,1.4720799,9.846342,-1.2992554,2.709192,-3.9581177,1.442212,147.0
19141,1.1305815,9.389158,-4.8099365,2.709192,-3.9581177,1.442212,147.0
19142,1.1305815,9.389158,-4.8099365,1.6238159,-2.8302612,0.6403931,147.0
19143,0.44111073,9.965477,-6.010605,1.6238159,-2.8302612,0.6403931,147.0
19144,0.44111073,9.965477,-6.010605,-0.22514649,-1.8001099,-0.4343628,147.0
19145,0.40823525,10.181648,-4.3798523,-0.22514649,-1.8001099,-0.4343628,147.0
19146,0.40823525,10.181648,-4.3798523,-1.9126831,-0.631897,-1.0726318,147.0
19147,0.5956556,7.796892,-1.5125122,-1.9126831,-0.631897,-1.0726318,147.0
19148,0.5956556,7.796892,-1.5125122,-2.9290283,0.2516968,-1.5239868,147.0
19149,0.3829332,2.8395767,0.71694946,-2.9290283,0.2516968,-1.5239868,147.0
19150,0.3829332,2.8395767,0.71694946,-2.0741088,1.1087402,-2.066675,147.0
19151,0.27764785,-2.874958,1.372879,-2.0741088,1.1087402,-2.066675,147.0
19152,0.27764785,-2.874958,1.372879,0.15080567,2.081543,-2.987439,147.0
19153,0.27764785,-2.874958,1.372879,1.9753418,2.6507814,-4.330884,147.0
19154,0.75910556,-8.362698,0.38316345,1.9753418,2.6507814,-4.330884,147.0
19155,3.3331635,-22.358591,5.6800385,1.9753418,2.6507814,-4.330884,147.0
19156,3.3331635,-22.358591,5.6800385,3.8402345,2.4543092,-5.4693604,147.0
19157,3.3331635,-22.358591,5.6800385,4.976587,2.1643798,-5.8134522,147.0
19158,3.3331635,-22.358591,5.6800385,2.5573242,1.7501954,-4.069629,147.0
19159,3.2818995,-14.440364,9.167694,2.5573242,1.7501954,-4.069629,147.0
19160,3.2818995,-14.440364,9.167694,-2.262085,1.2181275,-1.3657471,147.0
19161,0.364753,-5.7710657,7.55249,-2.262085,1.2181275,-1.3657471,147.0
19162,0.364753,-5.7710657,7.55249,-5.6711426,0.6775635,0.6786255,147.0
19163,-4.298725,0.36327457,3.0033112,-5.6711426,0.6775635,0.6786255,147.0
19164,-4.298725,0.36327457,3.0033112,-6.441101,-0.035046387,1.2956543,147.0
19165,-7.422354,2.3243847,-0.6614685,-6.441101,-0.035046387,1.2956543,147.0
19166,-7.422354,2.3243847,-0.6614685,-4.811975,-0.52675784,0.7476563,147.0
19167,-7.7170215,1.0509872,-2.570282,-4.811975,-0.52675784,0.7476563,147.0
19168,-7.7170215,1.0509872,-2.570282,-1.7841797,-0.4800293,0.49277344,147.0
19169,-6.3797083,0.2167902,-3.2822266,-1.7841797,-0.4800293,0.49277344,147.0
19170,-6.3797083,0.2167902,-3.2822266,1.2223755,-0.09664307,0.2793091,147.0
19171,-5.2729807,2.431221,-3.3477478,1.2223755,-0.09664307,0.2793091,147.0
19172,-5.2729807,2.431221,-3.3477478,2.001892,0.22833252,0.29417726,147.0
19173,-5.2019415,6.146038,-3.1441345,2.001892,0.22833252,0.29417726,147.0
19174,-5.2019415,6.146038,-3.1441345,0.7317261,0.33771974,0.03717041,147.0
19175,-5.195367,7.9718723,-2.7330933,0.7317261,0.33771974,0.03717041,147.0
19176,-5.195367,7.9718723,-2.7330933,-0.72854006,0.44923097,-0.035046387,147.0
19177,-4.261957,6.7006187,-2.1472015,-0.72854006,0.44923097,-0.035046387,147.0
19178,-4.261957,6.7006187,-2.1472015,-1.4921265,0.65844727,0.2888672,147.0
19179,-2.9196482,3.4303074,-1.7842255,-1.4921265,0.65844727,0.2888672,147.0
19180,-2.9196482,3.4303074,-1.7842255,-1.1820191,0.8050049,0.7497803,147.0
19181,-2.0931282,0.15765,-1.7919922,-1.1820191,0.8050049,0.7497803,147.0
19182,-2.0931282,0.15765,-1.7919922,-0.1996582,0.9770508,1.0917481,147.0
19183,-2.0855742,-2.521183,-1.5136108,-0.1996582,0.9770508,1.0917481,147.0
19184,-2.0855742,-2.521183,-1.5136108,0.65207523,1.0237793,1.0046631,147.0
19185,-2.524355,-6.9254065,-0.25553894,0.65207523,1.0237793,1.0046631,147.0
19186,-2.524355,-6.9254065,-0.25553894,1.2786621,0.70942384,0.34727785,147.0
19187,-1.5671644,-14.010955,1.148468,1.2786621,0.70942384,0.34727785,147.0
19188,-1.5671644,-14.010955,1.148468,1.8659546,0.4428589,-0.41312256,147.0
19189,2.9358559,-18.752026,1.4176941,1.8659546,0.4428589,-0.41312256,147.0
19190,2.9358559,-18.752026,1.4176941,2.1951783,1.2977784,0.027612304,147.0
19191,8.314919,-17.263718,1.3187103,2.1951783,1.2977784,0.027612304,147.0
19192,8.314919,-17.263718,1.3187103,1.2850342,1.5292969,1.0365235,147.0
19193,10.084224,-11.259047,1.264801,1.2850342,1.5292969,1.0365235,147.0
19194,10.084224,-11.259047,1.264801,-1.0747559,1.3699951,2.1463258,147.0
19195,8.497409,-3.186949,0.5628357,-1.0747559,1.3699951,2.1463258,147.0
19196,8.497409,-3.186949,0.5628357,-3.5503051,0.27612305,3.070276,147.0
19197,5.6879907,5.383998,0.54348755,-3.5503051,0.27612305,3.070276,147.0
19198,5.6879907,5.383998,0.54348755,-4.13866,-2.0082643,3.3251588,147.0
19199,2.9735615,11.634945,2.1830444,-4.13866,-2.0082643,3.3251588,147.0
19200,2.9735615,11.634945,2.1830444,-2.1909301,-4.2777834,2.797339,147.0
19201,1.3931069,13.329001,3.1984863,-2.1909301,-4.2777834,2.797339,147.0
19202,1.3931069,13.329001,3.1984863,0.14337158,-5.155005,2.2036743,147.0
19203,1.372066,11.810162,1.410202,0.14337158,-5.155005,2.2036743,147.0
19204,1.372066,11.810162,1.410202,2.1091554,-4.7694945,1.7618774,147.0
19205,1.9357631,9.628208,-2.660202,2.1091554,-4.7694945,1.7618774,147.0
19206,1.9357631,9.628208,-2.660202,3.896521,-3.9092653,1.713025,147.0
19207,1.666091,9.030996,-6.2704315,3.896521,-3.9092653,1.713025,147.0
19208,1.666091,9.030996,-6.2704315,2.5095336,-2.627417,0.6414551,147.0
19209,0.9665276,10.796221,-6.7973022,2.5095336,-2.627417,0.6414551,147.0
19210,0.9665276,10.796221,-6.7973022,0.07327881,-1.713025,-0.4248047,147.0
19211,0.8765423,12.008266,-4.6253357,0.07327881,-1.713025,-0.4248047,147.0
19212,0.8765423,12.008266,-4.6253357,-2.1049073,-0.55968016,-0.9696167,147.0
19213,0.9523691,9.385263,-1.6252747,-2.1049073,-0.55968016,-0.9696167,147.0
19214,0.9523691,9.385263,-1.6252747,-3.3198488,0.42692873,-1.3317627,147.0
19215,0.44314528,3.1661568,0.7239227,-3.3198488,0.42692873,-1.3317627,147.0
19216,0.44314528,3.1661568,0.7239227,-2.2015502,1.2287476,-1.983838,147.0
19217,0.2687496,-4.1684914,1.3190155,-2.2015502,1.2287476,-1.983838,147.0
19218,0.2687496,-4.1684914,1.3190155,0.19541016,2.1558838,-3.1945312,147.0
19219,0.2687496,-4.1684914,1.3190155,2.5020998,2.5456421,-4.5485964,147.0
19220,0.7676364,-11.5949,0.27745056,2.5020998,2.5456421,-4.5485964,147.0
19221,2.8180156,-19.74196,8.181595,2.5020998,2.5456421,-4.5485964,147.0
19222,2.8180156,-19.74196,8.181595,2.5020998,2.5456421,-4.5485964,139.0
19223,2.8180156,-19.74196,8.181595,4.9882693,2.5859985,-5.3886476,139.0
19224,2.8180156,-19.74196,8.181595,5.3705935,2.5222778,-4.607007,139.0
19225,2.8180156,-19.74196,8.181595,1.1937011,2.066675,-2.2281005,139.0
19226,1.9014705,-13.198537,8.597107,1.1937011,2.066675,-2.2281005,139.0
19227,1.9014705,-13.198537,8.597107,-1.6004517,1.7916138,-1.0503296,139.0
19228,-2.7453885,-2.2677288,6.057083,-1.6004517,1.7916138,-1.0503296,139.0
19229,-2.7453885,-2.2677288,6.057083,-5.955762,0.74871826,1.178833,139.0
19230,-4.322678,0.37929916,3.0769043,-5.955762,0.74871826,1.178833,139.0
19231,-4.322678,0.37929916,3.0769043,-5.96532,0.2262085,1.2170655,139.0
19232,-7.868763,2.7100801,-1.267746,-5.96532,0.2262085,1.2170655,139.0
19233,-7.868763,2.7100801,-1.267746,-3.0522218,-0.59472656,0.50870365,139.0
19234,-6.7398586,1.5581398,-1.6873322,-3.0522218,-0.59472656,0.50870365,139.0
19235,-6.7398586,1.5581398,-1.6873322,-1.360437,-0.5522461,0.36745605,139.0
19236,-5.210332,1.7152863,-3.215683,-1.360437,-0.5522461,0.36745605,139.0
19237,-5.210332,1.7152863,-3.215683,1.9625977,-0.032922365,0.18903808,139.0
19238,-4.240653,3.1271486,-3.1034393,1.9625977,-0.032922365,0.18903808,139.0
19239,-4.240653,3.1271486,-3.1034393,1.9137452,0.07752686,0.17735596,139.0
19240,-4.6909475,7.9337378,-3.31633,1.9137452,0.07752686,0.17735596,139.0
19241,-4.6909475,7.9337378,-3.31633,-0.21558838,0.36320803,0.033984374,139.0
19242,-4.191369,7.2428894,-2.6437378,-0.21558838,0.36320803,0.033984374,139.0
19243,-4.191369,7.2428894,-2.6437378,-1.0343994,0.44816896,0.07965088,139.0
19244,-3.7050848,4.9915047,-1.6411133,-1.0343994,0.44816896,0.07965088,139.0
19245,-3.7050848,4.9915047,-1.6411133,-2.0103881,0.72216797,0.49277344,139.0
19246,-2.9308033,2.8429356,-1.3904114,-2.0103881,0.72216797,0.49277344,139.0
19247,-2.9308033,2.8429356,-1.3904114,-1.7342652,0.77739257,0.65844727,139.0
19248,-2.6095715,-2.00169,-1.6110687,-1.7342652,0.77739257,0.65844727,139.0
19249,-2.6095715,-2.00169,-1.6110687,-0.13168946,0.8772217,1.0131592,139.0
19250,-2.515892,-3.2214813,-1.383255,-0.13168946,0.8772217,1.0131592,139.0
19251,-2.515892,-3.2214813,-1.383255,0.540564,0.76358646,0.93138427,139.0
19252,-3.0557432,-12.394312,0.31829834,0.540564,0.76358646,0.93138427,139.0
19253,-3.0557432,-12.394312,0.31829834,1.9360474,0.23258057,0.057348635,139.0
19254,-1.5792742,-14.417586,0.8398895,1.9360474,0.23258057,0.057348635,139.0
19255,-1.5792742,-14.417586,0.8398895,2.255713,0.39613038,-0.14230958,139.0
19256,3.4609947,-18.37937,1.6747742,2.255713,0.39613038,-0.14230958,139.0
19257,3.4609947,-18.37937,1.6747742,1.6992188,1.1416626,0.52675784,139.0
19258,8.690732,-15.936113,2.478119,1.6992188,1.1416626,0.52675784,139.0
19259,8.690732,-15.936113,2.478119,-0.08602295,1.4230957,1.9275513,139.0
19260,9.942674,-9.516773,2.4381866,-0.08602295,1.4230957,1.9275513,139.0
19261,9.942674,-9.516773,2.4381866,-1.6429322,1.1682129,2.71875,139.0
19262,7.664405,-1.6119785,0.5948334,-1.6429322,1.1682129,2.71875,139.0
19263,7.664405,-1.6119785,0.5948334,-2.0677369,0.09239502,2.975757,139.0
19264,3.9533257,9.177654,-1.4820862,-2.0677369,0.09239502,2.975757,139.0
19265,3.9533257,9.177654,-1.4820862,-1.3445069,-2.6051147,2.7633545,139.0
19266,2.8886495,10.443088,-0.62805176,-1.3445069,-2.6051147,2.7633545,139.0
19267,2.8886495,10.443088,-0.62805176,-0.75721437,-3.4164917,2.6008668,139.0
19268,2.2141545,12.40043,0.6217041,-0.75721437,-3.4164917,2.6008668,139.0
19269,2.2141545,12.40043,0.6217041,0.5703003,-4.2894654,2.1834962,139.0
19270,2.4810526,12.016548,0.5010681,0.5703003,-4.2894654,2.1834962,139.0
19271,2.4810526,12.016548,0.5010681,1.6843506,-4.218311,1.7650635,139.0
19272,2.7626987,11.245404,-3.033905,1.6843506,-4.218311,1.7650635,139.0
19273,2.7626987,11.245404,-3.033905,1.5823975,-3.3803833,1.1575928,139.0
19274,2.3603787,9.811619,-3.647049,1.5823975,-3.3803833,1.1575928,139.0
19275,2.3603787,9.811619,-3.647049,0.97067875,-2.8642457,0.73703617,139.0
19276,1.8088596,9.670706,-4.3375397,0.97067875,-2.8642457,0.73703617,139.0
19277,1.8088596,9.670706,-4.3375397,-0.41949463,-1.9222412,-0.02442627,139.0
19278,1.2696829,9.233355,-2.6209717,-0.41949463,-1.9222412,-0.02442627,139.0
19279,1.2696829,9.233355,-2.6209717,-1.5675293,-1.0938721,-0.6839356,139.0
19280,0.50704265,7.25486,-0.21240234,-1.5675293,-1.0938721,-0.6839356,139.0
19281,0.50704265,7.25486,-0.21240234,-2.086853,-0.38444826,-1.4156617,139.0
19282,-0.1744318,3.4096375,1.2437592,-2.086853,-0.38444826,-1.4156617,139.0
19283,-0.1744318,3.4096375,1.2437592,-1.0322754,0.5055176,-2.1250856,139.0
19284,-0.13499224,-1.5498772,1.410965,-1.0322754,0.5055176,-2.1250856,139.0
19285,-0.13499224,-1.5498772,1.410965,0.71154785,1.3859253,-3.0139892,139.0
19286,0.40136898,-7.23724,0.69963074,0.71154785,1.3859253,-3.0139892,139.0
19287,0.40136898,-7.23724,0.69963074,2.259961,1.9625977,-3.8720949,139.0
19288,0.9634048,-13.052389,0.83781433,2.259961,1.9625977,-3.8720949,139.0
19289,0.9634048,-13.052389,0.83781433,3.6554444,2.3831544,-4.5528445,139.0
19290,1.2083703,-16.243023,3.2680054,3.6554444,2.3831544,-4.5528445,139.0
19291,1.2083703,-16.243023,3.2680054,3.6002197,2.521216,-4.4848757,139.0
19292,0.8870576,-14.518356,9.056091,3.6002197,2.521216,-4.4848757,139.0
19293,0.8870576,-14.518356,9.056091,-0.08814698,2.1941164,-2.438379,139.0
19294,0.2218531,-10.575427,8.1375885,-0.08814698,2.1941164,-2.438379,139.0
19295,0.2218531,-10.575427,8.1375885,-1.724707,1.9201173,-1.5208008,139.0
19296,-1.8501787,-3.8548484,5.357605,-1.724707,1.9201173,-1.5208008,139.0
19297,-1.8501787,-3.8548484,5.357605,-3.8253663,1.3413209,-0.004248047,139.0
19298,-4.886918,3.23315,1.0444641,-3.8253663,1.3413209,-0.004248047,139.0
19299,-4.886918,3.23315,1.0444641,-4.364868,0.5671143,0.5692383,139.0
19300,-6.936268,7.1803684,-1.3946381,-4.364868,0.5671143,0.5692383,139.0
19301,-6.936268,7.1803684,-1.3946381,-3.0947022,-0.021240234,0.19116211,139.0
19302,-7.066861,6.761324,-2.2842865,-3.0947022,-0.021240234,0.19116211,139.0
19303,-7.066861,6.761324,-2.2842865,-0.91757816,-0.21558838,-0.20284425,139.0
19304,-6.0583477,5.281605,-2.8361816,-0.91757816,-0.21558838,-0.20284425,139.0
19305,-6.0583477,5.281605,-2.8361816,0.7391602,-0.15505372,-0.5766724,139.0
19306,-4.9849844,5.5402985,-3.372467,0.7391602,-0.15505372,-0.5766724,139.0
19307,-4.9849844,5.5402985,-3.372467,1.0747559,0.08071289,-0.65844727,139.0
19308,-4.3309193,6.7093143,-3.6821136,1.0747559,0.08071289,-0.65844727,139.0
19309,-4.3309193,6.7093143,-3.6821136,0.31010744,0.4163086,-0.50020754,139.0
19310,-3.9242935,6.575081,-3.4105682,0.31010744,0.4163086,-0.50020754,139.0
19311,-3.9242935,6.575081,-3.4105682,-0.8358032,0.65419924,-0.19647217,139.0
19312,-3.4240055,4.5601635,-2.7493896,-0.8358032,0.65419924,-0.19647217,139.0
19313,-3.4240055,4.5601635,-2.7493896,-1.4570801,0.817749,0.20178223,139.0
19314,-2.8786335,1.6193714,-2.2467651,-1.4570801,0.817749,0.20178223,139.0
19315,-2.8786335,1.6193714,-2.2467651,-1.2627319,0.8793457,0.5363159,139.0
19316,-2.6108532,-1.4722404,-1.9335785,-1.2627319,0.8793457,0.5363159,139.0
19317,-2.6108532,-1.4722404,-1.9335785,-0.33028564,0.8612915,0.7455322,139.0
19318,-2.6391706,-5.699814,-1.0971222,-0.33028564,0.8612915,0.7455322,139.0
19319,-2.6391706,-5.699814,-1.0971222,1.0503296,0.5649902,0.544812,139.0
19320,-1.8290243,-12.1251955,0.39430237,1.0503296,0.5649902,0.544812,139.0
19321,-1.8290243,-12.1251955,0.39430237,2.163318,0.47684327,0.11469727,139.0
19322,1.6528692,-17.396788,1.673523,2.163318,0.47684327,0.11469727,139.0
19323,1.6528692,-17.396788,1.673523,2.0826051,1.0248413,0.06690674,139.0
19324,6.603301,-17.81483,2.6430054,2.0826051,1.0248413,0.06690674,139.0
19325,6.603301,-17.81483,2.6430054,0.45560303,1.2924683,1.0949341,139.0
19326,9.2997675,-13.968185,2.914383,0.45560303,1.2924683,1.0949341,139.0
19327,9.2997675,-13.968185,2.914383,-1.5590333,1.3816773,1.9424194,139.0
19328,8.440998,-7.2308226,1.2878723,-1.5590333,1.3816773,1.9424194,139.0
19329,8.440998,-7.2308226,1.2878723,-2.8153932,0.7434082,2.5488281,139.0
19330,5.7205477,1.2681129,-1.0593262,-2.8153932,0.7434082,2.5488281,139.0
19331,5.7205477,1.2681129,-1.0593262,-3.2837403,-0.904834,2.8738039,139.0
19332,5.7205477,1.2681129,-1.0593262,-3.2837403,-0.904834,2.8738039,132.0
19333,3.2818947,8.881629,-1.3574982,-3.2837403,-0.904834,2.8738039,132.0
19334,3.2818947,8.881629,-1.3574982,-2.356604,-3.0352294,2.7304323,132.0
19335,1.9594026,12.857952,0.41923523,-2.356604,-3.0352294,2.7304323,132.0
19336,1.9594026,12.857952,0.41923523,-0.4088745,-4.7174563,2.433069,132.0
19337,1.7395802,13.24802,1.4734039,-0.4088745,-4.7174563,2.433069,132.0
19338,1.7395802,13.24802,1.4734039,1.4517701,-5.092346,1.9732178,132.0
19339,2.3591933,11.997025,-0.0010681152,1.4517701,-5.092346,1.9732178,132.0
19340,2.3591933,11.997025,-0.0010681152,2.7453003,-4.525232,1.7024049,132.0
19341,2.7906628,10.581836,-3.2110443,2.7453003,-4.525232,1.7024049,132.0
19342,2.7906628,10.581836,-3.2110443,3.0203614,-3.511011,1.448584,132.0
19343,2.4508774,10.107826,-5.2995605,3.0203614,-3.511011,1.448584,132.0
19344,2.4508774,10.107826,-5.2995605,1.4369019,-2.5626342,0.541626,132.0
19345,1.9249475,10.750641,-4.461258,1.4369019,-2.5626342,0.541626,132.0
19346,1.9249475,10.750641,-4.461258,-0.78376466,-1.6248779,-0.33665773,132.0
19347,1.2867597,10.329578,-1.8832855,-0.78376466,-1.6248779,-0.33665773,132.0
19348,1.2867597,10.329578,-1.8832855,-2.7261841,-0.7742066,-1.0683838,132.0
19349,0.41626084,6.879629,0.3746338,-2.7261841,-0.7742066,-1.0683838,132.0
19350,0.41626084,6.879629,0.3746338,-3.081958,-0.043542482,-1.8266602,132.0
19351,-0.16359782,1.321476,1.4335785,-3.081958,-0.043542482,-1.8266602,132.0
19352,-0.16359782,1.321476,1.4335785,-1.3211426,0.7604004,-2.5307739,132.0
19353,0.10547423,-4.562607,1.3178864,-1.3211426,0.7604004,-2.5307739,132.0
19354,0.10547423,-4.562607,1.3178864,1.0142212,1.8500245,-3.5046387,132.0
19355,0.10547423,-4.562607,1.3178864,3.0479736,2.3672242,-4.440271,132.0
19356,0.7815718,-10.543077,0.59095764,3.0479736,2.3672242,-4.440271,132.0
19357,2.0310314,-20.837173,10.336578,3.0479736,2.3672242,-4.440271,132.0
19358,2.0310314,-20.837173,10.336578,4.3723025,2.626355,-5.1220827,132.0
19359,2.0310314,-20.837173,10.336578,3.6841187,2.2429688,-4.55072,132.0
19360,2.0310314,-20.837173,10.336578,0.9218262,1.8744507,-2.6359131,132.0
