,accx,accy,accz,gyrox,gyroy,gyroz,heart rate
23167,run,run,run,run,run,run,run
23168,-2.1734917,2.8849258,-7.134123,-0.09133301,-0.05522461,0.09451904,106.0
23169,-2.1734917,2.8849258,-7.134123,0.0,-0.010620117,-0.07965088,106.0
23170,-1.7432489,2.304718,-5.7070665,0.0,-0.010620117,-0.07965088,106.0
23171,-1.7432489,2.304718,-5.7070665,-0.015930176,-0.013806152,-0.08602295,106.0
23172,1.6330743,-0.546167,2.1503136,-0.015930176,-0.013806152,-0.08602295,106.0
23173,1.6330743,-0.546167,2.1503136,-0.008496094,-0.020178223,-0.09133301,106.0
23174,1.3460712,-0.49009526,1.7899654,-0.008496094,-0.020178223,-0.09133301,106.0
23175,1.3460712,-0.49009526,1.7899654,-0.0010620117,-0.021240234,-0.08602295,106.0
23176,1.3460712,-0.49009526,1.7899654,-0.0053100586,-0.029736329,-0.08283692,106.0
23177,1.1040909,-0.41929793,1.543801,-0.0053100586,-0.029736329,-0.08283692,106.0
23178,0.87692505,-0.28484023,1.2602483,-0.0053100586,-0.029736329,-0.08283692,106.0
23179,0.87692505,-0.28484023,1.2602483,-0.04141846,-0.023364259,-0.07965088,106.0
23180,0.68644,-0.19162947,0.96513224,-0.04141846,-0.023364259,-0.07965088,106.0
23181,0.68644,-0.19162947,0.96513224,-0.04248047,-0.032922365,-0.08496094,106.0
23182,-0.4480404,-0.55426794,1.031603,-0.04248047,-0.032922365,-0.08496094,106.0
23183,-0.4480404,-0.55426794,1.031603,-0.0361084,-0.040356446,-0.090270996,106.0
23184,-0.3518161,-0.48468634,0.92037517,-0.0361084,-0.040356446,-0.090270996,106.0
23185,-0.3518161,-0.48468634,0.92037517,-0.022302246,-0.04248047,-0.08814698,106.0
23186,-0.25734398,-0.41611823,0.84230596,-0.022302246,-0.04248047,-0.08814698,106.0
23187,-0.25734398,-0.41611823,0.84230596,-0.023364259,-0.032922365,-0.059472658,106.0
23188,-0.17922723,-0.34218413,0.657231,-0.023364259,-0.032922365,-0.059472658,106.0
23189,-0.17922723,-0.34218413,0.657231,-0.04141846,-0.02442627,-0.026550293,106.0
23190,-0.13333541,-0.28143775,0.41388294,-0.04141846,-0.02442627,-0.026550293,106.0
23191,-0.13333541,-0.28143775,0.41388294,-0.04991455,-0.026550293,0.04141846,106.0
23192,-0.12528406,-0.35668096,0.1999296,-0.04991455,-0.026550293,0.04141846,106.0
23193,-0.12528406,-0.35668096,0.1999296,-0.0010620117,-0.028674318,0.11682129,106.0
23194,-0.1984206,-0.50696343,0.030463696,-0.0010620117,-0.028674318,0.11682129,106.0
23195,-0.1984206,-0.50696343,0.030463696,0.14549561,-0.12000733,0.13168946,106.0
23196,-0.1712609,-0.41020942,-0.09436685,0.14549561,-0.12000733,0.13168946,106.0
23197,-0.1712609,-0.41020942,-0.09436685,0.010620117,-0.10407715,0.12956543,106.0
23198,-0.1053925,-0.14183941,-0.092510074,0.010620117,-0.10407715,0.12956543,106.0
23199,-0.1053925,-0.14183941,-0.092510074,-0.23364258,-0.019116212,0.11151123,106.0
23200,-0.21710208,-7.762164E-4,-0.0051726103,-0.23364258,-0.019116212,0.11151123,106.0
23201,-0.21710208,-7.762164E-4,-0.0051726103,-0.0998291,-0.09770508,0.17947999,106.0
23202,-0.21710208,-7.762164E-4,-0.0051726103,-0.04885254,-0.1274414,0.1731079,106.0
23203,-0.2872681,0.14028479,0.03276378,-0.04885254,-0.1274414,0.1731079,106.0
23204,-0.20731692,0.20275518,0.04791513,-0.04885254,-0.1274414,0.1731079,106.0
23205,-0.20731692,0.20275518,0.04791513,-0.052038576,-0.13168946,0.10089111,106.0
23206,-0.08329739,-0.02423384,0.11969197,-0.052038576,-0.13168946,0.10089111,106.0
23207,-0.08329739,-0.02423384,0.11969197,0.08814698,-0.18691407,0.121069334,106.0
23208,0.013098419,-0.2494652,0.17506267,0.08814698,-0.18691407,0.121069334,106.0
23209,0.013098419,-0.2494652,0.17506267,0.3164795,-0.2442627,0.14124756,106.0
23210,0.07650656,-0.16104677,0.16856577,0.3164795,-0.2442627,0.14124756,106.0
23211,0.07650656,-0.16104677,0.16856577,0.3154175,-0.24851075,0.15717773,106.0
23212,0.07398601,-0.0077924877,0.2011368,0.3154175,-0.24851075,0.15717773,106.0
23213,0.07398601,-0.0077924877,0.2011368,0.3717041,-0.32497558,0.19328614,106.0
23214,0.045126304,-0.06004259,0.26205692,0.3717041,-0.32497558,0.19328614,106.0
23215,0.045126304,-0.06004259,0.26205692,0.46728516,-0.3695801,0.24107666,106.0
23216,0.052348603,-0.34102726,0.23820998,0.46728516,-0.3695801,0.24107666,106.0
23217,0.052348603,-0.34102726,0.23820998,0.7327881,-0.4258667,0.3154175,106.0
23218,0.08888816,-0.7341011,0.033378042,0.7327881,-0.4258667,0.3154175,106.0
23219,0.08888816,-0.7341011,0.033378042,1.1915772,-0.4428589,0.39506838,106.0
23220,0.08888816,-0.7341011,0.033378042,1.3530029,-0.4428589,0.4354248,106.0
23221,0.065031424,-0.67614806,-0.19057052,1.3530029,-0.4428589,0.4354248,106.0
23222,-0.04607056,-0.0264287,-0.20775427,1.3530029,-0.4428589,0.4354248,106.0
23223,-0.04607056,-0.0264287,-0.20775427,1.1554688,-0.45347902,0.4885254,106.0
23224,-0.16589698,0.5447262,-0.06334697,1.1554688,-0.45347902,0.4885254,106.0
23225,-0.16589698,0.5447262,-0.06334697,0.8591675,-0.45135498,0.5543701,106.0
23226,-0.26355255,0.58595186,0.09849235,0.8591675,-0.45135498,0.5543701,106.0
23227,-0.26355255,0.58595186,0.09849235,0.67225343,-0.452417,0.6244629,106.0
23228,-0.3461936,0.25878838,0.18161371,0.67225343,-0.452417,0.6244629,106.0
23229,-0.3461936,0.25878838,0.18161371,0.6680054,-0.46834716,0.6775635,106.0
23230,-0.40085626,0.08311713,0.14337446,0.6680054,-0.46834716,0.6775635,106.0
23231,-0.40085626,0.08311713,0.14337446,0.58410645,-0.46622315,0.70942384,106.0
23232,-0.41200578,0.23902789,0.012197129,0.58410645,-0.46622315,0.70942384,106.0
23233,-0.41200578,0.23902789,0.012197129,0.3802002,-0.47471926,0.70942384,106.0
23234,-0.3906886,0.3911857,-0.07802306,0.3802002,-0.47471926,0.70942384,106.0
23235,-0.3906886,0.3911857,-0.07802306,0.19753419,-0.4885254,0.67650145,106.0
23236,-0.32916462,0.2621551,-0.009342276,0.19753419,-0.4885254,0.67650145,106.0
23237,-0.32916462,0.2621551,-0.009342276,0.13275146,-0.5097656,0.6924316,106.0
23238,-0.27212077,-0.07863042,0.058615047,0.13275146,-0.5097656,0.6924316,106.0
23239,-0.27212077,-0.07863042,0.058615047,0.1996582,-0.5511841,0.7317261,106.0
23240,-0.28256476,-0.29643705,0.022038523,0.1996582,-0.5511841,0.7317261,106.0
23241,-0.28256476,-0.29643705,0.022038523,0.2984253,-0.5883545,0.7805786,106.0
23242,-0.29439896,-0.17807981,0.022757772,0.2984253,-0.5883545,0.7805786,106.0
23243,-0.29439896,-0.17807981,0.022757772,0.28355715,-0.6244629,0.8230591,106.0
23244,-0.25562418,0.13495314,0.116301924,0.28355715,-0.6244629,0.8230591,106.0
23245,-0.25562418,0.13495314,0.116301924,0.11044922,-0.6149048,0.86766356,106.0
23246,-0.12912095,0.2173009,0.15176958,0.11044922,-0.6149048,0.86766356,106.0
23247,-0.12912095,0.2173009,0.15176958,-0.020178223,-0.5936646,0.90908206,106.0
23248,-0.004932523,-0.07866171,0.078703254,-0.020178223,-0.5936646,0.90908206,106.0
23249,-0.004932523,-0.07866171,0.078703254,-0.06159668,-0.58198243,0.9611206,106.0
23250,0.042672634,-0.40096647,-0.05123417,-0.06159668,-0.58198243,0.9611206,106.0
23251,0.042672634,-0.40096647,-0.05123417,-0.0031860352,-0.6159668,1.0365235,106.0
23252,-0.024760842,-0.3841765,-0.12415384,-0.0031860352,-0.6159668,1.0365235,106.0
23253,-0.024760842,-0.3841765,-0.12415384,0.040356446,-0.632959,1.0970582,106.0
23254,-0.12503332,-0.063542366,-0.10111751,0.040356446,-0.632959,1.0970582,106.0
23255,-0.12503332,-0.063542366,-0.10111751,0.0361084,-0.6403931,1.1395386,106.0
23256,-0.08916241,0.111153394,-0.046238247,0.0361084,-0.6403931,1.1395386,106.0
23257,-0.08916241,0.111153394,-0.046238247,0.021240234,-0.6573853,1.1289185,106.0
23258,0.17686343,-0.065777004,0.029379033,0.021240234,-0.6573853,1.1289185,106.0
23259,0.17686343,-0.065777004,0.029379033,-0.025488282,-0.6754395,1.0779419,106.0
23260,0.39514065,-0.34629834,0.1627,-0.025488282,-0.6754395,1.0779419,106.0
23261,0.39514065,-0.34629834,0.1627,-0.10407715,-0.6881836,1.0460815,106.0
23262,0.4411003,-0.4201051,0.31900278,-0.10407715,-0.6881836,1.0460815,106.0
23263,0.4411003,-0.4201051,0.31900278,-0.20284425,-0.6680054,1.0683838,106.0
23264,0.4008661,-0.3219117,0.46081746,-0.20284425,-0.6680054,1.0683838,106.0
23265,0.4008661,-0.3219117,0.46081746,-0.2824951,-0.6244629,1.1267945,106.0
23266,0.4677998,-0.2910865,0.58839273,-0.2824951,-0.6244629,1.1267945,106.0
23267,0.4677998,-0.2910865,0.58839273,-0.36002198,-0.54693604,1.179895,106.0
23268,0.7638761,-0.3406573,0.66406137,-0.36002198,-0.54693604,1.179895,106.0
23269,0.7638761,-0.3406573,0.66406137,-0.4959595,-0.45666504,1.2191895,106.0
23270,1.0773972,-0.2149697,0.5121695,-0.4959595,-0.45666504,1.2191895,106.0
23271,1.0773972,-0.2149697,0.5121695,-0.7317261,-0.37489015,1.2138795,106.0
23272,1.0983192,0.21066588,0.12702078,-0.7317261,-0.37489015,1.2138795,106.0
23273,1.0983192,0.21066588,0.12702078,-1.1575928,-0.24638672,1.2106934,106.0
23274,0.71232235,0.5335352,-0.23047566,-1.1575928,-0.24638672,1.2106934,106.0
23275,0.71232235,0.5335352,-0.23047566,-1.363623,-0.22408448,1.2489258,106.0
23276,0.116366684,0.42800003,-0.28575993,-1.363623,-0.22408448,1.2489258,106.0
23277,0.116366684,0.42800003,-0.28575993,-1.0736939,-0.38869628,1.2818482,106.0
23278,-0.18957269,0.091643214,0.0045341253,-1.0736939,-0.38869628,1.2818482,106.0
23279,-0.18957269,0.091643214,0.0045341253,-0.5331299,-0.6000366,1.3338867,106.0
23280,-0.09887496,0.11522129,0.35717952,-0.5331299,-0.6000366,1.3338867,106.0
23281,-0.09887496,0.11522129,0.35717952,-0.32072756,-0.727478,1.2850342,106.0
23282,0.03971106,0.71908134,0.45852196,-0.32072756,-0.727478,1.2850342,106.0
23283,0.03971106,0.71908134,0.45852196,-0.44816896,-0.7338501,1.1650269,106.0
23284,0.009381145,1.3722134,0.28608024,-0.44816896,-0.7338501,1.1650269,106.0
23285,0.009381145,1.3722134,0.28608024,-0.7476563,-0.7062378,0.98448485,106.0
23286,-0.1060693,1.3858445,0.022406697,-0.7476563,-0.7062378,0.98448485,106.0
23287,-0.1060693,1.3858445,0.022406697,-0.85598147,-0.7349121,0.77951664,106.0
23288,-0.10156688,0.73992556,-0.107880294,-0.85598147,-0.7349121,0.77951664,106.0
23289,-0.10156688,0.73992556,-0.107880294,-0.7306641,-0.7604004,0.5533081,106.0
23290,0.034090728,0.18215042,-0.039221704,-0.7306641,-0.7604004,0.5533081,106.0
23291,0.034090728,0.18215042,-0.039221704,-0.64782715,-0.7072998,0.3451538,106.0
23292,0.057106555,0.28198743,0.07556844,-0.64782715,-0.7072998,0.3451538,106.0
23293,0.057106555,0.28198743,0.07556844,-0.76358646,-0.63720703,0.07115479,106.0
23294,-0.119182944,0.89403474,0.044182777,-0.76358646,-0.63720703,0.07115479,106.0
23295,-0.119182944,0.89403474,0.044182777,-1.1023682,-0.5320679,-0.24744873,106.0
23296,-0.2355563,1.4251888,-0.15216601,-1.1023682,-0.5320679,-0.24744873,106.0
23297,-0.2355563,1.4251888,-0.15216601,-1.5006226,-0.44073486,-0.6117188,106.0
23298,0.0057566166,1.4919455,-0.4447431,-1.5006226,-0.44073486,-0.6117188,106.0
23299,0.0057566166,1.4919455,-0.4447431,-1.983838,-0.32816163,-1.0099732,106.0
23300,0.5290316,1.0804217,-0.8058921,-1.983838,-0.32816163,-1.0099732,106.0
23301,0.5290316,1.0804217,-0.8058921,-2.4734254,-0.24532472,-1.4655762,106.0
23302,0.89904314,0.37435937,-1.0414056,-2.4734254,-0.24532472,-1.4655762,106.0
23303,0.89904314,0.37435937,-1.0414056,-2.8249512,-0.24001466,-1.8776368,106.0
23304,0.87367785,-0.4368894,-0.81115186,-2.8249512,-0.24001466,-1.8776368,106.0
23305,0.87367785,-0.4368894,-0.81115186,-2.7930908,-0.30054933,-2.252527,106.0
23306,0.5607831,-1.0628904,-0.13952205,-2.7930908,-0.30054933,-2.252527,106.0
23307,0.5607831,-1.0628904,-0.13952205,-2.624231,-0.39188233,-2.5775025,106.0
23308,0.16495943,-1.5096996,0.5095127,-2.624231,-0.39188233,-2.5775025,106.0
23309,0.16495943,-1.5096996,0.5095127,-2.2769532,-0.38338622,-2.7899048,106.0
23310,-0.29623073,-1.6812826,0.73861605,-2.2769532,-0.38338622,-2.7899048,106.0
23311,-0.29623073,-1.6812826,0.73861605,-1.8765748,-0.39613038,-2.9322145,106.0
23312,-0.9433933,-1.2252018,0.41058278,-1.8765748,-0.39613038,-2.9322145,106.0
23313,-0.9433933,-1.2252018,0.41058278,-1.6535523,-0.38657227,-2.9375246,106.0
23314,-1.6064847,-0.5024271,-0.044275492,-1.6535523,-0.38657227,-2.9375246,106.0
23315,-1.6064847,-0.5024271,-0.044275492,-1.5707153,-0.362146,-2.884424,106.0
23316,-1.7335277,-0.41799393,-0.04860401,-1.5707153,-0.362146,-2.884424,106.0
23317,-1.7335277,-0.41799393,-0.04860401,-1.545227,-0.3334717,-2.8525636,106.0
23318,-1.145782,-0.5714313,0.16236192,-1.545227,-0.3334717,-2.8525636,106.0
23319,-1.145782,-0.5714313,0.16236192,-1.2935303,-0.26019287,-2.7835329,106.0
23320,-0.56219447,-0.9392007,0.35470647,-1.2935303,-0.26019287,-2.7835329,106.0
23321,-0.56219447,-0.9392007,0.35470647,-1.1289185,-0.2442627,-2.7633545,106.0
23322,1.7628055,-1.6706111,0.6362432,-1.1289185,-0.2442627,-2.7633545,106.0
23323,1.7628055,-1.6706111,0.6362432,-0.6510132,-0.26550293,-2.6837037,106.0
23324,2.1898098,-1.8459127,0.61981,-0.6510132,-0.26550293,-2.6837037,106.0
23325,2.1898098,-1.8459127,0.61981,-0.635083,-0.25806886,-2.6507814,106.0
23326,3.7518723,-1.918051,0.56807697,-0.635083,-0.25806886,-2.6507814,106.0
23327,3.7518723,-1.918051,0.56807697,-1.0195312,-0.03079834,-2.272705,106.0
23328,3.1966152,-1.9519944,0.46213984,-1.0195312,-0.03079834,-2.272705,106.0
23329,3.1966152,-1.9519944,0.46213984,-1.1490967,0.023364259,-2.1017213,106.0
23330,2.0504074,-2.2929797,0.2484839,-1.1490967,0.023364259,-2.1017213,106.0
23331,2.0504074,-2.2929797,0.2484839,-1.1416626,0.08602295,-1.7321411,106.0
23332,1.1095765,-2.0357752,0.15520799,-1.1416626,0.08602295,-1.7321411,106.0
23333,1.1095765,-2.0357752,0.15520799,-1.1650269,0.11257324,-1.6036377,106.0
23334,-1.1889744,-1.7624583,-0.18794298,-1.1650269,0.11257324,-1.6036377,106.0
23335,-1.1889744,-1.7624583,-0.18794298,-1.1363525,0.1274414,-1.4984986,106.0
23336,-1.6348588,-1.754559,-0.29572797,-1.1363525,0.1274414,-1.4984986,106.0
23337,-1.6348588,-1.754559,-0.29572797,-1.0768799,0.12850343,-1.4836304,106.0
23338,-2.8994277,-2.3472018,-0.53478795,-1.0768799,0.12850343,-1.4836304,106.0
23339,-2.8994277,-2.3472018,-0.53478795,-0.8050049,0.083898924,-1.2468017,106.0
23340,-2.8263292,-2.26188,-0.42272782,-0.8050049,0.083898924,-1.2468017,106.0
23341,-2.8263292,-2.26188,-0.42272782,-0.7423462,0.021240234,-1.1066163,106.0
23342,-3.7396889,-2.1509953,1.3113022E-6,-0.7423462,0.021240234,-1.1066163,106.0
23343,-3.7396889,-2.1509953,1.3113022E-6,-0.7072998,-0.19753419,-0.7072998,106.0
23344,-3.4618683,-1.7155714,0.28365582,-0.7072998,-0.19753419,-0.7072998,106.0
23345,-3.4618683,-1.7155714,0.28365582,-0.65419924,-0.24320069,-0.57454836,106.0
23346,-3.8387208,-1.140316,0.9700887,-0.65419924,-0.24320069,-0.57454836,106.0
23347,-3.8387208,-1.140316,0.9700887,-0.47896728,-0.2538208,-0.3154175,106.0
23348,-4.566521,-0.43976736,1.460861,-0.47896728,-0.2538208,-0.3154175,106.0
23349,-4.566521,-0.43976736,1.460861,-0.29948732,-0.23151855,-0.021240234,106.0
23350,-6.2130804,0.6173148,1.3859495,-0.29948732,-0.23151855,-0.021240234,106.0
23351,-6.2130804,0.6173148,1.3859495,0.098767094,-0.37701416,0.48427734,106.0
23352,-5.609808,0.81313896,1.1412425,0.098767094,-0.37701416,0.48427734,106.0
23353,-5.609808,0.81313896,1.1412425,0.27612305,-0.44923097,0.67650145,106.0
23354,-5.3857346,1.2030377,1.1755185,0.27612305,-0.44923097,0.67650145,106.0
23355,-5.3857346,1.2030377,1.1755185,0.81987303,-0.54375,1.2138795,106.0
23356,-4.2859316,1.1374178,1.0304782,0.81987303,-0.54375,1.2138795,106.0
23357,-4.2859316,1.1374178,1.0304782,1.0333375,-0.55968016,1.4092896,106.0
23358,-2.3400002,0.24943638,-0.2086618,1.0333375,-0.55968016,1.4092896,106.0
23359,-2.3400002,0.24943638,-0.2086618,1.8861328,-0.79226077,1.901001,106.0
23360,-1.0723667,-0.077111244,-0.74044013,1.8861328,-0.79226077,1.901001,106.0
23361,-1.0723667,-0.077111244,-0.74044013,2.16969,-0.95793456,2.0549927,106.0
23362,1.6950731,-1.5723581,-1.4822202,2.16969,-0.95793456,2.0549927,106.0
23363,1.6950731,-1.5723581,-1.4822202,2.8100832,-1.2722901,2.35448,106.0
23364,6.099064,-4.209681,-1.0890964,2.8100832,-1.2722901,2.35448,106.0
23365,6.099064,-4.209681,-1.0890964,3.6936767,-1.3657471,2.8207033,106.0
23366,12.12106,-6.7890587,-0.7786014,3.6936767,-1.3657471,2.8207033,106.0
23367,12.12106,-6.7890587,-0.7786014,4.4901857,-1.1958252,3.153113,106.0
23368,16.880161,-6.7038784,-2.3282034,4.4901857,-1.1958252,3.153113,106.0
23369,16.880161,-6.7038784,-2.3282034,4.0005984,-0.20390625,3.6522584,106.0
23370,15.927762,-1.1410084,-5.9642596,4.0005984,-0.20390625,3.6522584,106.0
23371,15.927762,-1.1410084,-5.9642596,1.5144287,0.55755615,3.7361572,106.0
23372,11.648667,1.7529287,-5.4925747,1.5144287,0.55755615,3.7361572,106.0
23373,11.648667,1.7529287,-5.4925747,0.5787964,0.40993652,3.6841187,106.0
23374,6.1728888,5.6027575,-4.0144825,0.5787964,0.40993652,3.6841187,106.0
23375,6.1728888,5.6027575,-4.0144825,-0.8814697,0.019116212,3.5757935,106.0
23376,2.398199,6.3595257,-1.6012588,-0.8814697,0.019116212,3.5757935,106.0
23377,2.398199,6.3595257,-1.6012588,-0.5140137,-0.5246338,3.1966553,106.0
23378,0.40430164,4.997313,-0.17315793,-0.5140137,-0.5246338,3.1966553,106.0
23379,0.40430164,4.997313,-0.17315793,1.176709,-0.7476563,2.5976808,106.0
23380,-0.7027426,4.4103746,-0.018799782,1.176709,-0.7476563,2.5976808,106.0
23381,-0.7027426,4.4103746,-0.018799782,1.8372803,-0.6881836,2.0645509,106.0
23382,-1.8133411,5.3629313,-0.28958797,1.8372803,-0.6881836,2.0645509,106.0
23383,-1.8133411,5.3629313,-0.28958797,1.545227,-0.5915405,1.4337158,106.0
23384,-3.1095228,6.5211554,-0.44908977,1.545227,-0.5915405,1.4337158,106.0
23385,-3.1095228,6.5211554,-0.44908977,0.98236084,-0.5628662,0.8602295,106.0
23386,-4.419796,7.1351132,-0.21467948,0.98236084,-0.5628662,0.8602295,106.0
23387,-4.419796,7.1351132,-0.21467948,0.124255374,-0.5479981,0.5363159,106.0
23388,-4.419796,7.1351132,-0.21467948,0.124255374,-0.5479981,0.5363159,0.0
23389,-5.552756,6.876645,0.29015827,0.124255374,-0.5479981,0.5363159,0.0
23390,-5.552756,6.876645,0.29015827,-0.4704712,-0.62127686,0.40037844,0.0
23391,-6.7929373,6.304307,0.6844704,-0.4704712,-0.62127686,0.40037844,0.0
23392,-6.7929373,6.304307,0.6844704,-0.3791382,-0.7614624,0.3971924,0.0
23393,-5.8909054,5.4829354,0.63875055,-0.3791382,-0.7614624,0.3971924,0.0
23394,-5.8909054,5.4829354,0.63875055,-0.1359375,-0.7349121,0.36108398,0.0
23395,-5.3014936,5.6984334,0.5255878,-0.1359375,-0.7349121,0.36108398,0.0
23396,-5.3014936,5.6984334,0.5255878,0.21877442,-0.5671143,0.15717773,0.0
23397,-4.5086145,5.8305855,0.51462317,0.21877442,-0.5671143,0.15717773,0.0
23398,-4.5086145,5.8305855,0.51462317,-0.026550293,-0.093457036,-0.16461182,0.0
23399,-3.5505805,5.005862,0.56136894,-0.026550293,-0.093457036,-0.16461182,0.0
23400,-3.5505805,5.005862,0.56136894,-0.60216063,0.3727661,-0.6924316,0.0
23401,-2.148387,3.42311,0.75290394,-0.60216063,0.3727661,-0.6924316,0.0
23402,-2.148387,3.42311,0.75290394,-0.9802368,0.7614624,-1.183081,0.0
23403,-0.15373158,1.1261587,1.1358438,-0.9802368,0.7614624,-1.183081,0.0
23404,-0.15373158,1.1261587,1.1358438,-0.65419924,1.0248413,-1.7087768,0.0
23405,2.7458258,-1.6367197,1.1888142,-0.65419924,1.0248413,-1.7087768,0.0
23406,2.7458258,-1.6367197,1.1888142,0.1263794,0.8421753,-2.5594482,0.0
23407,6.9578304,-4.7571783,0.8793595,0.1263794,0.8421753,-2.5594482,0.0
23408,6.9578304,-4.7571783,0.8793595,0.37489015,0.7104859,-3.07771,0.0
23409,11.971013,-8.657646,0.66645145,0.37489015,0.7104859,-3.07771,0.0
23410,11.971013,-8.657646,0.66645145,0.12850343,0.6510132,-3.0989501,0.0
23411,14.5463295,-11.271845,0.93956995,0.12850343,0.6510132,-3.0989501,0.0
23412,14.5463295,-11.271845,0.93956995,-1.2945923,1.3922974,-2.3778443,0.0
23413,11.075296,-10.877926,1.8306843,-1.2945923,1.3922974,-2.3778443,0.0
23414,11.075296,-10.877926,1.8306843,-2.8185792,1.5165528,-1.5707153,0.0
23415,3.986885,-9.052218,1.9606657,-2.8185792,1.5165528,-1.5707153,0.0
23416,3.986885,-9.052218,1.9606657,-3.0108032,1.6970948,-1.5080566,0.0
23417,-1.974371,-7.164859,0.86638415,-3.0108032,1.6970948,-1.5080566,0.0
23418,-1.974371,-7.164859,0.86638415,-2.5998046,1.9073731,-1.628064,0.0
23419,-5.492485,-5.4235497,-0.3825641,-2.5998046,1.9073731,-1.628064,0.0
23420,-5.492485,-5.4235497,-0.3825641,-2.3842163,1.898877,-1.8394043,0.0
23421,-7.3088927,-3.7593842,-1.0689297,-2.3842163,1.898877,-1.8394043,0.0
23422,-7.3088927,-3.7593842,-1.0689297,-2.6847656,1.7618774,-1.8563966,0.0
23423,-8.731611,-2.3674684,-0.92264867,-2.6847656,1.7618774,-1.8563966,0.0
23424,-8.731611,-2.3674684,-0.92264867,-3.0288575,1.4390259,-1.8234742,0.0
23425,-10.285558,-1.3102226,0.090103745,-3.0288575,1.4390259,-1.8234742,0.0
23426,-10.285558,-1.3102226,0.090103745,-2.7484863,0.94412845,-1.8202881,0.0
23427,-11.371928,-0.25479412,1.5270758,-2.7484863,0.94412845,-1.8202881,0.0
23428,-11.371928,-0.25479412,1.5270758,-1.9264892,0.53100586,-1.6068238,0.0
23429,-11.579415,0.9439187,2.5133355,-1.9264892,0.53100586,-1.6068238,0.0
23430,-11.579415,0.9439187,2.5133355,-0.8379273,0.21558838,-1.171399,0.0
23431,-11.232111,2.0875816,2.3162346,-0.8379273,0.21558838,-1.171399,0.0
23432,-11.232111,2.0875816,2.3162346,0.13699952,-0.029736329,-0.5894165,0.0
23433,-10.210225,2.7873383,1.1327119,0.13699952,-0.029736329,-0.5894165,0.0
23434,-10.210225,2.7873383,1.1327119,0.5628662,-0.22089843,-0.06796875,0.0
23435,-8.00048,2.9074464,-0.02019763,0.5628662,-0.22089843,-0.06796875,0.0
23436,-8.00048,2.9074464,-0.02019763,0.49277344,-0.24744873,0.42692873,0.0
23437,-5.3148737,2.736321,-0.34915376,0.49277344,-0.24744873,0.42692873,0.0
23438,-5.3148737,2.736321,-0.34915376,0.33134767,-0.21558838,0.88359374,0.0
23439,-3.1917057,2.3199527,-0.0989275,0.33134767,-0.21558838,0.88359374,0.0
23440,-3.1917057,2.3199527,-0.0989275,0.3069214,-0.23789063,1.3530029,0.0
23441,-1.5163403,1.357964,0.060445428,0.3069214,-0.23789063,1.3530029,0.0
23442,-1.5163403,1.357964,0.060445428,0.70092773,-0.34833986,1.7969239,0.0
23443,-0.017198563,-0.02964449,-0.31084776,0.70092773,-0.34833986,1.7969239,0.0
23444,-0.017198563,-0.02964449,-0.31084776,1.3147706,-0.58623046,2.2408447,0.0
23445,1.5217276,-2.1755712,-1.4024746,1.3147706,-0.58623046,2.2408447,0.0
23446,1.5217276,-2.1755712,-1.4024746,1.9498535,-1.0354614,2.5690064,0.0
23447,4.0536375,-6.467227,-2.594929,1.9498535,-1.0354614,2.5690064,0.0
23448,4.0536375,-6.467227,-2.594929,2.6210449,-1.898877,3.0543458,0.0
23449,10.01868,-12.504251,-2.3916292,2.6210449,-1.898877,3.0543458,0.0
23450,10.01868,-12.504251,-2.3916292,3.3633912,-3.349585,3.8179321,0.0
23451,20.196022,-15.882612,-1.86334,3.3633912,-3.349585,3.8179321,0.0
23452,20.196022,-15.882612,-1.86334,4.156714,-3.1945312,4.14928,0.0
23453,25.423384,-11.310595,-2.5633526,4.156714,-3.1945312,4.14928,0.0
23454,25.423384,-11.310595,-2.5633526,3.4334838,-1.083252,4.6590457,0.0
23455,20.235655,-1.429287,-3.4680161,3.4334838,-1.083252,4.6590457,0.0
23456,20.235655,-1.429287,-3.4680161,1.5218629,-1.1363525,4.286279,0.0
23457,11.609581,6.452408,-3.4654286,1.5218629,-1.1363525,4.286279,0.0
23458,11.609581,6.452408,-3.4654286,0.28780517,-0.83474123,3.620398,0.0
23459,4.5371275,9.590357,-1.6828654,0.28780517,-0.83474123,3.620398,0.0
23460,4.5371275,9.590357,-1.6828654,-0.10089111,-1.3179566,2.9959352,0.0
23461,0.46306324,9.409627,0.4018402,-0.10089111,-1.3179566,2.9959352,0.0
23462,0.46306324,9.409627,0.4018402,0.65632325,-1.360437,2.4065187,0.0
23463,-1.3257532,9.022391,1.2504883,0.65632325,-1.360437,2.4065187,0.0
23464,-1.3257532,9.022391,1.2504883,1.3976074,-1.085376,1.9381714,0.0
23465,-2.866413,9.688812,0.9588747,1.3976074,-1.085376,1.9381714,0.0
23466,-2.866413,9.688812,0.9588747,1.4358399,-0.8071289,1.4910644,0.0
23467,-4.7720737,10.443835,0.3775611,1.4358399,-0.8071289,1.4910644,0.0
23468,-4.7720737,10.443835,0.3775611,1.1926392,-0.6202149,1.088562,0.0
23469,-6.4350786,10.685671,0.18206596,1.1926392,-0.6202149,1.088562,0.0
23470,-6.4350786,10.685671,0.18206596,0.6414551,-0.59260255,0.85598147,0.0
23471,-6.943766,10.329274,0.3263414,0.6414551,-0.59260255,0.85598147,0.0
23472,-6.943766,10.329274,0.3263414,0.008496094,-0.51932377,0.727478,0.0
23473,-6.199251,9.26674,0.38869762,0.008496094,-0.51932377,0.727478,0.0
23474,-6.199251,9.26674,0.38869762,-0.26125488,-0.38869628,0.59472656,0.0
23475,-5.060646,7.868409,0.15114355,-0.26125488,-0.38869628,0.59472656,0.0
23476,-5.060646,7.868409,0.15114355,-0.18585205,-0.08814698,0.2824951,0.0
23477,-3.9604676,6.4018316,-0.0928669,-0.18585205,-0.08814698,0.2824951,0.0
23478,-3.9604676,6.4018316,-0.0928669,-0.3430298,0.26656494,-0.21452637,0.0
23479,-2.4114404,4.543792,-0.09417868,-0.3430298,0.26656494,-0.21452637,0.0
23480,-2.4114404,4.543792,-0.09417868,-0.4598511,0.5883545,-0.81031495,0.0
23481,-0.4665059,2.3156242,0.22913718,-0.4598511,0.5883545,-0.81031495,0.0
23482,-0.4665059,2.3156242,0.22913718,-0.10513916,0.901648,-1.3338867,0.0
23483,1.109144,0.25782204,1.0029631,-0.10513916,0.901648,-1.3338867,0.0
23484,1.109144,0.25782204,1.0029631,0.38232422,1.1873292,-1.6928467,0.0
23485,2.4033554,-1.3822803,1.3243554,0.38232422,1.1873292,-1.6928467,0.0
23486,2.4033554,-1.3822803,1.3243554,-0.04885254,1.3009644,-2.3353639,0.0
23487,4.5088296,-4.078615,0.48913527,-0.04885254,1.3009644,-2.3353639,0.0
23488,4.5088296,-4.078615,0.48913527,-1.1862671,1.1650269,-2.8621216,0.0
23489,4.5088296,-4.078615,0.48913527,-1.1862671,1.1650269,-2.8621216,0.0
23490,8.362886,-10.098475,-0.44210243,-1.1862671,1.1650269,-2.8621216,0.0
23491,8.362886,-10.098475,-0.44210243,-1.3041505,0.81031495,-3.348523,0.0
23492,12.203786,-17.410957,0.18193817,-1.3041505,0.81031495,-3.348523,0.0
23493,12.203786,-17.410957,0.18193817,-0.4885254,1.3200806,-2.9768188,0.0
23494,11.298271,-19.084272,2.2910218,-0.4885254,1.3200806,-2.9768188,0.0
23495,11.298271,-19.084272,2.2910218,-0.47471926,1.5579712,-1.9551636,0.0
23496,4.855316,-12.972521,3.0924854,-0.47471926,1.5579712,-1.9551636,0.0
23497,4.855316,-12.972521,3.0924854,-1.5962037,1.906311,-1.6057618,0.0
23498,-2.706091,-5.3364267,1.7278945,-1.5962037,1.906311,-1.6057618,0.0
23499,-2.706091,-5.3364267,1.7278945,-2.3396118,2.090039,-1.8139161,0.0
23500,-7.686015,-1.5150151,0.23585573,-2.3396118,2.090039,-1.8139161,0.0
23501,-7.686015,-1.5150151,0.23585573,-2.6975098,2.1643798,-2.0337524,0.0
23502,-9.642904,-0.96908,-0.28828073,-2.6975098,2.1643798,-2.0337524,0.0
23503,-9.642904,-0.96908,-0.28828073,-2.721936,2.2079225,-2.0135744,0.0
23504,-10.502458,-0.88477325,0.0020780563,-2.721936,2.2079225,-2.0135744,0.0
23505,-10.502458,-0.88477325,0.0020780563,-2.4681153,1.996582,-1.9254273,0.0
23506,-11.513294,0.43372202,0.81353986,-2.4681153,1.996582,-1.9254273,0.0
23507,-11.513294,0.43372202,0.81353986,-2.1165893,1.5792115,-1.7640015,0.0
23508,-12.519144,2.64854,1.8523945,-2.1165893,1.5792115,-1.7640015,0.0
23509,-12.519144,2.64854,1.8523945,-1.6365601,1.0715698,-1.2829102,0.0
23510,-13.140645,4.393222,2.449811,-1.6365601,1.0715698,-1.2829102,0.0
23511,-13.140645,4.393222,2.449811,-0.84323734,0.5649902,-0.63720703,0.0
23512,-12.622233,4.9738183,2.0209084,-0.84323734,0.5649902,-0.63720703,0.0
23513,-12.622233,4.9738183,2.0209084,0.10938721,0.19753419,-0.033984374,0.0
23514,-10.246065,4.742507,0.69308174,0.10938721,0.19753419,-0.033984374,0.0
23515,-10.246065,4.742507,0.69308174,0.8071289,0.014868164,0.29205322,0.0
23516,-6.7587175,4.310607,-0.8003442,0.8071289,0.014868164,0.29205322,0.0
23517,-6.7587175,4.310607,-0.8003442,1.2765381,-0.02442627,0.5076416,0.0
23518,-3.6238441,3.546496,-1.6917647,1.2765381,-0.02442627,0.5076416,0.0
23519,-3.6238441,3.546496,-1.6917647,1.713025,-0.045666505,0.77102053,0.0
23520,-1.290371,2.0463765,-1.7563049,1.713025,-0.045666505,0.77102053,0.0
23521,-1.290371,2.0463765,-1.7563049,2.061365,-0.03717041,1.1809571,0.0
23522,0.5414095,0.2967325,-1.433413,2.061365,-0.03717041,1.1809571,0.0
23523,0.5414095,0.2967325,-1.433413,2.2812011,-0.10195313,1.7151489,0.0
23524,1.8630219,-0.8887737,-1.6705098,2.2812011,-0.10195313,1.7151489,0.0
23525,1.8630219,-0.8887737,-1.6705098,2.1325195,-0.3090454,2.2450929,0.0
23526,2.7142706,-2.8475423,-2.782526,2.1325195,-0.3090454,2.2450929,0.0
23527,2.7142706,-2.8475423,-2.782526,1.8691406,-0.75296634,2.3969605,0.0
23528,4.3273363,-7.973847,-3.5676956,1.8691406,-0.75296634,2.3969605,0.0
23529,4.3273363,-7.973847,-3.5676956,2.7782228,-1.3954834,2.4638672,0.0
23530,8.865288,-15.461878,-2.7146058,2.7782228,-1.3954834,2.4638672,0.0
23531,8.865288,-15.461878,-2.7146058,4.3574343,-2.3863404,3.0108032,0.0
23532,17.745647,-19.45754,-1.3391774,4.3574343,-2.3863404,3.0108032,0.0
23533,17.745647,-19.45754,-1.3391774,3.9432495,-3.0129273,3.6788087,0.0
23534,24.130735,-13.5446205,-1.1086223,3.9432495,-3.0129273,3.6788087,0.0
23535,24.130735,-13.5446205,-1.1086223,0.88359374,-0.8092529,4.704712,0.0
23536,19.803453,-1.8784828,-0.81335044,0.88359374,-0.8092529,4.704712,0.0
23537,19.803453,-1.8784828,-0.81335044,-1.4793824,-1.1724609,4.5698366,0.0
23538,10.296034,5.873947,0.011758804,-1.4793824,-1.1724609,4.5698366,0.0
23539,10.296034,5.873947,0.011758804,-1.6726685,-1.6482422,3.8625367,0.0
23540,3.5307846,8.101318,0.57989025,-1.6726685,-1.6482422,3.8625367,0.0
23541,3.5307846,8.101318,0.57989025,-0.7041138,-1.8202881,3.1509888,0.0
23542,-0.03911686,8.664599,0.7649741,-0.7041138,-1.8202881,3.1509888,0.0
23543,-0.03911686,8.664599,0.7649741,0.25594482,-1.9859619,2.5711305,0.0
23544,-1.7542057,9.742288,0.6109905,0.25594482,-1.9859619,2.5711305,0.0
23545,-1.7542057,9.742288,0.6109905,0.74659425,-1.898877,2.0061402,0.0
23546,-2.3794022,10.780867,0.31387782,0.74659425,-1.898877,2.0061402,0.0
23547,-2.3794022,10.780867,0.31387782,0.7582764,-1.6163819,1.5186768,0.0
23548,-2.7976131,10.930393,0.017911434,0.7582764,-1.6163819,1.5186768,0.0
23549,-2.7976131,10.930393,0.017911434,0.541626,-1.3243287,1.1352905,0.0
23550,-3.495195,10.221305,-0.19050503,0.541626,-1.3243287,1.1352905,0.0
23551,-3.495195,10.221305,-0.19050503,0.25063476,-1.1395386,0.90695804,0.0
23552,-4.0937147,9.259881,-0.17233801,0.25063476,-1.1395386,0.90695804,0.0
23553,-4.0937147,9.259881,-0.17233801,0.14868164,-0.9876709,0.7540283,0.0
23554,-4.023763,8.619246,-0.092460155,0.14868164,-0.9876709,0.7540283,0.0
23555,-4.023763,8.619246,-0.092460155,0.31860352,-0.62764895,0.59897465,0.0
23556,-3.5999918,8.388365,-0.20122647,0.31860352,-0.62764895,0.59897465,0.0
23557,-3.5999918,8.388365,-0.20122647,0.07646485,-0.14549561,0.4354248,0.0
23558,-3.499012,7.9136944,-0.3491037,0.07646485,-0.14549561,0.4354248,0.0
23559,-3.499012,7.9136944,-0.3491037,-0.45666504,0.31223145,-0.014868164,0.0
23560,-3.208133,6.3641586,-0.20016909,-0.45666504,0.31223145,-0.014868164,0.0
23561,-3.208133,6.3641586,-0.20016909,-0.7858887,0.6903076,-0.67331547,0.0
23562,-1.982034,3.7270937,0.30719876,-0.7858887,0.6903076,-0.67331547,0.0
23563,-1.982034,3.7270937,0.30719876,-0.4067505,1.0492676,-1.270166,0.0
23564,-0.49341536,1.1017313,1.0794992,-0.4067505,1.0492676,-1.270166,0.0
23565,-0.49341536,1.1017313,1.0794992,0.32816163,1.3360108,-1.8574585,0.0
23566,0.4794743,-0.75139046,1.5390024,0.32816163,1.3360108,-1.8574585,0.0
23567,0.4794743,-0.75139046,1.5390024,0.31966552,1.3859253,-2.7463624,0.0
23568,1.8363991,-2.8301163,0.79619217,0.31966552,1.3859253,-2.7463624,0.0
23569,1.8363991,-2.8301163,0.79619217,-0.73703617,1.0864381,-3.9283814,0.0
23570,4.891629,-7.8634214,-0.5507171,-0.73703617,1.0864381,-3.9283814,0.0
23571,4.891629,-7.8634214,-0.5507171,-1.3891114,0.3706421,-4.7302003,0.0
23572,10.563767,-16.673758,-0.52819586,-1.3891114,0.3706421,-4.7302003,0.0
23573,10.563767,-16.673758,-0.52819586,0.016992187,-0.25913087,-4.37124,0.0
23574,15.32914,-22.288982,1.6860616,0.016992187,-0.25913087,-4.37124,0.0
23575,15.32914,-22.288982,1.6860616,0.13806152,1.1480347,-3.0554078,0.0
23576,11.475653,-17.76435,3.3319426,0.13806152,1.1480347,-3.0554078,0.0
23577,11.475653,-17.76435,3.3319426,-1.5760254,1.9190552,-1.8818848,0.0
23578,0.694829,-7.597956,2.063662,-1.5760254,1.9190552,-1.8818848,0.0
23579,0.694829,-7.597956,2.063662,-2.6996338,2.3236816,-1.7289551,0.0
23580,-8.167929,-0.6296587,-0.118284225,-2.6996338,2.3236816,-1.7289551,0.0
23581,-8.167929,-0.6296587,-0.118284225,-3.1977174,2.4946656,-2.0645509,0.0
23582,-11.460809,0.59401464,-1.2454697,-3.1977174,2.4946656,-2.0645509,0.0
23583,-11.460809,0.59401464,-1.2454697,-2.797339,2.5743165,-2.2302246,0.0
23584,-11.047956,-0.23378468,-1.273036,-2.797339,2.5743165,-2.2302246,0.0
23585,-11.047956,-0.23378468,-1.273036,-1.9084351,2.5392702,-2.259961,0.0
23586,-10.148631,0.71557236,-0.5825523,-1.9084351,2.5392702,-2.259961,0.0
23587,-10.148631,0.71557236,-0.5825523,-1.5792115,2.2896974,-2.1505737,0.0
23588,-9.861007,3.136386,0.46365786,-1.5792115,2.2896974,-2.1505737,0.0
23589,-9.861007,3.136386,0.46365786,-1.6801026,2.086853,-1.8850708,0.0
23590,-9.891369,4.47604,1.3954991,-1.6801026,2.086853,-1.8850708,0.0
23591,-9.891369,4.47604,1.3954991,-1.6801026,2.086853,-1.8850708,0.0
23592,-9.891369,4.47604,1.3954991,-1.6524903,1.8818848,-1.44646,0.0
23593,-9.892624,4.018991,1.5978203,-1.6524903,1.8818848,-1.44646,0.0
23594,-9.892624,4.018991,1.5978203,-0.80819094,1.6057618,-0.9802368,0.0
23595,-9.578284,3.0953686,0.9166351,-0.80819094,1.6057618,-0.9802368,0.0
23596,-9.578284,3.0953686,0.9166351,0.43967286,1.2744141,-0.62764895,0.0
23597,-8.686077,2.7049327,-0.22117192,0.43967286,1.2744141,-0.62764895,0.0
23598,-8.686077,2.7049327,-0.22117192,1.3434448,0.97386473,-0.34090576,0.0
23599,-7.30145,2.697418,-1.2543789,1.3434448,0.97386473,-0.34090576,0.0
23600,-7.30145,2.697418,-1.2543789,1.9615357,0.71154785,0.028674318,0.0
23601,-5.670188,2.1463013,-1.9903684,1.9615357,0.71154785,0.028674318,0.0
23602,-5.670188,2.1463013,-1.9903684,2.5159059,0.44923097,0.48109132,0.0
23603,-3.751092,0.9143921,-2.5226536,2.5159059,0.44923097,0.48109132,0.0
23604,-3.751092,0.9143921,-2.5226536,2.7622926,0.12319336,1.0120972,0.0
23605,-1.6770573,-0.10380125,-3.048665,2.7622926,0.12319336,1.0120972,0.0
23606,-1.6770573,-0.10380125,-3.048665,2.347046,-0.25806886,1.5887696,0.0
23607,0.1949873,-1.870065,-4.0480385,2.347046,-0.25806886,1.5887696,0.0
23608,0.1949873,-1.870065,-4.0480385,1.8776368,-0.87403566,2.1484497,0.0
23609,2.1010456,-6.8161573,-5.281827,1.8776368,-0.87403566,2.1484497,0.0
23610,2.1010456,-6.8161573,-5.281827,2.800525,-1.814978,2.7229981,0.0
23611,5.202162,-14.454268,-5.5750103,2.800525,-1.814978,2.7229981,0.0
23612,5.202162,-14.454268,-5.5750103,4.359558,-2.885486,3.714917,0.0
23613,10.9695425,-20.171509,-4.7732406,4.359558,-2.885486,3.714917,0.0
23614,10.9695425,-20.171509,-4.7732406,4.8130374,-3.787134,4.7609987,0.0
23615,18.495203,-20.181446,-3.8749275,4.8130374,-3.787134,4.7609987,0.0
23616,18.495203,-20.181446,-3.8749275,3.42074,-3.7276611,5.584058,0.0
23617,23.422798,-13.836296,-2.7821693,3.42074,-3.7276611,5.584058,0.0
23618,23.422798,-13.836296,-2.7821693,1.2552979,-2.6826417,5.8219485,0.0
23619,21.738201,-2.1829166,-1.0680208,1.2552979,-2.6826417,5.8219485,0.0
23620,21.738201,-2.1829166,-1.0680208,-0.40462646,-2.0433106,5.6573367,0.0
23621,13.947544,8.814274,0.8945217,-0.40462646,-2.0433106,5.6573367,0.0
23622,13.947544,8.814274,0.8945217,-1.080066,-2.3990846,4.992517,0.0
23623,6.0208035,13.381547,2.4225998,-1.080066,-2.3990846,4.992517,0.0
23624,6.0208035,13.381547,2.4225998,0.22939454,-3.0299194,3.8572266,0.0
23625,2.2443657,13.256874,2.7577696,0.22939454,-3.0299194,3.8572266,0.0
23626,2.2443657,13.256874,2.7577696,1.6992188,-2.9598267,3.090454,0.0
23627,0.8653164,12.632771,2.2629175,1.6992188,-2.9598267,3.090454,0.0
23628,0.8653164,12.632771,2.2629175,2.1282716,-2.6359131,2.2397828,0.0
23629,-0.5221882,12.847965,1.6813669,2.1282716,-2.6359131,2.2397828,0.0
23630,-0.5221882,12.847965,1.6813669,2.0210083,-2.1834962,1.5484132,0.0
23631,-2.4184828,13.448184,1.3079476,2.0210083,-2.1834962,1.5484132,0.0
23632,-2.4184828,13.448184,1.3079476,1.4974365,-1.8255981,0.9420044,0.0
23633,-4.2088337,13.828934,1.1332722,1.4974365,-1.8255981,0.9420044,0.0
23634,-4.2088337,13.828934,1.1332722,0.5129517,-1.5632813,0.59047854,0.0
23635,-5.215163,13.141687,1.0919695,0.5129517,-1.5632813,0.59047854,0.0
23636,-5.215163,13.141687,1.0919695,-0.4056885,-1.2085694,0.23895264,0.0
23637,-5.3374624,10.920942,1.1369181,-0.4056885,-1.2085694,0.23895264,0.0
23638,-5.3374624,10.920942,1.1369181,-0.54587406,-0.7519043,-0.33665773,0.0
23639,-4.8008294,7.8873644,1.2400646,-0.54587406,-0.7519043,-0.33665773,0.0
23640,-4.8008294,7.8873644,1.2400646,-0.26550293,-0.25913087,-1.1671509,0.0
23641,-3.9572287,5.002433,1.3782945,-0.26550293,-0.25913087,-1.1671509,0.0
23642,-3.9572287,5.002433,1.3782945,-0.15823975,0.12319336,-2.0549927,0.0
23643,-3.2563715,2.394415,1.5930653,-0.15823975,0.12319336,-2.0549927,0.0
23644,-3.2563715,2.394415,1.5930653,0.11257324,0.26444092,-2.7506104,0.0
23645,-2.8099804,0.19734287,1.87538,0.11257324,0.26444092,-2.7506104,0.0
23646,-2.8099804,0.19734287,1.87538,0.63720703,0.3462158,-3.070276,0.0
23647,-2.1685042,-1.5612545,1.7258656,0.63720703,0.3462158,-3.070276,0.0
23648,-2.1685042,-1.5612545,1.7258656,0.815625,0.3345337,-3.538623,0.0
23649,-0.66512585,-3.497795,0.8007853,0.815625,0.3345337,-3.538623,0.0
23650,-0.66512585,-3.497795,0.8007853,0.540564,0.038232423,-4.329822,0.0
23651,1.8505287,-6.808136,0.23320651,0.540564,0.038232423,-4.329822,0.0
23652,1.8505287,-6.808136,0.23320651,0.19541016,-0.6435791,-5.25802,0.0
23653,6.2788363,-11.759998,1.6684256,0.19541016,-0.6435791,-5.25802,0.0
23654,6.2788363,-11.759998,1.6684256,-0.35789797,-1.1098022,-5.61698,0.0
23655,11.621837,-16.093632,3.9610467,-0.35789797,-1.1098022,-5.61698,0.0
23656,11.621837,-16.093632,3.9610467,-0.97280276,-0.27506104,-4.4859376,0.0
23657,11.847591,-17.024845,4.096413,-0.97280276,-0.27506104,-4.4859376,0.0
23658,11.847591,-17.024845,4.096413,-1.3487549,0.5363159,-3.274182,0.0
23659,5.268051,-13.952712,1.8633976,-1.3487549,0.5363159,-3.274182,0.0
23660,5.268051,-13.952712,1.8633976,-1.7841797,0.7508423,-2.5764406,0.0
23661,-3.0742064,-8.667224,-0.12322235,-1.7841797,0.7508423,-2.5764406,0.0
23662,-3.0742064,-8.667224,-0.12322235,-2.3151855,0.9696167,-2.1590698,0.0
23663,-9.300246,-3.8560333,-0.42416382,-2.3151855,0.9696167,-2.1590698,0.0
23664,-9.300246,-3.8560333,-0.42416382,-2.540332,0.9122681,-1.8489624,0.0
23665,-12.272875,-0.8527708,-0.08570558,-2.540332,0.9122681,-1.8489624,0.0
23666,-12.272875,-0.8527708,-0.08570558,-2.3385499,0.7975708,-1.6195679,0.0
23667,-12.980104,0.9865093,0.032375455,-2.3385499,0.7975708,-1.6195679,0.0
23668,-12.980104,0.9865093,0.032375455,-1.9296753,0.63720703,-1.4390259,0.0
23669,-13.054287,2.491087,0.29884958,-1.9296753,0.63720703,-1.4390259,0.0
23670,-13.054287,2.491087,0.29884958,-1.357251,0.46834716,-1.2000732,0.0
23671,-13.221334,3.575633,0.95936775,-1.357251,0.46834716,-1.2000732,0.0
23672,-13.221334,3.575633,0.95936775,-0.57561034,0.32709962,-0.74447024,0.0
23673,-13.159893,3.8604336,1.4144303,-0.57561034,0.32709962,-0.74447024,0.0
23674,-13.159893,3.8604336,1.4144303,0.45878908,0.1731079,-0.090270996,0.0
23675,-12.00101,3.6232958,0.9858533,0.45878908,0.1731079,-0.090270996,0.0
23676,-12.00101,3.6232958,0.9858533,1.3222046,-0.015930176,0.50445557,0.0
23677,-9.5125885,3.5457802,-0.08907616,1.3222046,-0.015930176,0.50445557,0.0
23678,-9.5125885,3.5457802,-0.08907616,1.453894,-0.13912354,0.9674927,0.0
23679,-6.51626,3.3583894,-0.90871215,1.453894,-0.13912354,0.9674927,0.0
23680,-6.51626,3.3583894,-0.90871215,1.4050416,-0.2262085,1.4209718,0.0
23681,-3.5693073,2.205999,-1.1902021,1.4050416,-0.2262085,1.4209718,0.0
23682,-3.5693073,2.205999,-1.1902021,1.8882569,-0.3175415,1.9477295,0.0
23683,-0.7824974,0.26925468,-1.4746227,1.8882569,-0.3175415,1.9477295,0.0
23684,-0.7824974,0.26925468,-1.4746227,2.6847656,-0.46834716,2.5764406,0.0
23685,1.6691799,-1.8733048,-2.2784164,2.6847656,-0.46834716,2.5764406,0.0
23686,1.6691799,-1.8733048,-2.2784164,2.992749,-0.76464844,3.0426636,0.0
23687,3.8807049,-4.8681993,-3.4328284,2.992749,-0.76464844,3.0426636,0.0
23688,3.8807049,-4.8681993,-3.4328284,2.727246,-1.1098022,3.4090576,0.0
23689,6.629942,-10.387114,-3.9176252,2.727246,-1.1098022,3.4090576,0.0
23690,6.629942,-10.387114,-3.9176252,2.9534547,-1.5016845,3.899707,0.0
23691,11.834471,-18.257896,-3.4352598,2.9534547,-1.5016845,3.899707,0.0
23692,11.834471,-18.257896,-3.4352598,4.33938,-2.4978516,4.990393,0.0
23693,19.361193,-22.790363,-3.0831933,4.33938,-2.4978516,4.990393,0.0
23694,19.361193,-22.790363,-3.0831933,5.5914917,-3.1138184,6.0375366,0.0
23695,24.410183,-17.218912,-2.7696795,5.5914917,-3.1138184,6.0375366,0.0
23696,24.410183,-17.218912,-2.7696795,4.2119384,-2.1017213,6.8542237,0.0
23697,23.395786,-3.3701859,-2.9442835,4.2119384,-2.1017213,6.8542237,0.0
23698,23.395786,-3.3701859,-2.9442835,1.5547851,-1.2882203,6.419861,0.0
23699,16.316835,10.445942,-3.5879097,1.5547851,-1.2882203,6.419861,0.0
23700,16.316835,10.445942,-3.5879097,-0.54906005,-0.9866089,5.6552124,0.0
23701,6.6976585,17.27233,-2.6972198,-0.54906005,-0.9866089,5.6552124,0.0
23702,6.6976585,17.27233,-2.6972198,-0.74659425,-1.910559,4.618689,0.0
23703,0.16921139,17.000969,-0.8911009,-0.74659425,-1.910559,4.618689,0.0
23704,0.16921139,17.000969,-0.8911009,0.41524658,-2.3417358,3.6427002,0.0
23705,-2.3177433,14.742047,0.38289547,0.41524658,-2.3417358,3.6427002,0.0
23706,-2.3177433,14.742047,0.38289547,1.3126465,-2.1994264,2.7633545,0.0
23707,-3.2189655,13.89221,0.8336601,1.3126465,-2.1994264,2.7633545,0.0
23708,-3.2189655,13.89221,0.8336601,1.1331666,-1.8712647,1.9487915,0.0
23709,-4.3494034,14.263573,0.731833,1.1331666,-1.8712647,1.9487915,0.0
23710,-4.3494034,14.263573,0.731833,0.1901001,-1.6450561,1.3158325,0.0
23711,-5.5653257,14.296467,0.62083006,0.1901001,-1.6450561,1.3158325,0.0
23712,-5.5653257,14.296467,0.62083006,-1.0280274,-1.5505371,0.7880127,0.0
23713,-5.7797995,13.28107,0.9554529,-1.0280274,-1.5505371,0.7880127,0.0
23714,-5.7797995,13.28107,0.9554529,-1.6811646,-1.3402588,0.31435546,0.0
23715,-5.007592,11.170181,1.5287423,-1.6811646,-1.3402588,0.31435546,0.0
23716,-5.007592,11.170181,1.5287423,-1.5218629,-0.9505005,-0.28461915,0.0
23717,-4.308674,8.164538,1.9900837,-1.5218629,-0.9505005,-0.28461915,0.0
23718,-4.308674,8.164538,1.9900837,-0.90802,-0.47896728,-1.1820191,0.0
23719,-4.035367,5.0565453,2.4381847,-0.90802,-0.47896728,-1.1820191,0.0
23720,-4.035367,5.0565453,2.4381847,-0.6924316,-0.14761963,-2.2514648,0.0
23721,-3.6038065,2.3309908,2.9866319,-0.6924316,-0.14761963,-2.2514648,0.0
23722,-3.6038065,2.3309908,2.9866319,-0.4991455,0.043542482,-3.071338,0.0
23723,-2.6324348,0.061130524,3.530602,-0.4991455,0.043542482,-3.071338,0.0
23724,-2.6324348,0.061130524,3.530602,-0.03717041,0.21027832,-3.2996705,0.0
23725,-1.2144318,-1.8137665,3.5459294,-0.03717041,0.21027832,-3.2996705,0.0
23726,-1.2144318,-1.8137665,3.5459294,0.2888672,0.43967286,-3.7350953,0.0
23727,0.7589965,-3.4401855,2.2079716,0.2888672,0.43967286,-3.7350953,0.0
23728,0.7589965,-3.4401855,2.2079716,-0.019116212,0.17947999,-4.5528445,0.0
23729,3.9379835,-6.095129,0.20242476,-0.019116212,0.17947999,-4.5528445,0.0
23730,3.9379835,-6.095129,0.20242476,-0.81031495,-0.4715332,-5.0796022,0.0
23731,9.71484,-12.344439,0.1780653,-0.81031495,-0.4715332,-5.0796022,0.0
23732,9.71484,-12.344439,0.1780653,-2.3927124,-0.6074707,-4.8990602,0.0
23733,14.042454,-19.27698,2.2371788,-2.3927124,-0.6074707,-4.8990602,0.0
23734,14.042454,-19.27698,2.2371788,-3.4844606,1.2829102,-3.888025,0.0
23735,10.043497,-20.82019,3.2134125,-3.4844606,1.2829102,-3.888025,0.0
23736,10.043497,-20.82019,3.2134125,-3.4844606,1.2829102,-3.888025,147.0
23737,10.043497,-20.82019,3.2134125,-3.2943604,1.3190186,-2.5159059,147.0
23738,0.3105545,-16.518824,1.7398462,-3.2943604,1.3190186,-2.5159059,147.0
23739,0.3105545,-16.518824,1.7398462,-2.182434,1.4793824,-1.8542725,147.0
23740,-8.414387,-9.134321,0.17151564,-2.182434,1.4793824,-1.8542725,147.0
23741,-8.414387,-9.134321,0.17151564,-2.0390625,1.4061035,-1.4326538,147.0
23742,-13.287223,-2.3278303,-0.24188906,-2.0390625,1.4061035,-1.4326538,147.0
23743,-13.287223,-2.3278303,-0.24188906,-2.626355,1.3030884,-1.081128,147.0
23744,-14.597185,1.4382725,-0.21559376,-2.626355,1.3030884,-1.081128,147.0
23745,-14.597185,1.4382725,-0.21559376,-2.8865478,1.1958252,-0.815625,147.0
23746,-14.180495,2.8904,0.046043098,-2.8865478,1.1958252,-0.815625,147.0
23747,-14.180495,2.8904,0.046043098,-2.611487,0.905896,-0.6244629,147.0
23748,-13.305614,3.8125277,0.7098447,-2.611487,0.905896,-0.6244629,147.0
23749,-13.305614,3.8125277,0.7098447,-1.9201173,0.57242435,-0.30267334,147.0
23750,-12.281992,5.043089,1.6307664,-1.9201173,0.57242435,-0.30267334,147.0
23751,-12.281992,5.043089,1.6307664,-0.9154541,0.2984253,0.2166504,147.0
23752,-11.090621,5.997997,2.2175038,-0.9154541,0.2984253,0.2166504,147.0
23753,-11.090621,5.997997,2.2175038,0.3462158,0.12319336,0.85704345,147.0
23754,-9.419763,5.919198,1.8465128,0.3462158,0.12319336,0.85704345,147.0
23755,-9.419763,5.919198,1.8465128,1.2860962,-0.008496094,1.4007934,147.0
23756,-7.0387764,5.295161,0.54267657,1.2860962,-0.008496094,1.4007934,147.0
23757,-7.0387764,5.295161,0.54267657,1.5515991,-0.08920898,1.5781494,147.0
23758,-4.325577,4.664925,-0.89897645,1.5515991,-0.08920898,1.5781494,147.0
23759,-4.325577,4.664925,-0.89897645,1.2329956,-0.18372802,1.6025757,147.0
23760,-1.8417854,3.5369937,-1.6665689,1.2329956,-0.18372802,1.6025757,147.0
23761,-1.8417854,3.5369937,-1.6665689,1.2850342,-0.3154175,1.7523193,147.0
23762,0.36434078,1.392217,-1.688492,1.2850342,-0.3154175,1.7523193,147.0
23763,0.36434078,1.392217,-1.688492,1.8224121,-0.55543214,2.2036743,147.0
23764,2.4288511,-1.0889852,-1.4268434,1.8224121,-0.55543214,2.2036743,147.0
23765,2.4288511,-1.0889852,-1.4268434,2.342798,-0.8209351,2.8578737,147.0
23766,4.0747337,-3.262692,-1.4496169,2.342798,-0.8209351,2.8578737,147.0
23767,4.0747337,-3.262692,-1.4496169,2.177124,-1.0301514,3.258252,147.0
23768,5.410386,-6.880454,-2.2906628,2.177124,-1.0301514,3.258252,147.0
23769,5.410386,-6.880454,-2.2906628,1.1979493,-1.4815063,3.8338623,147.0
23770,7.71399,-13.391205,-3.6472154,1.1979493,-1.4815063,3.8338623,147.0
23771,7.71399,-13.391205,-3.6472154,1.8956909,-2.4840455,4.1089234,147.0
23772,13.548524,-20.594141,-3.7067127,1.8956909,-2.4840455,4.1089234,147.0
23773,13.548524,-20.594141,-3.7067127,3.703235,-3.4855225,5.092346,147.0
23774,21.05088,-21.630342,-2.3295302,3.703235,-3.4855225,5.092346,147.0
23775,21.05088,-21.630342,-2.3295302,5.7104373,-3.0585938,5.537329,147.0
23776,23.257452,-11.079811,-1.3827648,5.7104373,-3.0585938,5.537329,147.0
23777,23.257452,-11.079811,-1.3827648,3.6936767,-1.5590333,5.5511355,147.0
23778,17.861298,5.340973,-2.0818954,3.6936767,-1.5590333,5.5511355,147.0
23779,17.861298,5.340973,-2.0818954,0.19222413,-0.5256958,4.8417115,147.0
23780,8.496826,16.830652,-2.5137706,0.19222413,-0.5256958,4.8417115,147.0
23781,8.496826,16.830652,-2.5137706,-1.8680786,-1.0768799,3.7786376,147.0
23782,0.74851036,18.551546,-0.75281334,-1.8680786,-1.0768799,3.7786376,147.0
23783,0.74851036,18.551546,-0.75281334,-1.6068238,-1.6907227,2.7548585,147.0
23784,-2.4999218,14.480665,1.6357136,-1.6068238,-1.6907227,2.7548585,147.0
23785,-2.4999218,14.480665,1.6357136,0.24001466,-1.6960328,1.7491333,147.0
23786,-3.2702742,11.568396,2.8731828,0.24001466,-1.6960328,1.7491333,147.0
23787,-3.2702742,11.568396,2.8731828,1.0259033,-1.3869873,0.83686525,147.0
23788,-4.104562,11.467741,2.2305775,1.0259033,-1.3869873,0.83686525,147.0
23789,-4.104562,11.467741,2.2305775,0.65844727,-1.2128174,0.19328614,147.0
23790,-5.2350407,12.0463,0.5782852,0.65844727,-1.2128174,0.19328614,147.0
23791,-5.2350407,12.0463,0.5782852,-0.30054933,-1.3253907,-0.3355957,147.0
23792,-5.439412,11.7424965,-0.50510883,-0.30054933,-1.3253907,-0.3355957,147.0
23793,-5.439412,11.7424965,-0.50510883,-1.3859253,-1.364685,-0.5522461,147.0
23794,-4.6731486,10.153593,-0.3632791,-1.3859253,-1.364685,-0.5522461,147.0
23795,-4.6731486,10.153593,-0.3632791,-1.8829468,-1.1968873,-0.77102053,147.0
23796,-4.0010433,7.8025618,0.5221696,-1.8829468,-1.1968873,-0.77102053,147.0
23797,-4.0010433,7.8025618,0.5221696,-1.6928467,-0.7848267,-1.1597168,147.0
23798,-3.8330493,5.329769,1.1752672,-1.6928467,-0.7848267,-1.1597168,147.0
23799,-3.8330493,5.329769,1.1752672,-1.3614991,-0.18903808,-1.8532104,147.0
23800,-3.6296718,3.12424,1.1414955,-1.3614991,-0.18903808,-1.8532104,147.0
23801,-3.6296718,3.12424,1.1414955,-1.2064453,0.22302246,-2.6688354,147.0
23802,-2.8421774,1.3428001,0.943836,-1.2064453,0.22302246,-2.6688354,147.0
23803,-2.8421774,1.3428001,0.943836,-0.8729736,0.5564942,-3.2327638,147.0
23804,-1.6591668,-0.20082092,1.3870025,-0.8729736,0.5564942,-3.2327638,147.0
23805,-1.6591668,-0.20082092,1.3870025,-0.4364868,0.90058595,-3.525879,147.0
23806,-0.21240425,-1.8037481,1.7762036,-0.4364868,0.90058595,-3.525879,147.0
23807,-0.21240425,-1.8037481,1.7762036,-0.22833252,1.1490967,-4.084497,147.0
23808,2.3382797,-4.4158497,0.6917026,-0.22833252,1.1490967,-4.084497,147.0
23809,2.3382797,-4.4158497,0.6917026,-0.21134034,0.8315552,-4.6463013,147.0
23810,7.700995,-10.526625,-0.7104318,-0.21134034,0.8315552,-4.6463013,147.0
23811,7.700995,-10.526625,-0.7104318,0.027612304,0.043542482,-4.798169,147.0
23812,10.53659,-13.564037,-0.7198348,0.027612304,0.043542482,-4.798169,147.0
23813,10.53659,-13.564037,-0.7198348,-0.23364258,-0.028674318,-4.6898437,147.0
23814,17.13684,-21.991673,1.8986927,-0.23364258,-0.028674318,-4.6898437,147.0
23815,17.13684,-21.991673,1.8986927,-3.1987793,2.1144655,-2.265271,147.0
23816,11.539112,-18.446463,2.294003,-3.1987793,2.1144655,-2.265271,147.0
23817,11.539112,-18.446463,2.294003,-3.4632204,1.9753418,-1.8011719,147.0
23818,-4.798813,-10.115569,1.0554417,-3.4632204,1.9753418,-1.8011719,147.0
23819,-4.798813,-10.115569,1.0554417,-2.980005,2.162256,-1.5218629,147.0
23820,-8.329151,-5.943139,0.39650178,-2.980005,2.162256,-1.5218629,147.0
23821,-8.329151,-5.943139,0.39650178,-2.802649,2.0061402,-1.5749635,147.0
23822,-14.902103,-0.44716263,0.027638435,-2.802649,2.0061402,-1.5749635,147.0
23823,-14.902103,-0.44716263,0.027638435,-2.6125488,1.7289551,-1.2510499,147.0
23824,-13.322744,0.36187458,0.08457416,-2.6125488,1.7289551,-1.2510499,147.0
23825,-13.322744,0.36187458,0.08457416,-2.6868896,1.63125,-1.0991821,147.0
23826,-13.908403,2.927,1.0208087,-2.6868896,1.63125,-1.0991821,147.0
23827,-13.908403,2.927,1.0208087,-2.4978516,1.2797241,-0.7041138,147.0
23828,-12.251797,3.7199574,1.5462247,-2.4978516,1.2797241,-0.7041138,147.0
23829,-12.251797,3.7199574,1.5462247,-2.2865112,1.2053833,-0.56605226,147.0
23830,-13.499484,7.671999,3.7313402,-2.2865112,1.2053833,-0.56605226,147.0
23831,-13.499484,7.671999,3.7313402,-1.2329956,1.1246704,0.121069334,147.0
23832,-11.93445,7.3005633,3.2861829,-1.2329956,1.1246704,0.121069334,147.0
23833,-11.93445,7.3005633,3.2861829,-0.81668705,1.0535157,0.40462646,147.0
23834,-10.870388,6.850973,1.0064366,-0.81668705,1.0535157,0.40462646,147.0
23835,-10.870388,6.850973,1.0064366,-0.059472658,0.6977417,0.6573853,147.0
23836,-8.174351,5.4447923,-0.24948943,-0.059472658,0.6977417,0.6573853,147.0
23837,-8.174351,5.4447923,-0.24948943,-0.011682129,0.5957886,0.6265869,147.0
23838,-3.6350613,3.3029041,-2.1078312,-0.011682129,0.5957886,0.6265869,147.0
23839,-3.6350613,3.3029041,-2.1078312,0.24213867,0.22196046,0.65419924,147.0
23840,-1.617485,1.9074724,-1.8619486,0.24213867,0.22196046,0.65419924,147.0
23841,-1.617485,1.9074724,-1.8619486,0.5979126,0.07540283,0.81668705,147.0
23842,2.6922913,-1.6062243,-1.2406454,0.5979126,0.07540283,0.81668705,147.0
23843,2.6922913,-1.6062243,-1.2406454,1.8436524,-0.41737062,1.9158691,147.0
23844,2.6922913,-1.6062243,-1.2406454,1.8436524,-0.41737062,1.9158691,148.0
23845,3.4613895,-2.256769,-1.0510124,1.8436524,-0.41737062,1.9158691,148.0
23846,3.4613895,-2.256769,-1.0510124,1.9371094,-0.57242435,2.2950075,148.0
23847,5.2236767,-6.459346,-2.1272845,1.9371094,-0.57242435,2.2950075,148.0
23848,5.2236767,-6.459346,-2.1272845,1.2404298,-1.1862671,3.1085083,148.0
23849,5.131956,-7.8479576,-2.5470548,1.2404298,-1.1862671,3.1085083,148.0
23850,5.131956,-7.8479576,-2.5470548,1.2128174,-1.5420411,3.2932985,148.0
23851,7.5030146,-14.463949,-3.6206884,1.2128174,-1.5420411,3.2932985,148.0
23852,7.5030146,-14.463949,-3.6206884,1.9116211,-2.972571,3.7860718,148.0
23853,22.21324,-24.23339,-2.753765,1.9116211,-2.972571,3.7860718,148.0
23854,22.21324,-24.23339,-2.753765,3.2370117,-4.0175905,4.8077273,148.0
23855,24.366125,-19.56137,-2.1990814,3.2370117,-4.0175905,4.8077273,148.0
23856,24.366125,-19.56137,-2.1990814,3.9305055,-2.177124,5.306873,148.0
23857,24.674772,-6.359461,-2.6739135,3.9305055,-2.177124,5.306873,148.0
23858,24.674772,-6.359461,-2.6739135,2.5169678,-1.2935303,5.341919,148.0
23859,9.920445,17.08294,-3.8241773,2.5169678,-1.2935303,5.341919,148.0
23860,9.920445,17.08294,-3.8241773,-1.1990112,-1.8054199,3.9251955,148.0
23861,4.3383102,18.26861,-2.4502234,-1.1990112,-1.8054199,3.9251955,148.0
23862,4.3383102,18.26861,-2.4502234,-1.3731812,-2.1973023,3.5460572,148.0
23863,-1.36059,17.198177,0.36471128,-1.3731812,-2.1973023,3.5460572,148.0
23864,-1.36059,17.198177,0.36471128,-0.19328614,-2.4744873,2.636975,148.0
23865,-2.6158772,12.172176,2.6196012,-0.19328614,-2.4744873,2.636975,148.0
23866,-2.6158772,12.172176,2.6196012,1.5186768,-2.165442,1.6726685,148.0
23867,-2.854823,9.768283,3.0746727,1.5186768,-2.165442,1.6726685,148.0
23868,-2.854823,9.768283,3.0746727,1.7289551,-1.6641724,0.8782837,148.0
23869,-4.1386433,10.205349,2.1237764,1.7289551,-1.6641724,0.8782837,148.0
23870,-4.1386433,10.205349,2.1237764,1.0970582,-1.5006226,0.32603762,148.0
23871,-5.324258,10.998435,1.0690651,1.0970582,-1.5006226,0.32603762,148.0
23872,-5.324258,10.998435,1.0690651,0.12531738,-1.44115,0.008496094,148.0
23873,-4.8782415,11.056329,0.5555694,0.12531738,-1.44115,0.008496094,148.0
23874,-4.8782415,11.056329,0.5555694,-0.72641605,-1.1363525,-0.1083252,148.0
23875,-3.6496267,10.035712,0.37853742,-0.72641605,-1.1363525,-0.1083252,148.0
23876,-3.6496267,10.035712,0.37853742,-1.3009644,-0.65207523,-0.21134034,148.0
23877,-3.2178702,8.0445,0.43550825,-1.3009644,-0.65207523,-0.21134034,148.0
23878,-3.2178702,8.0445,0.43550825,-1.1416626,-0.035046387,-0.7593384,148.0
23879,-3.2213788,5.7682056,0.6842587,-1.1416626,-0.035046387,-0.7593384,148.0
23880,-3.2213788,5.7682056,0.6842587,-0.90695804,0.6244629,-1.632312,148.0
23881,-2.598063,3.4950695,0.867219,-0.90695804,0.6244629,-1.632312,148.0
23882,-2.598063,3.4950695,0.867219,-0.7540283,1.179895,-2.622107,148.0
23883,-1.2914996,1.2877302,1.0682869,-0.7540283,1.179895,-2.622107,148.0
23884,-1.2914996,1.2877302,1.0682869,-0.4694092,1.5547851,-3.2890503,148.0
23885,0.01710558,-0.6607704,1.3851349,-0.4694092,1.5547851,-3.2890503,148.0
23886,0.01710558,-0.6607704,1.3851349,-0.19541016,1.807544,-3.706421,148.0
23887,1.5889406,-2.9319973,0.8180201,-0.19541016,1.807544,-3.706421,148.0
23888,1.5889406,-2.9319973,0.8180201,-0.46834716,1.7109009,-4.35531,148.0
23889,5.2304544,-8.154741,-1.040164,-0.46834716,1.7109009,-4.35531,148.0
23890,5.2304544,-8.154741,-1.040164,-0.26444092,0.88253176,-4.7365723,148.0
23891,11.823597,-17.013563,-2.4563498,-0.26444092,0.88253176,-4.7365723,148.0
23892,11.823597,-17.013563,-2.4563498,0.4248047,0.74659425,-4.706836,148.0
23893,14.712418,-23.389416,-0.5961225,0.4248047,0.74659425,-4.706836,148.0
23894,14.712418,-23.389416,-0.5961225,-1.8309082,1.9976441,-3.1424928,148.0
23895,8.264844,-21.308567,2.3169863,-1.8309082,1.9976441,-3.1424928,148.0
23896,8.264844,-21.308567,2.3169863,-3.544995,2.170752,-2.1983643,148.0
23897,-2.3404446,-12.761576,1.8640016,-3.544995,2.170752,-2.1983643,148.0
23898,-2.3404446,-12.761576,1.8640016,-3.8359864,2.6667116,-1.7098389,148.0
23899,-10.637444,-4.42159,-0.12081051,-3.8359864,2.6667116,-1.7098389,148.0
23900,-10.637444,-4.42159,-0.12081051,-3.353833,2.4670532,-1.8383423,148.0
23901,-13.91983,-0.058805466,-1.0886528,-3.353833,2.4670532,-1.8383423,148.0
23902,-13.91983,-0.058805466,-1.0886528,-3.4154298,2.275891,-1.8192261,148.0
23903,-13.502136,1.2548475,-0.99995065,-3.4154298,2.275891,-1.8192261,148.0
23904,-13.502136,1.2548475,-0.99995065,-3.9517457,2.162256,-1.6694825,148.0
23905,-12.583814,1.905282,0.22630906,-3.9517457,2.162256,-1.6694825,148.0
23906,-12.583814,1.905282,0.22630906,-3.4037476,1.8563966,-1.4677002,148.0
23907,-12.523766,3.7430973,2.9934008,-3.4037476,1.8563966,-1.4677002,148.0
23908,-12.523766,3.7430973,2.9934008,-2.0879152,1.5059327,-1.2191895,148.0
23909,-13.135174,6.0174026,5.705951,-2.0879152,1.5059327,-1.2191895,148.0
23910,-13.135174,6.0174026,5.705951,-0.57561034,1.2574219,-0.631897,148.0
23911,-13.454807,6.7764344,5.706692,-0.57561034,1.2574219,-0.631897,148.0
23912,-13.454807,6.7764344,5.706692,0.95368654,0.77314454,-0.015930176,148.0
23913,-11.815946,6.4798512,2.6878514,0.95368654,0.77314454,-0.015930176,148.0
23914,-11.815946,6.4798512,2.6878514,1.7788696,0.16992188,0.17841797,148.0
23915,-7.938364,6.365961,-0.8183346,1.7788696,0.16992188,0.17841797,148.0
23916,-7.938364,6.365961,-0.8183346,1.356189,-0.14761963,0.29630128,148.0
23917,-3.6558914,5.3500443,-2.3990402,1.356189,-0.14761963,0.29630128,148.0
23918,-3.6558914,5.3500443,-2.3990402,0.49383545,-0.22196046,0.36851808,148.0
23919,-0.30354595,2.2587833,-1.9451721,0.49383545,-0.22196046,0.36851808,148.0
23920,-0.30354595,2.2587833,-1.9451721,0.67225343,-0.24532472,0.72323,148.0
23921,2.209324,-1.9492967,-1.0480689,0.67225343,-0.24532472,0.72323,148.0
23922,2.209324,-1.9492967,-1.0480689,1.4836304,-0.362146,1.6716064,148.0
23923,3.7748566,-5.0707655,-1.3265166,1.4836304,-0.362146,1.6716064,148.0
23924,3.7748566,-5.0707655,-1.3265166,1.811792,-0.6053467,2.5923707,148.0
23925,3.987647,-6.58912,-3.095393,1.811792,-0.6053467,2.5923707,148.0
23926,3.987647,-6.58912,-3.095393,1.0726318,-1.1873292,3.073462,148.0
23927,4.1169243,-9.140547,-5.2258997,1.0726318,-1.1873292,3.073462,148.0
23928,4.1169243,-9.140547,-5.2258997,0.3451538,-2.269519,3.6575685,148.0
23929,7.236105,-15.318432,-5.709772,0.3451538,-2.269519,3.6575685,148.0
23930,7.236105,-15.318432,-5.709772,0.91120607,-3.9145753,4.5655885,148.0
23931,16.431156,-21.699337,-3.8409257,0.91120607,-3.9145753,4.5655885,148.0
23932,16.431156,-21.699337,-3.8409257,3.448352,-4.6887817,4.597449,148.0
23933,25.401566,-19.19033,-1.5930533,3.448352,-4.6887817,4.597449,148.0
23934,25.401566,-19.19033,-1.5930533,4.967029,-1.8510865,5.4767947,148.0
23935,23.952955,-5.6783867,-0.91331005,4.967029,-1.8510865,5.4767947,148.0
23936,23.952955,-5.6783867,-0.91331005,3.3846314,-1.0906861,5.250586,148.0
23937,14.518139,10.143436,-1.4218593,3.3846314,-1.0906861,5.250586,148.0
23938,14.518139,10.143436,-1.4218593,0.39400634,-0.68924564,4.4572635,148.0
23939,4.766464,18.76635,-0.51636934,0.39400634,-0.68924564,4.4572635,148.0
23940,4.766464,18.76635,-0.51636934,-1.5717773,-1.1862671,3.6384523,148.0
23941,-1.0951662,17.588676,1.8572416,-1.5717773,-1.1862671,3.6384523,148.0
23942,-1.0951662,17.588676,1.8572416,-0.72216797,-1.6131958,2.7633545,148.0
23943,-2.5707006,12.54516,2.8533711,-0.72216797,-1.6131958,2.7633545,148.0
23944,-2.5707006,12.54516,2.8533711,1.5845215,-1.3657471,1.9445435,148.0
23945,-2.4596243,10.807381,1.8112247,1.5845215,-1.3657471,1.9445435,148.0
23946,-2.4596243,10.807381,1.8112247,1.9148072,-1.0227174,1.1618408,148.0
23947,-2.4596243,10.807381,1.8112247,1.9148072,-1.0227174,1.1618408,146.0
23948,-2.9547472,12.323114,0.3116505,1.9148072,-1.0227174,1.1618408,146.0
23949,-2.9547472,12.323114,0.3116505,0.80181885,-0.8623535,0.6669434,146.0
23950,-3.6061687,13.209896,-0.5246177,0.80181885,-0.8623535,0.6669434,146.0
23951,-3.6061687,13.209896,-0.5246177,-0.37807617,-0.6446411,0.18054199,146.0
23952,-3.519127,11.977901,-0.6948652,-0.37807617,-0.6446411,0.18054199,146.0
23953,-3.519127,11.977901,-0.6948652,-0.79969484,-0.23258057,-0.31860352,146.0
23954,-3.1795473,9.499412,-0.46375322,-0.79969484,-0.23258057,-0.31860352,146.0
23955,-3.1795473,9.499412,-0.46375322,-0.47471926,0.22196046,-0.81881106,146.0
23956,-3.0807104,7.027093,-0.13462543,-0.47471926,0.22196046,-0.81881106,146.0
23957,-3.0807104,7.027093,-0.13462543,0.0361084,0.6701294,-1.634436,146.0
23958,-2.9954152,5.048212,0.116200924,0.0361084,0.6701294,-1.634436,146.0
23959,-2.9954152,5.048212,0.116200924,0.12000733,1.0110352,-2.3693483,146.0
23960,-2.6029487,2.9971752,0.41492128,0.12000733,1.0110352,-2.3693483,146.0
23961,-2.6029487,2.9971752,0.41492128,0.06690674,1.2075074,-3.1159425,146.0
23962,-1.9661479,0.6232891,0.7795322,0.06690674,1.2075074,-3.1159425,146.0
23963,-1.9661479,0.6232891,0.7795322,0.28674316,1.3360108,-3.6363282,146.0
23964,-1.2166438,-1.6739998,0.8047414,0.28674316,1.3360108,-3.6363282,146.0
23965,-1.2166438,-1.6739998,0.8047414,0.14974366,1.3073364,-4.262915,146.0
23966,0.8208623,-4.7082176,0.35034847,0.14974366,1.3073364,-4.262915,146.0
23967,0.8208623,-4.7082176,0.35034847,-0.46409914,0.9600586,-4.8140993,146.0
23968,6.1531134,-11.713596,0.58919,-0.46409914,0.9600586,-4.8140993,146.0
23969,6.1531134,-11.713596,0.58919,-1.2361816,0.21877442,-5.0105715,146.0
23970,13.081048,-21.036758,1.5861592,-1.2361816,0.21877442,-5.0105715,146.0
23971,13.081048,-21.036758,1.5861592,-1.6493043,1.3699951,-4.325574,146.0
23972,13.022455,-23.992567,2.6923406,-1.6493043,1.3699951,-4.325574,146.0
23973,13.022455,-23.992567,2.6923406,-2.909912,1.7363892,-3.0692139,146.0
23974,4.15345,-17.271801,2.8035307,-2.909912,1.7363892,-3.0692139,146.0
23975,4.15345,-17.271801,2.8035307,-3.6692505,1.814978,-2.5201538,146.0
23976,-5.898077,-7.2677937,1.6206932,-3.6692505,1.814978,-2.5201538,146.0
23977,-5.898077,-7.2677937,1.6206932,-3.5917237,1.9275513,-2.4574952,146.0
23978,-12.254876,-1.4372578,0.94449157,-3.5917237,1.9275513,-2.4574952,146.0
23979,-12.254876,-1.4372578,0.94449157,-3.0235474,1.545227,-2.6698976,146.0
23980,-13.853181,-0.05849743,1.0483667,-3.0235474,1.545227,-2.6698976,146.0
23981,-13.853181,-0.05849743,1.0483667,-2.259961,1.3710572,-2.3927124,146.0
23982,-13.25951,0.60681534,1.4431001,-2.259961,1.3710572,-2.3927124,146.0
23983,-13.25951,0.60681534,1.4431001,-1.5760254,1.0142212,-1.9594116,146.0
23984,-12.744168,2.5685825,1.7332765,-1.5760254,1.0142212,-1.9594116,146.0
23985,-12.744168,2.5685825,1.7332765,-1.0312134,0.5501221,-1.4092896,146.0
23986,-12.009251,5.4183664,1.6326418,-1.0312134,0.5501221,-1.4092896,146.0
23987,-12.009251,5.4183664,1.6326418,-0.727478,0.22302246,-0.92713624,146.0
23988,-10.745304,7.575648,1.3668678,-0.727478,0.22302246,-0.92713624,146.0
23989,-10.745304,7.575648,1.3668678,-0.68287355,0.078588866,-0.39082032,146.0
23990,-9.397598,8.010677,1.1120733,-0.68287355,0.078588866,-0.39082032,146.0
23991,-9.397598,8.010677,1.1120733,-0.32497558,0.039294433,0.078588866,146.0
23992,-8.0677,7.1959076,0.5646708,-0.32497558,0.039294433,0.078588866,146.0
23993,-8.0677,7.1959076,0.5646708,0.11363526,0.025488282,0.3706421,146.0
23994,-6.306711,5.8619146,-0.37420332,0.11363526,0.025488282,0.3706421,146.0
23995,-6.306711,5.8619146,-0.37420332,0.08920898,0.012744141,0.5331299,146.0
23996,-3.8356028,4.1137505,-1.0969579,0.08920898,0.012744141,0.5331299,146.0
23997,-3.8356028,4.1137505,-1.0969579,0.0637207,-0.0010620117,0.80819094,146.0
23998,-1.2439222,2.0368743,-1.3083158,0.0637207,-0.0010620117,0.80819094,146.0
23999,-1.2439222,2.0368743,-1.3083158,0.33771974,-0.08814698,1.2627319,146.0
24000,0.70198154,0.006403744,-1.3888035,0.33771974,-0.08814698,1.2627319,146.0
24001,0.70198154,0.006403744,-1.3888035,0.50233155,-0.2516968,1.8786987,146.0
24002,1.6940193,-2.6449258,-1.7565873,0.50233155,-0.2516968,1.8786987,146.0
24003,1.6940193,-2.6449258,-1.7565873,0.62977296,-0.6425171,2.4128907,146.0
24004,2.5998936,-8.547264,-2.5273402,0.62977296,-0.6425171,2.4128907,146.0
24005,2.5998936,-8.547264,-2.5273402,1.3062744,-1.4846925,2.9205322,146.0
24006,6.0128746,-17.713276,-3.0878267,1.3062744,-1.4846925,2.9205322,146.0
24007,6.0128746,-17.713276,-3.0878267,2.7357423,-3.0670898,3.9538696,146.0
24008,15.156711,-24.321096,-2.5867288,2.7357423,-3.0670898,3.9538696,146.0
24009,15.156711,-24.321096,-2.5867288,3.1446168,-4.809851,4.889502,146.0
24010,25.01232,-21.296074,-1.691673,3.1446168,-4.809851,4.889502,146.0
24011,25.01232,-21.296074,-1.691673,2.4235108,-2.3332398,5.6562743,146.0
24012,25.194536,-9.388348,-1.0289733,2.4235108,-2.3332398,5.6562743,146.0
24013,25.194536,-9.388348,-1.0289733,1.4315919,-2.0390625,5.4704223,146.0
24014,17.187428,4.0924225,-1.0863745,1.4315919,-2.0390625,5.4704223,146.0
24015,17.187428,4.0924225,-1.0863745,-0.22727051,-1.1384766,4.799231,146.0
24016,7.3279095,13.018896,-1.0809283,-0.22727051,-1.1384766,4.799231,146.0
24017,7.3279095,13.018896,-1.0809283,-1.0779419,-1.4369019,4.0972414,146.0
24018,-0.6931534,15.470855,-0.27975726,-1.0779419,-1.4369019,4.0972414,146.0
24019,-0.6931534,15.470855,-0.27975726,0.1444336,-2.1526978,3.2423217,146.0
24020,-3.928607,14.841955,0.15861607,0.1444336,-2.1526978,3.2423217,146.0
24021,-3.928607,14.841955,0.15861607,1.81604,-2.069861,2.3003175,146.0
24022,-3.8712797,14.618193,-0.16309738,1.81604,-2.069861,2.3003175,146.0
24023,-3.8712797,14.618193,-0.16309738,1.8702027,-1.7863038,1.7055908,146.0
24024,-3.4592066,14.913695,-0.5990081,1.8702027,-1.7863038,1.7055908,146.0
24025,-3.4592066,14.913695,-0.5990081,0.903772,-1.5515991,0.9409424,146.0
24026,-3.5162792,14.668396,-0.50106907,0.903772,-1.5515991,0.9409424,146.0
24027,-3.5162792,14.668396,-0.50106907,-0.49171144,-1.2744141,0.5320679,146.0
24028,-3.6381578,13.114978,-0.012525082,-0.49171144,-1.2744141,0.5320679,146.0
24029,-3.6381578,13.114978,-0.012525082,-1.2043213,-0.8612915,0.026550293,146.0
24030,-3.575285,10.7430935,0.43796587,-1.2043213,-0.8612915,0.026550293,146.0
24031,-3.575285,10.7430935,0.43796587,-1.0301514,-0.24001466,-0.53525394,146.0
24032,-3.2999253,8.367436,0.668488,-1.0301514,-0.24001466,-0.53525394,146.0
24033,-3.2999253,8.367436,0.668488,-0.8007569,0.39188233,-1.4294678,146.0
24034,-2.485033,5.6690598,0.5381596,-0.8007569,0.39188233,-1.4294678,146.0
24035,-2.485033,5.6690598,0.5381596,-0.4163086,0.8591675,-2.3311157,146.0
24036,-0.8136735,2.6244078,0.29991245,-0.4163086,0.8591675,-2.3311157,146.0
24037,-0.8136735,2.6244078,0.29991245,0.2177124,1.0142212,-3.0554078,146.0
24038,1.2924209,0.13653755,0.4987557,0.2177124,1.0142212,-3.0554078,146.0
24039,1.2924209,0.13653755,0.4987557,0.70092773,1.2404298,-3.522693,146.0
24040,2.3959608,-1.2743759,1.0494807,0.70092773,1.2404298,-3.522693,146.0
24041,2.3959608,-1.2743759,1.0494807,0.56180423,1.5515991,-4.0526366,146.0
24042,2.558529,-2.3277645,1.128525,0.56180423,1.5515991,-4.0526366,146.0
24043,2.558529,-2.3277645,1.128525,-0.33134767,1.545227,-5.227222,146.0
24044,4.5177584,-6.4242716,1.1246097,-0.33134767,1.545227,-5.227222,146.0
24045,4.5177584,-6.4242716,1.1246097,-1.5654052,1.445398,-6.0938234,146.0
24046,10.486057,-16.178162,1.6477468,-1.5654052,1.445398,-6.0938234,146.0
24047,10.486057,-16.178162,1.6477468,-1.09281,0.634021,-5.6445923,146.0
24048,16.433767,-25.639515,1.9939786,-1.09281,0.634021,-5.6445923,146.0
24049,16.433767,-25.639515,1.9939786,-0.0541626,1.7746216,-4.2193727,146.0
24050,12.838993,-23.924309,1.8718431,-0.0541626,1.7746216,-4.2193727,146.0
24051,12.838993,-23.924309,1.8718431,-1.996582,2.2111084,-2.453247,146.0
24052,0.23100853,-11.960455,0.985243,-1.996582,2.2111084,-2.453247,146.0
24053,0.23100853,-11.960455,0.985243,-4.3022094,2.6550293,-1.8914429,146.0
24054,0.23100853,-11.960455,0.985243,-4.3022094,2.6550293,-1.8914429,145.0
24055,-11.412361,-2.0737476,-0.16850722,-4.3022094,2.6550293,-1.8914429,145.0
24056,-11.412361,-2.0737476,-0.16850722,-4.623999,2.5902467,-1.9636596,145.0
24057,-16.390179,0.15494251,-0.832816,-4.623999,2.5902467,-1.9636596,145.0
24058,-16.390179,0.15494251,-0.832816,-2.717688,2.35448,-1.9339234,145.0
24059,-16.027206,-0.12961006,-0.8307303,-2.717688,2.35448,-1.9339234,145.0
24060,-16.027206,-0.12961006,-0.8307303,-1.3965454,2.0645509,-1.7778076,145.0
24061,-14.619081,1.7681866,-0.26173997,-1.3965454,2.0645509,-1.7778076,145.0
24062,-14.619081,1.7681866,-0.26173997,-1.5112427,1.6100098,-1.6450561,145.0
24063,-13.740944,4.785448,0.42682624,-1.5112427,1.6100098,-1.6450561,145.0
24064,-13.740944,4.785448,0.42682624,-1.7756836,1.1257324,-1.4230957,145.0
24065,-12.805731,6.5843887,1.0179503,-1.7756836,1.1257324,-1.4230957,145.0
24066,-12.805731,6.5843887,1.0179503,-1.6057618,0.7476563,-1.1023682,145.0
24067,-11.57791,6.558771,1.657744,-1.6057618,0.7476563,-1.1023682,145.0
24068,-11.57791,6.558771,1.657744,-0.8729736,0.4980835,-0.61278075,145.0
24069,-10.269104,5.443086,1.9883657,-0.8729736,0.4980835,-0.61278075,145.0
24070,-10.269104,5.443086,1.9883657,0.270813,0.28355715,-0.21983643,145.0
24071,-8.5932865,4.3038344,1.4218571,0.270813,0.28355715,-0.21983643,145.0
24072,-8.5932865,4.3038344,1.4218571,1.0439576,0.020178223,0.14761963,145.0
24073,-6.0989094,3.3287487,0.2598856,1.0439576,0.020178223,0.14761963,145.0
24074,-6.0989094,3.3287487,0.2598856,1.2595459,-0.20284425,0.52888185,145.0
24075,-3.0894547,2.0076404,-0.47671065,1.2595459,-0.20284425,0.52888185,145.0
24076,-3.0894547,2.0076404,-0.47671065,1.0375855,-0.3982544,1.0375855,145.0
24077,-0.45991802,0.44682264,-0.5496669,1.0375855,-0.3982544,1.0375855,145.0
24078,-0.45991802,0.44682264,-0.5496669,1.0163453,-0.60322267,1.6970948,145.0
24079,1.1972151,-0.769788,-0.9438717,1.0163453,-0.60322267,1.6970948,145.0
24080,1.1972151,-0.769788,-0.9438717,1.0949341,-0.8708496,2.3279297,145.0
24081,1.9529991,-2.6881816,-2.367805,1.0949341,-0.8708496,2.3279297,145.0
24082,1.9529991,-2.6881816,-2.367805,1.3243287,-1.360437,2.6667116,145.0
24083,2.7885466,-8.740059,-4.0976987,1.3243287,-1.360437,2.6667116,145.0
24084,2.7885466,-8.740059,-4.0976987,2.3799684,-2.265271,3.1573608,145.0
24085,6.413785,-18.764643,-4.357102,2.3799684,-2.265271,3.1573608,145.0
24086,6.413785,-18.764643,-4.357102,4.319202,-3.7648315,4.494434,145.0
24087,15.997568,-25.413729,-3.1472783,4.319202,-3.7648315,4.494434,145.0
24088,15.997568,-25.413729,-3.1472783,4.067505,-4.9309206,5.5511355,145.0
24089,25.915682,-21.19463,-2.3537235,4.067505,-4.9309206,5.5511355,145.0
24090,25.915682,-21.19463,-2.3537235,2.0167603,-2.0454347,6.261621,145.0
24091,25.45613,-7.4673615,-1.6420488,2.0167603,-2.0454347,6.261621,145.0
24092,25.45613,-7.4673615,-1.6420488,0.07327881,-1.5792115,6.2871094,145.0
24093,16.571997,6.7236214,-0.8136759,0.07327881,-1.5792115,6.2871094,145.0
24094,16.571997,6.7236214,-0.8136759,-0.85491943,-0.998291,5.639282,145.0
24095,7.264921,14.30784,-0.2916999,-0.85491943,-0.998291,5.639282,145.0
24096,7.264921,14.30784,-0.2916999,0.22408448,-1.4942505,4.7397585,145.0
24097,1.4901237,15.467318,0.053993702,0.22408448,-1.4942505,4.7397585,145.0
24098,1.4901237,15.467318,0.053993702,1.9094971,-1.9275513,3.7828858,145.0
24099,-0.26932716,14.5881,0.06133461,1.9094971,-1.9275513,3.7828858,145.0
24100,-0.26932716,14.5881,0.06133461,2.442627,-1.8563966,2.8546875,145.0
24101,-0.6865072,14.006747,-0.2635789,2.442627,-1.8563966,2.8546875,145.0
24102,-0.6865072,14.006747,-0.2635789,2.2057984,-1.8001099,2.1728761,145.0
24103,-1.4108267,13.729666,-0.70107317,2.2057984,-1.8001099,2.1728761,145.0
24104,-1.4108267,13.729666,-0.70107317,1.8298463,-1.6801026,1.4645141,145.0
24105,-2.1488638,14.177544,-0.8515692,1.8298463,-1.6801026,1.4645141,145.0
24106,-2.1488638,14.177544,-0.8515692,1.2128174,-1.4836304,0.84111327,145.0
24107,-2.52948,14.892866,-0.4903984,1.2128174,-1.4836304,0.84111327,145.0
24108,-2.52948,14.892866,-0.4903984,0.15717773,-1.0875,0.24532472,145.0
24109,-2.9412842,13.876927,0.23658752,0.15717773,-1.0875,0.24532472,145.0
24110,-2.9412842,13.876927,0.23658752,-1.0949341,-0.5734863,-0.61702883,145.0
24111,-3.343274,10.614714,0.89195585,-1.0949341,-0.5734863,-0.61702883,145.0
24112,-3.343274,10.614714,0.89195585,-1.7151489,0.022302246,-1.8479004,145.0
24113,-2.9607763,6.3388777,1.1140652,-1.7151489,0.022302246,-1.8479004,145.0
24114,-2.9607763,6.3388777,1.1140652,-1.6386842,0.5703003,-2.8578737,145.0
24115,-2.9607763,6.3388777,1.1140652,-0.94731444,0.9515625,-3.5736694,145.0
24116,-1.8014212,2.2255335,0.94700146,-0.94731444,0.9515625,-3.5736694,145.0
24117,1.3160043,-3.7843924,0.39628553,-0.94731444,0.9515625,-3.5736694,145.0
24118,1.3160043,-3.7843924,0.39628553,-0.45347902,1.2181275,-4.0515747,145.0
24119,1.3160043,-3.7843924,0.39628553,-0.81668705,1.4634522,-4.7429442,145.0
24120,1.3160043,-3.7843924,0.39628553,-1.8319702,1.2521118,-5.983374,145.0
24121,5.4755087,-9.392809,-0.40777636,-1.8319702,1.2521118,-5.983374,145.0
24122,5.4755087,-9.392809,-0.40777636,-2.8260133,0.65207523,-6.1203737,145.0
24123,12.983141,-21.225357,0.32679415,-2.8260133,0.65207523,-6.1203737,145.0
24124,12.983141,-21.225357,0.32679415,-2.1962402,1.0556396,-5.525647,145.0
24125,15.199989,-28.982983,1.7745457,-2.1962402,1.0556396,-5.525647,145.0
24126,15.199989,-28.982983,1.7745457,-1.8914429,2.266333,-3.0437257,145.0
24127,5.4153633,-22.888073,2.1952345,-1.8914429,2.266333,-3.0437257,145.0
24128,5.4153633,-22.888073,2.1952345,-2.6698976,1.9795898,-2.0125122,145.0
24129,-7.7513647,-9.411337,1.2145252,-2.6698976,1.9795898,-2.0125122,145.0
24130,-7.7513647,-9.411337,1.2145252,-3.9549317,2.1218994,-1.9509156,145.0
24131,-15.117303,-0.798686,0.38847828,-3.9549317,2.1218994,-1.9509156,145.0
24132,-15.117303,-0.798686,0.38847828,-4.156714,2.1335816,-1.8309082,145.0
24133,-16.00091,0.78971386,0.24029922,-4.156714,2.1335816,-1.8309082,145.0
24134,-16.00091,0.78971386,0.24029922,-3.2943604,2.253589,-1.5685914,145.0
24135,-14.366866,0.8507042,0.6549349,-3.2943604,2.253589,-1.5685914,145.0
24136,-14.366866,0.8507042,0.6549349,-3.0490358,2.2132325,-1.2903442,145.0
24137,-13.29331,2.719431,1.4573097,-3.0490358,2.2132325,-1.2903442,145.0
24138,-13.29331,2.719431,1.4573097,-2.994873,2.0316284,-0.96430665,145.0
24139,-13.125456,5.6129475,2.272586,-2.994873,2.0316284,-0.96430665,145.0
24140,-13.125456,5.6129475,2.272586,-2.716626,1.6970948,-0.65632325,145.0
24141,-12.947729,7.6377583,2.6992579,-2.716626,1.6970948,-0.65632325,145.0
24142,-12.947729,7.6377583,2.6992579,-2.151636,1.2744141,-0.13806152,145.0
24143,-12.073515,7.578969,2.7654853,-2.151636,1.2744141,-0.13806152,145.0
24144,-12.073515,7.578969,2.7654853,-1.1278565,0.77739257,0.20390625,145.0
24145,-10.266796,6.1734047,2.578941,-1.1278565,0.77739257,0.20390625,145.0
24146,-10.266796,6.1734047,2.578941,-0.011682129,0.4067505,0.24320069,145.0
24147,-7.4632053,4.9102206,2.022247,-0.011682129,0.4067505,0.24320069,145.0
24148,-7.4632053,4.9102206,2.022247,0.39613038,0.1901001,0.18585205,145.0
24149,-3.882368,3.486868,1.1682372,0.39613038,0.1901001,0.18585205,145.0
24150,-3.882368,3.486868,1.1682372,0.3706421,0.060534667,0.29948732,145.0
24151,-0.2429676,0.9393846,0.45102048,0.3706421,0.060534667,0.29948732,145.0
24152,-0.2429676,0.9393846,0.45102048,0.89208984,-0.18160401,0.99510497,145.0
24153,-0.2429676,0.9393846,0.45102048,0.89208984,-0.18160401,0.99510497,142.0
24154,2.6783066,-1.6961852,0.11169529,0.89208984,-0.18160401,0.99510497,142.0
24155,2.6783066,-1.6961852,0.11169529,1.6439942,-0.4970215,1.9679078,142.0
24156,4.338849,-2.6207545,-0.40273362,1.6439942,-0.4970215,1.9679078,142.0
24157,4.338849,-2.6207545,-0.40273362,1.7416992,-0.7434082,2.7824707,142.0
24158,4.691868,-3.2313938,-1.7040716,1.7416992,-0.7434082,2.7824707,142.0
24159,4.691868,-3.2313938,-1.7040716,1.0503296,-1.09281,3.2051513,142.0
24160,4.632656,-7.8805375,-3.5991826,1.0503296,-1.09281,3.2051513,142.0
24161,4.632656,-7.8805375,-3.5991826,0.9515625,-1.8840088,3.5683594,142.0
24162,6.8884,-17.751648,-4.6751227,0.9515625,-1.8840088,3.5683594,142.0
24163,6.8884,-17.751648,-4.6751227,2.7251222,-3.2911744,4.425403,142.0
24164,15.86957,-26.606384,-4.7537456,2.7251222,-3.2911744,4.425403,142.0
24165,15.86957,-26.606384,-4.7537456,4.6569214,-5.164563,5.5681276,142.0
24166,26.309608,-21.172583,-6.164398,4.6569214,-5.164563,5.5681276,142.0
24167,26.309608,-21.172583,-6.164398,2.5222778,-1.5813354,5.532019,142.0
24168,23.733978,-1.5119171,-5.9578123,2.5222778,-1.5813354,5.532019,142.0
24169,23.733978,-1.5119171,-5.9578123,-1.7406372,-1.2170655,5.680701,142.0
24170,10.790345,13.9724865,-2.2491846,-1.7406372,-1.2170655,5.680701,142.0
24171,10.790345,13.9724865,-2.2491846,-1.8617066,-2.353418,4.6590457,142.0
24172,1.3708506,17.517712,0.8301568,-1.8617066,-2.353418,4.6590457,142.0
24173,1.3708506,17.517712,0.8301568,0.7880127,-2.6093628,3.2115235,142.0
24174,-2.0578604,15.986239,2.3691545,0.7880127,-2.6093628,3.2115235,142.0
24175,-2.0578604,15.986239,2.3691545,1.6917847,-2.969385,2.0082643,142.0
24176,-2.34132,14.774221,3.124144,1.6917847,-2.969385,2.0082643,142.0
24177,-2.34132,14.774221,3.124144,1.3360108,-2.9120362,1.1852051,142.0
24178,-1.9693699,13.640043,3.1260364,1.3360108,-2.9120362,1.1852051,142.0
24179,-1.9693699,13.640043,3.1260364,1.0365235,-2.6061769,0.6085327,142.0
24180,-2.167036,12.488817,2.5522087,1.0365235,-2.6061769,0.6085327,142.0
24181,-2.167036,12.488817,2.5522087,0.5777344,-2.4022706,0.09239502,142.0
24182,-2.344945,11.999562,1.8027778,0.5777344,-2.4022706,0.09239502,142.0
24183,-2.344945,11.999562,1.8027778,-0.07327881,-2.075171,-0.22302246,142.0
24184,-2.2310343,11.709232,1.1285992,-0.07327881,-2.075171,-0.22302246,142.0
24185,-2.2310343,11.709232,1.1285992,-0.56180423,-1.359375,-0.61915284,142.0
24186,-2.5743537,10.780472,0.7511339,-0.56180423,-1.359375,-0.61915284,142.0
24187,-2.5743537,10.780472,0.7511339,-1.1225464,-0.5012695,-1.3381348,142.0
24188,-3.076109,8.309949,0.5523231,-1.1225464,-0.5012695,-1.3381348,142.0
24189,-3.076109,8.309949,0.5523231,-1.3264526,0.26868898,-2.3449218,142.0
24190,-3.076109,8.309949,0.5523231,-0.5363159,0.8973999,-3.240198,142.0
24191,-2.5834088,4.354905,0.2831061,-0.5363159,0.8973999,-3.240198,142.0
24192,-0.3513341,-0.90539455,1.0746294,-0.5363159,0.8973999,-3.240198,142.0
24193,-0.3513341,-0.90539455,1.0746294,0.2824951,1.3222046,-3.7680175,142.0
24194,-0.3513341,-0.90539455,1.0746294,0.4088745,1.721521,-3.9666138,142.0
24195,0.3982296,-1.7693357,1.2481313,0.4088745,1.721521,-3.9666138,142.0
24196,0.3982296,-1.7693357,1.2481313,-0.10301514,2.0454347,-4.5666504,142.0
24197,1.859282,-4.157425,-0.18624842,-0.10301514,2.0454347,-4.5666504,142.0
24198,1.859282,-4.157425,-0.18624842,-0.7975708,1.4209718,-5.427942,142.0
24199,6.423156,-11.686792,-2.0098507,-0.7975708,1.4209718,-5.427942,142.0
24200,6.423156,-11.686792,-2.0098507,-1.5855836,0.24320069,-5.435376,142.0
24201,13.166479,-22.37956,-1.0958691,-1.5855836,0.24320069,-5.435376,142.0
24202,13.166479,-22.37956,-1.0958691,-2.5626342,1.4984986,-4.3011475,142.0
24203,13.00556,-26.961937,1.2437394,-2.5626342,1.4984986,-4.3011475,142.0
24204,13.00556,-26.961937,1.2437394,-2.4649293,2.0072021,-2.0741088,142.0
24205,2.693119,-19.726667,0.9948695,-2.4649293,2.0072021,-2.0741088,142.0
24206,2.693119,-19.726667,0.9948695,-1.8638306,2.171814,-1.6121339,142.0
24207,-8.661424,-6.484886,-0.5453398,-1.8638306,2.171814,-1.6121339,142.0
24208,-8.661424,-6.484886,-0.5453398,-2.9534547,2.3332398,-1.5696534,142.0
24209,-14.516687,2.139862,-0.8597827,-2.9534547,2.3332398,-1.5696534,142.0
24210,-14.516687,2.139862,-0.8597827,-3.5917237,2.442627,-1.2797241,142.0
24211,-15.108345,3.8470573,-0.5015836,-3.5917237,2.442627,-1.2797241,142.0
24212,-15.108345,3.8470573,-0.5015836,-3.3888795,2.3682861,-0.9165161,142.0
24213,-13.865766,3.2530613,0.07407498,-3.3888795,2.3682861,-0.9165161,142.0
24214,-13.865766,3.2530613,0.07407498,-3.1265626,2.1155274,-0.78376466,142.0
24215,-12.908336,4.1598835,1.2593577,-3.1265626,2.1155274,-0.78376466,142.0
24216,-12.908336,4.1598835,1.2593577,-2.8515015,1.7618774,-0.59897465,142.0
24217,-11.988229,6.362648,2.7348056,-2.8515015,1.7618774,-0.59897465,142.0
24218,-11.988229,6.362648,2.7348056,-2.1558838,1.445398,-0.37701416,142.0
24219,-10.239142,7.697955,3.2100246,-2.1558838,1.445398,-0.37701416,142.0
24220,-10.239142,7.697955,3.2100246,-1.3062744,1.1894531,0.2262085,142.0
24221,-8.006353,7.2054586,2.1515281,-1.3062744,1.1894531,0.2262085,142.0
24222,-8.006353,7.2054586,2.1515281,-0.4088745,0.84536135,0.5363159,142.0
24223,-6.104143,6.0982904,0.57511646,-0.4088745,0.84536135,0.5363159,142.0
24224,-6.104143,6.0982904,0.57511646,0.3090454,0.47684327,0.65632325,142.0
24225,-4.7009773,5.3196115,-0.35766804,0.3090454,0.47684327,0.65632325,142.0
24226,-4.7009773,5.3196115,-0.35766804,0.61702883,0.1274414,0.632959,142.0
24227,-3.3937893,4.1210213,-0.5753801,0.61702883,0.1274414,0.632959,142.0
24228,-3.3937893,4.1210213,-0.5753801,0.991919,-0.2166504,0.6796875,142.0
24229,-1.619915,1.7409699,-0.5510633,0.991919,-0.2166504,0.6796875,142.0
24230,-1.619915,1.7409699,-0.5510633,1.8680786,-0.5979126,0.97280276,142.0
24231,0.68365765,-1.5449804,-0.5691222,1.8680786,-0.5979126,0.97280276,142.0
24232,0.68365765,-1.5449804,-0.5691222,3.0469117,-0.99085695,1.6333741,142.0
24233,0.26278305,-2.5427103,-2.0489378,3.0469117,-0.99085695,1.6333741,142.0
24234,0.26278305,-2.5427103,-2.0489378,3.6023438,-1.4974365,2.4628053,142.0
24235,4.3431854,-9.620851,-2.4266992,3.6023438,-1.4974365,2.4628053,142.0
24236,4.3431854,-9.620851,-2.4266992,2.5796266,-2.34386,2.8376954,142.0
24237,5.3211794,-15.642115,-3.4622579,2.5796266,-2.34386,2.8376954,142.0
24238,5.3211794,-15.642115,-3.4622579,1.0471436,-3.4791505,3.3602052,142.0
24239,10.719297,-23.618319,-2.552216,1.0471436,-3.4791505,3.3602052,142.0
24240,10.719297,-23.618319,-2.552216,1.4687623,-4.681348,5.27926,142.0
24241,20.13364,-25.673256,-1.961658,1.4687623,-4.681348,5.27926,142.0
24242,20.13364,-25.673256,-1.961658,3.9421875,-4.223621,5.1072145,142.0
24243,23.645073,-12.810493,-2.6788116,3.9421875,-4.223621,5.1072145,142.0
24244,23.645073,-12.810493,-2.6788116,1.5048707,-1.5505371,5.537329,142.0
24245,16.726715,7.018963,-2.8248367,1.5048707,-1.5505371,5.537329,142.0
24246,16.726715,7.018963,-2.8248367,-1.993396,-1.26167,4.8629518,142.0
24247,6.6050415,18.38325,-1.4226136,-1.993396,-1.26167,4.8629518,142.0
24248,6.6050415,18.38325,-1.4226136,-2.7930908,-1.9169312,3.8476684,142.0
24249,0.39007568,17.58575,0.81306887,-2.7930908,-1.9169312,3.8476684,142.0
24250,0.39007568,17.58575,0.81306887,-0.26019287,-2.5052857,2.8578737,142.0
24251,0.39007568,17.58575,0.81306887,-0.26019287,-2.5052857,2.8578737,136.0
24252,-0.43143272,12.813509,2.5576816,-0.26019287,-2.5052857,2.8578737,136.0
24253,-0.43143272,12.813509,2.5576816,2.1165893,-2.3958986,1.7236451,136.0
24254,0.569685,11.444679,3.2363918,2.1165893,-2.3958986,1.7236451,136.0
24255,0.569685,11.444679,3.2363918,2.1590698,-1.9243653,1.0598878,136.0
24256,0.100242615,12.279499,2.6907127,2.1590698,-1.9243653,1.0598878,136.0
24257,0.100242615,12.279499,2.6907127,1.3137085,-1.8882569,0.82730716,136.0
24258,-1.1493349,12.49805,1.5638006,1.3137085,-1.8882569,0.82730716,136.0
24259,-1.1493349,12.49805,1.5638006,0.2782471,-1.8638306,0.49277344,136.0
24260,-1.5860939,12.097733,0.72964144,0.2782471,-1.8638306,0.49277344,136.0
24261,-1.5860939,12.097733,0.72964144,-0.7742066,-1.4900025,0.24320069,136.0
24262,-1.9412022,11.223694,0.60322,-0.7742066,-1.4900025,0.24320069,136.0
24263,-1.9412022,11.223694,0.60322,-1.3476928,-0.84323734,-0.36002198,136.0
24264,-2.714168,9.415931,0.8721024,-1.3476928,-0.84323734,-0.36002198,136.0
24265,-2.714168,9.415931,0.8721024,-1.3020264,-0.011682129,-1.2011353,136.0
24266,-2.714168,9.415931,0.8721024,-0.8028809,0.8294312,-2.2323487,136.0
24267,-3.1339931,6.517229,1.037599,-0.8028809,0.8294312,-2.2323487,136.0
24268,-2.5424242,-0.23749924,2.0075939,-0.8028809,0.8294312,-2.2323487,136.0
24269,-2.5424242,-0.23749924,2.0075939,-0.0021240234,1.4262818,-3.071338,136.0
24270,-2.5424242,-0.23749924,2.0075939,0.54375,1.8489624,-3.5046387,136.0
24271,-2.5424242,-0.23749924,2.0075939,0.6616333,2.3937745,-4.064319,136.0
24272,-0.5985756,-2.4371185,1.5054038,0.6616333,2.3937745,-4.064319,136.0
24273,-0.5985756,-2.4371185,1.5054038,-0.22302246,2.446875,-5.1921754,136.0
24274,4.3983984,-8.51012,-0.85566235,-0.22302246,2.446875,-5.1921754,136.0
24275,4.3983984,-8.51012,-0.85566235,-0.9611206,1.4761963,-5.5458255,136.0
24276,13.579632,-19.93544,-2.9750452,-0.9611206,1.4761963,-5.5458255,136.0
24277,13.579632,-19.93544,-2.9750452,-2.0305665,1.264856,-5.2187257,136.0
24278,18.109299,-28.38097,-0.7040473,-2.0305665,1.264856,-5.2187257,136.0
24279,18.109299,-28.38097,-0.7040473,-5.0286255,3.1626709,-2.3130615,136.0
24280,8.840124,-25.623758,2.1706,-5.0286255,3.1626709,-2.3130615,136.0
24281,8.840124,-25.623758,2.1706,-2.896106,2.552014,-1.0577637,136.0
24282,-6.5312815,-13.253255,1.0699029,-2.896106,2.552014,-1.0577637,136.0
24283,-6.5312815,-13.253255,1.0699029,-0.41949463,2.440503,-1.1852051,136.0
24284,-16.332142,-0.89073944,-0.61486626,-0.41949463,2.440503,-1.1852051,136.0
24285,-16.332142,-0.89073944,-0.61486626,0.14230958,2.1834962,-1.1384766,136.0
24286,-17.68743,5.37796,-1.2328231,0.14230958,2.1834962,-1.1384766,136.0
24287,-17.68743,5.37796,-1.2328231,0.13381349,2.4713013,-1.1342286,136.0
24288,-15.3443775,6.8981323,-0.97754276,0.13381349,2.4713013,-1.1342286,136.0
24289,-15.3443775,6.8981323,-0.97754276,-0.19753419,2.4203248,-1.0492676,136.0
24290,-13.16598,7.160205,-0.14111626,-0.19753419,2.4203248,-1.0492676,136.0
24291,-13.16598,7.160205,-0.14111626,-1.0120972,2.265271,-1.0259033,136.0
24292,-11.33514,8.379006,0.42734134,-1.0120972,2.265271,-1.0259033,136.0
24293,-11.33514,8.379006,0.42734134,-1.7661256,2.1962402,-1.1469727,136.0
24294,-9.671762,9.587019,0.43713677,-1.7661256,2.1962402,-1.1469727,136.0
24295,-9.671762,9.587019,0.43713677,-2.270581,1.993396,-0.93350834,136.0
24296,-8.303731,9.007005,0.30781484,-2.270581,1.993396,-0.93350834,136.0
24297,-8.303731,9.007005,0.30781484,-2.0273805,1.6556762,-0.452417,136.0
24298,-7.1566696,6.8819227,0.19398129,-2.0273805,1.6556762,-0.452417,136.0
24299,-7.1566696,6.8819227,0.19398129,-1.2138795,1.3657471,-0.0361084,136.0
24300,-6.1383,4.6009483,0.0748384,-1.2138795,1.3657471,-0.0361084,136.0
24301,-6.1383,4.6009483,0.0748384,-0.20921631,1.080066,0.18691407,136.0
24302,-4.993782,2.6496797,0.041401505,-0.20921631,1.080066,0.18691407,136.0
24303,-4.993782,2.6496797,0.041401505,0.61915284,0.8219971,0.47471926,136.0
24304,-3.313055,0.3084278,-0.03369999,0.61915284,0.8219971,0.47471926,136.0
24305,-3.313055,0.3084278,-0.03369999,1.4910644,0.5734863,0.83898926,136.0
24306,-1.0550089,-2.316246,-0.5095527,1.4910644,0.5734863,0.83898926,136.0
24307,-1.0550089,-2.316246,-0.5095527,2.078357,0.17523193,1.5091187,136.0
24308,0.35062218,-2.9836974,-0.98438776,2.078357,0.17523193,1.5091187,136.0
24309,0.35062218,-2.9836974,-0.98438776,2.436255,-0.053100586,1.9148072,136.0
24310,3.8694868,-6.024287,-1.199754,2.436255,-0.053100586,1.9148072,136.0
24311,3.8694868,-6.024287,-1.199754,3.0670898,-0.4056885,3.1191285,136.0
24312,4.382309,-7.2548914,-0.51270866,3.0670898,-0.4056885,3.1191285,136.0
24313,4.382309,-7.2548914,-0.51270866,2.5785644,-0.544812,3.4037476,136.0
24314,8.506458,-18.102608,2.8245742,2.5785644,-0.544812,3.4037476,136.0
24315,8.506458,-18.102608,2.8245742,1.0375855,-0.9781128,4.455139,136.0
24316,10.437479,-18.586834,3.225663,1.0375855,-0.9781128,4.455139,136.0
24317,10.437479,-18.586834,3.225663,0.94412845,-1.2935303,5.048804,136.0
24318,19.58757,-19.514452,4.2987924,0.94412845,-1.2935303,5.048804,136.0
24319,19.58757,-19.514452,4.2987924,1.8425903,-1.1427246,5.706189,136.0
24320,17.842957,-12.82831,3.4595172,1.8425903,-1.1427246,5.706189,136.0
24321,17.842957,-12.82831,3.4595172,2.0072021,-1.3721192,5.534143,136.0
24322,12.512073,6.653185,1.0366812,2.0072021,-1.3721192,5.534143,136.0
24323,12.512073,6.653185,1.0366812,0.3802002,-1.6546143,4.189636,136.0
24324,8.477725,11.303078,-0.23269117,0.3802002,-1.6546143,4.189636,136.0
24325,8.477725,11.303078,-0.23269117,-0.36320803,-1.806482,3.624646,136.0
24326,1.4874783,19.717121,-2.91003,-0.36320803,-1.806482,3.624646,136.0
24327,1.4874783,19.717121,-2.91003,-1.8542725,-2.5859985,2.0082643,136.0
24328,0.12728691,16.921293,-2.806027,-1.8542725,-2.5859985,2.0082643,136.0
24329,0.12728691,16.921293,-2.806027,-1.811792,-2.6327271,1.5813354,136.0
24330,-1.4760876,13.1515,-3.9082372,-1.811792,-2.6327271,1.5813354,136.0
24331,-1.4760876,13.1515,-3.9082372,-0.33028564,-2.5116577,0.31966552,136.0
24332,-1.4760876,13.1515,-3.9082372,0.093457036,-2.35448,0.060534667,136.0
24333,-1.7346668,10.696603,-3.268997,0.093457036,-2.35448,0.060534667,136.0
24334,-3.0159683,11.869111,-2.6350217,0.093457036,-2.35448,0.060534667,136.0
24335,-3.0159683,11.869111,-2.6350217,-0.19647217,-1.5919555,-0.40462646,136.0
24336,-2.8993106,10.870093,-2.1570652,-0.19647217,-1.5919555,-0.40462646,136.0
24337,-2.8993106,10.870093,-2.1570652,-0.6775635,-1.2871583,-0.6690674,136.0
24338,-2.2311306,10.502508,-2.4213188,-0.6775635,-1.2871583,-0.6690674,136.0
24339,-2.2311306,10.502508,-2.4213188,-1.7735596,0.03079834,-1.6917847,136.0
24340,-1.7010422,8.034928,-1.9467106,-1.7735596,0.03079834,-1.6917847,136.0
24341,-1.7010422,8.034928,-1.9467106,-1.9424194,0.5076416,-2.1059692,136.0
24342,-1.1749206,4.707924,-1.6541824,-1.9424194,0.5076416,-2.1059692,136.0
24343,-1.1749206,4.707924,-1.6541824,-1.9264892,1.2096313,-2.89292,136.0
24344,-1.1923413,1.6768007,-0.84491587,-1.9264892,1.2096313,-2.89292,136.0
24345,-1.1923413,1.6768007,-0.84491587,-1.3795532,1.5218629,-3.4037476,136.0
24346,-1.1923413,1.6768007,-0.84491587,-1.3795532,1.5218629,-3.4037476,133.0
24347,-1.278153,-0.5417385,0.9353585,-1.3795532,1.5218629,-3.4037476,133.0
24348,-1.278153,-0.5417385,0.9353585,-0.66269535,1.6015137,-3.6405761,133.0
24349,-1.0371342,-2.3972578,2.9799397,-0.66269535,1.6015137,-3.6405761,133.0
24350,-1.0371342,-2.3972578,2.9799397,-0.10938721,1.5792115,-4.2076907,133.0
24351,2.2379932,-7.04465,2.9934855,-0.10938721,1.5792115,-4.2076907,133.0
24352,2.2379932,-7.04465,2.9934855,0.014868164,0.3164795,-5.698755,133.0
24353,4.4042864,-9.897927,2.0039072,0.014868164,0.3164795,-5.698755,133.0
24354,4.4042864,-9.897927,2.0039072,-0.020178223,-0.8379273,-5.7168093,133.0
24355,13.459953,-18.867695,2.1937141,-0.020178223,-0.8379273,-5.7168093,133.0
24356,13.459953,-18.867695,2.1937141,-2.5881226,-0.81668705,-4.2937136,133.0
24357,16.60473,-24.5747,4.228702,-2.5881226,-0.81668705,-4.2937136,133.0
24358,16.60473,-24.5747,4.228702,-4.9341063,1.6609863,-2.263147,133.0
24359,5.535103,-20.980278,4.6990385,-4.9341063,1.6609863,-2.263147,133.0
24360,5.535103,-20.980278,4.6990385,-3.3952515,1.3211426,-1.363623,133.0
24361,-9.130451,-10.617951,2.922768,-3.3952515,1.3211426,-1.363623,133.0
24362,-9.130451,-10.617951,2.922768,-1.5282348,1.0375855,-1.2744141,133.0
24363,-16.39329,-1.1407242,1.0577337,-1.5282348,1.0375855,-1.2744141,133.0
24364,-16.39329,-1.1407242,1.0577337,-1.2223755,1.1289185,-1.1660889,133.0
24365,-15.715291,3.5469303,-0.2414962,-1.2223755,1.1289185,-1.1660889,133.0
24366,-15.715291,3.5469303,-0.2414962,-1.7746216,1.6493043,-0.8485474,133.0
24367,-12.757425,4.6102247,-0.79679805,-1.7746216,1.6493043,-0.8485474,133.0
24368,-12.757425,4.6102247,-0.79679805,-2.0040162,1.896753,-0.6796875,133.0
24369,-11.542904,5.54963,-0.58362985,-2.0040162,1.896753,-0.6796875,133.0
24370,-11.542904,5.54963,-0.58362985,-1.906311,1.7884277,-0.5256958,133.0
24371,-13.218857,9.192109,9.794235E-4,-1.906311,1.7884277,-0.5256958,133.0
24372,-13.218857,9.192109,9.794235E-4,-1.2903442,1.4528321,-0.052038576,133.0
24373,-11.662073,8.725221,0.04806137,-1.2903442,1.4528321,-0.052038576,133.0
24374,-11.662073,8.725221,0.04806137,-0.8612915,1.2510499,0.1709839,133.0
24375,-10.408028,8.468177,-0.0081573725,-0.8612915,1.2510499,0.1709839,133.0
24376,-10.408028,8.468177,-0.0081573725,0.28674316,0.8857178,0.5150757,133.0
24377,-7.874091,6.67033,-0.23874027,0.28674316,0.8857178,0.5150757,133.0
24378,-7.874091,6.67033,-0.23874027,1.0036011,0.7051758,0.83898926,133.0
24379,-5.139141,3.9473484,-0.34621686,1.0036011,0.7051758,0.83898926,133.0
24380,-5.139141,3.9473484,-0.34621686,1.3179566,0.58410645,1.0545777,133.0
24381,-2.3064184,0.75890404,-0.68803304,1.3179566,0.58410645,1.0545777,133.0
24382,-2.3064184,0.75890404,-0.68803304,1.7958618,0.48640138,1.4708862,133.0
24383,0.77071,-2.2216122,-1.1401116,1.7958618,0.48640138,1.4708862,133.0
24384,0.77071,-2.2216122,-1.1401116,2.994873,0.3706421,2.3151855,133.0
24385,3.1548862,-3.8802805,-0.86072206,2.994873,0.3706421,2.3151855,133.0
24386,3.1548862,-3.8802805,-0.86072206,2.5541382,0.043542482,3.4961426,133.0
24387,4.4032307,-5.0436044,-0.3623203,2.5541382,0.043542482,3.4961426,133.0
24388,4.4032307,-5.0436044,-0.3623203,-0.09664307,0.011682129,4.224683,133.0
24389,5.4223404,-9.15909,-0.7910892,-0.09664307,0.011682129,4.224683,133.0
24390,5.4223404,-9.15909,-0.7910892,-1.8755127,-0.2166504,4.8480835,133.0
24391,11.319061,-23.760365,-1.7278177,-1.8755127,-0.2166504,4.8480835,133.0
24392,11.319061,-23.760365,-1.7278177,0.36320803,-1.5802735,6.0237308,133.0
24393,13.989124,-23.407097,-1.1516267,0.36320803,-1.5802735,6.0237308,133.0
24394,13.989124,-23.407097,-1.1516267,1.0906861,-1.8362182,6.3582644,133.0
24395,20.064152,-19.529877,0.102001905,1.0906861,-1.8362182,6.3582644,133.0
24396,20.064152,-19.529877,0.102001905,2.630603,-1.1990112,6.3784423,133.0
24397,18.625504,-5.20636,0.8394995,2.630603,-1.1990112,6.3784423,133.0
24398,18.625504,-5.20636,0.8394995,2.342798,-1.2106934,5.799646,133.0
24399,11.271985,9.873255,-0.046369195,2.342798,-1.2106934,5.799646,133.0
24400,11.271985,9.873255,-0.046369195,1.4751343,-1.5792115,4.6770997,133.0
24401,4.0899878,18.90721,-2.0294538,1.4751343,-1.5792115,4.6770997,133.0
24402,4.0899878,18.90721,-2.0294538,0.3727661,-2.2249146,3.0214233,133.0
24403,0.083916664,21.36842,-3.0907872,0.3727661,-2.2249146,3.0214233,133.0
24404,0.083916664,21.36842,-3.0907872,-0.79013675,-2.6953857,1.6195679,133.0
24405,-1.0429373,19.230587,-2.7618632,-0.79013675,-2.6953857,1.6195679,133.0
24406,-1.0429373,19.230587,-2.7618632,-1.2298096,-2.8674316,0.26125488,133.0
24407,-1.0116329,15.52888,-1.8319883,-1.2298096,-2.8674316,0.26125488,133.0
24408,-1.0116329,15.52888,-1.8319883,-0.7975708,-2.6975098,-0.9611206,133.0
24409,-1.2464275,12.805746,-0.91113496,-0.7975708,-2.6975098,-0.9611206,133.0
24410,-1.2464275,12.805746,-0.91113496,-0.42161867,-2.3279297,-1.6386842,133.0
24411,-1.891551,11.369756,-0.4831438,-0.42161867,-2.3279297,-1.6386842,133.0
24412,-1.891551,11.369756,-0.4831438,-0.59260255,-1.9562256,-1.9987061,133.0
24413,-2.4746056,9.994304,-0.6214516,-0.59260255,-1.9562256,-1.9987061,133.0
24414,-2.4746056,9.994304,-0.6214516,-0.9366943,-1.447522,-2.440503,133.0
24415,-2.868198,7.8676357,-0.8627131,-0.9366943,-1.447522,-2.440503,133.0
24416,-2.868198,7.8676357,-0.8627131,-1.2595459,-0.8379273,-3.1074464,133.0
24417,-3.0815582,5.0309496,-0.8245697,-1.2595459,-0.8379273,-3.1074464,133.0
24418,-3.0815582,5.0309496,-0.8245697,-1.4560181,-0.18797608,-3.6915529,133.0
24419,-3.0686646,2.0502844,-0.56418467,-1.4560181,-0.18797608,-3.6915529,133.0
24420,-3.0686646,2.0502844,-0.56418467,-1.4751343,0.2442627,-4.1768923,133.0
24421,-2.660571,-0.51632786,-0.14939451,-1.4751343,0.2442627,-4.1768923,133.0
24422,-2.660571,-0.51632786,-0.14939451,-1.088562,0.44923097,-4.2384887,133.0
24423,-1.8446312,-2.3839245,0.6940708,-1.088562,0.44923097,-4.2384887,133.0
24424,-1.8446312,-2.3839245,0.6940708,-0.5150757,0.5076416,-4.145032,133.0
24425,-0.5472994,-3.9041004,1.8895583,-0.5150757,0.5076416,-4.145032,133.0
24426,-0.5472994,-3.9041004,1.8895583,0.29523927,0.52250975,-4.3276978,133.0
24427,2.799819,-7.3218036,2.5315807,0.29523927,0.52250975,-4.3276978,133.0
24428,2.799819,-7.3218036,2.5315807,0.724292,-0.36639404,-4.9479127,133.0
24429,10.436926,-12.834799,1.8975911,0.724292,-0.36639404,-4.9479127,133.0
24430,10.436926,-12.834799,1.8975911,-0.4163086,-1.2213135,-5.2994385,133.0
24431,16.33416,-17.570293,1.880451,-0.4163086,-1.2213135,-5.2994385,133.0
24432,16.33416,-17.570293,1.880451,-3.440918,0.9685547,-3.2040894,133.0
24433,12.22702,-19.34531,3.4601715,-3.440918,0.9685547,-3.2040894,133.0
24434,12.22702,-19.34531,3.4601715,-4.0080323,0.74871826,-1.7448853,133.0
24435,1.4384403,-15.487673,3.9889991,-4.0080323,0.74871826,-1.7448853,133.0
24436,1.4384403,-15.487673,3.9889991,-2.7559204,1.0630738,-1.0609497,133.0
24437,-8.780413,-7.4520035,3.2092168,-2.7559204,1.0630738,-1.0609497,133.0
24438,-8.780413,-7.4520035,3.2092168,-1.5707153,0.8644776,-0.8506714,133.0
24439,-14.005849,-0.44096088,2.0594146,-1.5707153,0.8644776,-0.8506714,133.0
24440,-14.005849,-0.44096088,2.0594146,-1.363623,1.0216553,-0.6488892,133.0
24441,-14.369645,3.2142353,0.9558325,-1.363623,1.0216553,-0.6488892,133.0
24442,-14.369645,3.2142353,0.9558325,-1.7119629,1.4177856,-0.48321533,133.0
24443,-13.430286,4.520461,0.3667779,-1.7119629,1.4177856,-0.48321533,133.0
24444,-13.430286,4.520461,0.3667779,-2.160132,1.5866455,-0.37807617,133.0
24445,-13.318802,5.3959956,0.28692818,-2.160132,1.5866455,-0.37807617,133.0
24446,-13.318802,5.3959956,0.28692818,-2.3789062,1.5526612,-0.121069334,133.0
24447,-13.440284,6.4763427,0.3314469,-2.3789062,1.5526612,-0.121069334,133.0
24448,-13.440284,6.4763427,0.3314469,-2.0252564,1.448584,0.087084964,133.0
24449,-12.563787,6.880781,0.18847287,-2.0252564,1.448584,0.087084964,133.0
24450,-12.563787,6.880781,0.18847287,-1.2531738,1.2945923,0.34940186,133.0
24451,-10.074919,5.7475815,-0.2685088,-1.2531738,1.2945923,0.34940186,133.0
24452,-10.074919,5.7475815,-0.2685088,-0.39506838,1.1161743,0.6053467,133.0
24453,-6.669799,3.7832704,-0.87987053,-0.39506838,1.1161743,0.6053467,133.0
24454,-6.669799,3.7832704,-0.87987053,0.3430298,0.89846194,0.89846194,133.0
24455,-3.5537586,2.0089283,-1.3104515,0.3430298,0.89846194,0.89846194,133.0
24456,-3.5537586,2.0089283,-1.3104515,0.8687256,0.6159668,1.2329956,133.0
24457,-3.5537586,2.0089283,-1.3104515,0.8687256,0.6159668,1.2329956,130.0
24458,-0.864357,0.5227921,-1.4280732,0.8687256,0.6159668,1.2329956,130.0
24459,-0.864357,0.5227921,-1.4280732,1.3307008,0.42161867,1.716211,130.0
24460,1.5451603,-0.6728674,-1.2671411,1.3307008,0.42161867,1.716211,130.0
24461,1.5451603,-0.6728674,-1.2671411,1.3455689,0.2782471,2.5902467,130.0
24462,3.4040356,-1.818543,-1.3612838,1.3455689,0.2782471,2.5902467,130.0
24463,3.4040356,-1.818543,-1.3612838,1.0120972,0.043542482,3.5067627,130.0
24464,4.5557604,-4.720484,-2.3724256,1.0120972,0.043542482,3.5067627,130.0
24465,4.5557604,-4.720484,-2.3724256,0.6860596,-0.5055176,3.974048,130.0
24466,5.9749193,-10.609602,-3.574149,0.6860596,-0.5055176,3.974048,130.0
24467,5.9749193,-10.609602,-3.574149,1.5038086,-1.3349488,3.8986452,130.0
24468,10.575296,-17.848913,-3.037847,1.5038086,-1.3349488,3.8986452,130.0
24469,10.575296,-17.848913,-3.037847,2.252527,-2.8695557,4.14397,130.0
24470,19.068161,-19.602324,-0.87034106,2.252527,-2.8695557,4.14397,130.0
24471,19.068161,-19.602324,-0.87034106,2.1388917,-2.6592774,4.2066283,130.0
24472,22.67666,-10.898327,0.95024824,2.1388917,-2.6592774,4.2066283,130.0
24473,22.67666,-10.898327,0.95024824,1.3901733,-1.1501588,4.4636354,130.0
24474,16.178425,2.5001736,0.97318697,1.3901733,-1.1501588,4.4636354,130.0
24475,16.178425,2.5001736,0.97318697,0.78376466,-1.5802735,3.703235,130.0
24476,6.6877975,12.655547,-0.45219994,0.78376466,-1.5802735,3.703235,130.0
24477,6.6877975,12.655547,-0.45219994,0.093457036,-1.7300171,2.34917,130.0
24478,0.1756897,16.470312,-0.85630345,0.093457036,-1.7300171,2.34917,130.0
24479,0.1756897,16.470312,-0.85630345,-0.3069214,-2.2057984,1.3922974,130.0
24480,-2.1914186,15.247881,0.16160035,-0.3069214,-2.2057984,1.3922974,130.0
24481,-2.1914186,15.247881,0.16160035,-0.09451904,-2.3693483,0.5479981,130.0
24482,-2.1985817,12.842201,1.0510576,-0.09451904,-2.3693483,0.5479981,130.0
24483,-2.1985817,12.842201,1.0510576,0.1359375,-2.1410158,-0.121069334,130.0
24484,-2.3452425,11.5903015,1.0929701,0.1359375,-2.1410158,-0.121069334,130.0
24485,-2.3452425,11.5903015,1.0929701,0.0053100586,-1.8192261,-0.5511841,130.0
24486,-3.3341284,10.911976,0.7464831,0.0053100586,-1.8192261,-0.5511841,130.0
24487,-3.3341284,10.911976,0.7464831,-0.09451904,-1.4984986,-0.74447024,130.0
24488,-4.330047,9.714102,0.5069033,-0.09451904,-1.4984986,-0.74447024,130.0
24489,-4.330047,9.714102,0.5069033,-0.124255374,-1.1501588,-0.8591675,130.0
24490,-4.5435786,7.929912,0.3288015,-0.124255374,-1.1501588,-0.8591675,130.0
24491,-4.5435786,7.929912,0.3288015,0.08814698,-0.6860596,-1.1565307,130.0
24492,-4.003308,6.082699,0.07207441,0.08814698,-0.6860596,-1.1565307,130.0
24493,-4.003308,6.082699,0.07207441,0.23895264,-0.07752686,-1.6524903,130.0
24494,-3.1143773,4.291977,-0.35116625,0.23895264,-0.07752686,-1.6524903,130.0
24495,-3.1143773,4.291977,-0.35116625,0.012744141,0.52038574,-2.2461548,130.0
24496,-2.2550516,2.2291012,-0.7086307,0.012744141,0.52038574,-2.2461548,130.0
24497,-2.2550516,2.2291012,-0.7086307,-0.06159668,1.0004151,-2.8270752,130.0
24498,-2.2550516,2.2291012,-0.7086307,0.0998291,1.3774292,-3.0437257,130.0
24499,-1.4761362,0.0368824,-0.42981958,0.0998291,1.3774292,-3.0437257,130.0
24500,6.019042,-12.376549,0.5817914,0.0998291,1.3774292,-3.0437257,130.0
24501,6.019042,-12.376549,0.5817914,0.40250245,1.8266602,-3.0447876,130.0
24502,6.019042,-12.376549,0.5817914,0.33240968,1.7640015,-2.981067,130.0
24503,6.019042,-12.376549,0.5817914,-0.46622315,1.0450195,-3.2391357,130.0
24504,10.651123,-17.323042,-0.16142225,-0.46622315,1.0450195,-3.2391357,130.0
24505,10.651123,-17.323042,-0.16142225,-2.0677369,1.3222046,-2.8546875,130.0
24506,10.6615715,-18.897936,1.0104618,-2.0677369,1.3222046,-2.8546875,130.0
24507,10.6615715,-18.897936,1.0104618,-3.42074,1.4921265,-1.806482,130.0
24508,4.8696136,-16.054848,2.6395218,-3.42074,1.4921265,-1.806482,130.0
24509,4.8696136,-16.054848,2.6395218,-1.8648926,1.4655762,-1.1671509,130.0
24510,-2.3301764,-10.301349,2.6281457,-1.8648926,1.4655762,-1.1671509,130.0
24511,-2.3301764,-10.301349,2.6281457,0.63720703,1.4209718,-1.0237793,130.0
24512,-7.8403497,-3.7430687,2.2409077,0.63720703,1.4209718,-1.0237793,130.0
24513,-7.8403497,-3.7430687,2.2409077,1.7693115,1.6153198,-1.1342286,130.0
24514,-10.598745,1.8813629,2.0894792,1.7693115,1.6153198,-1.1342286,130.0
24515,-10.598745,1.8813629,2.0894792,0.8952759,2.168628,-1.4857544,130.0
24516,-11.764103,5.104346,1.3649061,0.8952759,2.168628,-1.4857544,130.0
24517,-11.764103,5.104346,1.3649061,-1.1119263,2.3651001,-1.6556762,130.0
24518,-12.2588415,5.9171925,0.10779405,-1.1119263,2.3651001,-1.6556762,130.0
24519,-12.2588415,5.9171925,0.10779405,-2.6539674,2.3863404,-1.6206299,130.0
24520,-12.226104,5.663405,-0.89792,-2.6539674,2.3863404,-1.6206299,130.0
24521,-12.226104,5.663405,-0.89792,-2.8398194,2.4723632,-1.0588257,130.0
24522,-11.547302,4.685021,-1.3770152,-2.8398194,2.4723632,-1.0588257,130.0
24523,-11.547302,4.685021,-1.3770152,-1.8245362,2.619983,-0.13275146,130.0
24524,-9.168676,3.157648,-1.9742563,-1.8245362,2.619983,-0.13275146,130.0
24525,-9.168676,3.157648,-1.9742563,-0.4609131,2.2865112,0.65632325,130.0
24526,-5.2042894,2.2918656,-2.9455183,-0.4609131,2.2865112,0.65632325,130.0
24527,-5.2042894,2.2918656,-2.9455183,0.25063476,1.8648926,1.1193603,130.0
24528,-1.4935093,2.0827112,-3.3692687,0.25063476,1.8648926,1.1193603,130.0
24529,-1.4935093,2.0827112,-3.3692687,0.28461915,1.6684204,1.545227,130.0
24530,0.869133,1.3526313,-2.8958545,0.28461915,1.6684204,1.545227,130.0
24531,0.869133,1.3526313,-2.8958545,0.34940186,1.6514282,2.2514648,130.0
24532,2.0121155,0.08826959,-1.855856,0.34940186,1.6514282,2.2514648,130.0
24533,2.0121155,0.08826959,-1.855856,0.52250975,1.4613281,3.3187866,130.0
24534,2.466919,-1.1762105,-0.8228195,0.52250975,1.4613281,3.3187866,130.0
24535,2.466919,-1.1762105,-0.8228195,0.6552612,1.1321045,4.065381,130.0
24536,3.211072,-3.8674212,0.030855894,0.6552612,1.1321045,4.065381,130.0
24537,3.211072,-3.8674212,0.030855894,1.3678712,0.7168579,4.393543,130.0
24538,5.0975075,-8.531632,1.2932396,1.3678712,0.7168579,4.393543,130.0
24539,5.0975075,-8.531632,1.2932396,2.2100465,0.35046387,4.248047,130.0
24540,8.294498,-12.378944,2.8892794,2.2100465,0.35046387,4.248047,130.0
24541,8.294498,-12.378944,2.8892794,1.8702027,0.16885987,3.9071412,130.0
24542,12.189822,-12.471735,4.3478737,1.8702027,0.16885987,3.9071412,130.0
24543,12.189822,-12.471735,4.3478737,0.8857178,-0.046728518,4.53479,130.0
24544,13.347219,-7.976802,5.194632,0.8857178,-0.046728518,4.53479,130.0
24545,13.347219,-7.976802,5.194632,0.48321533,-0.33771974,4.223621,130.0
24546,10.001188,-0.5063324,4.979204,0.48321533,-0.33771974,4.223621,130.0
24547,10.001188,-0.5063324,4.979204,1.1947632,-0.34090576,3.4186158,130.0
24548,10.001188,-0.5063324,4.979204,1.1947632,-0.34090576,3.4186158,126.0
24549,4.798583,7.094434,3.6211443,1.1947632,-0.34090576,3.4186158,126.0
24550,4.798583,7.094434,3.6211443,1.6970948,-0.11151123,2.35979,126.0
24551,0.5618768,12.130344,1.3950479,1.6970948,-0.11151123,2.35979,126.0
24552,0.5618768,12.130344,1.3950479,1.0216553,0.24532472,1.3731812,126.0
24553,-1.3392191,13.295194,-0.6344013,1.0216553,0.24532472,1.3731812,126.0
24554,-1.3392191,13.295194,-0.6344013,-0.26762697,0.4800293,0.6701294,126.0
24555,-1.428834,11.669676,-1.7961564,-0.26762697,0.4800293,0.6701294,126.0
24556,-1.428834,11.669676,-1.7961564,-1.3997315,0.66481936,0.10089111,126.0
24557,-0.83189774,8.497911,-2.6626818,-1.3997315,0.66481936,0.10089111,126.0
24558,-0.83189774,8.497911,-2.6626818,-1.2956543,1.0683838,0.060534667,126.0
24559,-0.094522,5.011366,-3.8960514,-1.2956543,1.0683838,0.060534667,126.0
24560,-0.094522,5.011366,-3.8960514,0.121069334,0.9218262,0.34833986,126.0
24561,0.47466326,2.927318,-5.5439897,0.121069334,0.9218262,0.34833986,126.0
24562,0.47466326,2.927318,-5.5439897,0.901648,0.46728516,0.7051758,126.0
24563,0.9466982,1.7957606,-6.576073,0.901648,0.46728516,0.7051758,126.0
24564,0.9466982,1.7957606,-6.576073,1.2945923,-0.20072022,0.84323734,126.0
24565,1.6296611,0.63354445,-5.8499947,1.2945923,-0.20072022,0.84323734,126.0
24566,1.6296611,0.63354445,-5.8499947,1.3880494,-0.72960204,0.79226077,126.0
24567,2.4234552,0.070153475,-3.3696685,1.3880494,-0.72960204,0.79226077,126.0
24568,2.4234552,0.070153475,-3.3696685,1.6131958,-0.7168579,0.70198977,126.0
24569,2.4234552,0.070153475,-3.3696685,1.5144287,0.047790527,0.63614506,126.0
24570,2.6283026,0.93205047,-0.26391077,1.5144287,0.047790527,0.63614506,126.0
24571,-0.0639596,0.86088705,3.4651165,1.5144287,0.047790527,0.63614506,126.0
24572,-0.0639596,0.86088705,3.4651165,1.0142212,0.9505005,0.3695801,126.0
24573,-0.0639596,0.86088705,3.4651165,0.5055176,0.9802368,-0.5256958,126.0
24574,-0.0639596,0.86088705,3.4651165,0.022302246,0.6690674,-1.2584839,126.0
24575,-1.1035361,-2.477233,4.973277,0.022302246,0.6690674,-1.2584839,126.0
24576,-1.1035361,-2.477233,4.973277,-0.04460449,0.38551027,-2.1218994,126.0
24577,-1.8749676,-5.3324823,5.823764,-0.04460449,0.38551027,-2.1218994,126.0
24578,-1.8749676,-5.3324823,5.823764,-0.19541016,-0.14549561,-2.4681153,126.0
24579,-2.2951522,-6.644929,4.162612,-0.19541016,-0.14549561,-2.4681153,126.0
24580,-2.2951522,-6.644929,4.162612,0.04991455,-1.2574219,-2.3884645,126.0
24581,-2.4890513,-6.3896856,2.277624,0.04991455,-1.2574219,-2.3884645,126.0
24582,-2.4890513,-6.3896856,2.277624,-0.057348635,-1.9615357,-2.4713013,126.0
24583,-2.7862484,-4.8851495,1.8964643,-0.057348635,-1.9615357,-2.4713013,126.0
24584,-2.7862484,-4.8851495,1.8964643,-0.7593384,-2.1165893,-2.5690064,126.0
24585,-3.8721874,-2.271462,1.0308921,-0.7593384,-2.1165893,-2.5690064,126.0
24586,-3.8721874,-2.271462,1.0308921,-1.9615357,-1.9604737,-2.7028198,126.0
24587,-5.4485188,0.56249356,-0.9050348,-1.9615357,-1.9604737,-2.7028198,126.0
24588,-5.4485188,0.56249356,-0.9050348,-2.9768188,-1.7512573,-2.8515015,126.0
24589,-6.712514,2.7216868,-2.3237839,-2.9768188,-1.7512573,-2.8515015,126.0
24590,-6.712514,2.7216868,-2.3237839,-3.3846314,-1.359375,-3.0447876,126.0
24591,-7.2733316,3.97691,-2.3470886,-3.3846314,-1.359375,-3.0447876,126.0
24592,-7.2733316,3.97691,-2.3470886,-2.9534547,-0.93350834,-3.0458496,126.0
24593,-7.459815,4.6933813,-1.4516943,-2.9534547,-0.93350834,-3.0458496,126.0
24594,-7.459815,4.6933813,-1.4516943,-2.3980224,-0.6488892,-2.6603394,126.0
24595,-7.6667776,4.583013,-1.1419219,-2.3980224,-0.6488892,-2.6603394,126.0
24596,-7.6667776,4.583013,-1.1419219,-1.9604737,-0.6786255,-2.0231323,126.0
24597,-7.2163696,2.997209,-2.0937867,-1.9604737,-0.6786255,-2.0231323,126.0
24598,-7.2163696,2.997209,-2.0937867,-1.2722901,-0.8527954,-1.2446778,126.0
24599,-5.3790655,0.45716667,-2.4585133,-1.2722901,-0.8527954,-1.2446778,126.0
24600,-5.3790655,0.45716667,-2.4585133,-0.25700685,-1.0057251,-0.44604492,126.0
24601,-2.7387142,-1.7053727,-0.8193619,-0.25700685,-1.0057251,-0.44604492,126.0
24602,-2.7387142,-1.7053727,-0.8193619,0.31329346,-0.91864014,0.48321533,126.0
24603,-0.6864548,-2.4811318,1.1261389,0.31329346,-0.91864014,0.48321533,126.0
24604,-0.6864548,-2.4811318,1.1261389,0.32072756,-0.77739257,1.5781494,126.0
24605,0.16016293,-2.5858698,1.1991534,0.32072756,-0.77739257,1.5781494,126.0
24606,0.16016293,-2.5858698,1.1991534,0.22727051,-0.93775636,2.5923707,126.0
24607,1.0304499,-4.842902,0.0116176605,0.22727051,-0.93775636,2.5923707,126.0
24608,1.0304499,-4.842902,0.0116176605,0.86553955,-0.994043,3.2125854,126.0
24609,3.4482365,-10.329229,0.22853243,0.86553955,-0.994043,3.2125854,126.0
24610,3.4482365,-10.329229,0.22853243,2.3289917,-1.081128,3.4334838,126.0
24611,7.808833,-14.902226,2.5071545,2.3289917,-1.081128,3.4334838,126.0
24612,7.808833,-14.902226,2.5071545,2.7591064,-1.2032593,3.2954223,126.0
24613,12.940426,-13.663553,4.6161,2.7591064,-1.2032593,3.2954223,126.0
24614,12.940426,-13.663553,4.6161,1.1172364,-0.8379273,4.087683,126.0
24615,14.257468,-7.4712353,4.6423426,1.1172364,-0.8379273,4.087683,126.0
24616,14.257468,-7.4712353,4.6423426,0.38444826,-0.9398804,3.9305055,126.0
24617,10.515154,-0.17353344,2.898652,0.38444826,-0.9398804,3.9305055,126.0
24618,10.515154,-0.17353344,2.898652,0.4343628,-1.5919555,3.3846314,126.0
24619,6.168862,5.867631,0.5468757,0.4343628,-1.5919555,3.3846314,126.0
24620,6.168862,5.867631,0.5468757,0.023364259,-2.0709229,2.6635253,126.0
24621,3.7630801,9.536537,-1.5241084,0.023364259,-2.0709229,2.6635253,126.0
24622,3.7630801,9.536537,-1.5241084,-0.51932377,-2.4075806,1.8691406,126.0
24623,3.0045195,10.830927,-2.8690794,-0.51932377,-2.4075806,1.8691406,126.0
24624,3.0045195,10.830927,-2.8690794,-1.1034302,-2.5636964,1.09281,126.0
24625,2.708315,10.71352,-3.5080564,-1.1034302,-2.5636964,1.09281,126.0
24626,2.708315,10.71352,-3.5080564,-1.3115845,-2.439441,0.47578126,126.0
24627,1.5586443,10.159098,-3.547412,-1.3115845,-2.439441,0.47578126,126.0
24628,1.5586443,10.159098,-3.547412,-1.1066163,-2.1346436,-0.08920898,126.0
24629,-0.63293076,9.83514,-3.1425438,-1.1066163,-2.1346436,-0.08920898,126.0
24630,-0.63293076,9.83514,-3.1425438,-0.9589966,-1.7066529,-0.43967286,126.0
24631,-2.8559542,9.779562,-2.601987,-0.9589966,-1.7066529,-0.43967286,126.0
24632,-2.8559542,9.779562,-2.601987,-1.0322754,-1.260608,-0.7890747,126.0
24633,-4.133543,9.288909,-2.1306496,-1.0322754,-1.260608,-0.7890747,126.0
24634,-4.133543,9.288909,-2.1306496,-1.2234375,-0.87191164,-1.2786621,126.0
24635,-4.1494246,7.64132,-1.581717,-1.2234375,-0.87191164,-1.2786621,126.0
24636,-4.1494246,7.64132,-1.581717,-1.2584839,-0.4354248,-1.8808228,126.0
24637,-3.204159,5.0284367,-0.8277025,-1.2584839,-0.4354248,-1.8808228,126.0
24638,-3.204159,5.0284367,-0.8277025,-1.2202514,0.014868164,-2.4840455,126.0
24639,-1.8071139,2.531599,0.0042443275,-1.2202514,0.014868164,-2.4840455,126.0
24640,-1.8071139,2.531599,0.0042443275,-1.0482056,0.3462158,-3.0532837,126.0
24641,-0.44063735,0.85396576,0.88586617,-1.0482056,0.3462158,-3.0532837,126.0
24642,-0.44063735,0.85396576,0.88586617,-0.9388184,0.6149048,-3.2327638,126.0
24643,-0.44063735,0.85396576,0.88586617,-0.6701294,0.8772217,-3.3325927,126.0
24644,0.60653543,-0.87509155,1.886647,-0.6701294,0.8772217,-3.3325927,126.0
24645,5.874242,-12.119934,2.9845984,-0.6701294,0.8772217,-3.3325927,126.0
24646,5.874242,-12.119934,2.9845984,-0.25594482,0.93775636,-3.4674683,126.0
24647,5.874242,-12.119934,2.9845984,0.77739257,0.7349121,-3.618274,126.0
24648,9.956376,-17.507568,3.451485,0.77739257,0.7349121,-3.618274,126.0
24649,9.956376,-17.507568,3.451485,0.39082032,1.0152832,-3.1010742,126.0
24650,9.991066,-17.884193,4.2188416,0.39082032,1.0152832,-3.1010742,126.0
24651,9.991066,-17.884193,4.2188416,-1.7459472,1.7937378,-2.1229615,126.0
24652,4.5044746,-13.703936,3.740784,-1.7459472,1.7937378,-2.1229615,126.0
24653,4.5044746,-13.703936,3.740784,-2.4139526,1.8043579,-1.447522,126.0
24654,4.5044746,-13.703936,3.740784,-2.4139526,1.8043579,-1.447522,132.0
24655,-2.2735443,-7.0537004,1.7973514,-2.4139526,1.8043579,-1.447522,132.0
24656,-2.2735443,-7.0537004,1.7973514,-2.807959,1.8786987,-1.175647,132.0
24657,-7.2691164,-1.2726965,-0.26647675,-2.807959,1.8786987,-1.175647,132.0
24658,-7.2691164,-1.2726965,-0.26647675,-2.6157348,1.8479004,-1.2744141,132.0
24659,-9.814195,1.9277782,-1.6702005,-2.6157348,1.8479004,-1.2744141,132.0
24660,-9.814195,1.9277782,-1.6702005,-2.3778443,1.7268311,-1.2860962,132.0
24661,-10.606556,3.350719,-2.442337,-2.3778443,1.7268311,-1.2860962,132.0
24662,-10.606556,3.350719,-2.442337,-2.2971313,1.6386842,-1.356189,132.0
24663,-10.647599,4.037387,-2.5415528,-2.2971313,1.6386842,-1.356189,132.0
24664,-10.647599,4.037387,-2.5415528,-2.1548219,1.540979,-1.2595459,132.0
24665,-10.392579,4.840481,-2.0391262,-2.1548219,1.540979,-1.2595459,132.0
24666,-10.392579,4.840481,-2.0391262,-1.9243653,1.4666382,-1.0152832,132.0
24667,-10.198768,5.6617765,-1.4640768,-1.9243653,1.4666382,-1.0152832,132.0
24668,-10.198768,5.6617765,-1.4640768,-1.3041505,1.3168945,-0.5979126,132.0
24669,-9.975311,5.848953,-1.3647795,-1.3041505,1.3168945,-0.5979126,132.0
24670,-9.975311,5.848953,-1.3647795,-0.39506838,1.0312134,-0.19434814,132.0
24671,-8.832629,5.165796,-1.598269,-0.39506838,1.0312134,-0.19434814,132.0
24672,-8.832629,5.165796,-1.598269,0.18797608,0.63933104,-0.026550293,132.0
24673,-6.4328766,3.3522289,-1.3733418,0.18797608,0.63933104,-0.026550293,132.0
24674,-6.4328766,3.3522289,-1.3733418,0.29523927,0.27718505,0.271875,132.0
24675,-3.5215216,0.58789885,-0.36160076,0.29523927,0.27718505,0.271875,132.0
24676,-3.5215216,0.58789885,-0.36160076,0.4428589,-0.08283692,0.83049315,132.0
24677,-0.92887497,-1.8507869,0.7377579,0.4428589,-0.08283692,0.83049315,132.0
24678,-0.92887497,-1.8507869,0.7377579,0.7476563,-0.48321533,1.8287842,132.0
24679,1.089469,-3.7047997,1.0165002,0.7476563,-0.48321533,1.8287842,132.0
24680,1.089469,-3.7047997,1.0165002,0.8315552,-0.90908206,2.7368042,132.0
24681,3.1629324,-7.057309,0.7201582,0.8315552,-0.90908206,2.7368042,132.0
24682,3.1629324,-7.057309,0.7201582,0.9260742,-1.1459106,3.4133058,132.0
24683,6.3138304,-13.053476,0.7943394,0.9260742,-1.1459106,3.4133058,132.0
24684,6.3138304,-13.053476,0.7943394,2.1112792,-1.4517701,3.797754,132.0
24685,11.562674,-18.088558,1.4656596,2.1112792,-1.4517701,3.797754,132.0
24686,11.562674,-18.088558,1.4656596,3.0171754,-2.1845582,4.2066283,132.0
24687,17.499321,-16.616478,1.6786556,3.0171754,-2.1845582,4.2066283,132.0
24688,17.499321,-16.616478,1.6786556,2.4670532,-1.8011719,4.5995727,132.0
24689,18.683685,-7.9268,1.1590989,2.4670532,-1.8011719,4.5995727,132.0
24690,18.683685,-7.9268,1.1590989,0.4163086,-1.1299804,4.2384887,132.0
24691,13.6838875,2.4874783,0.41012818,0.4163086,-1.1299804,4.2384887,132.0
24692,13.6838875,2.4874783,0.41012818,-0.77314454,-1.2595459,3.4738405,132.0
24693,6.93793,9.289849,-0.6065288,-0.77314454,-1.2595459,3.4738405,132.0
24694,6.93793,9.289849,-0.6065288,-0.5363159,-1.5526612,2.443689,132.0
24695,1.8191309,12.119221,-1.3386776,-0.5363159,-1.5526612,2.443689,132.0
24696,1.8191309,12.119221,-1.3386776,0.1731079,-2.1059692,1.5016845,132.0
24697,-0.6579032,13.186478,-1.5915232,0.1731079,-2.1059692,1.5016845,132.0
24698,-0.6579032,13.186478,-1.5915232,0.54693604,-2.3141236,0.6924316,132.0
24699,-1.2363935,13.750671,-1.7360604,0.54693604,-2.3141236,0.6924316,132.0
24700,-1.2363935,13.750671,-1.7360604,0.38338622,-2.262085,0.14337158,132.0
24701,-1.5314245,13.44939,-1.8688166,0.38338622,-2.262085,0.14337158,132.0
24702,-1.5314245,13.44939,-1.8688166,-0.1274414,-1.9615357,-0.22408448,132.0
24703,-2.497552,12.206754,-1.9519746,-0.1274414,-1.9615357,-0.22408448,132.0
24704,-2.497552,12.206754,-1.9519746,-0.5649902,-1.6599244,-0.5140137,132.0
24705,-3.5704656,10.536363,-1.9919021,-0.5649902,-1.6599244,-0.5140137,132.0
24706,-3.5704656,10.536363,-1.9919021,-0.73597413,-1.4082276,-0.8889038,132.0
24707,-3.680933,8.628675,-1.983402,-0.73597413,-1.4082276,-0.8889038,132.0
24708,-3.680933,8.628675,-1.983402,-0.62552494,-0.9345703,-1.4517701,132.0
24709,-2.840132,6.4567976,-1.720181,-0.62552494,-0.9345703,-1.4517701,132.0
24710,-2.840132,6.4567976,-1.720181,-0.55543214,-0.2516968,-2.2100465,132.0
24711,-1.7199326,3.9855309,-1.1612523,-0.55543214,-0.2516968,-2.2100465,132.0
24712,-1.7199326,3.9855309,-1.1612523,-0.62552494,0.32816163,-3.0150514,132.0
24713,-0.7153504,1.4655972,-0.3836403,-0.62552494,0.32816163,-3.0150514,132.0
24714,-0.7153504,1.4655972,-0.3836403,-0.37807617,0.68074954,-3.4961426,132.0
24715,-0.7153504,1.4655972,-0.3836403,-0.015930176,0.8496094,-3.5630493,132.0
24716,-0.054567814,-0.69331837,0.7839079,-0.015930176,0.8496094,-3.5630493,132.0
24717,5.6085434,-9.406474,2.424502,-0.015930176,0.8496094,-3.5630493,132.0
24718,5.6085434,-9.406474,2.424502,-0.022302246,0.6754395,-4.009094,132.0
24719,5.6085434,-9.406474,2.424502,-0.79226077,0.11682129,-4.5634646,132.0
24720,5.6085434,-9.406474,2.424502,-2.1962402,-0.7890747,-4.3457522,132.0
24721,12.47785,-17.664963,4.367202,-2.1962402,-0.7890747,-4.3457522,132.0
24722,12.47785,-17.664963,4.367202,-2.3215578,-0.81668705,-3.338965,132.0
24723,15.473736,-23.177673,6.0923333,-2.3215578,-0.81668705,-3.338965,132.0
24724,15.473736,-23.177673,6.0923333,-1.0726318,1.178833,-1.6875366,132.0
24725,7.659897,-18.88357,5.183645,-1.0726318,1.178833,-1.6875366,132.0
24726,7.659897,-18.88357,5.183645,-0.28461915,1.1607789,-0.89102787,132.0
24727,-4.0723877,-8.179646,2.5299847,-0.28461915,1.1607789,-0.89102787,132.0
24728,-4.0723877,-8.179646,2.5299847,-1.3296387,1.4995606,-0.63720703,132.0
24729,-11.060608,0.26402283,0.26914155,-1.3296387,1.4995606,-0.63720703,132.0
24730,-11.060608,0.26402283,0.26914155,-2.3672242,1.7353271,-0.78164065,132.0
24731,-12.432068,3.1273928,-0.7694279,-2.3672242,1.7353271,-0.78164065,132.0
24732,-12.432068,3.1273928,-0.7694279,-2.5159059,2.0093262,-0.6881836,132.0
24733,-11.706433,3.0782447,-1.2312894,-2.5159059,2.0093262,-0.6881836,132.0
24734,-11.706433,3.0782447,-1.2312894,-2.524402,2.1218994,-0.8496094,132.0
24735,-11.563438,3.051036,-1.5653782,-2.524402,2.1218994,-0.8496094,132.0
24736,-11.563438,3.051036,-1.5653782,-2.433069,1.9859619,-0.9197022,132.0
24737,-11.783319,4.1430383,-1.6181839,-2.433069,1.9859619,-0.9197022,132.0
24738,-11.783319,4.1430383,-1.6181839,-2.259961,1.7809937,-0.8729736,132.0
24739,-11.783319,4.1430383,-1.6181839,-2.259961,1.7809937,-0.8729736,136.0
24740,-11.427387,5.5201683,-1.2455481,-2.259961,1.7809937,-0.8729736,136.0
24741,-11.427387,5.5201683,-1.2455481,-2.1877441,1.5760254,-0.630835,136.0
24742,-10.563614,5.5874605,-0.47695607,-2.1877441,1.5760254,-0.630835,136.0
24743,-10.563614,5.5874605,-0.47695607,-1.4369019,1.1448487,-0.1359375,136.0
24744,-9.759449,4.0651712,0.3107081,-1.4369019,1.1448487,-0.1359375,136.0
24745,-9.759449,4.0651712,0.3107081,0.090270996,0.5649902,0.10407715,136.0
24746,-8.397354,2.054432,0.63230675,0.090270996,0.5649902,0.10407715,136.0
24747,-8.397354,2.054432,0.63230675,1.4092896,0.0010620117,0.4078125,136.0
24748,-5.282666,-0.071493626,0.8377912,1.4092896,0.0010620117,0.4078125,136.0
24749,-5.282666,-0.071493626,0.8377912,1.7342652,-0.4067505,1.1257324,136.0
24750,-1.0805521,-2.0270436,1.0579526,1.7342652,-0.4067505,1.1257324,136.0
24751,-1.0805521,-2.0270436,1.0579526,1.5144287,-0.63614506,2.18562,136.0
24752,2.2172108,-3.394804,0.44787586,1.5144287,-0.63614506,2.18562,136.0
24753,2.2172108,-3.394804,0.44787586,1.5473511,-0.83049315,3.2157714,136.0
24754,4.210658,-5.53994,-0.96883553,1.5473511,-0.83049315,3.2157714,136.0
24755,4.210658,-5.53994,-0.96883553,1.8255981,-0.9897949,3.9485595,136.0
24756,6.466317,-9.982183,-1.9444532,1.8255981,-0.9897949,3.9485595,136.0
24757,6.466317,-9.982183,-1.9444532,2.348108,-1.1522827,4.4933715,136.0
24758,10.482123,-15.110577,-1.8109703,2.348108,-1.1522827,4.4933715,136.0
24759,10.482123,-15.110577,-1.8109703,2.0475585,-1.539917,5.182617,136.0
24760,15.914727,-16.61063,-1.2769012,2.0475585,-1.539917,5.182617,136.0
24761,15.914727,-16.61063,-1.2769012,0.36002198,-1.2892822,6.0035524,136.0
24762,18.819574,-12.047573,-0.6054809,0.36002198,-1.2892822,6.0035524,136.0
24763,18.819574,-12.047573,-0.6054809,-0.33134767,-1.0290893,5.982312,136.0
24764,16.477755,-2.881382,0.51712894,-0.33134767,-1.0290893,5.982312,136.0
