,accx,accy,accz,gyrox,gyroy,gyroz,heart rate
17929,run,run,run,run,run,run,run
17930,-0.14472985,-0.047973633,-0.15649414,-0.0053100586,0.08496094,0.019116212,81.0
17931,-0.14472985,-0.047973633,-0.15649414,0.021240234,0.013806152,0.016992187,81.0
17932,-0.11834741,-0.034568787,-0.12456131,0.021240234,0.013806152,0.016992187,81.0
17933,-0.09893823,-0.027656555,-0.09875488,0.021240234,0.013806152,0.016992187,81.0
17934,-0.09893823,-0.027656555,-0.09875488,-0.014868164,0.023364259,-0.014868164,81.0
17935,-1.9627445,3.6607742,-0.22013092,-0.014868164,0.023364259,-0.014868164,81.0
17936,-1.9627445,3.6607742,-0.22013092,0.004248047,0.012744141,-0.03079834,81.0
17937,-1.5758841,2.883232,-0.09143829,0.004248047,0.012744141,-0.03079834,81.0
17938,-1.5758841,2.883232,-0.09143829,-0.020178223,0.010620117,-0.016992187,81.0
17939,-1.263161,2.2936935,-0.0038146973,-0.020178223,0.010620117,-0.016992187,81.0
17940,-1.263161,2.2936935,-0.0038146973,-0.043542482,0.013806152,-0.004248047,81.0
17941,-1.005414,1.7933884,0.16201401,-0.043542482,0.013806152,-0.004248047,81.0
17942,-1.005414,1.7933884,0.16201401,-0.04885254,0.013806152,0.013806152,81.0
17943,-0.8103857,1.415535,0.15295029,-0.04885254,0.013806152,0.013806152,81.0
17944,-0.8103857,1.415535,0.15295029,-0.029736329,0.011682129,0.011682129,81.0
17945,-0.6584892,1.1327591,0.11906433,-0.029736329,0.011682129,0.011682129,81.0
17946,-0.6584892,1.1327591,0.11906433,0.0010620117,0.015930176,0.004248047,81.0
17947,-0.6584892,1.1327591,0.11906433,0.0,0.014868164,0.004248047,81.0
17948,-0.5256562,0.91719055,0.08811951,0.0,0.014868164,0.004248047,81.0
17949,-0.42695808,0.76483154,-0.024719238,0.0,0.014868164,0.004248047,81.0
17950,-0.42695808,0.76483154,-0.024719238,0.0031860352,0.011682129,0.0031860352,81.0
17951,-0.34549713,0.61109924,-0.07339859,0.0031860352,0.011682129,0.0031860352,81.0
17952,-0.34549713,0.61109924,-0.07339859,-0.009558106,0.0010620117,0.012744141,81.0
17953,-0.3008728,0.38414,-0.1898117,-0.009558106,0.0010620117,0.012744141,81.0
17954,-0.3008728,0.38414,-0.1898117,-0.12531738,-0.019116212,-0.035046387,81.0
17955,-0.24895,0.21308899,-0.16059875,-0.12531738,-0.019116212,-0.035046387,81.0
17956,-0.24895,0.21308899,-0.16059875,-0.10513916,-0.022302246,-0.04141846,81.0
17957,-0.16812992,0.25740814,-0.03319168,-0.10513916,-0.022302246,-0.04141846,81.0
17958,-0.16812992,0.25740814,-0.03319168,-0.29948732,-0.023364259,0.0010620117,81.0
17959,-0.14324427,0.20258331,0.009700775,-0.29948732,-0.023364259,0.0010620117,81.0
17960,-0.14324427,0.20258331,0.009700775,-0.6605713,-0.0637207,-0.16673584,81.0
17961,-0.07427549,0.05369568,0.121860504,-0.6605713,-0.0637207,-0.16673584,81.0
17962,-0.07427549,0.05369568,0.121860504,0.004248047,-0.029736329,-0.021240234,81.0
17963,-0.068136215,0.018737793,0.12732315,0.004248047,-0.029736329,-0.021240234,81.0
17964,-0.068136215,0.018737793,0.12732315,-0.04248047,-0.020178223,-0.021240234,81.0
17965,-0.08994627,0.09616852,0.13484192,-0.04248047,-0.020178223,-0.021240234,81.0
17966,-0.08994627,0.09616852,0.13484192,-0.13168946,-0.020178223,-0.023364259,81.0
17967,-0.06842899,0.11432648,0.16417313,-0.13168946,-0.020178223,-0.023364259,81.0
17968,-0.06842899,0.11432648,0.16417313,-0.06796875,-0.02442627,-0.02442627,81.0
17969,-0.039423466,0.0767746,0.1807785,-0.06796875,-0.02442627,-0.02442627,81.0
17970,-0.039423466,0.0767746,0.1807785,-0.05522461,-0.011682129,-0.012744141,81.0
17971,-0.023762703,0.024513245,0.14426804,-0.05522461,-0.011682129,-0.012744141,81.0
17972,-0.023762703,0.024513245,0.14426804,-0.053100586,0.0021240234,-0.025488282,81.0
17973,-0.016703129,-0.005630493,0.08094025,-0.053100586,0.0021240234,-0.025488282,81.0
17974,-0.016703129,-0.005630493,0.08094025,-0.052038576,0.008496094,-0.025488282,81.0
17975,-0.019881248,-0.015731812,0.030647278,-0.052038576,0.008496094,-0.025488282,81.0
17976,-0.019881248,-0.015731812,0.030647278,-0.035046387,0.015930176,-0.022302246,81.0
17977,-0.015746117,-0.0015106201,0.008930206,-0.035046387,0.015930176,-0.022302246,81.0
17978,-0.015746117,-0.0015106201,0.008930206,-0.04141846,0.007434082,-0.03186035,81.0
17979,-0.012291908,0.0018692017,-0.019981384,-0.04141846,0.007434082,-0.03186035,81.0
17980,-0.012291908,0.0018692017,-0.019981384,-0.046728518,-0.0010620117,-0.046728518,81.0
17981,-0.012291908,0.0018692017,-0.019981384,-0.04141846,-0.0031860352,-0.06159668,81.0
17982,-0.001789093,-0.00957489,-0.06222534,-0.04141846,-0.0031860352,-0.06159668,81.0
17983,0.00679636,-0.014884949,-0.09222412,-0.04141846,-0.0031860352,-0.06159668,81.0
17984,0.00679636,-0.014884949,-0.09222412,-0.045666505,-0.010620117,-0.078588866,81.0
17985,0.018413067,-0.019317627,-0.12791443,-0.045666505,-0.010620117,-0.078588866,81.0
17986,0.018413067,-0.019317627,-0.12791443,-0.050976563,-0.011682129,-0.09133301,81.0
17987,0.028634071,-0.025352478,-0.1453247,-0.050976563,-0.011682129,-0.09133301,81.0
17988,0.028634071,-0.025352478,-0.1453247,-0.06796875,-0.012744141,-0.10195313,81.0
17989,0.01946497,-0.0033950806,-0.14431,-0.06796875,-0.012744141,-0.10195313,81.0
17990,0.01946497,-0.0033950806,-0.14431,-0.06796875,-0.028674318,-0.11257324,81.0
17991,0.0051350594,0.053718567,-0.1711998,-0.06796875,-0.028674318,-0.11257324,81.0
17992,0.0051350594,0.053718567,-0.1711998,-0.06584473,-0.052038576,-0.12850343,81.0
17993,-3.3521652E-4,0.12859344,-0.20476913,-0.06584473,-0.052038576,-0.12850343,81.0
17994,-3.3521652E-4,0.12859344,-0.20476913,-0.08496094,-0.070092775,-0.16036378,81.0
17995,0.025622845,0.18997955,-0.19807816,-0.08496094,-0.070092775,-0.16036378,81.0
17996,0.025622845,0.18997955,-0.19807816,-0.10513916,-0.08496094,-0.19434814,81.0
17997,0.07828617,0.22593689,-0.1435585,-0.10513916,-0.08496094,-0.19434814,81.0
17998,0.07828617,0.22593689,-0.1435585,-0.15930176,-0.09451904,-0.21346436,81.0
17999,0.07828617,0.22593689,-0.1435585,-0.20284425,-0.08814698,-0.21877442,81.0
18000,0.10467005,0.2691269,-0.12346268,-0.20284425,-0.08814698,-0.21877442,81.0
18001,0.08113575,0.34371948,-0.17575836,-0.20284425,-0.08814698,-0.21877442,81.0
18002,0.08113575,0.34371948,-0.17575836,-0.17841797,-0.06796875,-0.19753419,81.0
18003,0.04554844,0.43013,-0.27072144,-0.17841797,-0.06796875,-0.19753419,81.0
18004,0.04554844,0.43013,-0.27072144,-0.15080567,-0.0637207,-0.16036378,81.0
18005,0.04808426,0.49938965,-0.35065842,-0.15080567,-0.0637207,-0.16036378,81.0
18006,0.04808426,0.49938965,-0.35065842,-0.15505372,-0.07434082,-0.13275146,81.0
18007,0.11247873,0.5165863,-0.35858917,-0.15505372,-0.07434082,-0.13275146,81.0
18008,0.11247873,0.5165863,-0.35858917,-0.16779785,-0.11257324,-0.11257324,81.0
18009,0.20228767,0.49047852,-0.2849884,-0.16779785,-0.11257324,-0.11257324,81.0
18010,0.20228767,0.49047852,-0.2849884,-0.10301514,-0.13275146,-0.07540283,81.0
18011,0.26720142,0.4587021,-0.16442871,-0.10301514,-0.13275146,-0.07540283,81.0
18012,0.26720142,0.4587021,-0.16442871,-0.052038576,-0.14018555,-0.046728518,81.0
18013,0.27820206,0.4782791,-0.060447693,-0.052038576,-0.14018555,-0.046728518,81.0
18014,0.27820206,0.4782791,-0.060447693,-0.04141846,-0.1444336,-0.05628662,81.0
18015,0.22585773,0.5191574,-0.0184021,-0.04141846,-0.1444336,-0.05628662,81.0
18016,0.22585773,0.5191574,-0.0184021,-0.0361084,-0.1083252,-0.09239502,81.0
18017,0.117807865,0.52316284,-0.025939941,-0.0361084,-0.1083252,-0.09239502,81.0
18018,0.117807865,0.52316284,-0.025939941,-0.07540283,-0.07434082,-0.1539917,81.0
18019,-0.0033369064,0.46633148,-0.062171936,-0.07540283,-0.07434082,-0.1539917,81.0
18020,-0.0033369064,0.46633148,-0.062171936,-0.12956543,-0.04141846,-0.22302246,81.0
18021,-0.08413935,0.30428314,-0.06758499,-0.12956543,-0.04141846,-0.22302246,81.0
18022,-0.08413935,0.30428314,-0.06758499,-0.14868164,-0.020178223,-0.28674316,81.0
18023,-0.08388853,0.065826416,0.017040253,-0.14868164,-0.020178223,-0.28674316,81.0
18024,-0.08388853,0.065826416,0.017040253,-0.0722168,-0.021240234,-0.3419678,81.0
18025,-0.007381916,-0.11999512,0.14620209,-0.0722168,-0.021240234,-0.3419678,81.0
18026,-0.007381916,-0.11999512,0.14620209,-0.013806152,-0.040356446,-0.37382814,81.0
18027,0.08409691,-0.21067047,0.22664261,-0.013806152,-0.040356446,-0.37382814,81.0
18028,0.08409691,-0.21067047,0.22664261,-0.032922365,-0.03186035,-0.40250245,81.0
18029,0.13492918,-0.26876068,0.27542114,-0.032922365,-0.03186035,-0.40250245,81.0
18030,0.13492918,-0.26876068,0.27542114,-0.040356446,-0.04141846,-0.41206056,81.0
18031,0.1116786,-0.32622528,0.33558273,-0.040356446,-0.04141846,-0.41206056,81.0
18032,0.1116786,-0.32622528,0.33558273,-0.0998291,-0.081774905,-0.4067505,81.0
18033,0.028661728,-0.39285278,0.3744583,-0.0998291,-0.081774905,-0.4067505,81.0
18034,0.028661728,-0.39285278,0.3744583,-0.11257324,-0.10938721,-0.3982544,81.0
18035,-0.011921406,-0.524086,0.36882782,-0.11257324,-0.10938721,-0.3982544,81.0
18036,-0.011921406,-0.524086,0.36882782,-0.083898924,-0.19753419,-0.4343628,81.0
18037,-0.0067415237,-0.65058136,0.30845642,-0.083898924,-0.19753419,-0.4343628,81.0
18038,-0.0067415237,-0.65058136,0.30845642,-0.22514649,-0.31010744,-0.45772704,81.0
18039,-0.08494663,-0.69368744,0.18946457,-0.22514649,-0.31010744,-0.45772704,81.0
18040,-0.08494663,-0.69368744,0.18946457,-0.23364258,-0.29736328,-0.38657227,81.0
18041,-0.18609715,-0.6773529,0.03857422,-0.23364258,-0.29736328,-0.38657227,81.0
18042,-0.18609715,-0.6773529,0.03857422,-0.12956543,-0.2824951,-0.3462158,81.0
18043,-0.19578934,-0.55555725,-0.10771561,-0.12956543,-0.2824951,-0.3462158,81.0
18044,-0.19578934,-0.55555725,-0.10771561,-0.26868898,-0.33028564,-0.45454103,81.0
18045,-0.12423372,-0.45576477,-0.241436,-0.26868898,-0.33028564,-0.45454103,81.0
18046,-0.12423372,-0.45576477,-0.241436,-0.5278198,-0.3525879,-0.56180423,81.0
18047,-0.054965496,-0.47727203,-0.33766937,-0.5278198,-0.3525879,-0.56180423,81.0
18048,-0.054965496,-0.47727203,-0.33766937,-0.6786255,-0.37489015,-0.59047854,81.0
18049,-0.071157455,-0.5036545,-0.44373322,-0.6786255,-0.37489015,-0.59047854,81.0
18050,-0.071157455,-0.5036545,-0.44373322,-0.69349366,-0.3727661,-0.57561034,81.0
18051,-0.15660858,-0.44501495,-0.627388,-0.69349366,-0.3727661,-0.57561034,81.0
18052,-0.15660858,-0.44501495,-0.627388,-0.83049315,-0.3802002,-0.5501221,81.0
18053,-0.19849253,-0.32514954,-0.8312454,-0.83049315,-0.3802002,-0.5501221,81.0
18054,-0.19849253,-0.32514954,-0.8312454,-1.0280274,-0.39082032,-0.6180908,81.0
18055,-0.095952034,-0.28120422,-0.99633026,-1.0280274,-0.39082032,-0.6180908,81.0
18056,-0.095952034,-0.28120422,-0.99633026,-1.0227174,-0.45135498,-0.6786255,81.0
18057,0.13730097,-0.37874603,-1.16436,-1.0227174,-0.45135498,-0.6786255,81.0
18058,0.13730097,-0.37874603,-1.16436,-1.3296387,-0.5479981,-0.8326172,81.0
18059,0.41689634,-0.5947113,-1.3254204,-1.3296387,-0.5479981,-0.8326172,81.0
18060,0.41689634,-0.5947113,-1.3254204,-1.7470093,-0.6786255,-1.0184692,81.0
18061,0.7049279,-0.9689865,-1.401989,-1.7470093,-0.6786255,-1.0184692,81.0
18062,0.7049279,-0.9689865,-1.401989,-2.156946,-0.8644776,-1.2021973,81.0
18063,0.9852071,-1.3817596,-1.4512672,-2.156946,-0.8644776,-1.2021973,81.0
18064,0.9852071,-1.3817596,-1.4512672,-2.4266968,-1.0195312,-1.4135376,81.0
18065,1.245307,-1.649086,-1.5029106,-2.4266968,-1.0195312,-1.4135376,81.0
18066,1.245307,-1.649086,-1.5029106,-2.6688354,-1.1682129,-1.6110718,81.0
18067,1.5946708,-1.8258286,-1.4238472,-2.6688354,-1.1682129,-1.6110718,81.0
18068,1.5946708,-1.8258286,-1.4238472,-2.792029,-1.3901733,-1.7809937,81.0
18069,2.1636884,-1.9726257,-1.2664452,-2.792029,-1.3901733,-1.7809937,81.0
18070,2.1636884,-1.9726257,-1.2664452,-2.8568115,-1.5983276,-1.8415283,81.0
18071,2.9491026,-1.9920654,-1.3355942,-2.8568115,-1.5983276,-1.8415283,81.0
18072,2.9491026,-1.9920654,-1.3355942,-2.992749,-1.6726685,-1.8500245,81.0
18073,3.931682,-2.0929565,-1.6359329,-2.992749,-1.6726685,-1.8500245,81.0
18074,3.931682,-2.0929565,-1.6359329,-3.2444458,-1.5526612,-1.7406372,81.0
18075,5.155465,-2.764,-1.6865921,-3.2444458,-1.5526612,-1.7406372,81.0
18076,5.155465,-2.764,-1.6865921,-3.3984375,-1.2489258,-1.906311,81.0
18077,6.282954,-3.8348923,-1.2082329,-3.3984375,-1.2489258,-1.906311,81.0
18078,6.282954,-3.8348923,-1.2082329,-3.346399,-0.991919,-2.347046,81.0
18079,6.818697,-4.4549484,-0.47974396,-3.346399,-0.991919,-2.347046,81.0
18080,6.818697,-4.4549484,-0.47974396,-3.3198488,-0.87191164,-2.8313234,81.0
18081,6.764113,-4.271881,-0.18074417,-3.3198488,-0.87191164,-2.8313234,81.0
18082,6.764113,-4.271881,-0.18074417,-3.4897707,-0.7943848,-2.969385,81.0
18083,6.460497,-3.8549805,-0.6561432,-3.4897707,-0.7943848,-2.969385,81.0
18084,6.460497,-3.8549805,-0.6561432,-3.625708,-0.5246338,-3.1393068,81.0
18085,5.8350725,-3.673355,-1.4763641,-3.625708,-0.5246338,-3.1393068,81.0
18086,5.8350725,-3.673355,-1.4763641,-3.8328004,-0.10407715,-3.255066,81.0
18087,4.753166,-3.5429459,-1.9445343,-3.8328004,-0.10407715,-3.255066,81.0
18088,4.753166,-3.5429459,-1.9445343,-3.8274903,0.15930176,-3.2858644,81.0
18089,3.6455135,-3.3546448,-1.7597313,-3.8274903,0.15930176,-3.2858644,81.0
18090,3.6455135,-3.3546448,-1.7597313,-3.4685304,0.24957275,-3.355957,81.0
18091,2.8705006,-3.20195,-1.1233368,-3.4685304,0.24957275,-3.355957,81.0
18092,2.8705006,-3.20195,-1.1233368,-2.817517,0.20390625,-3.5439332,81.0
18093,2.2710228,-3.069992,-0.105335236,-2.817517,0.20390625,-3.5439332,81.0
18094,2.2710228,-3.069992,-0.105335236,-2.1611938,-0.07540283,-3.8147461,81.0
18095,1.7569427,-2.9351807,1.1119728,-2.1611938,-0.07540283,-3.8147461,81.0
18096,1.7569427,-2.9351807,1.1119728,-1.5622193,-0.45666504,-4.076001,81.0
18097,1.3779545,-2.7614594,2.0185585,-1.5622193,-0.45666504,-4.076001,81.0
18098,1.3779545,-2.7614594,2.0185585,-1.1299804,-0.58623046,-4.089807,81.0
18099,0.8433418,-2.5753784,2.4900398,-1.1299804,-0.58623046,-4.089807,81.0
18100,0.8433418,-2.5753784,2.4900398,-1.1108643,-0.540564,-3.972986,81.0
18101,-0.31769753,-2.0153656,2.5470505,-1.1108643,-0.540564,-3.972986,81.0
18102,-0.31769753,-2.0153656,2.5470505,-1.5473511,-0.452417,-3.8381104,81.0
18103,-1.9199667,-0.8813553,1.9960022,-1.5473511,-0.452417,-3.8381104,81.0
18104,-1.9199667,-0.8813553,1.9960022,-2.2344728,-0.28355715,-3.5078247,81.0
18105,-3.412035,0.22949219,0.7971039,-2.2344728,-0.28355715,-3.5078247,81.0
18106,-3.412035,0.22949219,0.7971039,-2.6157348,0.0637207,-3.1201904,81.0
18107,-4.897011,1.2508011,-0.6964989,-2.6157348,0.0637207,-3.1201904,81.0
18108,-4.897011,1.2508011,-0.6964989,-2.9088502,0.5299439,-2.5902467,81.0
18109,-6.9512634,2.4165955,-2.1328468,-2.9088502,0.5299439,-2.5902467,81.0
18110,-6.9512634,2.4165955,-2.1328468,-3.345337,0.9281983,-2.1442018,81.0
18111,-10.325415,3.0197906,-3.0348053,-3.345337,0.9281983,-2.1442018,81.0
18112,-10.325415,3.0197906,-3.0348053,-3.3145387,1.6673584,-2.075171,81.0
18113,-14.818951,2.5971832,-2.8154526,-3.3145387,1.6673584,-2.075171,81.0
18114,-14.818951,2.5971832,-2.8154526,-2.9598267,1.4889405,-1.6004517,81.0
18115,-16.833603,1.1365128,-2.4437103,-2.9598267,1.4889405,-1.6004517,81.0
18116,-16.833603,1.1365128,-2.4437103,-1.2531738,0.25806886,0.96218264,81.0
18117,-13.434119,-1.3515701,-2.500637,-1.2531738,0.25806886,0.96218264,81.0
18118,-13.434119,-1.3515701,-2.500637,0.24638672,0.52250975,2.6868896,81.0
18119,-7.070672,-3.078827,-2.4554405,0.24638672,0.52250975,2.6868896,81.0
18120,-7.070672,-3.078827,-2.4554405,0.63614506,0.6605713,4.0271487,81.0
18121,-1.4690499,-3.4336395,-1.9386444,0.63614506,0.6605713,4.0271487,81.0
18122,-1.4690499,-3.4336395,-1.9386444,0.3175415,0.6223389,5.815576,81.0
18123,2.32299,-4.6089325,-0.857872,0.3175415,0.6223389,5.815576,81.0
18124,2.32299,-4.6089325,-0.857872,-0.17416993,0.55755615,7.1006103,81.0
18125,5.5380063,-7.1681137,0.90454483,-0.17416993,0.55755615,7.1006103,81.0
18126,5.5380063,-7.1681137,0.90454483,0.62552494,0.8750977,7.3735476,81.0
18127,8.669773,-9.310272,3.2375526,0.62552494,0.8750977,7.3735476,81.0
18128,8.669773,-9.310272,3.2375526,2.356604,0.6903076,6.774573,81.0
18129,10.086209,-9.87944,5.577408,2.356604,0.6903076,6.774573,81.0
18130,10.086209,-9.87944,5.577408,3.7892578,0.5894165,6.774573,81.0
18131,9.742685,-8.698448,7.056801,3.7892578,0.5894165,6.774573,81.0
18132,9.742685,-8.698448,7.056801,4.393543,0.84536135,6.5111938,81.0
18133,8.7540245,-5.518898,6.6367645,4.393543,0.84536135,6.5111938,81.0
18134,8.7540245,-5.518898,6.6367645,3.6851807,1.089624,5.9547,81.0
18135,7.1601777,-0.558403,4.2816887,3.6851807,1.089624,5.9547,81.0
18136,7.1601777,-0.558403,4.2816887,1.5654052,1.2170655,5.5532594,81.0
18137,5.1279593,4.2933197,1.1736679,1.5654052,1.2170655,5.5532594,81.0
18138,5.1279593,4.2933197,1.1736679,-0.6000366,0.58304447,5.0838504,81.0
18139,2.973876,7.0242615,-1.6341248,-0.6000366,0.58304447,5.0838504,81.0
18140,2.973876,7.0242615,-1.6341248,-1.535669,-0.2984253,4.489124,81.0
18141,1.1735711,7.5489044,-3.9955673,-1.535669,-0.2984253,4.489124,81.0
18142,1.1735711,7.5489044,-3.9955673,-1.2181275,-1.0312134,3.709607,81.0
18143,0.5108781,7.161316,-6.085541,-1.2181275,-1.0312134,3.709607,81.0
18144,0.5108781,7.161316,-6.085541,-0.26550293,-1.2956543,2.893982,81.0
18145,0.8880844,7.1796036,-7.795082,-0.26550293,-1.2956543,2.893982,81.0
18146,0.8880844,7.1796036,-7.795082,0.34940186,-1.3190186,1.9636596,81.0
18147,1.0709047,7.849556,-8.630562,0.34940186,-1.3190186,1.9636596,81.0
18148,1.0709047,7.849556,-8.630562,0.1529297,-1.2244996,1.171399,81.0
18149,0.25068092,8.058319,-8.199265,0.1529297,-1.2244996,1.171399,81.0
18150,0.25068092,8.058319,-8.199265,-0.996167,-1.0906861,-0.013806152,81.0
18151,-0.7514572,6.7842026,-6.277748,-0.996167,-1.0906861,-0.013806152,81.0
18152,-0.7514572,6.7842026,-6.277748,-2.0114503,-1.1639649,-1.2776002,81.0
18153,-0.71881676,4.330948,-3.1034584,-2.0114503,-1.1639649,-1.2776002,81.0
18154,-0.71881676,4.330948,-3.1034584,-1.9222412,-1.3859253,-2.4702394,81.0
18155,0.59080315,1.4517059,0.3834076,-1.9222412,-1.3859253,-2.4702394,81.0
18156,0.59080315,1.4517059,0.3834076,-1.1427246,-1.5866455,-3.720227,81.0
18157,3.0360336,-2.1181412,3.4087029,-1.1427246,-1.5866455,-3.720227,81.0
18158,3.0360336,-2.1181412,3.4087029,0.49383545,-1.177771,-5.2102294,81.0
18159,5.1151304,-5.987129,6.5220795,0.49383545,-1.177771,-5.2102294,81.0
18160,5.1151304,-5.987129,6.5220795,0.5341919,-0.6754395,-6.2796755,81.0
18161,5.1248198,-7.962448,10.058422,0.5341919,-0.6754395,-6.2796755,81.0
18162,5.1248198,-7.962448,10.058422,-2.1834962,-1.0280274,-6.605713,81.0
18163,3.4000273,-8.1473465,11.583153,-2.1834962,-1.0280274,-6.605713,81.0
18164,3.4000273,-8.1473465,11.583153,-4.732324,-0.93563235,-6.792627,81.0
18165,0.91820335,-8.126839,9.649712,-4.732324,-0.93563235,-6.792627,81.0
18166,0.91820335,-8.126839,9.649712,-5.250586,-0.026550293,-6.3784423,81.0
18167,-1.9641676,-7.3182297,5.6568527,-5.250586,-0.026550293,-6.3784423,81.0
18168,-1.9641676,-7.3182297,5.6568527,-4.2767215,1.0365235,-5.7561035,81.0
18169,-5.1327114,-4.5241776,1.0460663,-4.2767215,1.0365235,-5.7561035,81.0
18170,-5.1327114,-4.5241776,1.0460663,-2.8302612,1.9487915,-4.9086185,81.0
18171,-8.068669,-0.28372192,-3.015171,-2.8302612,1.9487915,-4.9086185,81.0
18172,-8.068669,-0.28372192,-3.015171,-2.3969605,2.2196045,-4.860828,81.0
18173,-10.951908,3.262268,-5.694435,-2.3969605,2.2196045,-4.860828,81.0
18174,-10.951908,3.262268,-5.694435,-2.8387573,2.5923707,-4.905432,81.0
18175,-14.424906,4.422081,-7.0794487,-2.8387573,2.5923707,-4.905432,81.0
18176,-14.424906,4.422081,-7.0794487,-3.5747316,2.9311523,-3.2178955,81.0
18177,-16.971773,2.93618,-7.923973,-3.5747316,2.9311523,-3.2178955,81.0
18178,-16.971773,2.93618,-7.923973,-2.6677735,1.5930176,-0.1444336,81.0
18179,-15.88102,0.50942993,-8.271221,-2.6677735,1.5930176,-0.1444336,81.0
18180,-15.88102,0.50942993,-8.271221,-0.03717041,0.94412845,2.275891,81.0
18181,-11.15102,-0.60931396,-7.433628,-0.03717041,0.94412845,2.275891,81.0
18182,-11.15102,-0.60931396,-7.433628,1.5877075,0.27612305,4.449829,81.0
18183,-5.0490265,-0.09539032,-5.3226357,1.5877075,0.27612305,4.449829,81.0
18184,-5.0490265,-0.09539032,-5.3226357,1.0683838,-0.65207523,5.770972,81.0
18185,0.23267841,0.1845398,-2.7145386,1.0683838,-0.65207523,5.770972,81.0
18186,0.23267841,0.1845398,-2.7145386,0.44923097,-1.3307008,6.9466186,81.0
18187,3.4855566,-2.0664139,-0.27236557,0.44923097,-1.3307008,6.9466186,81.0
18188,3.4855566,-2.0664139,-0.27236557,0.7051758,-1.5792115,7.9395995,81.0
18189,6.0412407,-7.2070847,2.6832085,0.7051758,-1.5792115,7.9395995,81.0
18190,6.0412407,-7.2070847,2.6832085,3.2157714,-1.7491333,7.4022217,81.0
18191,9.342855,-12.249084,6.348961,3.2157714,-1.7491333,7.4022217,81.0
18192,9.342855,-12.249084,6.348961,6.2764893,-0.4991455,6.238257,81.0
18193,10.736187,-11.655228,8.741169,6.2764893,-0.4991455,6.238257,81.0
18194,10.736187,-11.655228,8.741169,7.1845093,0.5161377,6.16604,81.0
18195,10.736187,-11.655228,8.741169,7.1845093,0.5161377,6.16604,0.0
18196,8.792428,-5.1004333,8.7836685,7.1845093,0.5161377,6.16604,0.0
18197,8.792428,-5.1004333,8.7836685,3.891211,0.72323,5.881421,0.0
18198,5.6529126,1.7956772,6.532318,3.891211,0.72323,5.881421,0.0
18199,5.6529126,1.7956772,6.532318,0.21983643,0.24320069,4.2958374,0.0
18200,3.2710726,5.5358887,2.0225601,0.21983643,0.24320069,4.2958374,0.0
18201,3.2710726,5.5358887,2.0225601,-2.430945,-0.26550293,3.6777465,0.0
18202,2.9577518,7.2612,-3.4858475,-2.430945,-0.26550293,3.6777465,0.0
18203,2.9577518,7.2612,-3.4858475,-4.3043337,-1.4103516,2.2843874,0.0
18204,3.0641506,8.747025,-6.9934273,-4.3043337,-1.4103516,2.2843874,0.0
18205,3.0641506,8.747025,-6.9934273,-3.5864136,-2.9322145,1.0407715,0.0
18206,2.7205467,9.240845,-7.7123337,-3.5864136,-2.9322145,1.0407715,0.0
18207,2.7205467,9.240845,-7.7123337,-0.55755615,-4.241675,-0.5872925,0.0
18208,2.6037202,9.581604,-7.776825,-0.55755615,-4.241675,-0.5872925,0.0
18209,2.6037202,9.581604,-7.776825,1.8712647,-4.9043703,-2.440503,0.0
18210,2.7534719,11.688454,-7.894333,1.8712647,-4.9043703,-2.440503,0.0
18211,2.7534719,11.688454,-7.894333,1.8404664,-4.827905,-4.060071,0.0
18212,3.2590399,14.175346,-6.991089,1.8404664,-4.827905,-4.060071,0.0
18213,3.2590399,14.175346,-6.991089,0.004248047,-4.6664796,-4.213001,0.0
18214,4.0313044,13.626129,-5.4142,0.004248047,-4.6664796,-4.213001,0.0
18215,4.0313044,13.626129,-5.4142,-2.2142944,-4.4880614,-4.177954,0.0
18216,5.0606394,9.542648,-4.6230354,-2.2142944,-4.4880614,-4.177954,0.0
18217,5.0606394,9.542648,-4.6230354,-3.9942262,-3.5088868,-4.4901857,0.0
18218,6.279518,4.586876,-3.7809372,-3.9942262,-3.5088868,-4.4901857,0.0
18219,6.279518,4.586876,-3.7809372,-4.7546268,-1.9902099,-4.483814,0.0
18220,7.55982,-0.24420929,-1.4553909,-4.7546268,-1.9902099,-4.483814,0.0
18221,7.55982,-0.24420929,-1.4553909,-5.686011,-1.2181275,-3.5842896,0.0
18222,9.214422,-6.3716507,1.4931946,-5.686011,-1.2181275,-3.5842896,0.0
18223,9.214422,-6.3716507,1.4931946,-5.0976562,-0.14761963,-3.6395142,0.0
18224,10.872343,-11.337677,3.28368,-5.0976562,-0.14761963,-3.6395142,0.0
18225,10.872343,-11.337677,3.28368,-4.164148,0.61702883,-3.796692,0.0
18226,10.36157,-11.817055,3.640274,-4.164148,0.61702883,-3.796692,0.0
18227,10.36157,-11.817055,3.640274,-4.4413333,1.0280274,-4.1163573,0.0
18228,7.34746,-10.343132,3.6918945,-4.4413333,1.0280274,-4.1163573,0.0
18229,7.34746,-10.343132,3.6918945,-3.7733276,1.1214844,-4.265039,0.0
18230,3.4687023,-8.888947,4.0000763,-3.7733276,1.1214844,-4.265039,0.0
18231,3.4687023,-8.888947,4.0000763,-2.3236816,1.2584839,-3.9921021,0.0
18232,-0.429348,-6.8472137,4.0629997,-2.3236816,1.2584839,-3.9921021,0.0
18233,-0.429348,-6.8472137,4.0629997,-1.3083985,1.3869873,-3.177539,0.0
18234,-3.8170624,-3.8641357,3.2927818,-1.3083985,1.3869873,-3.177539,0.0
18235,-3.8170624,-3.8641357,3.2927818,-1.2149414,1.7363892,-2.266333,0.0
18236,-6.408741,-0.30937195,1.5634995,-1.2149414,1.7363892,-2.266333,0.0
18237,-6.408741,-0.30937195,1.5634995,-2.086853,2.0528686,-1.62594,0.0
18238,-8.377127,2.4758072,-0.29885864,-2.086853,2.0528686,-1.62594,0.0
18239,-8.377127,2.4758072,-0.29885864,-3.1074464,2.351294,-1.0535157,0.0
18240,-10.173699,3.9002,-1.686573,-3.1074464,2.351294,-1.0535157,0.0
18241,-10.173699,3.9002,-1.686573,-4.13335,2.633789,-0.69349366,0.0
18242,-12.647297,3.569397,-2.3847198,-4.13335,2.633789,-0.69349366,0.0
18243,-12.647297,3.569397,-2.3847198,-3.8572266,2.613611,-0.8092529,0.0
18244,-16.228043,1.1275024,-2.6338005,-3.8572266,2.613611,-0.8092529,0.0
18245,-16.228043,1.1275024,-2.6338005,0.029736329,3.524817,-2.535022,0.0
18246,-20.35475,-0.73036194,-2.2190628,0.029736329,3.524817,-2.535022,0.0
18247,-20.35475,-0.73036194,-2.2190628,1.6238159,1.7640015,-0.998291,0.0
18248,-21.04591,0.3085022,-1.9196968,1.6238159,1.7640015,-0.998291,0.0
18249,-21.04591,0.3085022,-1.9196968,1.6885986,-0.4067505,3.902893,0.0
18250,-14.021371,0.82831573,-2.0638237,1.6885986,-0.4067505,3.902893,0.0
18251,-14.021371,0.82831573,-2.0638237,0.59260255,-2.0549927,5.7454834,0.0
18252,-3.1864815,-2.099739,-1.3603973,0.59260255,-2.0549927,5.7454834,0.0
18253,-3.1864815,-2.099739,-1.3603973,0.59047854,-1.716211,7.7802978,0.0
18254,4.3237762,-6.500458,-0.10467529,0.59047854,-1.716211,7.7802978,0.0
18255,4.3237762,-6.500458,-0.10467529,1.2436157,-2.437317,8.8901005,0.0
18256,8.434644,-11.02224,0.8354492,1.2436157,-2.437317,8.8901005,0.0
18257,8.434644,-11.02224,0.8354492,2.18562,-2.9120362,9.368006,0.0
18258,14.46428,-16.303185,1.7808228,2.18562,-2.9120362,9.368006,0.0
18259,14.46428,-16.303185,1.7808228,4.881006,-0.5628662,7.714453,0.0
18260,17.501087,-16.817268,3.3795166,4.881006,-0.5628662,7.714453,0.0
18261,17.501087,-16.817268,3.3795166,5.989746,-0.4715332,7.1101685,0.0
18262,14.200772,-11.866585,5.0853615,5.989746,-0.4715332,7.1101685,0.0
18263,14.200772,-11.866585,5.0853615,5.0233154,-0.75615233,6.6354494,0.0
18264,10.496836,-5.830948,4.90773,5.0233154,-0.75615233,6.6354494,0.0
18265,10.496836,-5.830948,4.90773,4.3096437,-0.5129517,6.306226,0.0
18266,7.04377,0.999176,2.261364,4.3096437,-0.5129517,6.306226,0.0
18267,7.04377,0.999176,2.261364,2.608301,0.03079834,6.4039307,0.0
18268,3.5342474,7.8722534,-1.3709145,2.608301,0.03079834,6.4039307,0.0
18269,3.5342474,7.8722534,-1.3709145,0.32709962,-0.22727051,6.0099244,0.0
18270,0.26851082,12.486008,-3.912201,0.32709962,-0.22727051,6.0099244,0.0
18271,0.26851082,12.486008,-3.912201,-0.7986328,-1.0036011,5.250586,0.0
18272,-1.7765732,14.096741,-4.7480316,-0.7986328,-1.0036011,5.250586,0.0
18273,-1.7765732,14.096741,-4.7480316,-0.22196046,-1.8202881,4.032459,0.0
18274,-2.885126,15.062195,-4.9493904,-0.22196046,-1.8202881,4.032459,0.0
18275,-2.885126,15.062195,-4.9493904,0.8358032,-2.1038454,2.450061,0.0
18276,-3.9746904,16.49031,-5.312481,0.8358032,-2.1038454,2.450061,0.0
18277,-3.9746904,16.49031,-5.312481,0.8379273,-1.4708862,1.4347779,0.0
18278,-5.0938272,16.586235,-5.178734,0.8379273,-1.4708862,1.4347779,0.0
18279,-5.0938272,16.586235,-5.178734,-1.178833,-0.9526245,-0.15505372,0.0
18280,-5.2095594,13.817184,-3.8889847,-1.178833,-0.9526245,-0.15505372,0.0
18281,-5.2095594,13.817184,-3.8889847,-2.8430054,-0.5543701,-1.897815,0.0
18282,-4.0402184,8.627342,-1.8153763,-2.8430054,-0.5543701,-1.897815,0.0
18283,-4.0402184,8.627342,-1.8153763,-3.2030275,-0.29948732,-3.5088868,0.0
18284,-2.0678558,3.1270065,0.13012314,-3.2030275,-0.29948732,-3.5088868,0.0
18285,-2.0678558,3.1270065,0.13012314,-2.9184082,-0.22939454,-4.9500365,0.0
18286,0.3364749,-0.48792267,1.0425987,-2.9184082,-0.22939454,-4.9500365,0.0
18287,0.3364749,-0.48792267,1.0425987,-2.3990846,-0.083898924,-6.230823,0.0
18288,3.831912,-2.0807037,1.3195534,-2.3990846,-0.083898924,-6.230823,0.0
18289,3.831912,-2.0807037,1.3195534,-2.090039,-0.0361084,-7.3724856,0.0
18290,9.600491,-6.947975,2.723648,-2.090039,-0.0361084,-7.3724856,0.0
18291,9.600491,-6.947975,2.723648,-2.727246,-0.5246338,-9.081263,0.0
18292,14.847519,-14.684662,6.3659897,-2.727246,-0.5246338,-9.081263,0.0
18293,14.847519,-14.684662,6.3659897,-2.2981935,0.2347046,-8.557691,0.0
18294,15.4443245,-18.004654,9.891659,-2.2981935,0.2347046,-8.557691,0.0
18295,15.4443245,-18.004654,9.891659,-5.43219,0.14761963,-6.246753,0.0
18296,10.970646,-16.947433,8.864498,-5.43219,0.14761963,-6.246753,0.0
18297,10.970646,-16.947433,8.864498,-7.4139037,1.4528321,-4.466821,0.0
18298,3.1968784,-13.365952,4.0433426,-7.4139037,1.4528321,-4.466821,0.0
18299,3.1968784,-13.365952,4.0433426,-6.888208,2.7368042,-3.5715454,0.0
18300,-4.7988205,-6.9933853,-0.015609741,-6.888208,2.7368042,-3.5715454,0.0
18301,-4.7988205,-6.9933853,-0.015609741,-5.538391,2.9322145,-2.6412232,0.0
18302,-10.167109,-0.23096466,-1.9552727,-5.538391,2.9322145,-2.6412232,0.0
18303,-10.167109,-0.23096466,-1.9552727,-3.1562989,2.5222778,-1.9498535,0.0
18304,-11.862447,4.33609,-2.9250565,-3.1562989,2.5222778,-1.9498535,0.0
18305,-11.862447,4.33609,-2.9250565,-0.73597413,2.3321779,-2.1080933,0.0
18306,-11.950639,6.3180313,-3.4604568,-0.73597413,2.3321779,-2.1080933,0.0
18307,-11.950639,6.3180313,-3.4604568,0.5140137,2.532898,-2.7559204,0.0
18308,-13.102039,5.9160156,-3.9505577,0.5140137,2.532898,-2.7559204,0.0
18309,-13.102039,5.9160156,-3.9505577,0.8294312,3.8317382,-3.3761353,0.0
18310,-17.995998,3.492653,-4.317173,0.8294312,3.8317382,-3.3761353,0.0
18311,-17.995998,3.492653,-4.317173,0.77314454,4.35531,-4.3786745,0.0
18312,-23.264841,1.1956635,-5.0893936,0.77314454,4.35531,-4.3786745,0.0
18313,-23.264841,1.1956635,-5.0893936,2.0103881,-0.43967286,1.9498535,0.0
18314,-18.954927,0.25118256,-5.9896927,2.0103881,-0.43967286,1.9498535,0.0
18315,-18.954927,0.25118256,-5.9896927,2.351294,-2.2886353,4.249109,0.0
18316,-6.999758,-0.54325867,-5.2352715,2.351294,-2.2886353,4.249109,0.0
18317,-6.999758,-0.54325867,-5.2352715,2.1590698,-1.8574585,6.5388064,0.0
18318,2.0237045,-1.7146454,-2.9695282,2.1590698,-1.8574585,6.5388064,0.0
18319,2.0237045,-1.7146454,-2.9695282,1.2096313,-2.7251222,8.356971,0.0
18320,5.633173,-5.10849,-0.8183708,1.2096313,-2.7251222,8.356971,0.0
18321,5.633173,-5.10849,-0.8183708,1.0747559,-4.444519,8.296435,0.0
18322,8.541732,-10.987457,-0.2647171,1.0747559,-4.444519,8.296435,0.0
18323,8.541732,-10.987457,-0.2647171,3.0299194,-4.8480835,7.3969116,0.0
18324,15.204345,-16.443764,-0.16831589,3.0299194,-4.8480835,7.3969116,0.0
18325,15.204345,-16.443764,-0.16831589,6.716162,-1.0354614,5.9377074,0.0
18326,18.3662,-15.306503,1.7791786,6.716162,-1.0354614,5.9377074,0.0
18327,18.3662,-15.306503,1.7791786,6.978479,-0.5798584,6.136304,0.0
18328,14.935854,-8.128571,4.492214,6.978479,-0.5798584,6.136304,0.0
18329,14.935854,-8.128571,4.492214,4.6622314,-0.5787964,6.0088625,0.0
18330,10.952578,-0.62809753,4.7034264,4.6622314,-0.5787964,6.0088625,0.0
18331,10.952578,-0.62809753,4.7034264,2.2365968,-0.32072756,6.17135,0.0
18332,6.8313007,5.861061,1.9857292,2.2365968,-0.32072756,6.17135,0.0
18333,6.8313007,5.861061,1.9857292,-0.4991455,-0.50870365,6.0141726,0.0
18334,2.6460094,10.688377,-1.1000404,-0.4991455,-0.50870365,6.0141726,0.0
18335,2.6460094,10.688377,-1.1000404,-1.630188,-1.26698,5.628662,0.0
18336,-0.8943138,13.045197,-2.2502975,-1.630188,-1.26698,5.628662,0.0
18337,-0.8943138,13.045197,-2.2502975,-0.7805786,-2.078357,4.4923096,0.0
18338,-3.2361298,13.97702,-1.7953682,-0.7805786,-2.078357,4.4923096,0.0
18339,-3.2361298,13.97702,-1.7953682,0.8782837,-2.8217652,2.8727417,0.0
18340,-4.7612066,15.375313,-1.6446686,0.8782837,-2.8217652,2.8727417,0.0
18341,-4.7612066,15.375313,-1.6446686,2.0411866,-2.981067,0.5129517,0.0
18342,-6.095379,17.131973,-1.7374535,2.0411866,-2.981067,0.5129517,0.0
18343,-6.095379,17.131973,-1.7374535,0.99085695,-2.7198122,-0.36851808,0.0
18344,-6.6820893,17.299385,-0.498909,0.99085695,-2.7198122,-0.36851808,0.0
18345,-6.6820893,17.299385,-0.498909,0.23151855,-3.0808961,-1.2765381,0.0
18346,-5.3263354,14.638481,1.2735405,0.23151855,-3.0808961,-1.2765381,0.0
18347,-5.3263354,14.638481,1.2735405,0.124255374,-3.0161133,-2.4139526,0.0
18348,-2.5107756,9.774368,1.9401932,0.124255374,-3.0161133,-2.4139526,0.0
18349,-2.5107756,9.774368,1.9401932,-0.56392825,-2.5870607,-3.895459,0.0
18350,0.82209253,5.3293686,1.6851997,-0.56392825,-2.5870607,-3.895459,0.0
18351,0.82209253,5.3293686,1.6851997,-1.4305298,-2.1070313,-5.1921754,0.0
18352,4.104183,2.9362106,1.0626717,-1.4305298,-2.1070313,-5.1921754,0.0
18353,4.104183,2.9362106,1.0626717,-2.0581787,-1.4751343,-5.7465453,0.0
18354,8.219577,1.5106277,0.61958313,-2.0581787,-1.4751343,-5.7465453,0.0
18355,8.219577,1.5106277,0.61958313,-3.1116943,-1.0609497,-5.8177004,0.0
18356,13.266714,-2.1664124,1.1710815,-3.1116943,-1.0609497,-5.8177004,0.0
18357,13.266714,-2.1664124,1.1710815,-4.629309,-1.2797241,-6.323218,0.0
18358,17.245586,-9.530846,3.0575333,-4.629309,-1.2797241,-6.323218,0.0
18359,17.245586,-9.530846,3.0575333,-4.7440066,-1.3190186,-8.056421,0.0
18360,17.29918,-14.573593,4.6707077,-4.7440066,-1.3190186,-8.056421,0.0
18361,17.29918,-14.573593,4.6707077,-3.2359498,-0.60216063,-5.8474364,0.0
18362,12.664015,-13.85791,4.3034363,-3.2359498,-0.60216063,-5.8474364,0.0
18363,12.664015,-13.85791,4.3034363,-3.3697631,0.04248047,-4.9712768,0.0
18364,5.712742,-10.393066,2.8263168,-3.3697631,0.04248047,-4.9712768,0.0
18365,5.712742,-10.393066,2.8263168,-3.521631,0.7434082,-4.3160157,0.0
18366,-0.8325176,-5.696785,1.0818787,-3.521631,0.7434082,-4.3160157,0.0
18367,-0.8325176,-5.696785,1.0818787,-3.9485595,1.2393677,-3.6766846,0.0
18368,-5.7904034,-1.7067108,-0.54981613,-3.9485595,1.2393677,-3.6766846,0.0
18369,-5.7904034,-1.7067108,-0.54981613,-4.2915893,1.6673584,-2.8185792,0.0
18370,-9.2760105,-0.0923233,-1.8346176,-4.2915893,1.6673584,-2.8185792,0.0
18371,-9.2760105,-0.0923233,-1.8346176,-4.348938,1.8574585,-2.4606812,0.0
18372,-12.922739,-1.7528,-2.1944504,-4.348938,1.8574585,-2.4606812,0.0
18373,-12.922739,-1.7528,-2.1944504,-2.4628053,1.0917481,-2.8621216,0.0
18374,-17.288876,-5.1806335,-2.6007652,-2.4628053,1.0917481,-2.8621216,0.0
18375,-17.288876,-5.1806335,-2.6007652,2.0220704,2.5891845,-3.5588014,0.0
18376,-20.092941,-6.6432724,-3.1522446,2.0220704,2.5891845,-3.5588014,0.0
18377,-20.092941,-6.6432724,-3.1522446,2.1006591,4.0972414,-2.18562,0.0
18378,-20.458471,-4.8009415,-2.6156425,2.1006591,4.0972414,-2.18562,0.0
18379,-20.458471,-4.8009415,-2.6156425,1.1299804,0.62764895,0.3430298,0.0
18380,-16.100445,-3.3554382,-1.4374847,1.1299804,0.62764895,0.3430298,0.0
18381,-16.100445,-3.3554382,-1.4374847,0.9855469,-1.63125,5.246338,0.0
18382,-6.598434,-3.8011322,-1.1579704,0.9855469,-1.63125,5.246338,0.0
18383,-6.598434,-3.8011322,-1.1579704,1.6546143,-1.9211792,6.3880005,0.0
18384,2.031995,-4.0949707,-1.9536095,1.6546143,-1.9211792,6.3880005,0.0
18385,2.031995,-4.0949707,-1.9536095,2.5222778,-1.2308716,7.5562134,0.0
18386,7.1166973,-4.083885,-2.258728,2.5222778,-1.2308716,7.5562134,0.0
18387,7.1166973,-4.083885,-2.258728,3.0362916,-1.075818,9.125867,0.0
18388,13.988976,-6.74617,-1.4537125,3.0362916,-1.075818,9.125867,0.0
18389,13.988976,-6.74617,-1.4537125,4.602759,-0.08283692,6.8170533,0.0
18390,13.988976,-6.74617,-1.4537125,4.602759,-0.08283692,6.8170533,0.0
18391,18.201532,-7.673691,-0.3454895,4.602759,-0.08283692,6.8170533,0.0
18392,18.201532,-7.673691,-0.3454895,5.6265383,0.6701294,6.5653567,0.0
18393,16.320454,-4.7209015,0.5465584,5.6265383,0.6701294,6.5653567,0.0
18394,16.320454,-4.7209015,0.5465584,3.9262574,0.50233155,6.3582644,0.0
18395,14.079899,-1.5728836,0.2854271,3.9262574,0.50233155,6.3582644,0.0
18396,14.079899,-1.5728836,0.2854271,2.1558838,0.25700685,5.4629884,0.0
18397,10.405119,2.4530945,-1.5871468,2.1558838,0.25700685,5.4629884,0.0
18398,10.405119,2.4530945,-1.5871468,0.3971924,-0.42374268,5.248462,0.0
18399,4.3139515,7.7346573,-3.4450378,0.3971924,-0.42374268,5.248462,0.0
18400,4.3139515,7.7346573,-3.4450378,-0.4163086,-1.7278931,5.6552124,0.0
18401,-2.2106075,12.395996,-3.4776726,-0.4163086,-1.7278931,5.6552124,0.0
18402,-2.2106075,12.395996,-3.4776726,0.7869507,-3.521631,4.962781,0.0
18403,-5.9371624,14.882736,-2.9090424,0.7869507,-3.521631,4.962781,0.0
18404,-5.9371624,14.882736,-2.9090424,3.434546,-4.4413333,3.2136476,0.0
18405,-6.6719837,16.37233,-3.5860367,3.434546,-4.4413333,3.2136476,0.0
18406,-6.6719837,16.37233,-3.5860367,4.2958374,-3.5874755,0.9897949,0.0
18407,-7.071083,17.85112,-3.3001518,4.2958374,-3.5874755,0.9897949,0.0
18408,-7.071083,17.85112,-3.3001518,2.3332398,-3.1435547,-0.44604492,0.0
18409,-7.84853,18.5812,-0.50447464,2.3332398,-3.1435547,-0.44604492,0.0
18410,-7.84853,18.5812,-0.50447464,0.9568726,-3.2699342,-2.241907,0.0
18411,-7.2820463,16.379562,2.2358856,0.9568726,-3.2699342,-2.241907,0.0
18412,-7.2820463,16.379562,2.2358856,-0.79226077,-3.706421,-2.6401613,0.0
18413,-4.2194967,10.1949005,3.1816406,-0.79226077,-3.706421,-2.6401613,0.0
18414,-4.2194967,10.1949005,3.1816406,-1.5494751,-3.2465699,-3.5704834,0.0
18415,0.31282997,3.5574265,3.0806046,-1.5494751,-3.2465699,-3.5704834,0.0
18416,0.31282997,3.5574265,3.0806046,-1.442212,-2.52334,-4.262915,0.0
18417,3.9041214,-0.16812134,3.0443306,-1.442212,-2.52334,-4.262915,0.0
18418,3.9041214,-0.16812134,3.0443306,-1.3710572,-2.182434,-4.8077273,0.0
18419,6.701495,-0.9771347,2.5081558,-1.3710572,-2.182434,-4.8077273,0.0
18420,6.701495,-0.9771347,2.5081558,-1.991272,-2.1962402,-5.0785403,0.0
18421,8.693569,-0.8895798,1.8636398,-1.991272,-2.1962402,-5.0785403,0.0
18422,8.693569,-0.8895798,1.8636398,-3.3092287,-2.4150147,-5.4778566,0.0
18423,9.210104,-1.6994781,2.186386,-3.3092287,-2.4150147,-5.4778566,0.0
18424,9.210104,-1.6994781,2.186386,-4.5634646,-3.1711671,-5.246338,0.0
18425,10.063774,-3.312233,2.247837,-4.5634646,-3.1711671,-5.246338,0.0
18426,10.063774,-3.312233,2.247837,-4.6664796,-3.0331056,-4.595325,0.0
18427,11.648188,-6.1784744,1.0630264,-4.6664796,-3.0331056,-4.595325,0.0
18428,11.648188,-6.1784744,1.0630264,-3.4749024,-1.7353271,-4.37655,0.0
18429,11.103537,-9.308029,0.28510284,-3.4749024,-1.7353271,-4.37655,0.0
18430,11.103537,-9.308029,0.28510284,-2.4936035,-0.5936646,-4.8448977,0.0
18431,6.1281776,-8.471275,0.60377884,-2.4936035,-0.5936646,-4.8448977,0.0
18432,6.1281776,-8.471275,0.60377884,-3.7234132,0.49489745,-3.2072754,0.0
18433,-1.2818699,-4.1137238,0.8519287,-3.7234132,0.49489745,-3.2072754,0.0
18434,-1.2818699,-4.1137238,0.8519287,-6.3635745,1.0269654,-1.7077149,0.0
18435,-7.7620926,-2.200142,-0.07451248,-6.3635745,1.0269654,-1.7077149,0.0
18436,-7.7620926,-2.200142,-0.07451248,-6.6683717,1.2351197,-1.0662597,0.0
18437,-12.529352,-5.551605,-1.3007011,-6.6683717,1.2351197,-1.0662597,0.0
18438,-12.529352,-5.551605,-1.3007011,-3.3676393,1.7661256,-1.532483,0.0
18439,-16.354904,-9.630028,-1.4908409,-3.3676393,1.7661256,-1.532483,0.0
18440,-16.354904,-9.630028,-1.4908409,1.1841431,1.6068238,-2.5647583,0.0
18441,-17.880787,-8.845856,-0.9773674,1.1841431,1.6068238,-2.5647583,0.0
18442,-17.880787,-8.845856,-0.9773674,0.92926025,2.3204956,-0.21452637,0.0
18443,-16.090385,-5.828926,-0.2491684,0.92926025,2.3204956,-0.21452637,0.0
18444,-16.090385,-5.828926,-0.2491684,-1.2276856,-0.04991455,1.6747925,0.0
18445,-10.857598,-5.3404465,-0.052642822,-1.2276856,-0.04991455,1.6747925,0.0
18446,-10.857598,-5.3404465,-0.052642822,-0.41843262,-0.66481936,5.075354,0.0
18447,-3.0048409,-6.2329636,-0.6684456,-0.41843262,-0.66481936,5.075354,0.0
18448,-3.0048409,-6.2329636,-0.6684456,1.536731,0.77951664,6.147986,0.0
18449,3.2661104,-4.974991,-0.97390366,1.536731,0.77951664,6.147986,0.0
18450,3.2661104,-4.974991,-0.97390366,2.5913086,0.84323734,6.4952636,0.0
18451,7.3405743,-2.3632355,-0.011657715,2.5913086,0.84323734,6.4952636,0.0
18452,7.3405743,-2.3632355,-0.011657715,3.511011,0.60959476,7.410718,0.0
18453,8.555211,-1.7177124,0.47060394,3.511011,0.60959476,7.410718,0.0
18454,8.555211,-1.7177124,0.47060394,3.9400635,0.34727785,6.529248,0.0
18455,13.701212,1.3786621,-0.18273544,3.9400635,0.34727785,6.529248,0.0
18456,13.701212,1.3786621,-0.18273544,3.9644897,1.4252198,6.0895753,0.0
18457,11.004499,2.0605164,0.010303497,3.9644897,1.4252198,6.0895753,0.0
18458,11.004499,2.0605164,0.010303497,3.5078247,1.545227,5.8219485,0.0
18459,8.849743,3.7593842,0.67707825,3.5078247,1.545227,5.8219485,0.0
18460,8.849743,3.7593842,0.67707825,2.7591064,0.996167,4.4593873,0.0
18461,6.9617767,2.7171173,1.035656,2.7591064,0.996167,4.4593873,0.0
18462,6.9617767,2.7171173,1.035656,2.807959,0.79969484,3.9942262,0.0
18463,4.0089226,3.741188,0.2693596,2.807959,0.79969484,3.9942262,0.0
18464,4.0089226,3.741188,0.2693596,1.5165528,0.3154175,3.8795288,0.0
18465,1.0933552,4.4490204,-0.30813217,1.5165528,0.3154175,3.8795288,0.0
18466,1.0933552,4.4490204,-0.30813217,1.0588257,0.03717041,4.0303345,0.0
18467,-5.528698,9.141052,-2.8262787,1.0588257,0.03717041,4.0303345,0.0
18468,-5.528698,9.141052,-2.8262787,0.72960204,-1.3349488,3.4972045,0.0
18469,-6.499777,8.859207,-2.9073868,0.72960204,-1.3349488,3.4972045,0.0
18470,-6.499777,8.859207,-2.9073868,1.3413209,-1.7767457,2.972571,0.0
18471,-10.132244,11.747955,-3.6245308,1.3413209,-1.7767457,2.972571,0.0
18472,-10.132244,11.747955,-3.6245308,3.882715,-2.7537963,0.77526855,0.0
18473,-9.484238,11.1571045,-3.1994896,3.882715,-2.7537963,0.77526855,0.0
18474,-9.484238,11.1571045,-3.1994896,3.9517457,-2.8408813,-0.05522461,0.0
18475,-10.46195,14.266563,-3.1287575,3.9517457,-2.8408813,-0.05522461,0.0
18476,-10.46195,14.266563,-3.1287575,2.9991212,-3.5099487,-1.5930176,0.0
18477,-8.017254,13.2981415,-1.7904701,2.9991212,-3.5099487,-1.5930176,0.0
18478,-8.017254,13.2981415,-1.7904701,2.0528686,-3.888025,-2.5838745,0.0
18479,-2.8490934,9.947433,1.8176346,2.0528686,-3.888025,-2.5838745,0.0
18480,-2.8490934,9.947433,1.8176346,-1.2414917,-4.8448977,-4.0005984,0.0
18481,0.4340191,6.207443,1.6980553,-1.2414917,-4.8448977,-4.0005984,0.0
18482,0.4340191,6.207443,1.6980553,-1.2489258,-4.616565,-4.3022094,0.0
18483,5.3893175,1.0613174,1.8387184,-1.2489258,-4.616565,-4.3022094,0.0
18484,5.3893175,1.0613174,1.8387184,-1.5919555,-3.8742187,-4.4923096,0.0
18485,9.222087,-1.1303024,1.621975,-1.5919555,-3.8742187,-4.4923096,0.0
18486,9.222087,-1.1303024,1.621975,-2.7357423,-3.617212,-4.6537356,0.0
18487,12.025558,-1.5709915,1.8195152,-2.7357423,-3.617212,-4.6537356,0.0
18488,12.025558,-1.5709915,1.8195152,-5.241028,-3.355957,-4.8024173,0.0
18489,13.608692,-3.0606232,2.6518517,-5.241028,-3.355957,-4.8024173,0.0
18490,13.608692,-3.0606232,2.6518517,-6.3656983,-3.534375,-4.0271487,0.0
18491,15.299356,-10.695702,2.080368,-6.3656983,-3.534375,-4.0271487,0.0
18492,15.299356,-10.695702,2.080368,-5.1167727,-1.3115845,-3.3803833,0.0
18493,12.414558,-11.199127,1.1907578,-5.1167727,-1.3115845,-3.3803833,0.0
18494,12.414558,-11.199127,1.1907578,-4.710022,-0.56817627,-3.3984375,0.0
18495,3.8398132,-12.012733,1.6883965,-4.710022,-0.56817627,-3.3984375,0.0
18496,3.8398132,-12.012733,1.6883965,-4.7790527,0.815625,-1.8309082,0.0
18497,-0.34780312,-8.866241,1.6915283,-4.7790527,0.815625,-1.8309082,0.0
18498,-0.34780312,-8.866241,1.6915283,-4.721704,1.0450195,-1.6185058,0.0
18499,-7.362385,-6.6603546,1.1301651,-4.721704,1.0450195,-1.6185058,0.0
18500,-7.362385,-6.6603546,1.1301651,-3.7361572,1.454956,-1.6450561,0.0
18501,-12.1532135,-6.3668976,0.008720398,-3.7361572,1.454956,-1.6450561,0.0
18502,-12.1532135,-6.3668976,0.008720398,-2.4840455,1.9742798,-2.069861,0.0
18503,-15.53269,-6.611252,-0.010421753,-2.4840455,1.9742798,-2.069861,0.0
18504,-15.53269,-6.611252,-0.010421753,-1.6110718,1.5250489,-2.0231323,0.0
18505,-16.990873,-6.5782166,0.34099197,-1.6110718,1.5250489,-2.0231323,0.0
18506,-16.990873,-6.5782166,0.34099197,-0.95368654,1.0535157,0.22514649,0.0
18507,-14.829783,-6.238533,-0.47792816,-0.95368654,1.0535157,0.22514649,0.0
18508,-14.829783,-6.238533,-0.47792816,-1.0375855,0.73703617,2.4266968,0.0
18509,-9.850912,-5.7684097,-1.3500786,-1.0375855,0.73703617,2.4266968,0.0
18510,-9.850912,-5.7684097,-1.3500786,-0.057348635,0.6903076,4.043079,0.0
18511,-4.534648,-4.2329025,-1.0799408,-0.057348635,0.6903076,4.043079,0.0
18512,-4.534648,-4.2329025,-1.0799408,1.0280274,0.6138428,5.691321,0.0
18513,-0.20790625,-2.0195694,-0.29226303,1.0280274,0.6138428,5.691321,0.0
18514,-0.20790625,-2.0195694,-0.29226303,1.4719483,0.5564942,6.694922,0.0
18515,3.8665,-0.7416458,0.5995178,1.4719483,0.5564942,6.694922,0.0
18516,3.8665,-0.7416458,0.5995178,2.2790773,0.544812,7.410718,0.0
18517,9.174914,-1.1388931,1.0076027,2.2790773,0.544812,7.410718,0.0
18518,9.174914,-1.1388931,1.0076027,3.3665771,0.544812,6.068335,0.0
18519,12.290994,-0.85754395,0.5618286,3.3665771,0.544812,6.068335,0.0
18520,12.290994,-0.85754395,0.5618286,3.3963134,1.2287476,5.5670657,0.0
18521,11.207991,1.2435303,0.45760727,3.3963134,1.2287476,5.5670657,0.0
18522,11.207991,1.2435303,0.45760727,2.6157348,1.1076783,5.0328736,0.0
18523,8.716648,2.2456512,1.3877258,2.6157348,1.1076783,5.0328736,0.0
18524,8.716648,2.2456512,1.3877258,2.6539674,0.32816163,4.1269774,0.0
18525,6.2222557,2.0395508,2.2476425,2.6539674,0.32816163,4.1269774,0.0
18526,6.2222557,2.0395508,2.2476425,2.8589356,-0.4439209,3.5811036,0.0
18527,3.5108242,3.1744308,1.4900208,2.8589356,-0.4439209,3.5811036,0.0
18528,3.5108242,3.1744308,1.4900208,2.6412232,-0.70092773,3.08833,0.0
18529,0.029497147,5.904358,-1.165493,2.6412232,-0.70092773,3.08833,0.0
18530,0.029497147,5.904358,-1.165493,2.073047,-0.83686525,2.447937,0.0
18531,-3.9258041,9.288124,-3.698372,2.073047,-0.83686525,2.447937,0.0
18532,-3.9258041,9.288124,-3.698372,2.3268678,-1.0609497,1.9126831,0.0
18533,-8.127253,12.899498,-4.431511,2.3268678,-1.0609497,1.9126831,0.0
18534,-8.127253,12.899498,-4.431511,3.5057008,-1.987024,1.0577637,0.0
18535,-11.161543,15.569489,-4.550041,3.5057008,-1.987024,1.0577637,0.0
18536,-11.161543,15.569489,-4.550041,3.2922363,-2.5668824,-0.12531738,0.0
18537,-11.505566,16.492844,-4.594097,3.2922363,-2.5668824,-0.12531738,0.0
18538,-11.505566,16.492844,-4.594097,1.5038086,-2.8727417,-1.8457764,0.0
18539,-9.07451,14.461388,-3.3519402,1.5038086,-2.8727417,-1.8457764,0.0
18540,-9.07451,14.461388,-3.3519402,-1.2085694,-3.6915529,-3.6342041,0.0
18541,-3.4809213,9.535439,-1.5602379,-1.2085694,-3.6915529,-3.6342041,0.0
18542,-3.4809213,9.535439,-1.5602379,-2.2121704,-4.1322875,-5.503345,0.0
18543,3.4825726,4.2925034,-0.70903015,-2.2121704,-4.1322875,-5.503345,0.0
18544,3.4825726,4.2925034,-0.70903015,-2.1367676,-3.5439332,-4.770557,0.0
18545,7.338585,0.34270477,0.16756439,-2.1367676,-3.5439332,-4.770557,0.0
18546,7.338585,0.34270477,0.16756439,-1.9137452,-2.9470825,-5.2718263,0.0
18547,8.868916,-1.208786,0.90050507,-1.9137452,-2.9470825,-5.2718263,0.0
18548,8.868916,-1.208786,0.90050507,-1.896753,-2.9194703,-5.2909427,0.0
18549,10.721866,-0.8736496,0.7731247,-1.896753,-2.9194703,-5.2909427,0.0
18550,10.721866,-0.8736496,0.7731247,-2.6826417,-2.0464966,-5.3674073,0.0
18551,11.640835,-0.7970886,1.5345497,-2.6826417,-2.0464966,-5.3674073,0.0
18552,11.640835,-0.7970886,1.5345497,-3.8763428,-2.5679443,-5.5617557,0.0
18553,11.941929,-1.4267807,2.9251022,-3.8763428,-2.5679443,-5.5617557,0.0
18554,11.941929,-1.4267807,2.9251022,-5.2187257,-2.8100832,-4.792859,0.0
18555,12.275845,-2.5585022,2.1508865,-5.2187257,-2.8100832,-4.792859,0.0
18556,12.275845,-2.5585022,2.1508865,-6.789441,-1.9243653,-3.8115602,0.0
18557,10.174862,-5.6469574,-0.022586823,-6.789441,-1.9243653,-3.8115602,0.0
18558,10.174862,-5.6469574,-0.022586823,-7.062378,-0.11469727,-2.6932619,0.0
18559,3.2287674,-10.246193,-0.42290497,-7.062378,-0.11469727,-2.6932619,0.0
18560,3.2287674,-10.246193,-0.42290497,-6.299854,0.8071289,-2.2928834,0.0
18561,-5.3566093,-12.343918,0.9413376,-6.299854,0.8071289,-2.2928834,0.0
18562,-5.3566093,-12.343918,0.9413376,-3.620398,0.90270996,-0.9589966,0.0
18563,-11.209763,-10.962967,1.6682434,-3.620398,0.90270996,-0.9589966,0.0
18564,-11.209763,-10.962967,1.6682434,-0.96218264,1.0290893,-1.4145997,0.0
18565,-14.727259,-9.179153,1.4578476,-0.96218264,1.0290893,-1.4145997,0.0
18566,-14.727259,-9.179153,1.4578476,-0.6616333,1.3222046,-1.8287842,0.0
18567,-16.678988,-8.08242,1.0134583,-0.6616333,1.3222046,-1.8287842,0.0
18568,-16.678988,-8.08242,1.0134583,-2.1027832,0.9303223,-0.55755615,0.0
18569,-15.2773695,-7.5445404,0.12800217,-2.1027832,0.9303223,-0.55755615,0.0
18570,-15.2773695,-7.5445404,0.12800217,-2.3714721,0.61702883,1.9976441,0.0
18571,-10.022787,-7.563797,-0.45906067,-2.3714721,0.61702883,1.9976441,0.0
18572,-10.022787,-7.563797,-0.45906067,-0.3334717,0.5628662,3.707483,0.0
18573,-3.9063282,-6.1709366,0.18557358,-0.3334717,0.5628662,3.707483,0.0
18574,-3.9063282,-6.1709366,0.18557358,1.634436,0.20921631,5.3557253,0.0
18575,0.60933685,-2.6534882,1.1952972,1.634436,0.20921631,5.3557253,0.0
18576,0.60933685,-2.6534882,1.1952972,2.1781862,0.09451904,6.7490845,0.0
18577,4.8699646,0.073402405,1.7608643,2.1781862,0.09451904,6.7490845,0.0
18578,4.8699646,0.073402405,1.7608643,2.8398194,0.3462158,7.670911,0.0
18579,11.114649,0.61968994,1.3745956,2.8398194,0.3462158,7.670911,0.0
18580,11.114649,0.61968994,1.3745956,3.8901489,1.2021973,6.678992,0.0
18581,14.882748,1.7677994,0.51000595,3.8901489,1.2021973,6.678992,0.0
18582,14.882748,1.7677994,0.51000595,3.519507,1.8394043,5.9345217,0.0
18583,13.396725,3.9461212,0.7202606,3.519507,1.8394043,5.9345217,0.0
18584,13.396725,3.9461212,0.7202606,2.451123,1.7958618,5.6690187,0.0
18585,10.242624,4.3072586,1.6568489,2.451123,1.7958618,5.6690187,0.0
18586,10.242624,4.3072586,1.6568489,1.803296,1.1236085,5.0063233,0.0
18587,6.8175507,3.248169,1.9185333,1.803296,1.1236085,5.0063233,0.0
18588,6.8175507,3.248169,1.9185333,1.803296,1.1236085,5.0063233,0.0
18589,6.8175507,3.248169,1.9185333,1.6535523,0.32816163,4.4912477,0.0
18590,3.0725594,2.9815216,1.2681999,1.6535523,0.32816163,4.4912477,0.0
18591,3.0725594,2.9815216,1.2681999,1.9498535,-0.36533204,4.1429076,0.0
18592,-0.85684586,3.9008331,-0.11330795,1.9498535,-0.36533204,4.1429076,0.0
18593,-0.85684586,3.9008331,-0.11330795,2.2376587,-1.0004151,3.1881592,0.0
18594,-5.2007847,6.506668,-2.8860817,2.2376587,-1.0004151,3.1881592,0.0
18595,-5.2007847,6.506668,-2.8860817,3.2051513,-0.540564,2.4118288,0.0
18596,-10.381136,11.44458,-5.0202904,3.2051513,-0.540564,2.4118288,0.0
18597,-10.381136,11.44458,-5.0202904,4.2714114,0.13912354,2.707068,0.0
18598,-14.940418,15.594002,-4.6216507,4.2714114,0.13912354,2.707068,0.0
18599,-14.940418,15.594002,-4.6216507,4.2830935,-1.3370727,2.0709229,0.0
18600,-16.844109,15.681374,-3.5761795,4.2830935,-1.3370727,2.0709229,0.0
18601,-16.844109,15.681374,-3.5761795,3.1201904,-2.1962402,0.21452637,0.0
18602,-15.024065,12.686119,-2.6700134,3.1201904,-2.1962402,0.21452637,0.0
18603,-15.024065,12.686119,-2.6700134,-0.6053467,-3.1361206,-2.4266968,0.0
18604,-9.022108,8.530975,-1.6897812,-0.6053467,-3.1361206,-2.4266968,0.0
18605,-9.022108,8.530975,-1.6897812,-3.5768554,-3.4600341,-5.5298953,0.0
18606,0.6919446,4.84795,-1.5602226,-3.5768554,-3.4600341,-5.5298953,0.0
18607,0.6919446,4.84795,-1.5602226,-4.4806275,-4.2098145,-6.1033816,0.0
18608,8.0157995,0.9226227,-1.7887192,-4.4806275,-4.2098145,-6.1033816,0.0
18609,8.0157995,0.9226227,-1.7887192,-3.99104,-3.2391357,-4.162024,0.0
18610,10.058856,-2.9004288,-0.84690475,-3.99104,-3.2391357,-4.162024,0.0
18611,10.058856,-2.9004288,-0.84690475,-3.1223145,-2.9598267,-5.8442507,0.0
18612,12.188112,-4.263199,0.007633209,-3.1223145,-2.9598267,-5.8442507,0.0
18613,12.188112,-4.263199,0.007633209,-1.5707153,-2.5159059,-5.0997806,0.0
18614,14.232973,-3.3655243,0.70757294,-1.5707153,-2.5159059,-5.0997806,0.0
18615,14.232973,-3.3655243,0.70757294,-2.005078,-2.450061,-6.6407595,0.0
18616,13.434317,-2.1028595,2.6234932,-2.005078,-2.450061,-6.6407595,0.0
18617,13.434317,-2.1028595,2.6234932,-3.1042602,-3.08302,-5.9971805,0.0
18618,11.787481,-1.2259903,3.4943619,-3.1042602,-3.08302,-5.9971805,0.0
18619,11.787481,-1.2259903,3.4943619,-5.4375,-2.9608886,-5.2027955,0.0
18620,9.222013,-2.1335373,1.740448,-5.4375,-2.9608886,-5.2027955,0.0
18621,9.222013,-2.1335373,1.740448,-7.236548,-1.263794,-3.3570192,0.0
18622,4.2008286,-6.895157,-0.29331207,-7.236548,-1.263794,-3.3570192,0.0
18623,4.2008286,-6.895157,-0.29331207,-7.304517,0.65632325,-2.0348146,0.0
18624,-2.9900455,-13.670044,0.19135284,-7.304517,0.65632325,-2.0348146,0.0
18625,-2.9900455,-13.670044,0.19135284,-3.6363282,1.1108643,-2.5169678,0.0
18626,-9.776375,-15.987015,2.3815842,-3.6363282,1.1108643,-2.5169678,0.0
18627,-9.776375,-15.987015,2.3815842,0.0637207,1.6078857,-1.5993897,0.0
18628,-14.053595,-12.309135,3.6999207,0.0637207,1.6078857,-1.5993897,0.0
18629,-14.053595,-12.309135,3.6999207,-0.8963379,1.3816773,-1.1161743,0.0
18630,-14.946356,-8.341278,3.3154907,-0.8963379,1.3816773,-1.1161743,0.0
18631,-14.946356,-8.341278,3.3154907,-3.0341675,1.270166,-0.0063720704,0.0
18632,-12.843816,-7.5963516,1.9268036,-3.0341675,1.270166,-0.0063720704,0.0
18633,-12.843816,-7.5963516,1.9268036,-2.3619142,1.2722901,1.8680786,0.0
18634,-8.954374,-7.5400314,1.0426178,-2.3619142,1.2722901,1.8680786,0.0
18635,-8.954374,-7.5400314,1.0426178,-0.14337158,1.183081,4.088745,0.0
18636,-4.1744366,-4.842911,1.3363876,-0.14337158,1.183081,4.088745,0.0
18637,-4.1744366,-4.842911,1.3363876,1.2595459,0.87615967,6.143738,0.0
18638,0.68667126,-0.8000488,1.8724556,1.2595459,0.87615967,6.143738,0.0
18639,0.68667126,-0.8000488,1.8724556,1.7947998,0.85598147,7.3714232,0.0
18640,6.0218353,1.5906296,1.8074112,1.7947998,0.85598147,7.3714232,0.0
18641,6.0218353,1.5906296,1.8074112,2.8780518,1.3476928,8.065979,0.0
18642,11.92782,2.2467804,1.0021896,2.8780518,1.3476928,8.065979,0.0
18643,11.92782,2.2467804,1.0021896,3.7796998,2.1898682,6.864844,0.0
18644,13.967049,3.8071823,0.24917603,3.7796998,2.1898682,6.864844,0.0
18645,13.967049,3.8071823,0.24917603,3.2826784,2.6029909,5.9430175,0.0
18646,10.796173,5.9687805,0.658947,3.2826784,2.6029909,5.9430175,0.0
18647,10.796173,5.9687805,0.658947,2.2249146,2.3247437,5.6318483,0.0
18648,6.7487183,6.023514,1.4568787,2.2249146,2.3247437,5.6318483,0.0
18649,6.7487183,6.023514,1.4568787,1.6163819,1.5707153,4.992517,0.0
18650,3.2994995,4.685646,1.3313332,1.6163819,1.5707153,4.992517,0.0
18651,3.2994995,4.685646,1.3313332,1.2776002,0.6945557,4.0409546,0.0
18652,-0.57357216,4.127632,0.23231506,1.2776002,0.6945557,4.0409546,0.0
18653,-0.57357216,4.127632,0.23231506,1.1395386,-0.11257324,3.3368409,0.0
18654,-4.4911346,4.476471,-1.6421051,1.1395386,-0.11257324,3.3368409,0.0
18655,-4.4911346,4.476471,-1.6421051,1.3901733,-0.8517334,2.4649293,0.0
18656,-7.7064095,5.697441,-3.8524323,1.3901733,-0.8517334,2.4649293,0.0
18657,-7.7064095,5.697441,-3.8524323,2.6996338,-1.2170655,1.717273,0.0
18658,-10.791264,8.802498,-5.6963005,2.6996338,-1.2170655,1.717273,0.0
18659,-10.791264,8.802498,-5.6963005,3.5864136,-0.9897949,1.3806152,0.0
18660,-13.282877,12.238998,-5.7528076,3.5864136,-0.9897949,1.3806152,0.0
18661,-13.282877,12.238998,-5.7528076,3.003369,-1.3285767,0.72641605,0.0
18662,-13.380879,12.475121,-3.9228745,3.003369,-1.3285767,0.72641605,0.0
18663,-13.380879,12.475121,-3.9228745,1.0450195,-2.5445802,-0.8687256,0.0
18664,-10.422173,9.448517,-2.0604439,1.0450195,-2.5445802,-0.8687256,0.0
18665,-10.422173,9.448517,-2.0604439,-1.2499878,-3.0978882,-3.6331422,0.0
18666,-4.6362,6.0545044,-1.2963791,-1.2499878,-3.0978882,-3.6331422,0.0
18667,-4.6362,6.0545044,-1.2963791,-2.9736328,-3.717041,-5.158191,0.0
18668,1.8780031,3.1852646,-1.2407913,-2.9736328,-3.717041,-5.158191,0.0
18669,1.8780031,3.1852646,-1.2407913,-3.6841187,-4.1121097,-5.0434937,0.0
18670,5.866148,0.47041702,-0.8451233,-3.6841187,-4.1121097,-5.0434937,0.0
18671,5.866148,0.47041702,-0.8451233,-3.6958008,-4.0515747,-5.3875856,0.0
18672,9.149193,-1.038826,-0.5796623,-3.6958008,-4.0515747,-5.3875856,0.0
18673,9.149193,-1.038826,-0.5796623,-3.0108032,-3.9952881,-5.619104,0.0
18674,12.997065,-1.8927078,-0.9266319,-3.0108032,-3.9952881,-5.619104,0.0
18675,12.997065,-1.8927078,-0.9266319,-2.2833252,-3.2986085,-5.9578857,0.0
18676,14.44858,-2.1706123,-0.04685974,-2.2833252,-3.2986085,-5.9578857,0.0
18677,14.44858,-2.1706123,-0.04685974,-1.5749635,-3.09364,-6.9742312,0.0
18678,13.844728,-1.6050568,2.4336166,-1.5749635,-3.09364,-6.9742312,0.0
18679,13.844728,-1.6050568,2.4336166,-1.176709,-3.0532837,-6.0269165,0.0
18680,11.644056,-1.2979279,3.7293777,-1.176709,-3.0532837,-6.0269165,0.0
18681,11.644056,-1.2979279,3.7293777,-2.7463624,-2.5891845,-5.4502444,0.0
18682,6.5322113,-2.1161118,2.9831848,-2.7463624,-2.5891845,-5.4502444,0.0
18683,6.5322113,-2.1161118,2.9831848,-5.969568,-1.0694458,-3.709607,0.0
18684,-0.35689545,-3.857521,3.06361,-5.969568,-1.0694458,-3.709607,0.0
18685,-0.35689545,-3.857521,3.06361,-8.239087,-0.8071289,-1.2351197,0.0
18686,-5.386553,-8.475288,2.8782196,-8.239087,-0.8071289,-1.2351197,0.0
18687,-5.386553,-8.475288,2.8782196,-6.068335,-0.22196046,0.0180542,0.0
18688,-8.580715,-15.179001,1.1302223,-6.068335,-0.22196046,0.0180542,0.0
18689,-8.580715,-15.179001,1.1302223,-0.53100586,1.3455689,-1.9562256,0.0
18690,-12.701841,-16.72615,0.8684006,-0.53100586,1.3455689,-1.9562256,0.0
18691,-12.701841,-16.72615,0.8684006,1.4199097,2.167566,-1.4878784,0.0
18692,-15.409764,-11.691696,2.1004105,1.4199097,2.167566,-1.4878784,0.0
18693,-15.409764,-11.691696,2.1004105,-1.4252198,1.6662964,-0.07646485,0.0
18694,-13.33007,-7.232277,2.6319733,-1.4252198,1.6662964,-0.07646485,0.0
18695,-13.33007,-7.232277,2.6319733,-2.0114503,1.2722901,2.0358765,0.0
18696,-8.115692,-5.678131,1.8394165,-2.0114503,1.2722901,2.0358765,0.0
18697,-8.115692,-5.678131,1.8394165,0.5246338,1.0981201,4.631433,0.0
18698,-2.4922,-3.7996979,0.8603134,0.5246338,1.0981201,4.631433,0.0
18699,-2.4922,-3.7996979,0.8603134,1.902063,1.2754761,6.51969,0.0
18700,2.8520527,-0.70880127,0.3343048,1.902063,1.2754761,6.51969,0.0
18701,2.8520527,-0.70880127,0.3343048,2.2089844,1.8638306,7.3958497,0.0
18702,10.011574,1.7683411,0.04319763,2.2089844,1.8638306,7.3958497,0.0
18703,10.011574,1.7683411,0.04319763,3.2837403,2.8100832,7.509485,0.0
18704,16.993597,3.773407,-0.21046066,3.2837403,2.8100832,7.509485,0.0
18705,16.993597,3.773407,-0.21046066,3.0320435,2.7283082,5.5564456,0.0
18706,17.724968,6.2057877,0.021522522,3.0320435,2.7283082,5.5564456,0.0
18707,17.724968,6.2057877,0.021522522,2.259961,2.7113159,6.074707,0.0
18708,13.48642,7.0538177,0.5310364,2.259961,2.7113159,6.074707,0.0
18709,13.48642,7.0538177,0.5310364,1.264856,2.1484497,5.790088,0.0
18710,7.899132,5.583748,0.4680786,1.264856,2.1484497,5.790088,0.0
18711,7.899132,5.583748,0.4680786,0.75509036,1.3041505,5.149695,0.0
18712,1.6133118,4.26651,-0.33232498,0.75509036,1.3041505,5.149695,0.0
18713,1.6133118,4.26651,-0.33232498,0.48321533,0.45029297,4.6951537,0.0
18714,-3.91111,3.9698029,-1.7052994,0.48321533,0.45029297,4.6951537,0.0
18715,-3.91111,3.9698029,-1.7052994,0.63933104,-0.3090454,4.2714114,0.0
18716,-7.8736515,4.7841644,-3.384674,0.63933104,-0.3090454,4.2714114,0.0
18717,-7.8736515,4.7841644,-3.384674,1.8309082,-0.9197022,3.7573974,0.0
18718,-11.652193,7.3204117,-5.2405014,1.8309082,-0.9197022,3.7573974,0.0
18719,-11.652193,7.3204117,-5.2405014,4.0282106,-0.5713623,3.4143677,0.0
18720,-15.56448,10.881882,-6.351948,4.0282106,-0.5713623,3.4143677,0.0
18721,-15.56448,10.881882,-6.351948,4.88313,-0.5649902,2.1218994,0.0
18722,-17.46389,13.484718,-5.352127,4.88313,-0.5649902,2.1218994,0.0
18723,-17.46389,13.484718,-5.352127,3.161609,-1.7045288,0.26975098,0.0
18724,-15.21574,12.375458,-3.1886978,3.161609,-1.7045288,0.26975098,0.0
18725,-15.21574,12.375458,-3.1886978,-1.4135376,-2.9417725,-2.3990846,0.0
18726,-8.143796,7.8279915,-1.8662796,-1.4135376,-2.9417725,-2.3990846,0.0
18727,-8.143796,7.8279915,-1.8662796,-3.797754,-3.439856,-5.26333,0.0
18728,1.0876975,3.3213043,-1.7982368,-3.797754,-3.439856,-5.26333,0.0
18729,1.0876975,3.3213043,-1.7982368,-4.145032,-4.0292726,-4.1046753,0.0
18730,6.3979416,-0.71655273,-1.3326454,-4.145032,-4.0292726,-4.1046753,0.0
18731,6.3979416,-0.71655273,-1.3326454,-3.250818,-3.4302979,-4.2098145,0.0
18732,8.299457,-3.5396729,0.17063904,-3.250818,-3.4302979,-4.2098145,0.0
18733,8.299457,-3.5396729,0.17063904,-1.6928467,-3.3910034,-5.082788,0.0
18734,11.561575,-3.9439468,0.9807625,-1.6928467,-3.3910034,-5.082788,0.0
18735,11.561575,-3.9439468,0.9807625,-0.24001466,-2.71875,-5.2983766,0.0
18736,13.35103,-2.6574287,1.6639557,-0.24001466,-2.71875,-5.2983766,0.0
18737,13.35103,-2.6574287,1.6639557,0.40037844,-2.7028198,-6.412427,0.0
18738,12.1273575,-0.98238754,4.1555786,0.40037844,-2.7028198,-6.412427,0.0
18739,12.1273575,-0.98238754,4.1555786,0.9717407,-3.5853517,-5.961072,0.0
18740,10.1234665,0.11860657,6.1919937,0.9717407,-3.5853517,-5.961072,0.0
18741,10.1234665,0.11860657,6.1919937,-1.2552979,-4.3000855,-5.237842,0.0
18742,7.134796,0.30894852,4.722492,-1.2552979,-4.3000855,-5.237842,0.0
18743,7.134796,0.30894852,4.722492,-6.411365,-2.7261841,-3.719165,0.0
18744,3.0784664,-1.8310013,2.5670433,-6.411365,-2.7261841,-3.719165,0.0
18745,3.0784664,-1.8310013,2.5670433,-9.115247,-1.3986695,-2.0656128,0.0
18746,-1.0814285,-8.678192,1.4057465,-9.115247,-1.3986695,-2.0656128,0.0
18747,-1.0814285,-8.678192,1.4057465,-6.794751,0.1539917,-0.1444336,0.0
18748,-5.5363216,-16.484375,0.40423584,-6.794751,0.1539917,-0.1444336,0.0
18749,-5.5363216,-16.484375,0.40423584,-1.3933594,1.8054199,-1.9710938,0.0
18750,-11.147284,-17.361404,1.0894012,-1.3933594,1.8054199,-1.9710938,0.0
18751,-11.147284,-17.361404,1.0894012,0.3462158,2.6635253,-1.4708862,0.0
18752,-15.396574,-12.425919,2.452198,0.3462158,2.6635253,-1.4708862,0.0
18753,-15.396574,-12.425919,2.452198,-2.1197755,1.8192261,-1.1544068,0.0
18754,-15.067687,-8.976242,2.756363,-2.1197755,1.8192261,-1.1544068,0.0
18755,-15.067687,-8.976242,2.756363,-2.701758,1.4751343,0.48321533,0.0
18756,-10.609033,-7.6053467,2.0016708,-2.701758,1.4751343,0.48321533,0.0
18757,-10.609033,-7.6053467,2.0016708,-0.5809204,1.4793824,3.43136,0.0
18758,-4.475153,-5.3296814,1.2173538,-0.5809204,1.4793824,3.43136,0.0
18759,-4.475153,-5.3296814,1.2173538,0.5097656,1.5569092,5.673267,0.0
18760,1.4252119,-1.8764801,0.86808777,0.5097656,1.5569092,5.673267,0.0
18761,1.4252119,-1.8764801,0.86808777,1.1002442,1.9222412,7.0305176,0.0
18762,1.4252119,-1.8764801,0.86808777,1.1002442,1.9222412,7.0305176,0.0
18763,8.372885,0.43621826,0.4541626,1.1002442,1.9222412,7.0305176,0.0
18764,8.372885,0.43621826,0.4541626,2.2089844,2.899292,7.533911,0.0
18765,14.967693,2.3979874,-0.1412735,2.2089844,2.899292,7.533911,0.0
18766,14.967693,2.3979874,-0.1412735,2.3704102,3.1849732,6.255249,0.0
18767,16.10931,5.0292664,-0.07053757,2.3704102,3.1849732,6.255249,0.0
18768,16.10931,5.0292664,-0.07053757,1.63125,2.8313234,6.259497,0.0
18769,12.625118,5.9386215,0.5160904,1.63125,2.8313234,6.259497,0.0
18770,12.625118,5.9386215,0.5160904,1.1990112,2.1017213,5.865491,0.0
18771,7.960642,4.642311,0.5874939,1.1990112,2.1017213,5.865491,0.0
18772,7.960642,4.642311,0.5874939,0.86978763,1.2765381,5.1996093,0.0
18773,2.7267036,3.3375015,0.18146896,0.86978763,1.2765381,5.1996093,0.0
18774,2.7267036,3.3375015,0.18146896,1.0715698,0.544812,5.0286255,0.0
18775,-1.952219,2.7266998,-0.5297165,1.0715698,0.544812,5.0286255,0.0
18776,-1.952219,2.7266998,-0.5297165,1.5165528,-0.08496094,4.7620606,0.0
18777,-4.7644615,2.627922,-1.8502998,1.5165528,-0.08496094,4.7620606,0.0
18778,-4.7644615,2.627922,-1.8502998,1.9222412,-0.48640138,4.1375976,0.0
18779,-6.60256,4.0948944,-4.158169,1.9222412,-0.48640138,4.1375976,0.0
18780,-6.60256,4.0948944,-4.158169,2.5870607,-0.47684327,3.5534914,0.0
18781,-10.025772,8.453697,-6.1798553,2.5870607,-0.47684327,3.5534914,0.0
18782,-10.025772,8.453697,-6.1798553,3.5811036,0.32709962,4.2268066,0.0
18783,-15.146826,13.774467,-6.4277115,3.5811036,0.32709962,4.2268066,0.0
18784,-15.146826,13.774467,-6.4277115,3.1424928,-0.5278198,3.5152588,0.0
18785,-18.567888,15.600204,-4.966633,3.1424928,-0.5278198,3.5152588,0.0
18786,-18.567888,15.600204,-4.966633,0.24638672,-1.9498535,0.81881106,0.0
18787,-16.578127,12.35952,-2.4496498,0.24638672,-1.9498535,0.81881106,0.0
18788,-16.578127,12.35952,-2.4496498,-1.5048707,-3.2848022,-2.6783936,0.0
18789,-8.302505,6.654827,-0.40309143,-1.5048707,-3.2848022,-2.6783936,0.0
18790,-8.302505,6.654827,-0.40309143,-3.2826784,-3.5917237,-6.2000246,0.0
18791,3.0006843,2.580124,-0.018714905,-3.2826784,-3.5917237,-6.2000246,0.0
18792,3.0006843,2.580124,-0.018714905,-3.6554444,-4.438147,-5.4969726,0.0
18793,11.007616,-0.74705505,-0.31585312,-3.6554444,-4.438147,-5.4969726,0.0
18794,11.007616,-0.74705505,-0.31585312,-3.4780884,-3.524817,-4.4646974,0.0
18795,15.029164,-4.7399406,0.2434349,-3.4780884,-3.524817,-4.4646974,0.0
18796,15.029164,-4.7399406,0.2434349,-2.819641,-2.8132691,-4.5995727,0.0
18797,16.290154,-8.012791,2.7274017,-2.819641,-2.8132691,-4.5995727,0.0
18798,16.290154,-8.012791,2.7274017,-1.8394043,-2.5785644,-5.1518188,0.0
18799,14.971687,-9.08046,5.4292374,-1.8394043,-2.5785644,-5.1518188,0.0
18800,14.971687,-9.08046,5.4292374,-1.8765748,-2.1951783,-3.4016235,0.0
18801,12.85025,-8.788902,5.4615784,-1.8765748,-2.1951783,-3.4016235,0.0
18802,12.85025,-8.788902,5.4615784,-2.981067,-1.1193603,-2.4936035,0.0
18803,8.333496,-9.064812,3.8051262,-2.981067,-1.1193603,-2.4936035,0.0
18804,8.333496,-9.064812,3.8051262,-4.803479,0.052038576,-2.2843874,0.0
18805,1.2371826,-8.445526,2.4903183,-4.803479,0.052038576,-2.2843874,0.0
18806,1.2371826,-8.445526,2.4903183,-5.9015994,0.41524658,-1.6631104,0.0
18807,-5.395508,-6.898903,1.0634842,-5.9015994,0.41524658,-1.6631104,0.0
18808,-5.395508,-6.898903,1.0634842,-6.4549074,0.6711914,-1.1979493,0.0
18809,-9.786097,-7.8047028,-0.90473175,-6.4549074,0.6711914,-1.1979493,0.0
18810,-9.786097,-7.8047028,-0.90473175,-4.5613403,1.0174073,-1.7831177,0.0
18811,-13.329367,-10.914772,-1.9688644,-4.5613403,1.0174073,-1.7831177,0.0
18812,-13.329367,-10.914772,-1.9688644,-1.4400879,1.8840088,-2.2089844,0.0
18813,-16.941055,-12.2201,-1.0741158,-1.4400879,1.8840088,-2.2089844,0.0
18814,-16.941055,-12.2201,-1.0741158,0.019116212,1.4921265,-1.0375855,0.0
18815,-16.941055,-12.2201,-1.0741158,-1.9625977,1.0503296,1.811792,0.0
18816,-17.588161,-10.690842,-0.4283104,-1.9625977,1.0503296,1.811792,0.0
18817,-6.5172577,-8.78717,-2.080574,-1.9625977,1.0503296,1.811792,0.0
18818,-6.5172577,-8.78717,-2.080574,-1.8829468,0.45878908,3.5641115,0.0
18819,-6.5172577,-8.78717,-2.080574,0.7391602,-0.12213135,5.6371584,0.0
18820,-6.5172577,-8.78717,-2.080574,2.2015502,-0.5533081,7.3586793,0.0
18821,-5.213806,-7.0297394,-1.6644592,2.2015502,-0.5533081,7.3586793,0.0
18822,-0.5811033,-3.5176544,-0.7565651,2.2015502,-0.5533081,7.3586793,0.0
18823,-0.5811033,-3.5176544,-0.7565651,2.5254638,-0.6244629,8.775403,0.0
18824,4.1993265,-2.7033463,0.11214447,2.5254638,-0.6244629,8.775403,0.0
18825,4.1993265,-2.7033463,0.11214447,3.7042968,-0.9589966,8.552381,0.0
18826,10.623341,-5.0140076,0.47273636,3.7042968,-0.9589966,8.552381,0.0
18827,10.623341,-5.0140076,0.47273636,5.3801513,-0.02442627,7.6432986,0.0
18828,14.556461,-5.904442,0.15857315,5.3801513,-0.02442627,7.6432986,0.0
18829,14.556461,-5.904442,0.15857315,5.157129,0.6860596,7.2715945,0.0
18830,13.252407,-3.7373962,0.6386986,5.157129,0.6860596,7.2715945,0.0
18831,13.252407,-3.7373962,0.6386986,4.0908694,0.7614624,6.254187,0.0
18832,8.550486,-0.7506714,1.942112,4.0908694,0.7614624,6.254187,0.0
18833,8.550486,-0.7506714,1.942112,3.075586,0.19647217,5.8315063,0.0
18834,2.6786327,2.899971,2.2087326,3.075586,0.19647217,5.8315063,0.0
18835,2.6786327,2.899971,2.2087326,1.9402955,-0.71154785,5.7730956,0.0
18836,-2.416811,6.6782455,0.8887253,1.9402955,-0.71154785,5.7730956,0.0
18837,-2.416811,6.6782455,0.8887253,1.5271729,-1.448584,5.4045777,0.0
18838,-5.50519,9.040619,-1.1918488,1.5271729,-1.448584,5.4045777,0.0
18839,-5.50519,9.040619,-1.1918488,2.2748291,-1.8542725,4.2437987,0.0
18840,-6.5922985,10.4952545,-3.2346802,2.2748291,-1.8542725,4.2437987,0.0
18841,-6.5922985,10.4952545,-3.2346802,2.812207,-1.4900025,2.9226563,0.0
18842,-7.6961174,12.983788,-4.236595,2.812207,-1.4900025,2.9226563,0.0
18843,-7.6961174,12.983788,-4.236595,2.6029909,-1.173523,1.910559,0.0
18844,-9.889182,16.534111,-3.596199,2.6029909,-1.173523,1.910559,0.0
18845,-9.889182,16.534111,-3.596199,1.3710572,-0.72323,1.7321411,0.0
18846,-9.889182,16.534111,-3.596199,-1.1692749,-1.3179566,0.6786255,0.0
18847,-11.235015,17.230606,-1.6223335,-1.1692749,-1.3179566,0.6786255,0.0
18848,-4.955102,7.379883,1.018013,-1.1692749,-1.3179566,0.6786255,0.0
18849,-4.955102,7.379883,1.018013,-2.151636,-1.5515991,-1.09281,0.0
18850,-4.955102,7.379883,1.018013,-2.4543092,-1.2117554,-2.8918579,0.0
18851,-4.955102,7.379883,1.018013,-2.8334472,-0.53737795,-4.2374268,0.0
18852,-0.14285374,3.564598,0.79800415,-2.8334472,-0.53737795,-4.2374268,0.0
18853,-0.14285374,3.564598,0.79800415,-3.068152,0.47790527,-4.8140993,0.0
18854,5.340148,-0.82777405,0.81892014,-3.068152,0.47790527,-4.8140993,0.0
18855,5.340148,-0.82777405,0.81892014,-3.6596925,1.5600952,-4.13866,0.0
18856,10.680468,-11.530334,1.6983604,-3.6596925,1.5600952,-4.13866,0.0
18857,10.680468,-11.530334,1.6983604,-3.9644897,2.9470825,-7.1760135,0.0
18858,11.125087,-21.958313,4.554989,-3.9644897,2.9470825,-7.1760135,0.0
18859,11.125087,-21.958313,4.554989,-4.590015,2.275891,-6.785193,0.0
18860,7.3729706,-22.32943,6.5929794,-4.590015,2.275891,-6.785193,0.0
18861,7.3729706,-22.32943,6.5929794,-6.1203737,1.7119629,-6.3667603,0.0
18862,3.2234745,-17.973495,5.184307,-6.1203737,1.7119629,-6.3667603,0.0
18863,3.2234745,-17.973495,5.184307,-6.125684,1.8330323,-5.077478,0.0
18864,-1.2767868,-13.35154,2.1540985,-6.125684,1.8330323,-5.077478,0.0
18865,-1.2767868,-13.35154,2.1540985,-4.5401,2.4054565,-3.8476684,0.0
18866,-5.5188656,-7.7966003,-0.2808609,-4.5401,2.4054565,-3.8476684,0.0
18867,-5.5188656,-7.7966003,-0.2808609,-2.5137818,2.72937,-2.792029,0.0
18868,-8.874492,-1.3792114,-1.7061234,-2.5137818,2.72937,-2.792029,0.0
18869,-8.874492,-1.3792114,-1.7061234,-1.8181641,2.715564,-2.3151855,0.0
18870,-11.399764,3.920105,-2.6115303,-1.8181641,2.715564,-2.3151855,0.0
18871,-11.399764,3.920105,-2.6115303,-2.3003175,2.7707887,-2.0305665,0.0
18872,-13.715539,6.275261,-3.5984383,-2.3003175,2.7707887,-2.0305665,0.0
18873,-13.715539,6.275261,-3.5984383,-2.9789429,3.3134766,-2.0390625,0.0
18874,-16.746881,5.7917023,-4.658268,-2.9789429,3.3134766,-2.0390625,0.0
18875,-16.746881,5.7917023,-4.658268,-1.7735596,3.5375612,-2.253589,0.0
18876,-20.292793,3.9353333,-5.169449,-1.7735596,3.5375612,-2.253589,0.0
18877,-20.292793,3.9353333,-5.169449,-0.903772,1.1480347,1.5781494,0.0
18878,-18.615814,3.0039902,-5.0270615,-0.903772,1.1480347,1.5781494,0.0
18879,-18.615814,3.0039902,-5.0270615,-0.18479005,-1.3381348,4.2990236,0.0
18880,-10.068788,3.0640945,-4.0970764,-0.18479005,-1.3381348,4.2990236,0.0
18881,-10.068788,3.0640945,-4.0970764,-0.028674318,-2.5095336,5.5298953,0.0
18882,-1.7647104,2.0168686,-2.5063705,-0.028674318,-2.5095336,5.5298953,0.0
18883,-1.7647104,2.0168686,-2.5063705,-0.04141846,-3.894397,7.6348023,0.0
18884,3.187963,-1.4275818,-1.4423904,-0.04141846,-3.894397,7.6348023,0.0
18885,3.187963,-1.4275818,-1.4423904,-0.09664307,-4.1981325,8.845496,0.0
18886,6.6830735,-8.256554,-0.8610039,-0.09664307,-4.1981325,8.845496,0.0
18887,6.6830735,-8.256554,-0.8610039,0.70198977,-3.6639404,7.2174315,0.0
18888,8.490929,-13.941231,0.25653458,0.70198977,-3.6639404,7.2174315,0.0
18889,8.490929,-13.941231,0.25653458,2.6603394,-3.2327638,7.3077025,0.0
18890,8.026398,-14.643341,2.3656998,2.6603394,-3.2327638,7.3077025,0.0
18891,8.026398,-14.643341,2.3656998,3.3973756,-3.2465699,6.7469606,0.0
18892,6.8867073,-11.463829,4.433613,3.3973756,-3.2465699,6.7469606,0.0
18893,6.8867073,-11.463829,4.433613,3.3782594,-3.355957,6.0545287,0.0
18894,5.492911,-5.522476,4.948818,3.3782594,-3.355957,6.0545287,0.0
18895,5.492911,-5.522476,4.948818,3.4876466,-2.998059,5.4884768,0.0
18896,3.9405446,1.524292,4.213669,3.4876466,-2.998059,5.4884768,0.0
18897,3.9405446,1.524292,4.213669,3.0277956,-2.72406,5.4884768,0.0
18898,2.723029,8.469482,2.6647224,3.0277956,-2.72406,5.4884768,0.0
18899,2.723029,8.469482,2.6647224,1.3476928,-2.996997,4.596387,0.0
18900,1.7426443,13.510208,0.4057312,1.3476928,-2.996997,4.596387,0.0
18901,1.7426443,13.510208,0.4057312,0.08071289,-3.1945312,3.534375,0.0
18902,1.4305291,15.314941,-1.7065201,0.08071289,-3.1945312,3.534375,0.0
18903,1.4305291,15.314941,-1.7065201,0.45347902,-2.902478,2.3651001,0.0
18904,1.541872,15.483887,-2.561432,0.45347902,-2.902478,2.3651001,0.0
18905,1.541872,15.483887,-2.561432,1.7586914,-2.4649293,0.82730716,0.0
18906,0.43869781,16.764526,-2.3708,1.7586914,-2.4649293,0.82730716,0.0
18907,0.43869781,16.764526,-2.3708,1.8680786,-1.5632813,-0.31435546,0.0
18908,-1.8922057,17.983597,-2.0852509,1.8680786,-1.5632813,-0.31435546,0.0
18909,-1.8922057,17.983597,-2.0852509,-0.4163086,-0.813501,-1.083252,0.0
18910,-2.5504467,15.517319,-1.8203354,-0.4163086,-0.813501,-1.083252,0.0
18911,-2.5504467,15.517319,-1.8203354,-3.1138184,-0.24320069,-3.4674683,0.0
18912,-0.26671243,9.546425,-1.538044,-3.1138184,-0.24320069,-3.4674683,0.0
18913,-0.26671243,9.546425,-1.538044,-3.8285522,0.41843262,-4.8587036,0.0
18914,3.1133757,3.2094498,-1.1971931,-3.8285522,0.41843262,-4.8587036,0.0
18915,3.1133757,3.2094498,-1.1971931,-3.618274,1.1214844,-6.458093,0.0
18916,7.105727,-2.245903,-1.1136017,-3.618274,1.1214844,-6.458093,0.0
18917,7.105727,-2.245903,-1.1136017,-3.341089,1.7969239,-6.8669677,0.0
18918,13.132067,-15.732712,0.032920837,-3.341089,1.7969239,-6.8669677,0.0
18919,13.132067,-15.732712,0.032920837,-3.070276,2.7824707,-10.175135,0.0
18920,14.9770775,-29.733696,5.0278625,-3.070276,2.7824707,-10.175135,0.0
18921,14.9770775,-29.733696,5.0278625,-0.8623535,3.8402345,-7.495679,0.0
18922,9.742184,-29.06575,9.017616,-0.8623535,3.8402345,-7.495679,0.0
18923,9.742184,-29.06575,9.017616,-5.9918704,2.275891,-6.282861,0.0
18924,1.9851036,-19.565186,6.8548737,-5.9918704,2.275891,-6.282861,0.0
18925,1.9851036,-19.565186,6.8548737,-7.3172607,3.265686,-4.5634646,0.0
18926,-5.6251135,-9.066315,1.7319717,-7.3172607,3.265686,-4.5634646,0.0
18927,-5.6251135,-9.066315,1.7319717,-6.0109863,4.032459,-3.5057008,0.0
18928,-10.071734,-0.67759705,-1.6354294,-6.0109863,4.032459,-3.5057008,0.0
18929,-10.071734,-0.67759705,-1.6354294,-3.80625,4.244861,-2.8578737,0.0
18930,-11.120485,4.98114,-2.7689743,-3.80625,4.244861,-2.8578737,0.0
18931,-11.120485,4.98114,-2.7689743,-2.2079225,4.0632567,-2.9598267,0.0
18932,-11.02505,7.878502,-2.6626663,-2.2079225,4.0632567,-2.9598267,0.0
18933,-11.02505,7.878502,-2.6626663,-0.72323,3.9496217,-2.6029909,0.0
18934,-11.624069,8.416206,-2.726387,-0.72323,3.9496217,-2.6029909,0.0
18935,-11.624069,8.416206,-2.726387,0.14124756,4.34469,-2.1165893,0.0
18936,-14.608826,7.807907,-3.2046204,0.14124756,4.34469,-2.1165893,0.0
18937,-14.608826,7.807907,-3.2046204,-0.19434814,4.600635,-1.3211426,0.0
18938,-18.91156,7.461525,-3.7941666,-0.19434814,4.600635,-1.3211426,0.0
18939,-18.91156,7.461525,-3.7941666,-1.2478638,0.6924316,1.5983276,0.0
18940,-17.469885,6.602844,-4.317253,-1.2478638,0.6924316,1.5983276,0.0
18941,-17.469885,6.602844,-4.317253,-1.1140503,-1.8542725,2.8589356,0.0
18942,-9.611699,3.1942368,-4.0001907,-1.1140503,-1.8542725,2.8589356,0.0
18943,-9.611699,3.1942368,-4.0001907,0.59260255,-3.158423,4.977649,0.0
18944,-1.9331942,-0.682312,-3.1453934,0.59260255,-3.158423,4.977649,0.0
18945,-1.9331942,-0.682312,-3.1453934,1.3445069,-4.14928,7.5041747,0.0
18946,2.4529438,-2.7728424,-3.0050697,1.3445069,-4.14928,7.5041747,0.0
18947,2.4529438,-2.7728424,-3.0050697,0.5256958,-4.705774,8.793457,0.0
18948,3.3820686,-7.300949,-2.9285545,0.5256958,-4.705774,8.793457,0.0
18949,3.3820686,-7.300949,-2.9285545,0.1985962,-4.822595,8.371839,0.0
18950,4.216873,-16.768105,-2.4147186,0.1985962,-4.822595,8.371839,0.0
18951,4.216873,-16.768105,-2.4147186,2.1813722,-3.6756227,8.503528,0.0
18952,4.216873,-16.768105,-2.4147186,2.1813722,-3.6756227,8.503528,0.0
18953,6.2005253,-22.606697,-0.6084366,2.1813722,-3.6756227,8.503528,0.0
18954,6.2005253,-22.606697,-0.6084366,3.6363282,-3.0065553,7.876941,0.0
18955,6.5818195,-19.109573,2.4239426,3.6363282,-3.0065553,7.876941,0.0
18956,6.5818195,-19.109573,2.4239426,2.1834962,-3.2805543,8.194483,0.0
18957,5.541261,-10.94632,4.3551826,2.1834962,-3.2805543,8.194483,0.0
18958,5.541261,-10.94632,4.3551826,2.8217652,-3.071338,7.324695,0.0
18959,4.913661,-1.5634613,4.878105,2.8217652,-3.071338,7.324695,0.0
18960,4.913661,-1.5634613,4.878105,3.335779,-2.5987427,6.908386,0.0
18961,4.0778646,3.682846,4.6440506,3.335779,-2.5987427,6.908386,0.0
18962,4.0778646,3.682846,4.6440506,2.6847656,-2.5881226,6.9126344,0.0
18963,6.218896,17.704697,3.5090256,2.6847656,-2.5881226,6.9126344,0.0
18964,6.218896,17.704697,3.5090256,0.090270996,-3.7234132,4.855518,0.0
18965,7.4552317,21.46054,2.1068802,0.090270996,-3.7234132,4.855518,0.0
18966,7.4552317,21.46054,2.1068802,-0.08920898,-4.2321167,3.7616456,0.0
18967,8.505006,21.339218,0.6704025,-0.08920898,-4.2321167,3.7616456,0.0
18968,8.505006,21.339218,0.6704025,0.85598147,-3.9347534,2.2801392,0.0
18969,7.540626,18.527115,0.088531494,0.85598147,-3.9347534,2.2801392,0.0
18970,7.540626,18.527115,0.088531494,1.2021973,-3.2497559,1.2542359,0.0
18971,4.58067,18.419945,-1.8522682,1.2021973,-3.2497559,1.2542359,0.0
18972,4.58067,18.419945,-1.8522682,-0.9483765,-0.97067875,-2.241907,0.0
18973,2.5012913,15.495361,-1.6047287,-0.9483765,-0.97067875,-2.241907,0.0
18974,2.5012913,15.495361,-1.6047287,-2.1335816,-0.6287109,-3.1244385,0.0
18975,-1.3340011,10.673752,0.16296768,-2.1335816,-0.6287109,-3.1244385,0.0
18976,-1.3340011,10.673752,0.16296768,-3.449414,0.2177124,-6.063025,0.0
18977,-0.30607986,3.830307,1.1973419,-3.449414,0.2177124,-6.063025,0.0
18978,-0.30607986,3.830307,1.1973419,-2.7782228,0.7327881,-7.587012,0.0
18979,3.0274386,-3.5876694,1.8139534,-2.7782228,0.7327881,-7.587012,0.0
18980,3.0274386,-3.5876694,1.8139534,-1.5972656,1.4623902,-8.278381,0.0
18981,5.744607,-9.011543,1.9513474,-1.5972656,1.4623902,-8.278381,0.0
18982,5.744607,-9.011543,1.9513474,-1.075818,1.808606,-9.670679,0.0
18983,8.315962,-27.171333,5.822235,-1.075818,1.808606,-9.670679,0.0
18984,8.315962,-27.171333,5.822235,-0.44073486,2.3704102,-9.800244,0.0
18985,5.2332506,-26.474236,8.131237,-0.44073486,2.3704102,-9.800244,0.0
18986,5.2332506,-26.474236,8.131237,-3.541809,2.1091554,-9.09613,0.0
18987,2.1056194,-21.13742,7.700779,-3.541809,2.1091554,-9.09613,0.0
18988,2.1056194,-21.13742,7.700779,-5.03075,2.6454713,-7.9831424,0.0
18989,0.6824932,-15.671547,5.820099,-5.03075,2.6454713,-7.9831424,0.0
18990,0.6824932,-15.671547,5.820099,-4.879944,3.0139892,-7.327881,0.0
18991,-5.3988304,-5.768631,2.0570335,-4.879944,3.0139892,-7.327881,0.0
18992,-5.3988304,-5.768631,2.0570335,-4.0929933,3.8083742,-5.961072,0.0
18993,-8.931004,2.374611,-1.3354797,-4.0929933,3.8083742,-5.961072,0.0
18994,-8.931004,2.374611,-1.3354797,-3.8731568,3.7573974,-5.4799805,0.0
18995,-9.707084,5.332199,-2.252102,-3.8731568,3.7573974,-5.4799805,0.0
18996,-9.707084,5.332199,-2.252102,-3.4972045,3.8232422,-5.27926,0.0
18997,-14.342876,8.266884,-2.9298553,-3.4972045,3.8232422,-5.27926,0.0
18998,-14.342876,8.266884,-2.9298553,-2.18562,4.172644,-3.3655152,0.0
18999,-20.894516,8.247772,-2.402237,-2.18562,4.172644,-3.3655152,0.0
19000,-20.894516,8.247772,-2.402237,0.5235718,1.2531738,-0.31010744,0.0
19001,-18.907055,7.5380707,-2.6061172,0.5235718,1.2531738,-0.31010744,0.0
19002,-18.907055,7.5380707,-2.6061172,1.1650269,0.032922365,1.8627685,0.0
19003,-14.5978985,6.5978165,-2.6478958,1.1650269,0.032922365,1.8627685,0.0
19004,-14.5978985,6.5978165,-2.6478958,1.0036011,-0.41524658,2.9300904,0.0
19005,-7.945286,6.457512,-2.99123,1.0036011,-0.41524658,2.9300904,0.0
19006,-7.945286,6.457512,-2.99123,0.18691407,-1.4974365,4.9383545,0.0
19007,-1.4644194,4.6612015,-2.3603058,0.18691407,-1.4974365,4.9383545,0.0
19008,-1.4644194,4.6612015,-2.3603058,-0.050976563,-2.5658205,6.434729,0.0
19009,2.88447,1.2425613,-1.6884041,-0.050976563,-2.5658205,6.434729,0.0
19010,2.88447,1.2425613,-1.6884041,0.37382814,-3.0469117,7.697461,0.0
19011,6.5612135,-5.3391266,-0.6442642,0.37382814,-3.0469117,7.697461,0.0
19012,6.5612135,-5.3391266,-0.6442642,2.3204956,-2.53396,7.778174,0.0
19013,5.6096153,-8.109924,0.5249176,2.3204956,-2.53396,7.778174,0.0
19014,5.6096153,-8.109924,0.5249176,3.243384,-2.4882934,7.546655,0.0
19015,6.6880703,-14.657639,2.849743,3.243384,-2.4882934,7.546655,0.0
19016,6.6880703,-14.657639,2.849743,3.8625367,-1.1724609,8.196607,0.0
19017,7.7298875,-16.60147,4.783531,3.8625367,-1.1724609,8.196607,0.0
19018,7.7298875,-16.60147,4.783531,3.4186158,-0.7126099,8.002258,0.0
19019,7.081493,-12.364418,5.202389,3.4186158,-0.7126099,8.002258,0.0
19020,7.081493,-12.364418,5.202389,1.6386842,-0.5363159,7.8026004,0.0
19021,5.494992,-5.1737213,4.042122,1.6386842,-0.5363159,7.8026004,0.0
19022,5.494992,-5.1737213,4.042122,1.5112427,-0.63720703,7.270532,0.0
19023,3.8138402,2.8205566,2.3167152,1.5112427,-0.63720703,7.270532,0.0
19024,3.8138402,2.8205566,2.3167152,0.73809814,-1.1406006,7.3013306,0.0
19025,3.0812845,10.1381,0.34349823,0.73809814,-1.1406006,7.3013306,0.0
19026,3.0812845,10.1381,0.34349823,-0.3175415,-2.079419,6.597217,0.0
19027,3.7415903,14.8517,-1.2376785,-0.3175415,-2.079419,6.597217,0.0
19028,3.7415903,14.8517,-1.2376785,-0.41843262,-2.992749,5.152881,0.0
19029,5.873265,16.818832,-2.1419373,-0.41843262,-2.992749,5.152881,0.0
19030,5.873265,16.818832,-2.1419373,0.630835,-3.248694,3.79563,0.0
19031,8.347599,19.37819,-3.9215317,0.630835,-3.248694,3.79563,0.0
19032,8.347599,19.37819,-3.9215317,1.3307008,-1.9339234,1.177771,0.0
19033,6.578433,17.583801,-3.702774,1.3307008,-1.9339234,1.177771,0.0
19034,6.578433,17.583801,-3.702774,0.5140137,-1.2223755,0.16567384,0.0
19035,2.8982444,17.410118,-3.610096,0.5140137,-1.2223755,0.16567384,0.0
19036,2.8982444,17.410118,-3.610096,-2.086853,-0.26762697,-1.7013428,0.0
19037,-0.7946491,14.136337,-2.4565964,-2.086853,-0.26762697,-1.7013428,0.0
19038,-0.7946491,14.136337,-2.4565964,-3.711731,0.16992188,-3.5131347,0.0
19039,-2.2010145,7.9203033,-1.1222992,-3.711731,0.16992188,-3.5131347,0.0
19040,-2.2010145,7.9203033,-1.1222992,-3.7287233,0.6159668,-5.584058,0.0
19041,-1.408895,1.9616699,-0.19506836,-3.7287233,0.6159668,-5.584058,0.0
19042,-1.408895,1.9616699,-0.19506836,-3.0309815,1.1225464,-6.966797,0.0
19043,0.832088,-3.727234,1.0016937,-3.0309815,1.1225464,-6.966797,0.0
19044,0.832088,-3.727234,1.0016937,-1.4156617,1.5091187,-7.7537475,0.0
19045,4.681527,-13.871254,3.097557,-1.4156617,1.5091187,-7.7537475,0.0
19046,4.681527,-13.871254,3.097557,0.33984375,1.8298463,-10.382227,0.0
19047,5.8021555,-22.153961,6.2883224,0.33984375,1.8298463,-10.382227,0.0
19048,5.8021555,-22.153961,6.2883224,1.1055542,2.2344728,-9.521997,0.0
19049,3.4624763,-21.102264,8.5059395,1.1055542,2.2344728,-9.521997,0.0
19050,3.4624763,-21.102264,8.5059395,-2.5658205,1.5006226,-8.7531,0.0
19051,1.072032,-16.23819,7.517044,-2.5658205,1.5006226,-8.7531,0.0
19052,1.072032,-16.23819,7.517044,-5.142261,1.8861328,-8.064918,0.0
19053,1.072032,-16.23819,7.517044,-4.977649,2.884424,-6.9975953,0.0
19054,-1.040885,-12.208939,4.408043,-4.977649,2.884424,-6.9975953,0.0
19055,-9.652899,2.0378723,-5.3536835,-4.977649,2.884424,-6.9975953,0.0
19056,-9.652899,2.0378723,-5.3536835,-4.1418457,3.5088868,-6.067273,0.0
19057,-9.652899,2.0378723,-5.3536835,-3.7669556,3.528003,-5.323865,0.0
19058,-9.652899,2.0378723,-5.3536835,-3.3793213,3.4048097,-5.0318117,0.0
19059,-13.223528,5.3442764,-6.7157974,-3.3793213,3.4048097,-5.0318117,0.0
19060,-13.223528,5.3442764,-6.7157974,-2.436255,4.246985,-3.7457154,0.0
19061,-17.196815,5.4480057,-6.774212,-2.436255,4.246985,-3.7457154,0.0
19062,-17.196815,5.4480057,-6.774212,-0.97492677,2.3247437,-1.2170655,0.0
19063,-18.09914,5.147331,-6.137909,-0.97492677,2.3247437,-1.2170655,0.0
19064,-18.09914,5.147331,-6.137909,-0.0063720704,-0.0053100586,1.1098022,0.0
19065,-13.840775,5.4420624,-5.5639267,-0.0063720704,-0.0053100586,1.1098022,0.0
19066,-13.840775,5.4420624,-5.5639267,0.08496094,-1.2085694,3.1180665,0.0
19067,-7.02306,5.597046,-4.7459183,0.08496094,-1.2085694,3.1180665,0.0
19068,-7.02306,5.597046,-4.7459183,-0.28568116,-2.8207033,4.871448,0.0
19069,-1.0025177,4.4443054,-3.5286446,-0.28568116,-2.8207033,4.871448,0.0
19070,-1.0025177,4.4443054,-3.5286446,-0.4088745,-3.98573,6.097009,0.0
19071,2.8334227,1.6162262,-2.604496,-0.4088745,-3.98573,6.097009,0.0
19072,2.8334227,1.6162262,-2.604496,-0.7954468,-4.3669925,7.326819,0.0
19073,4.4298115,-3.2409515,-1.6606483,-0.7954468,-4.3669925,7.326819,0.0
19074,4.4298115,-3.2409515,-1.6606483,-0.09133301,-4.3000855,7.4574466,0.0
19075,5.802882,-11.809212,-0.15253067,-0.09133301,-4.3000855,7.4574466,0.0
19076,5.802882,-11.809212,-0.15253067,1.4995606,-3.4642823,7.2885866,0.0
19077,7.5889244,-18.465408,2.027794,1.4995606,-3.4642823,7.2885866,0.0
19078,7.5889244,-18.465408,2.027794,3.9082031,-2.1951783,7.5211673,0.0
19079,7.079221,-16.307144,4.4530106,3.9082031,-2.1951783,7.5211673,0.0
19080,7.079221,-16.307144,4.4530106,2.084729,-2.4320068,7.4712524,0.0
19081,4.6868877,-9.427521,5.149704,2.084729,-2.4320068,7.4712524,0.0
19082,4.6868877,-9.427521,5.149704,1.5069946,-2.3980224,6.7713866,0.0
19083,3.1672225,-2.886345,3.9434814,1.5069946,-2.3980224,6.7713866,0.0
19084,3.1672225,-2.886345,3.9434814,2.72406,-1.9679078,6.1203737,0.0
19085,2.6759899,3.647606,2.2873917,2.72406,-1.9679078,6.1203737,0.0
19086,2.6759899,3.647606,2.2873917,2.3056276,-1.6588624,5.96532,0.0
19087,2.8885703,10.635925,0.010261536,2.3056276,-1.6588624,5.96532,0.0
19088,2.8885703,10.635925,0.010261536,0.33665773,-2.1218994,5.423694,0.0
19089,4.0503826,16.553085,-2.7872772,0.33665773,-2.1218994,5.423694,0.0
19090,4.0503826,16.553085,-2.7872772,-1.454956,-2.7453003,3.3570192,0.0
19091,4.9805527,20.121399,-4.514515,-1.454956,-2.7453003,3.3570192,0.0
19092,4.9805527,20.121399,-4.514515,-1.1034302,-3.169043,1.6992188,0.0
19093,3.5597963,20.804604,-4.673527,-1.1034302,-3.169043,1.6992188,0.0
19094,3.5597963,20.804604,-4.673527,0.11151123,-2.703882,0.12850343,0.0
19095,0.7735696,19.059708,-3.7409325,0.11151123,-2.703882,0.12850343,0.0
19096,0.7735696,19.059708,-3.7409325,-0.31435546,-1.9296753,-1.9700317,0.0
19097,-0.6635295,15.630112,-1.8502274,-0.31435546,-1.9296753,-1.9700317,0.0
19098,-0.6635295,15.630112,-1.8502274,-1.62594,-1.8500245,-3.9188232,0.0
19099,0.14733803,10.519287,-0.35819626,-1.62594,-1.8500245,-3.9188232,0.0
19100,0.14733803,10.519287,-0.35819626,-2.362976,-1.3317627,-5.6530886,0.0
19101,2.6275017,4.755684,0.1100502,-2.362976,-1.3317627,-5.6530886,0.0
19102,2.6275017,4.755684,0.1100502,-2.5222778,-0.5214478,-6.9285645,0.0
19103,5.808703,-0.30386353,1.435646,-2.5222778,-0.5214478,-6.9285645,0.0
19104,5.808703,-0.30386353,1.435646,-2.4182007,-0.12319336,-7.2216797,0.0
19105,10.749282,-8.229935,4.249481,-2.4182007,-0.12319336,-7.2216797,0.0
19106,10.749282,-8.229935,4.249481,-0.8358032,0.38975832,-7.3746095,0.0
19107,14.758325,-19.101456,7.5063744,-0.8358032,0.38975832,-7.3746095,0.0
19108,14.758325,-19.101456,7.5063744,-0.78164065,1.1448487,-8.53645,0.0
19109,13.062616,-23.468857,9.781223,-0.78164065,1.1448487,-8.53645,0.0
19110,13.062616,-23.468857,9.781223,-4.337256,0.9600586,-7.122913,0.0
19111,7.8060017,-19.704247,8.38274,-4.337256,0.9600586,-7.122913,0.0
19112,7.8060017,-19.704247,8.38274,-7.027332,1.4878784,-5.988684,0.0
19113,1.4952526,-13.90535,4.0426064,-7.027332,1.4878784,-5.988684,0.0
19114,1.4952526,-13.90535,4.0426064,-7.42771,2.1335816,-5.002075,0.0
19115,1.4952526,-13.90535,4.0426064,-4.967029,2.6518433,-3.9751098,0.0
19116,-4.214735,-8.126015,-0.109321594,-4.967029,2.6518433,-3.9751098,0.0
19117,-4.214735,-8.126015,-0.109321594,-4.967029,2.6518433,-3.9751098,0.0
19118,-12.487304,6.433914,-5.6029243,-4.967029,2.6518433,-3.9751098,0.0
19119,-12.487304,6.433914,-5.6029243,-2.1325195,3.0203614,-3.5428712,0.0
19120,-12.487304,6.433914,-5.6029243,-0.34090576,2.9449584,-3.444104,0.0
19121,-12.487304,6.433914,-5.6029243,-0.06584473,2.7389283,-3.528003,0.0
19122,-13.81897,7.970398,-5.3851852,-0.06584473,2.7389283,-3.528003,0.0
19123,-13.81897,7.970398,-5.3851852,-0.8612915,3.5141969,-3.5173829,0.0
19124,-16.954285,6.6845245,-5.265339,-0.8612915,3.5141969,-3.5173829,0.0
19125,-16.954285,6.6845245,-5.265339,-1.5431031,3.812622,-1.9211792,0.0
19126,-20.245203,4.4366837,-5.397526,-1.5431031,3.812622,-1.9211792,0.0
19127,-20.245203,4.4366837,-5.397526,-0.84536135,0.79119873,0.5331299,0.0
19128,-18.116621,2.2500381,-5.5315704,-0.84536135,0.79119873,0.5331299,0.0
19129,-18.116621,2.2500381,-5.5315704,0.72004396,-0.3525879,3.0416017,0.0
19130,-10.5462265,0.5203018,-4.797241,0.72004396,-0.3525879,3.0416017,0.0
19131,-10.5462265,0.5203018,-4.797241,1.260608,-1.2340577,5.251648,0.0
19132,-3.1471615,0.05706024,-3.1811905,1.260608,-1.2340577,5.251648,0.0
19133,-3.1471615,0.05706024,-3.1811905,0.88253176,-2.6932619,6.803247,0.0
19134,1.9428177,-1.1661072,-1.6012154,0.88253176,-2.6932619,6.803247,0.0
19135,1.9428177,-1.1661072,-1.6012154,0.94731444,-3.3782594,7.8259645,0.0
19136,5.741657,-5.8831635,0.03504181,0.94731444,-3.3782594,7.8259645,0.0
19137,5.741657,-5.8831635,0.03504181,2.3035035,-2.078357,7.6581664,0.0
19138,8.736026,-12.218849,2.1501045,2.3035035,-2.078357,7.6581664,0.0
19139,8.736026,-12.218849,2.1501045,3.5152588,-1.4029175,7.144153,0.0
19140,9.631643,-15.570328,4.645706,3.5152588,-1.4029175,7.144153,0.0
19141,9.631643,-15.570328,4.645706,3.3028564,-0.9239502,7.1887574,0.0
19142,9.12719,-14.3706665,6.2367554,3.3028564,-0.9239502,7.1887574,0.0
19143,9.12719,-14.3706665,6.2367554,2.061365,-0.9653687,6.700232,0.0
19144,8.457746,-9.472977,5.6051407,2.061365,-0.9653687,6.700232,0.0
19145,8.457746,-9.472977,5.6051407,2.1930542,-0.6000366,6.247815,0.0
19146,7.169676,-0.7140274,2.9216347,2.1930542,-0.6000366,6.247815,0.0
19147,7.169676,-0.7140274,2.9216347,0.8612915,-0.42799073,6.5526123,0.0
19148,5.146239,9.567764,-0.4688568,0.8612915,-0.42799073,6.5526123,0.0
19149,5.146239,9.567764,-0.4688568,-0.8251831,-1.5908936,5.42157,0.0
19150,3.5699086,16.591942,-2.8899536,-0.8251831,-1.5908936,5.42157,0.0
19151,3.5699086,16.591942,-2.8899536,-0.36320803,-2.4723632,4.229993,0.0
19152,3.0835638,19.206497,-3.7283478,-0.36320803,-2.4723632,4.229993,0.0
19153,3.0835638,19.206497,-3.7283478,1.4135376,-2.9237182,2.913098,0.0
19154,2.196856,20.225525,-4.0347557,1.4135376,-2.9237182,2.913098,0.0
19155,2.196856,20.225525,-4.0347557,1.9732178,-2.3767822,0.727478,0.0
19156,-0.1715436,21.517227,-3.980713,1.9732178,-2.3767822,0.727478,0.0
19157,-0.1715436,21.517227,-3.980713,0.2538208,-1.5282348,-0.81881106,0.0
19158,-3.1572547,20.462044,-2.4191437,0.2538208,-1.5282348,-0.81881106,0.0
19159,-3.1572547,20.462044,-2.4191437,-1.627002,-1.5962037,-2.2259767,0.0
19160,-4.6118393,14.554092,-0.30478668,-1.627002,-1.5962037,-2.2259767,0.0
19161,-4.6118393,14.554092,-0.30478668,-2.4160767,-1.5091187,-4.257605,0.0
19162,-3.2038758,6.8323593,0.79106903,-2.4160767,-1.5091187,-4.257605,0.0
19163,-3.2038758,6.8323593,0.79106903,-2.6348512,-1.273352,-5.886731,0.0
19164,0.19089103,1.1511078,1.206562,-2.6348512,-1.273352,-5.886731,0.0
19165,0.19089103,1.1511078,1.206562,-2.7378662,-0.811377,-6.53562,0.0
19166,5.6105986,-4.1882935,2.3537025,-2.7378662,-0.811377,-6.53562,0.0
19167,5.6105986,-4.1882935,2.3537025,-1.9254273,-0.57454836,-6.19259,0.0
19168,12.37355,-15.156113,5.0595093,-1.9254273,-0.57454836,-6.19259,0.0
19169,12.37355,-15.156113,5.0595093,-0.48640138,0.20072022,-8.936829,0.0
19170,14.072754,-24.001144,8.834,-0.48640138,0.20072022,-8.936829,0.0
19171,14.072754,-24.001144,8.834,-0.9674927,0.725354,-6.4591556,0.0
19172,9.932654,-21.943092,9.944847,-0.9674927,0.725354,-6.4591556,0.0
19173,9.932654,-21.943092,9.944847,-5.0849123,0.5522461,-5.5606933,0.0
19174,3.6295223,-15.559845,6.7283783,-5.0849123,0.5522461,-5.5606933,0.0
19175,3.6295223,-15.559845,6.7283783,-6.3476443,1.2383057,-4.4413333,0.0
19176,-2.9271927,-9.43013,2.2007446,-6.3476443,1.2383057,-4.4413333,0.0
19177,-2.9271927,-9.43013,2.2007446,-4.9383545,1.8298463,-3.538623,0.0
19178,-6.8460026,-3.9113007,-1.3617439,-4.9383545,1.8298463,-3.538623,0.0
19179,-6.8460026,-3.9113007,-1.3617439,-2.9279664,2.2546508,-3.1085083,0.0
19180,-8.465584,0.9027252,-3.4023705,-2.9279664,2.2546508,-3.1085083,0.0
19181,-8.465584,0.9027252,-3.4023705,-1.1533448,2.3247437,-2.8812377,0.0
19182,-9.619598,4.649292,-4.256504,-1.1533448,2.3247437,-2.8812377,0.0
19183,-9.619598,4.649292,-4.256504,-0.54906005,2.3651001,-2.994873,0.0
19184,-11.515661,6.5009995,-4.82708,-0.54906005,2.3651001,-2.994873,0.0
19185,-11.515661,6.5009995,-4.82708,-1.1246704,3.6713746,-2.9428346,0.0
19186,-15.751934,5.7688293,-5.0086365,-1.1246704,3.6713746,-2.9428346,0.0
19187,-15.751934,5.7688293,-5.0086365,-1.9041871,4.5379763,-1.8340943,0.0
19188,-20.243881,3.739151,-4.910324,-1.9041871,4.5379763,-1.8340943,0.0
19189,-20.243881,3.739151,-4.910324,-0.8867798,0.65207523,1.1204224,0.0
19190,-17.574207,2.091339,-4.7926636,-0.8867798,0.65207523,1.1204224,0.0
19191,-17.574207,2.091339,-4.7926636,0.3525879,-0.050976563,3.3602052,0.0
19192,-8.781534,1.0443878,-4.0475616,0.3525879,-0.050976563,3.3602052,0.0
19193,-8.781534,1.0443878,-4.0475616,0.60959476,-0.86766356,5.5479493,0.0
19194,-1.452632,0.10359192,-2.4742699,0.60959476,-0.86766356,5.5479493,0.0
19195,-1.452632,0.10359192,-2.4742699,0.29205322,-2.4914796,7.051758,0.0
19196,2.838004,-2.4377365,-1.0014877,0.29205322,-2.4914796,7.051758,0.0
19197,2.838004,-2.4377365,-1.0014877,0.7848267,-3.5906618,7.669849,0.0
19198,6.3329887,-7.9619675,0.350605,0.7848267,-3.5906618,7.669849,0.0
19199,6.3329887,-7.9619675,0.350605,2.0178223,-1.5526612,7.876941,0.0
19200,9.36113,-13.739792,2.3148346,2.0178223,-1.5526612,7.876941,0.0
19201,9.36113,-13.739792,2.3148346,3.335779,-1.0407715,7.316199,0.0
19202,9.584852,-15.021973,4.8302994,3.335779,-1.0407715,7.316199,0.0
19203,9.584852,-15.021973,4.8302994,3.2720582,-0.9802368,7.154773,0.0
19204,8.034862,-11.483986,6.1221848,3.2720582,-0.9802368,7.154773,0.0
19205,8.034862,-11.483986,6.1221848,2.7803466,-1.0959961,6.5844727,0.0
19206,6.768783,-4.8616867,4.976715,2.7803466,-1.0959961,6.5844727,0.0
19207,6.768783,-4.8616867,4.976715,2.430945,-0.6595093,6.395435,0.0
19208,5.3623776,3.8981628,1.9051018,2.430945,-0.6595093,6.395435,0.0
19209,5.3623776,3.8981628,1.9051018,0.52888185,-0.9483765,6.0311646,0.0
19210,3.4941866,11.963821,-1.4829254,0.52888185,-0.9483765,6.0311646,0.0
19211,3.4941866,11.963821,-1.4829254,-0.9398804,-1.9976441,4.4859376,0.0
19212,2.0049076,16.784042,-3.5785408,-0.9398804,-1.9976441,4.4859376,0.0
19213,2.0049076,16.784042,-3.5785408,-0.6467652,-2.7580445,3.1817873,0.0
19214,1.2033403,18.681656,-4.1265907,-0.6467652,-2.7580445,3.1817873,0.0
19215,1.2033403,18.681656,-4.1265907,1.1257324,-3.1339967,1.545227,0.0
19216,0.008533955,19.535034,-4.1523094,1.1257324,-3.1339967,1.545227,0.0
19217,0.008533955,19.535034,-4.1523094,1.7523193,-2.6210449,-0.27293703,0.0
19218,-1.8242643,19.666542,-3.7454796,1.7523193,-2.6210449,-0.27293703,0.0
19219,-1.8242643,19.666542,-3.7454796,0.04248047,-2.1367676,-1.7969239,0.0
19220,-3.011853,16.912903,-2.1983871,0.04248047,-2.1367676,-1.7969239,0.0
19221,-3.011853,16.912903,-2.1983871,-2.084729,-2.3343017,-3.2210815,0.0
19222,-2.0246925,10.504227,-0.6099205,-2.084729,-2.3343017,-3.2210815,0.0
19223,-2.0246925,10.504227,-0.6099205,-2.9407105,-2.1134033,-4.9415407,0.0
19224,1.0880586,3.7162857,-0.31061554,-2.9407105,-2.1134033,-4.9415407,0.0
19225,1.0880586,3.7162857,-0.31061554,-2.8738039,-1.3328247,-6.151172,0.0
19226,4.6228395,-0.72084045,-0.073078156,-2.8738039,-1.3328247,-6.151172,0.0
19227,4.6228395,-0.72084045,-0.073078156,-2.5594482,-0.41949463,-6.3253417,0.0
19228,8.726323,-5.6497345,2.1776085,-2.5594482,-0.41949463,-6.3253417,0.0
19229,8.726323,-5.6497345,2.1776085,-1.445398,-0.16567384,-5.5606933,0.0
19230,13.1987705,-15.435837,5.630661,-1.445398,-0.16567384,-5.5606933,0.0
19231,13.1987705,-15.435837,5.630661,-0.7519043,0.45666504,-7.7643676,0.0
19232,13.105062,-21.710693,8.308128,-0.7519043,0.45666504,-7.7643676,0.0
19233,13.105062,-21.710693,8.308128,-1.3083985,0.96430665,-6.0046144,0.0
19234,8.410576,-18.1305,7.946892,-1.3083985,0.96430665,-6.0046144,0.0
19235,8.410576,-18.1305,7.946892,-5.527771,0.69136965,-5.1921754,0.0
19236,2.5138607,-11.901779,4.4784355,-5.527771,0.69136965,-5.1921754,0.0
19237,2.5138607,-11.901779,4.4784355,-8.004382,1.4039795,-4.5740848,0.0
19238,-2.8061237,-7.597763,0.52708435,-8.004382,1.4039795,-4.5740848,0.0
19239,-2.8061237,-7.597763,0.52708435,-6.32428,1.7289551,-2.806897,0.0
19240,-5.910305,-4.472595,-2.0800896,-6.32428,1.7289551,-2.806897,0.0
19241,-5.910305,-4.472595,-2.0800896,-4.5698366,2.1505737,-2.9407105,0.0
19242,-7.239023,-0.9624634,-3.234932,-4.5698366,2.1505737,-2.9407105,0.0
19243,-7.239023,-0.9624634,-3.234932,-2.3162477,2.2153566,-2.4139526,0.0
19244,-7.7759724,2.930252,-3.4402275,-2.3162477,2.2153566,-2.4139526,0.0
19245,-7.7759724,2.930252,-3.4402275,-0.8666016,2.0210083,-2.2981935,0.0
19246,-8.307325,6.03537,-3.1175385,-0.8666016,2.0210083,-2.2981935,0.0
19247,-8.307325,6.03537,-3.1175385,-0.48109132,1.9859619,-2.1919923,0.0
19248,-9.176245,7.359085,-2.9661102,-0.48109132,1.9859619,-2.1919923,0.0
19249,-9.176245,7.359085,-2.9661102,-0.77102053,2.6029909,-1.9286133,0.0
19250,-11.201543,6.829178,-3.178688,-0.77102053,2.6029909,-1.9286133,0.0
19251,-11.201543,6.829178,-3.178688,-1.6163819,3.5428712,-1.6726685,0.0
19252,-14.721903,5.581032,-3.208786,-1.6163819,3.5428712,-1.6726685,0.0
19253,-14.721903,5.581032,-3.208786,-1.3391968,1.0216553,0.26762697,0.0
19254,-14.779293,3.951744,-3.080017,-1.3391968,1.0216553,0.26762697,0.0
19255,-14.779293,3.951744,-3.080017,0.008496094,-1.2361816,2.8663697,0.0
19256,-8.789304,1.2604218,-2.8259163,0.008496094,-1.2361816,2.8663697,0.0
19257,-8.789304,1.2604218,-2.8259163,1.2160034,-1.3614991,4.4179688,0.0
19258,-2.3850927,-1.2426453,-2.3188896,1.2160034,-1.3614991,4.4179688,0.0
19259,-2.3850927,-1.2426453,-2.3188896,1.0588257,-2.1420777,5.861243,0.0
19260,1.0387154,-3.5216675,-1.3253517,1.0588257,-2.1420777,5.861243,0.0
19261,1.0387154,-3.5216675,-1.3253517,0.8358032,-3.5651734,6.6641235,0.0
19262,3.7969513,-8.871925,-0.42466354,0.8358032,-3.5651734,6.6641235,0.0
19263,3.7969513,-8.871925,-0.42466354,0.44073486,-2.716626,7.3746095,0.0
19264,8.009144,-15.983841,0.4768219,0.44073486,-2.716626,7.3746095,0.0
19265,8.009144,-15.983841,0.4768219,2.6826417,-1.5431031,6.84679,0.0
19266,9.994778,-18.239197,2.1889877,2.6826417,-1.5431031,6.84679,0.0
19267,9.994778,-18.239197,2.1889877,3.4557862,-1.5123047,6.942371,0.0
19268,8.597507,-14.393631,3.5629578,3.4557862,-1.5123047,6.942371,0.0
19269,8.597507,-14.393631,3.5629578,3.0532837,-1.5250489,6.616333,0.0
19270,6.6239166,-8.022903,3.6872559,3.0532837,-1.5250489,6.616333,0.0
19271,6.6239166,-8.022903,3.6872559,3.3209107,-1.5197388,6.344458,0.0
19272,4.9799194,-0.58522797,2.894947,3.3209107,-1.5197388,6.344458,0.0
19273,4.9799194,-0.58522797,2.894947,3.166919,-1.3285767,6.231885,0.0
19274,4.029077,7.2737427,0.9825134,3.166919,-1.3285767,6.231885,0.0
19275,4.029077,7.2737427,0.9825134,1.5877075,-1.6801026,5.612732,0.0
19276,3.7395701,13.957108,-1.6221809,1.5877075,-1.6801026,5.612732,0.0
19277,3.7395701,13.957108,-1.6221809,0.3345337,-2.1410158,4.1354737,0.0
19278,3.5473814,17.964111,-3.4675713,0.3345337,-2.1410158,4.1354737,0.0
19279,3.5473814,17.964111,-3.4675713,0.6595093,-2.2865112,2.9385865,0.0
19280,2.2328758,19.59433,-3.9757538,0.6595093,-2.2865112,2.9385865,0.0
19281,2.2328758,19.59433,-3.9757538,2.0082643,-1.9551636,1.3614991,0.0
19282,-0.48580647,20.437622,-4.225086,2.0082643,-1.9551636,1.3614991,0.0
19283,-0.48580647,20.437622,-4.225086,1.5303589,-0.8867798,-0.27612305,0.0
19284,-3.369236,20.326515,-4.036709,1.5303589,-0.8867798,-0.27612305,0.0
19285,-3.369236,20.326515,-4.036709,-1.1182984,-0.32816163,-1.7098389,0.0
19286,-5.00574,16.422455,-2.5619583,-1.1182984,-0.32816163,-1.7098389,0.0
19287,-5.00574,16.422455,-2.5619583,-3.1934693,-0.55755615,-3.439856,0.0
19288,-4.075967,8.837715,-0.71785355,-3.1934693,-0.55755615,-3.439856,0.0
19289,-4.075967,8.837715,-0.71785355,-3.2667482,-0.5161377,-4.8587036,0.0
19290,-1.1177437,1.7652664,0.2891693,-3.2667482,-0.5161377,-4.8587036,0.0
19291,-1.1177437,1.7652664,0.2891693,-2.4946656,-0.270813,-5.989746,0.0
19292,2.6384833,-2.3801804,1.0209236,-2.4946656,-0.270813,-5.989746,0.0
19293,2.6384833,-2.3801804,1.0209236,-1.9371094,0.38232422,-6.812805,0.0
19294,8.729403,-8.9002075,2.786747,-1.9371094,0.38232422,-6.812805,0.0
19295,8.729403,-8.9002075,2.786747,-1.3381348,0.55755615,-6.8096194,0.0
19296,13.790188,-19.751633,5.9346237,-1.3381348,0.55755615,-6.8096194,0.0
19297,13.790188,-19.751633,5.9346237,-1.4177856,1.4528321,-8.449366,0.0
19298,12.379722,-24.081078,8.623367,-1.4177856,1.4528321,-8.449366,0.0
19299,12.379722,-24.081078,8.623367,-4.777991,1.3498169,-5.990808,0.0
19300,6.931634,-19.675362,7.145645,-4.777991,1.3498169,-5.990808,0.0
19301,6.931634,-19.675362,7.145645,-8.214661,1.7151489,-4.973401,0.0
19302,6.931634,-19.675362,7.145645,-9.026038,2.5530763,-4.4731936,0.0
19303,0.5659981,-13.95314,2.4412231,-9.026038,2.5530763,-4.4731936,0.0
19304,-9.432444,-0.43624115,-4.746315,-9.026038,2.5530763,-4.4731936,0.0
19305,-9.432444,-0.43624115,-4.746315,-4.505054,2.984253,-2.5594482,0.0
19306,-9.432444,-0.43624115,-4.746315,-1.356189,3.0331056,-2.2748291,0.0
19307,-9.432444,-0.43624115,-4.746315,0.6414551,2.8578737,-2.1898682,0.0
19308,-9.93221,4.883812,-4.3651657,0.6414551,2.8578737,-2.1898682,0.0
19309,-9.93221,4.883812,-4.3651657,0.40144044,2.6953857,-2.18562,0.0
19310,-10.55883,7.430008,-4.1931458,0.40144044,2.6953857,-2.18562,0.0
19311,-10.55883,7.430008,-4.1931458,-1.0343994,2.8833618,-2.0305665,0.0
19312,-11.913397,7.313507,-4.1503677,-1.0343994,2.8833618,-2.0305665,0.0
19313,-11.913397,7.313507,-4.1503677,-1.8022339,3.1977174,-1.8733886,0.0
19314,-14.365483,5.7599716,-3.6748352,-1.8022339,3.1977174,-1.8733886,0.0
19315,-14.365483,5.7599716,-3.6748352,-0.724292,1.540979,-0.26656494,0.0
19316,-14.546806,4.1618195,-3.2042847,-0.724292,1.540979,-0.26656494,0.0
19317,-14.546806,4.1618195,-3.2042847,0.3451538,-0.5235718,2.0125122,0.0
19318,-10.014044,2.8575668,-2.8854256,0.3451538,-0.5235718,2.0125122,0.0
19319,-10.014044,2.8575668,-2.8854256,0.77526855,-1.2521118,3.2189577,0.0
19320,-4.368352,1.1239624,-1.9437523,0.77526855,-1.2521118,3.2189577,0.0
19321,-4.368352,1.1239624,-1.9437523,0.23682861,-2.445813,4.791797,0.0
19322,-0.6059246,-1.148346,-0.78572845,0.23682861,-2.445813,4.791797,0.0
19323,-0.6059246,-1.148346,-0.78572845,-0.020178223,-3.6904907,5.8357544,0.0
19324,1.7280536,-5.286316,-0.28784943,-0.020178223,-3.6904907,5.8357544,0.0
19325,1.7280536,-5.286316,-0.28784943,0.45454103,-4.6664796,6.2934813,0.0
19326,5.6317472,-12.076187,-0.20767212,0.45454103,-4.6664796,6.2934813,0.0
19327,5.6317472,-12.076187,-0.20767212,1.993396,-2.3852785,6.628015,0.0
19328,9.409378,-16.385513,0.8826294,1.993396,-2.3852785,6.628015,0.0
19329,9.409378,-16.385513,0.8826294,3.8264282,-2.5010376,5.781592,0.0
19330,9.334399,-14.706696,2.7965927,3.8264282,-2.5010376,5.781592,0.0
19331,9.334399,-14.706696,2.7965927,3.170105,-2.608301,6.1097536,0.0
19332,7.669265,-9.881004,3.637188,3.170105,-2.608301,6.1097536,0.0
19333,7.669265,-9.881004,3.637188,3.3336549,-2.5169678,5.441748,0.0
19334,6.240673,-3.5866852,2.8923187,3.3336549,-2.5169678,5.441748,0.0
19335,6.240673,-3.5866852,2.8923187,3.0947022,-1.7013428,5.3270507,0.0
19336,4.7581635,4.433403,1.062561,3.0947022,-1.7013428,5.3270507,0.0
19337,4.7581635,4.433403,1.062561,0.901648,-1.7289551,4.6632934,0.0
19338,2.6019657,12.219147,-0.82938004,0.901648,-1.7289551,4.6632934,0.0
19339,2.6019657,12.219147,-0.82938004,-0.71791995,-2.092163,3.7828858,0.0
19340,0.6397147,16.209259,-1.7448883,-0.71791995,-2.092163,3.7828858,0.0
19341,0.6397147,16.209259,-1.7448883,-0.26550293,-2.3353639,2.7612305,0.0
19342,-0.31044507,16.478165,-1.8482933,-0.26550293,-2.3353639,2.7612305,0.0
19343,-0.31044507,16.478165,-1.8482933,1.4772583,-2.250403,1.1225464,0.0
19344,-1.1507609,16.710892,-2.021492,1.4772583,-2.250403,1.1225464,0.0
19345,-1.1507609,16.710892,-2.021492,1.9445435,-1.3784913,-0.8931519,0.0
19346,-2.4007113,17.868126,-1.7265205,1.9445435,-1.3784913,-0.8931519,0.0
19347,-2.4007113,17.868126,-1.7265205,0.2984253,-0.8241211,-1.8606446,0.0
19348,-3.1933475,16.53321,-0.4406662,0.2984253,-0.8241211,-1.8606446,0.0
19349,-3.1933475,16.53321,-0.4406662,-1.3699951,-0.87403566,-3.2274537,0.0
19350,-2.365408,11.147163,0.65896606,-1.3699951,-0.87403566,-3.2274537,0.0
19351,-2.365408,11.147163,0.65896606,-2.1484497,-0.6287109,-4.7418823,0.0
19352,-0.09491432,4.9832687,0.74222565,-2.1484497,-0.6287109,-4.7418823,0.0
19353,-0.09491432,4.9832687,0.74222565,-2.4256349,-0.15080567,-5.963196,0.0
19354,3.2667198,0.95539856,0.28451538,-2.4256349,-0.15080567,-5.963196,0.0
19355,3.2667198,0.95539856,0.28451538,-2.6210449,0.70305175,-6.49845,0.0
19356,9.037351,-4.16658,0.4788208,-2.6210449,0.70305175,-6.49845,0.0
19357,9.037351,-4.16658,0.4788208,-2.2928834,1.2244996,-5.700879,0.0
19358,14.784837,-15.255699,2.8722153,-2.2928834,1.2244996,-5.700879,0.0
19359,14.784837,-15.255699,2.8722153,-1.7714356,2.0358765,-8.369715,0.0
19360,14.359119,-22.445007,6.190361,-1.7714356,2.0358765,-8.369715,0.0
19361,14.359119,-22.445007,6.190361,-3.2826784,2.0942872,-5.0849123,0.0
19362,9.252738,-19.351051,5.9163895,-3.2826784,2.0942872,-5.0849123,0.0
19363,9.252738,-19.351051,5.9163895,-6.175598,2.18031,-4.450891,0.0
19364,9.252738,-19.351051,5.9163895,-6.813867,2.6645875,-3.5577393,0.0
19365,2.8857107,-13.774971,2.4988327,-6.813867,2.6645875,-3.5577393,0.0
19366,-6.3213997,-6.308098,-1.3821487,-6.813867,2.6645875,-3.5577393,0.0
19367,-6.3213997,-6.308098,-1.3821487,-3.4504762,2.8302612,-2.7718506,0.0
19368,-6.3213997,-6.308098,-1.3821487,-0.8772217,2.7930908,-2.451123,0.0
19369,-7.3866243,-1.2348557,-1.9006424,-0.8772217,2.7930908,-2.451123,0.0
19370,-7.3866243,-1.2348557,-1.9006424,0.4609131,2.7633545,-2.1367676,0.0
19371,-7.3866243,-1.2348557,-1.9006424,0.4609131,2.7633545,-2.1367676,144.0
19372,-8.09658,3.3039856,-2.0854187,0.4609131,2.7633545,-2.1367676,144.0
19373,-8.09658,3.3039856,-2.0854187,-0.15930176,2.5031617,-2.2249146,144.0
19374,-8.956207,5.9263687,-2.6420174,-0.15930176,2.5031617,-2.2249146,144.0
19375,-8.956207,5.9263687,-2.6420174,-1.5346069,2.445813,-2.2089844,144.0
19376,-10.57699,5.832573,-3.5681534,-1.5346069,2.445813,-2.2089844,144.0
19377,-10.57699,5.832573,-3.5681534,-2.3682861,3.000183,-2.340674,144.0
19378,-13.729109,4.073715,-3.7820969,-2.3682861,3.000183,-2.340674,144.0
19379,-13.729109,4.073715,-3.7820969,-1.4698242,2.7346802,-1.0354614,144.0
19380,-15.93402,2.4723282,-3.2095757,-1.4698242,2.7346802,-1.0354614,144.0
19381,-15.93402,2.4723282,-3.2095757,0.027612304,-0.38657227,2.095349,144.0
19382,-12.447607,1.8823929,-2.5595055,0.027612304,-0.38657227,2.095349,144.0
19383,-12.447607,1.8823929,-2.5595055,0.39400634,-1.5547851,3.6034057,144.0
19384,-5.371928,1.3412628,-1.8088493,0.39400634,-1.5547851,3.6034057,144.0
19385,-5.371928,1.3412628,-1.8088493,0.4715332,-2.2429688,5.3089967,144.0
19386,-0.17246914,-0.16110992,-0.71953964,0.4715332,-2.2429688,5.3089967,144.0
19387,-0.17246914,-0.16110992,-0.71953964,0.75721437,-3.6830566,6.4708376,144.0
19388,3.0531745,-3.625496,-0.020946503,0.75721437,-3.6830566,6.4708376,144.0
19389,3.0531745,-3.625496,-0.020946503,1.178833,-3.715979,6.9179444,144.0
19390,6.4692974,-8.943382,0.5365524,1.178833,-3.715979,6.9179444,144.0
19391,6.4692974,-8.943382,0.5365524,2.7368042,-1.9902099,6.069397,144.0
19392,8.394848,-12.373344,1.819355,2.7368042,-1.9902099,6.069397,144.0
19393,8.394848,-12.373344,1.819355,3.3325927,-1.7300171,5.7380495,144.0
19394,7.767538,-11.824211,3.3341942,3.3325927,-1.7300171,5.7380495,144.0
19395,7.767538,-11.824211,3.3341942,2.5105958,-1.7470093,5.4884768,144.0
19396,6.6772633,-8.892685,3.8923798,2.5105958,-1.7470093,5.4884768,144.0
19397,6.6772633,-8.892685,3.8923798,2.2896974,-1.9710938,4.8629518,144.0
19398,5.508876,-3.9602509,3.3417854,2.2896974,-1.9710938,4.8629518,144.0
19399,5.508876,-3.9602509,3.3417854,2.1176515,-1.8638306,4.716394,144.0
19400,4.1841516,2.715126,1.8417397,2.1176515,-1.8638306,4.716394,144.0
19401,4.1841516,2.715126,1.8417397,0.67225343,-2.2312868,4.321326,144.0
19402,2.847602,9.191536,-0.20230484,0.67225343,-2.2312868,4.321326,144.0
19403,2.847602,9.191536,-0.20230484,-0.32178956,-2.8886719,3.0235474,144.0
19404,1.4272149,13.1512375,-1.4801178,-0.32178956,-2.8886719,3.0235474,144.0
19405,1.4272149,13.1512375,-1.4801178,0.20178223,-3.4122436,2.0326905,144.0
19406,0.09658146,14.195816,-1.4018326,0.20178223,-3.4122436,2.0326905,144.0
19407,0.09658146,14.195816,-1.4018326,1.897815,-3.6586304,0.9281983,144.0
19408,-1.0727227,14.194801,-1.1297035,1.897815,-3.6586304,0.9281983,144.0
19409,-1.0727227,14.194801,-1.1297035,2.7389283,-3.2030275,-0.35789797,144.0
19410,-1.8569331,14.832832,-1.47155,2.7389283,-3.2030275,-0.35789797,144.0
19411,-1.8569331,14.832832,-1.47155,1.5154908,-2.2387207,-1.3179566,144.0
19412,-2.3387449,14.974457,-1.6333084,1.5154908,-2.2387207,-1.3179566,144.0
19413,-2.3387449,14.974457,-1.6333084,-0.9515625,-1.44115,-1.899939,144.0
19414,-2.2089477,11.891396,-0.9088936,-0.9515625,-1.44115,-1.899939,144.0
19415,-2.2089477,11.891396,-0.9088936,-2.797339,-1.0004151,-3.1509888,144.0
19416,-0.7249707,6.2552643,0.19664001,-2.797339,-1.0004151,-3.1509888,144.0
19417,-0.7249707,6.2552643,0.19664001,-3.0479736,-0.45454103,-4.224683,144.0
19418,1.9722695,1.4334717,0.7922363,-3.0479736,-0.45454103,-4.224683,144.0
19419,1.9722695,1.4334717,0.7922363,-2.9513307,0.21558838,-5.216602,144.0
19420,6.196395,-1.9282684,0.78644943,-2.9513307,0.21558838,-5.216602,144.0
19421,6.196395,-1.9282684,0.78644943,-3.1318727,0.9420044,-5.3907714,144.0
19422,12.153442,-9.687668,1.140831,-3.1318727,0.9420044,-5.3907714,144.0
19423,12.153442,-9.687668,1.140831,-2.5944946,1.8733886,-6.7490845,144.0
19424,15.193701,-19.03373,3.3790474,-2.5944946,1.8733886,-6.7490845,144.0
19425,15.193701,-19.03373,3.3790474,-2.084729,2.3927124,-6.1384277,144.0
19426,12.296697,-20.349968,5.5948143,-2.084729,2.3927124,-6.1384277,144.0
19427,12.296697,-20.349968,5.5948143,-5.2144775,1.8744507,-4.9096804,144.0
19428,12.296697,-20.349968,5.5948143,-8.290064,2.4086425,-4.2554812,144.0
19429,6.367058,-15.223213,4.0297203,-8.290064,2.4086425,-4.2554812,144.0
19430,-8.819623,-4.078964,-2.9570236,-8.290064,2.4086425,-4.2554812,144.0
19431,-8.819623,-4.078964,-2.9570236,-5.2888184,2.9492066,-1.1427246,144.0
19432,-8.819623,-4.078964,-2.9570236,-3.4536622,2.8769898,-2.081543,144.0
19433,-8.819623,-4.078964,-2.9570236,-0.7975708,2.8557496,-1.7480713,144.0
19434,-9.572068,0.881073,-3.0182571,-0.7975708,2.8557496,-1.7480713,144.0
19435,-9.572068,0.881073,-3.0182571,-0.3451538,2.6051147,-1.6524903,144.0
19436,-10.192517,4.7571106,-3.0679283,-0.3451538,2.6051147,-1.6524903,144.0
19437,-10.192517,4.7571106,-3.0679283,-1.2181275,2.3820922,-1.535669,144.0
19438,-11.4979105,6.47287,-2.9212875,-1.2181275,2.3820922,-1.535669,144.0
19439,-11.4979105,6.47287,-2.9212875,-1.7555054,2.5955567,-1.4337158,144.0
19440,-14.363075,5.568741,-2.213665,-1.7555054,2.5955567,-1.4337158,144.0
19441,-14.363075,5.568741,-2.213665,-1.0513916,2.5626342,-0.35577393,144.0
19442,-17.135138,3.297104,-2.0390244,-1.0513916,2.5626342,-0.35577393,144.0
19443,-17.135138,3.297104,-2.0390244,-0.2166504,-0.34090576,1.8861328,144.0
19444,-14.9632015,1.751648,-2.9620438,-0.2166504,-0.34090576,1.8861328,144.0
19445,-14.9632015,1.751648,-2.9620438,0.4991455,-1.6238159,3.2327638,144.0
19446,-8.360087,0.60066223,-3.482647,0.4991455,-1.6238159,3.2327638,144.0
19447,-8.360087,0.60066223,-3.482647,1.2117554,-2.4054565,5.05199,144.0
19448,-2.3488607,-0.97971344,-2.885704,1.2117554,-2.4054565,5.05199,144.0
19449,-2.3488607,-0.97971344,-2.885704,0.98873293,-3.5407472,6.51969,144.0
19450,0.9571295,-3.2313156,-2.1460533,0.98873293,-3.5407472,6.51969,144.0
19451,0.9571295,-3.2313156,-2.1460533,0.9122681,-4.358496,7.5700197,144.0
19452,2.7128105,-8.490387,-1.4740219,0.9122681,-4.358496,7.5700197,144.0
19453,2.7128105,-8.490387,-1.4740219,1.5739014,-4.884192,7.224866,144.0
19454,5.8712006,-16.138687,-0.45064163,1.5739014,-4.884192,7.224866,144.0
19455,5.8712006,-16.138687,-0.45064163,4.342566,-2.6560915,6.9625487,144.0
19456,8.687622,-19.244766,1.506237,4.342566,-2.6560915,6.9625487,144.0
19457,8.687622,-19.244766,1.506237,4.612317,-2.4054565,6.5557985,144.0
19458,8.518384,-15.510635,3.835884,4.612317,-2.4054565,6.5557985,144.0
19459,8.518384,-15.510635,3.835884,3.528003,-2.631665,6.346582,144.0
19460,6.842332,-8.548691,4.87574,3.528003,-2.631665,6.346582,144.0
19461,6.842332,-8.548691,4.87574,3.8742187,-2.2865112,5.866553,144.0
19462,4.7658453,-3.6786346,4.560688,3.8742187,-2.2865112,5.866553,144.0
19463,4.7658453,-3.6786346,4.560688,3.8274903,-1.898877,5.9122195,144.0
19464,3.443426,9.395195,2.4802895,3.8274903,-1.898877,5.9122195,144.0
19465,3.443426,9.395195,2.4802895,1.351941,-1.9604737,5.250586,144.0
19466,2.278215,11.990303,1.333622,1.351941,-1.9604737,5.250586,144.0
19467,2.278215,11.990303,1.333622,0.24320069,-2.1017213,4.6452394,144.0
19468,1.5683484,18.566498,-1.1589813,0.24320069,-2.1017213,4.6452394,144.0
19469,1.5683484,18.566498,-1.1589813,-0.5777344,-2.3183715,2.716626,144.0
19470,1.09213,16.791458,-1.2391968,-0.5777344,-2.3183715,2.716626,144.0
19471,1.09213,16.791458,-1.2391968,-0.0637207,-2.1399536,1.9371094,144.0
19472,-0.6651268,18.497826,-1.1056404,-0.0637207,-2.1399536,1.9371094,144.0
19473,-0.6651268,18.497826,-1.1056404,1.3827393,-1.0981201,0.0031860352,144.0
19474,-1.661911,16.607384,-0.7072067,1.3827393,-1.0981201,0.0031860352,144.0
19475,-1.661911,16.607384,-0.7072067,0.8262451,-0.76464844,-0.4364868,144.0
19476,-4.3300414,16.03791,-0.119709015,0.8262451,-0.76464844,-0.4364868,144.0
19477,-4.3300414,16.03791,-0.119709015,-2.001892,-0.0998291,-3.173291,144.0
19478,-3.253694,11.885353,-0.008132935,-2.001892,-0.0998291,-3.173291,144.0
19479,-3.253694,11.885353,-0.008132935,-2.8015869,0.033984374,-4.145032,144.0
19480,0.16479388,4.190155,0.50063324,-2.8015869,0.033984374,-4.145032,144.0
19481,0.16479388,4.190155,0.50063324,-3.7446535,0.71154785,-6.4952636,144.0
19482,2.4091911,1.4197159,-0.2213211,-3.7446535,0.71154785,-6.4952636,144.0
19483,2.4091911,1.4197159,-0.2213211,-3.9421875,0.9802368,-7.133533,144.0
19484,9.41622,-5.4204407,-1.9223442,-3.9421875,0.9802368,-7.133533,144.0
19485,9.41622,-5.4204407,-1.9223442,-3.5779176,2.0974731,-7.450012,144.0
19486,12.295574,-11.227921,-2.4398422,-3.5779176,2.0974731,-7.450012,144.0
19487,12.295574,-11.227921,-2.4398422,-3.3856933,2.8727417,-8.671326,144.0
19488,14.869894,-31.282715,2.442585,-3.3856933,2.8727417,-8.671326,144.0
19489,14.869894,-31.282715,2.442585,-1.1214844,4.054761,-6.869092,144.0
19490,14.869894,-31.282715,2.442585,-3.5768554,2.7771606,-6.390125,144.0
19491,11.0630665,-27.262642,4.869545,-3.5768554,2.7771606,-6.390125,144.0
19492,-7.822399,-6.696785,-0.6257286,-3.5768554,2.7771606,-6.390125,144.0
19493,-7.822399,-6.696785,-0.6257286,-5.539453,2.6550293,-4.13335,144.0
19494,-7.822399,-6.696785,-0.6257286,-4.879944,2.9906251,-3.7658937,144.0
19495,-7.822399,-6.696785,-0.6257286,-2.884424,3.062842,-3.076648,144.0
19496,-7.993429,-2.077217,-1.2455025,-2.884424,3.062842,-3.076648,144.0
19497,-7.993429,-2.077217,-1.2455025,-2.4192626,2.8419435,-3.0479736,144.0
19498,-11.630718,4.59272,-1.9654198,-2.4192626,2.8419435,-3.0479736,144.0
19499,-11.630718,4.59272,-1.9654198,-1.1926392,2.6645875,-2.9152222,144.0
19500,-10.882627,4.877487,-1.6337852,-1.1926392,2.6645875,-2.9152222,144.0
19501,-10.882627,4.877487,-1.6337852,-0.7848267,3.0118654,-2.5764406,144.0
19502,-15.938743,4.8332214,-1.7894745,-0.7848267,3.0118654,-2.5764406,144.0
19503,-15.938743,4.8332214,-1.7894745,-0.4439209,2.2748291,-0.72004396,144.0
19504,-15.556805,4.2967834,-1.4717293,-0.4439209,2.2748291,-0.72004396,144.0
19505,-15.556805,4.2967834,-1.4717293,-0.5522461,0.6064087,0.08071289,144.0
19506,-15.320713,4.786583,-1.7189217,-0.5522461,0.6064087,0.08071289,144.0
19507,-15.320713,4.786583,-1.7189217,-0.61915284,-1.628064,2.2174804,144.0
19508,-9.413943,4.2854385,-2.3576317,-0.61915284,-1.628064,2.2174804,144.0
19509,-9.413943,4.2854385,-2.3576317,0.18585205,-2.552014,3.611902,144.0
19510,-2.4600363,2.3379211,-2.3276443,0.18585205,-2.552014,3.611902,144.0
19511,-2.4600363,2.3379211,-2.3276443,0.7349121,-3.6830566,5.25802,144.0
19512,1.8491592,0.060203552,-1.8822441,0.7349121,-3.6830566,5.25802,144.0
19513,1.8491592,0.060203552,-1.8822441,0.5766724,-4.8194094,6.3349,144.0
19514,3.43227,-3.6922302,-1.377037,0.5766724,-4.8194094,6.3349,144.0
19515,3.43227,-3.6922302,-1.377037,0.7497803,-5.853809,6.712976,144.0
19516,5.396365,-11.767914,-1.5198555,0.7497803,-5.853809,6.712976,144.0
19517,5.396365,-11.767914,-1.5198555,2.1144655,-4.990393,6.787317,144.0
19518,9.584671,-19.616425,-1.1525917,2.1144655,-4.990393,6.787317,144.0
19519,9.584671,-19.616425,-1.1525917,5.6658325,-2.8695557,6.3009157,144.0
19520,10.707165,-18.584854,1.3709297,5.6658325,-2.8695557,6.3009157,144.0
19521,10.707165,-18.584854,1.3709297,4.5751467,-2.8461914,6.780945,144.0
19522,7.8216405,-8.5184555,4.2007484,4.5751467,-2.8461914,6.780945,144.0
19523,7.8216405,-8.5184555,4.2007484,3.9188232,-2.5775025,5.8495607,144.0
19524,5.320911,-3.8549957,4.004177,3.9188232,-2.5775025,5.8495607,144.0
19525,5.320911,-3.8549957,4.004177,3.9719238,-2.2121704,5.7316775,144.0
19526,3.6586576,3.9283981,3.0428543,3.9719238,-2.2121704,5.7316775,144.0
19527,3.6586576,3.9283981,3.0428543,2.6433473,-2.0072021,5.246338,144.0
19528,2.3879247,11.167831,1.6539383,2.6433473,-2.0072021,5.246338,144.0
19529,2.3879247,11.167831,1.6539383,0.6701294,-2.3268678,4.164148,144.0
19530,1.1855474,15.367722,0.42990112,0.6701294,-2.3268678,4.164148,144.0
19531,1.1855474,15.367722,0.42990112,-0.32603762,-2.3927124,3.0076172,144.0
19532,0.5964725,16.130882,-0.06800461,-0.32603762,-2.3927124,3.0076172,144.0
19533,0.5964725,16.130882,-0.06800461,-0.10938721,-2.253589,1.5728394,144.0
19534,-0.089435816,15.577026,0.026576996,-0.10938721,-2.253589,1.5728394,144.0
19535,-0.089435816,15.577026,0.026576996,0.72854006,-1.7735596,-0.0031860352,144.0
19536,-1.6160555,15.58989,0.051937103,0.72854006,-1.7735596,-0.0031860352,144.0
19537,-1.6160555,15.58989,0.051937103,0.38444826,-0.8889038,-1.1066163,144.0
19538,-3.2574196,15.364967,-0.009880066,0.38444826,-0.8889038,-1.1066163,144.0
19539,-3.2574196,15.364967,-0.009880066,-1.1034302,-0.32603762,-1.7055908,144.0
19540,-3.5268707,12.74543,0.05205536,-1.1034302,-0.32603762,-1.7055908,144.0
19541,-3.5268707,12.74543,0.05205536,-2.633789,0.095581055,-3.1924074,144.0
19542,-1.7710084,7.7011642,-0.019599915,-2.633789,0.095581055,-3.1924074,144.0
19543,-1.7710084,7.7011642,-0.019599915,-3.345337,0.64570314,-4.254419,144.0
19544,1.1598169,2.393608,-0.25827026,-3.345337,0.64570314,-4.254419,144.0
19545,1.1598169,2.393608,-0.25827026,-3.454724,1.2829102,-5.318555,144.0
19546,4.6890717,-1.5271683,-0.50377274,-3.454724,1.2829102,-5.318555,144.0
19547,4.6890717,-1.5271683,-0.50377274,-3.2922363,1.8786987,-5.989746,144.0
19548,10.75033,-11.432098,-1.1531754,-3.2922363,1.8786987,-5.989746,144.0
19549,10.75033,-11.432098,-1.1531754,-3.1902833,3.2879884,-6.9965334,144.0
19550,14.119649,-24.677628,0.3749199,-3.1902833,3.2879884,-6.9965334,144.0
19551,14.119649,-24.677628,0.3749199,-1.2945923,4.771619,-7.4224,144.0
19552,10.24019,-26.839691,3.732113,-1.2945923,4.771619,-7.4224,144.0
19553,10.24019,-26.839691,3.732113,-4.6378055,3.3856933,-5.4736085,144.0
19554,4.1485605,-19.295494,3.5582504,-4.6378055,3.3856933,-5.4736085,144.0
19555,4.1485605,-19.295494,3.5582504,-6.4878297,3.2210815,-4.2172484,144.0
19556,-1.6394033,-10.457329,0.42269897,-6.4878297,3.2210815,-4.2172484,144.0
19557,-1.6394033,-10.457329,0.42269897,-5.348291,3.5407472,-3.3665771,144.0
19558,-1.6394033,-10.457329,0.42269897,-5.348291,3.5407472,-3.3665771,144.0
19559,-5.466735,-3.3273468,-1.8116112,-5.348291,3.5407472,-3.3665771,144.0
19560,-5.466735,-3.3273468,-1.8116112,-2.8164551,3.713855,-2.7559204,144.0
19561,-7.2907586,2.313675,-2.4566383,-2.8164551,3.713855,-2.7559204,144.0
19562,-7.2907586,2.313675,-2.4566383,-1.183081,3.4929566,-2.6645875,144.0
19563,-8.180214,6.4075775,-2.4468536,-1.183081,3.4929566,-2.6645875,144.0
19564,-8.180214,6.4075775,-2.4468536,-0.25594482,3.359143,-2.8738039,144.0
19565,-9.125666,8.034912,-2.6015625,-0.25594482,3.359143,-2.8738039,144.0
19566,-9.125666,8.034912,-2.6015625,0.04460449,3.7244751,-2.895044,144.0
19567,-11.216573,7.2777634,-2.6926765,0.04460449,3.7244751,-2.895044,144.0
