,accx,accy,accz,gyrox,gyroy,gyroz,heart rate
18761,run,run,run,run,run,run,run
18762,-0.06880319,-0.24475098,-0.06398392,-0.07434082,0.02442627,0.06478272,117.0
18763,-0.06880319,-0.24475098,-0.06398392,-0.043542482,-0.007434082,0.0031860352,117.0
18764,-0.049903393,-0.19443512,-0.04990387,-0.043542482,-0.007434082,0.0031860352,117.0
18765,-0.049903393,-0.19443512,-0.04990387,0.0361084,-0.13168946,-0.057348635,117.0
18766,-0.049903393,-0.19443512,-0.04990387,0.16142578,-0.17416993,-0.059472658,117.0
18767,-0.03417325,-0.15516663,-0.02539444,0.16142578,-0.17416993,-0.059472658,117.0
18768,-4.4297924,-4.5681,-0.4229889,0.16142578,-0.17416993,-0.059472658,117.0
18769,-4.4297924,-4.5681,-0.4229889,0.23364258,-0.18691407,-0.07752686,117.0
18770,-3.4339828,-3.5231857,-0.3265648,0.23364258,-0.18691407,-0.07752686,117.0
18771,-3.4339828,-3.5231857,-0.3265648,0.17629395,-0.18266602,-0.10089111,117.0
18772,-2.7123842,-2.7434006,-0.14013672,0.17629395,-0.18266602,-0.10089111,117.0
18773,-2.7123842,-2.7434006,-0.14013672,0.115759276,-0.14549561,-0.098767094,117.0
18774,-2.7123842,-2.7434006,-0.14013672,0.021240234,-0.0722168,-0.10089111,117.0
18775,-2.1342998,-2.1721115,-0.03964615,0.021240234,-0.0722168,-0.10089111,117.0
18776,-1.6512022,-1.7542267,-0.053138733,0.021240234,-0.0722168,-0.10089111,117.0
18777,-1.6512022,-1.7542267,-0.053138733,0.05522461,-0.058410645,-0.07115479,117.0
18778,-1.2741113,-1.4027557,-0.09749222,0.05522461,-0.058410645,-0.07115479,117.0
18779,-1.2741113,-1.4027557,-0.09749222,0.06584473,-0.028674318,-0.04248047,117.0
18780,-1.0064349,-1.1338959,-0.10067749,0.06584473,-0.028674318,-0.04248047,117.0
18781,-1.0064349,-1.1338959,-0.10067749,0.04248047,0.0010620117,-0.019116212,117.0
18782,-0.7997155,-0.9838867,-0.049266815,0.04248047,0.0010620117,-0.019116212,117.0
18783,-0.7997155,-0.9838867,-0.049266815,0.03079834,0.028674318,-0.028674318,117.0
18784,-0.5987568,-0.8780136,-1.8310547E-4,0.03079834,0.028674318,-0.028674318,117.0
18785,-0.5987568,-0.8780136,-1.8310547E-4,-0.07327881,0.04141846,-0.028674318,117.0
18786,-0.4334731,-0.76988983,-0.009971619,-0.07327881,0.04141846,-0.028674318,117.0
18787,-0.4334731,-0.76988983,-0.009971619,-0.011682129,-0.03186035,-0.03079834,117.0
18788,-0.37711287,-0.6113434,-0.04953003,-0.011682129,-0.03186035,-0.03079834,117.0
18789,-0.37711287,-0.6113434,-0.04953003,0.30161133,-0.16673584,0.015930176,117.0
18790,-0.38377047,-0.31756592,0.035057068,0.30161133,-0.16673584,0.015930176,117.0
18791,-0.38377047,-0.31756592,0.035057068,0.7975708,-0.36533204,0.0180542,117.0
18792,-0.24886179,-0.024124146,0.3155098,0.7975708,-0.36533204,0.0180542,117.0
18793,-0.24886179,-0.024124146,0.3155098,1.2468017,-0.62340087,-0.05522461,117.0
18794,-0.01158905,0.26834106,0.6017494,1.2468017,-0.62340087,-0.05522461,117.0
18795,-0.01158905,0.26834106,0.6017494,1.1193603,-0.5501221,-0.38657227,117.0
18796,0.05809927,0.41812897,0.84908676,1.1193603,-0.5501221,-0.38657227,117.0
18797,0.05809927,0.41812897,0.84908676,0.5363159,-0.28461915,0.025488282,117.0
18798,0.08477259,0.43112946,0.88295364,0.5363159,-0.28461915,0.025488282,117.0
18799,0.08477259,0.43112946,0.88295364,-0.009558106,-0.08814698,-0.14549561,117.0
18800,0.08477259,0.43112946,0.88295364,-0.0361084,-0.06903076,0.039294433,117.0
18801,0.02176094,0.3399124,0.70217896,-0.0361084,-0.06903076,0.039294433,117.0
18802,-0.011265755,0.11920929,0.4634781,-0.0361084,-0.06903076,0.039294433,117.0
18803,-0.011265755,0.11920929,0.4634781,0.12850343,-0.11682129,0.004248047,117.0
18804,-0.015152931,-0.0062026978,0.24622345,0.12850343,-0.11682129,0.004248047,117.0
18805,-0.015152931,-0.0062026978,0.24622345,0.17523193,-0.09239502,-0.0021240234,117.0
18806,-0.045814037,0.061538696,0.096782684,0.17523193,-0.09239502,-0.0021240234,117.0
18807,-0.045814037,0.061538696,0.096782684,0.16567384,-0.0180542,-0.025488282,117.0
18808,-0.045814037,0.061538696,0.096782684,0.0541626,0.032922365,0.011682129,117.0
18809,-0.075359344,0.15519714,0.034240723,0.0541626,0.032922365,0.011682129,117.0
18810,-0.11778259,0.08969879,3.4332275E-5,0.0541626,0.032922365,0.011682129,117.0
18811,-0.11778259,0.08969879,3.4332275E-5,0.022302246,0.070092775,-0.0053100586,117.0
18812,-0.14222431,0.039382935,-0.09304047,0.022302246,0.070092775,-0.0053100586,117.0
18813,-0.14222431,0.039382935,-0.09304047,0.06690674,0.046728518,0.0361084,117.0
18814,-0.14750719,0.13671112,-0.2229805,0.06690674,0.046728518,0.0361084,117.0
18815,-0.14750719,0.13671112,-0.2229805,0.027612304,0.027612304,0.027612304,117.0
18816,-0.17533016,0.25764465,-0.2733078,0.027612304,0.027612304,0.027612304,117.0
18817,-0.17533016,0.25764465,-0.2733078,-0.029736329,0.020178223,0.012744141,117.0
18818,-0.23749304,0.2542572,-0.23194885,-0.029736329,0.020178223,0.012744141,117.0
18819,-0.23749304,0.2542572,-0.23194885,-0.12956543,0.011682129,0.027612304,117.0
18820,-0.33215714,0.14341736,-0.21141434,-0.12956543,0.011682129,0.027612304,117.0
18821,-0.33215714,0.14341736,-0.21141434,-0.271875,0.0180542,0.046728518,117.0
18822,-0.45124817,0.080322266,-0.2814026,-0.271875,0.0180542,0.046728518,117.0
18823,-0.45124817,0.080322266,-0.2814026,-0.36745605,-0.016992187,0.090270996,117.0
18824,-0.54398155,0.15310669,-0.4389763,-0.36745605,-0.016992187,0.090270996,117.0
18825,-0.54398155,0.15310669,-0.4389763,-0.48533937,-0.039294433,0.18585205,117.0
18826,-0.54398155,0.15310669,-0.4389763,-0.70942384,-0.0063720704,0.30479738,117.0
18827,-0.5932903,0.22312164,-0.578331,-0.70942384,-0.0063720704,0.30479738,117.0
18828,-0.6557722,0.07009888,-0.7097473,-0.70942384,-0.0063720704,0.30479738,117.0
18829,-0.6557722,0.07009888,-0.7097473,-0.994043,0.06159668,0.4354248,117.0
18830,-0.83636093,-0.2250824,-0.9580078,-0.994043,0.06159668,0.4354248,117.0
18831,-0.83636093,-0.2250824,-0.9580078,-1.2882203,0.05628662,0.6042847,117.0
18832,-0.83636093,-0.2250824,-0.9580078,-1.6004517,-0.033984374,0.77739257,117.0
18833,-1.1201754,-0.35869598,-1.4406013,-1.6004517,-0.033984374,0.77739257,117.0
18834,-1.3192234,-0.37068176,-2.0231972,-1.6004517,-0.033984374,0.77739257,117.0
18835,-1.3192234,-0.37068176,-2.0231972,-1.7990478,-0.1178833,0.8241211,117.0
18836,-1.3249226,-0.6919708,-2.2917023,-1.7990478,-0.1178833,0.8241211,117.0
18837,-1.3249226,-0.6919708,-2.2917023,-1.8648926,-0.2357666,0.8230591,117.0
18838,-1.2894917,-1.3577347,-2.1212769,-1.8648926,-0.2357666,0.8230591,117.0
18839,-1.2894917,-1.3577347,-2.1212769,-2.0061402,-0.38232422,0.8379273,117.0
18840,-1.3733654,-1.8594437,-1.9152222,-2.0061402,-0.38232422,0.8379273,117.0
18841,-1.3733654,-1.8594437,-1.9152222,-2.1282716,-0.6531372,0.811377,117.0
18842,-1.3784657,-1.7829895,-2.0205078,-2.1282716,-0.6531372,0.811377,117.0
18843,-1.3784657,-1.7829895,-2.0205078,-2.247217,-0.85491943,0.63826907,117.0
18844,-1.0287371,-1.2934341,-2.3711166,-2.247217,-0.85491943,0.63826907,117.0
18845,-1.0287371,-1.2934341,-2.3711166,-2.3863404,-1.0333375,0.6053467,117.0
18846,-0.39534092,-0.85918427,-2.7121506,-2.3863404,-1.0333375,0.6053467,117.0
18847,-0.39534092,-0.85918427,-2.7121506,-2.6614015,-1.1841431,0.5129517,117.0
18848,0.12653732,-0.6853943,-2.8033638,-2.6614015,-1.1841431,0.5129517,117.0
18849,0.12653732,-0.6853943,-2.8033638,-2.985315,-1.2117554,0.4609131,117.0
18850,0.23421383,-0.65411377,-2.748001,-2.985315,-1.2117554,0.4609131,117.0
18851,0.23421383,-0.65411377,-2.748001,-3.2359498,-1.2499878,0.42055663,117.0
18852,0.12213707,-0.61868286,-2.7801285,-3.2359498,-1.2499878,0.42055663,117.0
18853,0.12213707,-0.61868286,-2.7801285,-3.1870973,-1.260608,0.32922363,117.0
18854,0.076408386,-0.4811554,-2.876114,-3.1870973,-1.260608,0.32922363,117.0
18855,0.076408386,-0.4811554,-2.876114,-3.070276,-1.3721192,0.2548828,117.0
18856,0.11498451,-0.21179199,-2.8507538,-3.070276,-1.3721192,0.2548828,117.0
18857,0.11498451,-0.21179199,-2.8507538,-3.172229,-1.4815063,0.23682861,117.0
18858,0.12012482,0.037452698,-2.5192986,-3.172229,-1.4815063,0.23682861,117.0
18859,0.12012482,0.037452698,-2.5192986,-3.61615,-1.4931885,0.24957275,117.0
18860,-0.11743736,0.14868927,-1.7327347,-3.61615,-1.4931885,0.24957275,117.0
18861,-0.11743736,0.14868927,-1.7327347,-4.2947755,-1.7013428,0.31860352,117.0
18862,-0.59498787,0.5412445,-0.919281,-4.2947755,-1.7013428,0.31860352,117.0
18863,-0.59498787,0.5412445,-0.919281,-5.05199,-1.9583496,0.4439209,117.0
18864,-1.1128807,1.3370056,-0.7635269,-5.05199,-1.9583496,0.4439209,117.0
18865,-1.1128807,1.3370056,-0.7635269,-5.8962893,-1.9859619,0.7784546,117.0
18866,-1.5003748,1.0599899,-0.70584106,-5.8962893,-1.9859619,0.7784546,117.0
18867,-1.5003748,1.0599899,-0.70584106,-5.441748,-1.7778076,0.89208984,117.0
18868,-1.9913397,-0.93922424,0.30604172,-5.441748,-1.7778076,0.89208984,117.0
18869,-1.9913397,-0.93922424,0.30604172,-2.624231,-2.443689,1.1862671,117.0
18870,-2.4413137,-2.003807,1.2502518,-2.624231,-2.443689,1.1862671,117.0
18871,-2.4413137,-2.003807,1.2502518,0.41737062,-3.1244385,1.8818848,117.0
18872,-1.8654289,-0.063201904,0.730793,0.41737062,-3.1244385,1.8818848,117.0
18873,-1.8654289,-0.063201904,0.730793,0.98236084,-2.792029,1.9785279,117.0
18874,-0.5231533,3.0798416,-0.42215347,0.98236084,-2.792029,1.9785279,117.0
18875,-0.5231533,3.0798416,-0.42215347,0.38657227,-2.2281005,1.4857544,117.0
18876,0.38468742,4.8763885,-1.1508331,0.38657227,-2.2281005,1.4857544,117.0
18877,0.38468742,4.8763885,-1.1508331,-0.26868898,-1.6089478,0.90058595,117.0
18878,0.42645073,4.6328354,-1.4528542,-0.26868898,-1.6089478,0.90058595,117.0
18879,0.42645073,4.6328354,-1.4528542,-0.9398804,-1.1013062,0.29523927,117.0
18880,0.15773773,3.202896,-1.7093391,-0.9398804,-1.1013062,0.29523927,117.0
18881,0.15773773,3.202896,-1.7093391,-1.5484132,-0.75296634,-0.33028564,117.0
18882,0.17478561,1.6470108,-2.0233688,-1.5484132,-0.75296634,-0.33028564,117.0
18883,0.17478561,1.6470108,-2.0233688,-1.7077149,-0.42692873,-0.95793456,117.0
18884,0.5160122,0.35031128,-2.1717224,-1.7077149,-0.42692873,-0.95793456,117.0
18885,0.5160122,0.35031128,-2.1717224,-1.450708,-0.16354981,-1.8532104,117.0
18886,0.7369919,-0.1828003,-1.9596214,-1.450708,-0.16354981,-1.8532104,117.0
18887,0.7369919,-0.1828003,-1.9596214,-1.4708862,0.05628662,-2.2812011,117.0
18888,1.432416,-2.0261383,-2.0165863,-1.4708862,0.05628662,-2.2812011,117.0
18889,1.432416,-2.0261383,-2.0165863,-2.0061402,0.8028809,-2.9141603,117.0
18890,1.4293442,-2.3670502,-1.8917961,-2.0061402,0.8028809,-2.9141603,117.0
18891,1.4293442,-2.3670502,-1.8917961,-2.167566,0.813501,-2.984253,117.0
18892,1.4494562,-3.7296906,-2.3043175,-2.167566,0.813501,-2.984253,117.0
18893,1.4494562,-3.7296906,-2.3043175,-2.179248,0.9589966,-2.9630127,117.0
18894,1.3585396,-2.932953,-2.0595436,-2.179248,0.9589966,-2.9630127,117.0
18895,1.3585396,-2.932953,-2.0595436,-2.2142944,0.96430665,-2.893982,117.0
18896,1.1337547,-1.6113129,-1.5403099,-2.2142944,0.96430665,-2.893982,117.0
18897,1.1337547,-1.6113129,-1.5403099,-1.2457398,1.2563599,-1.983838,117.0
18898,1.1106901,-1.1486969,-1.2290382,-1.2457398,1.2563599,-1.983838,117.0
18899,1.1106901,-1.1486969,-1.2290382,-0.5607422,1.2425537,-1.7714356,117.0
18900,1.718545,-1.4477386,-1.5871964,-0.5607422,1.2425537,-1.7714356,117.0
18901,1.718545,-1.4477386,-1.5871964,1.0312134,1.4995606,-0.79013675,117.0
18902,2.259077,-1.9517059,-1.7173042,1.0312134,1.4995606,-0.79013675,117.0
18903,2.259077,-1.9517059,-1.7173042,1.363623,1.6864747,-0.52888185,117.0
18904,5.621251,-5.174576,-2.2735138,1.363623,1.6864747,-0.52888185,117.0
18905,5.621251,-5.174576,-2.2735138,2.2068603,2.3948364,-0.4980835,117.0
18906,6.3512125,-5.9944153,-1.8452034,2.2068603,2.3948364,-0.4980835,117.0
18907,6.3512125,-5.9944153,-1.8452034,2.0741088,2.7336183,-0.33134767,117.0
18908,7.7274666,-7.578003,-1.4129925,2.0741088,2.7336183,-0.33134767,117.0
18909,7.7274666,-7.578003,-1.4129925,1.7820557,3.5938478,0.028674318,117.0
18910,6.03931,-5.2735367,-1.2177849,1.7820557,3.5938478,0.028674318,117.0
18911,6.03931,-5.2735367,-1.2177849,1.2414917,3.7319093,-0.14124756,117.0
18912,0.32962918,2.5364227,-1.5449562,1.2414917,3.7319093,-0.14124756,117.0
18913,0.32962918,2.5364227,-1.5449562,-1.1809571,3.5545533,-1.0333375,117.0
18914,-0.9950614,4.3317947,-1.3153839,-1.1809571,3.5545533,-1.0333375,117.0
18915,-0.9950614,4.3317947,-1.3153839,-1.902063,3.535437,-1.4082276,117.0
18916,-3.2802777,6.0107346,-0.827528,-1.902063,3.535437,-1.4082276,117.0
18917,-3.2802777,6.0107346,-0.827528,-2.552014,3.3209107,-1.7385132,117.0
18918,-4.002262,5.6913834,-0.3515854,-2.552014,3.3209107,-1.7385132,117.0
18919,-4.002262,5.6913834,-0.3515854,-2.0581787,2.633789,-1.5654052,117.0
18920,-3.7239046,5.9787903,-0.57266235,-2.0581787,2.633789,-1.5654052,117.0
18921,-3.7239046,5.9787903,-0.57266235,-1.5112427,2.2174804,-1.5855836,117.0
18922,-3.1919413,7.2794952,-1.1357918,-1.5112427,2.2174804,-1.5855836,117.0
18923,-3.1919413,7.2794952,-1.1357918,-0.9717407,1.9339234,-1.5176147,117.0
18924,-4.299207,8.991127,-1.8933868,-0.9717407,1.9339234,-1.5176147,117.0
18925,-4.299207,8.991127,-1.8933868,-1.5123047,1.0301514,-0.9526245,117.0
18926,-4.868516,7.875992,-1.7438107,-1.5123047,1.0301514,-0.9526245,117.0
18927,-4.868516,7.875992,-1.7438107,-1.8829468,0.5522461,-0.67331547,117.0
18928,-8.050208,6.6313477,-0.42300224,-1.8829468,0.5522461,-0.67331547,117.0
18929,-8.050208,6.6313477,-0.42300224,-1.6939087,-1.2255615,0.24001466,117.0
18930,-8.429412,4.839615,2.9100971,-1.6939087,-1.2255615,0.24001466,117.0
18931,-8.429412,4.839615,2.9100971,0.14761963,-1.3349488,0.5957886,117.0
18932,-4.32777,2.6309586,5.1504154,0.14761963,-1.3349488,0.5957886,117.0
18933,-4.32777,2.6309586,5.1504154,1.002539,-1.3264526,0.4609131,117.0
18934,-4.32777,2.6309586,5.1504154,0.13806152,-1.3264526,0.74022216,117.0
18935,-0.69200134,-0.4386673,4.189644,0.13806152,-1.3264526,0.74022216,117.0
18936,-0.37814903,-4.4925003,0.96944046,0.13806152,-1.3264526,0.74022216,117.0
18937,-0.37814903,-4.4925003,0.96944046,0.41206056,-2.3194337,1.987024,117.0
18938,-1.1724901,-9.875977,-1.8271942,0.41206056,-2.3194337,1.987024,117.0
18939,-1.1724901,-9.875977,-1.8271942,2.16969,-3.070276,2.7803466,117.0
18940,-0.47576046,-15.69696,-2.7601433,2.16969,-3.070276,2.7803466,117.0
18941,-0.47576046,-15.69696,-2.7601433,3.9018312,-2.6550293,4.6601076,117.0
18942,1.9824162,-19.3928,-2.8212624,3.9018312,-2.6550293,4.6601076,117.0
18943,1.9824162,-19.3928,-2.8212624,5.211292,-1.9806519,5.6605225,117.0
18944,4.5838947,-18.4002,-2.8717556,5.211292,-1.9806519,5.6605225,117.0
18945,4.5838947,-18.4002,-2.8717556,4.9829593,-1.4602661,6.001428,117.0
18946,5.8162737,-11.032051,-3.3791924,4.9829593,-1.4602661,6.001428,117.0
18947,5.8162737,-11.032051,-3.3791924,2.2981935,-4.592139,5.243152,117.0
18948,8.036234,0.9634094,-4.646225,2.2981935,-4.592139,5.243152,117.0
18949,8.036234,0.9634094,-4.646225,-2.4606812,-1.6716064,4.0144043,117.0
18950,9.604317,11.161697,-4.886547,-2.4606812,-1.6716064,4.0144043,117.0
18951,9.604317,11.161697,-4.886547,-6.86803,1.6397461,2.2769532,117.0
18952,5.648456,14.012451,-2.2668915,-6.86803,1.6397461,2.2769532,117.0
18953,5.648456,14.012451,-2.2668915,-8.029871,1.2914063,0.5150757,117.0
18954,-0.80398893,11.069824,0.4899292,-8.029871,1.2914063,0.5150757,117.0
18955,-0.80398893,11.069824,0.4899292,-6.5334964,0.24744873,-0.5171997,117.0
18956,-3.8163233,7.3018494,1.5617561,-6.5334964,0.24744873,-0.5171997,117.0
18957,-3.8163233,7.3018494,1.5617561,-6.692798,0.058410645,-0.30161133,117.0
18958,-1.6847115,6.2474136,3.765274,-6.692798,0.058410645,-0.30161133,117.0
18959,-1.6847115,6.2474136,3.765274,-5.26864,-0.32285157,-0.7540283,117.0
18960,2.1031342,6.7840652,7.956215,-5.26864,-0.32285157,-0.7540283,117.0
18961,2.1031342,6.7840652,7.956215,0.1720459,-2.7930908,-2.447937,117.0
18962,3.6638675,6.7505875,8.848225,0.1720459,-2.7930908,-2.447937,117.0
18963,3.6638675,6.7505875,8.848225,0.4163086,-2.5732543,-1.4846925,117.0
18964,3.6638675,6.7505875,8.848225,0.4163086,-2.5732543,-1.4846925,0.0
18965,2.3305936,6.669113,4.238859,0.4163086,-2.5732543,-1.4846925,0.0
18966,2.3305936,6.669113,4.238859,0.16992188,-0.95793456,-1.8447144,0.0
18967,0.18395758,6.51194,-1.3664818,0.16992188,-0.95793456,-1.8447144,0.0
18968,0.18395758,6.51194,-1.3664818,1.4846925,-0.89846194,-1.6992188,0.0
18969,-0.25269985,3.781227,-3.844223,1.4846925,-0.89846194,-1.6992188,0.0
18970,-0.25269985,3.781227,-3.844223,3.2901123,0.15823975,-0.71154785,0.0
18971,0.15651941,-1.0770416,-2.3698368,3.2901123,0.15823975,-0.71154785,0.0
18972,0.15651941,-1.0770416,-2.3698368,3.8540406,1.5282348,0.1539917,0.0
18973,-0.69993114,-5.197891,-0.082466125,3.8540406,1.5282348,0.1539917,0.0
18974,-0.69993114,-5.197891,-0.082466125,3.1446168,2.430945,-0.41524658,0.0
18975,-1.9135585,-8.934082,0.32487106,3.1446168,2.430945,-0.41524658,0.0
18976,-1.9135585,-8.934082,0.32487106,3.059656,2.8323853,0.37489015,0.0
18977,-2.0152097,-11.936867,-0.2595482,3.059656,2.8323853,0.37489015,0.0
18978,-2.0152097,-11.936867,-0.2595482,4.6707277,2.5690064,-0.50445557,0.0
18979,-1.1041479,-11.886276,-0.025400162,4.6707277,2.5690064,-0.50445557,0.0
18980,-1.1041479,-11.886276,-0.025400162,4.050513,2.6412232,-0.32603762,0.0
18981,0.1136179,-9.889488,0.73690605,4.050513,2.6412232,-0.32603762,0.0
18982,0.1136179,-9.889488,0.73690605,2.2865112,3.3113525,-0.62340087,0.0
18983,0.3613901,-7.009819,0.75538254,2.2865112,3.3113525,-0.62340087,0.0
18984,0.3613901,-7.009819,0.75538254,0.8421753,3.5991578,-0.7540283,0.0
18985,-0.54586124,-3.38826,-0.21352768,0.8421753,3.5991578,-0.7540283,0.0
18986,-0.54586124,-3.38826,-0.21352768,0.15080567,3.8338623,-0.8219971,0.0
18987,-1.4445133,0.44774628,-1.4223366,0.15080567,3.8338623,-0.8219971,0.0
18988,-1.4445133,0.44774628,-1.4223366,-0.3079834,3.7011108,-0.8262451,0.0
18989,-2.130867,3.7602386,-1.8351822,-0.3079834,3.7011108,-0.8262451,0.0
18990,-2.130867,3.7602386,-1.8351822,0.14761963,3.1042602,-0.5798584,0.0
18991,-2.4839172,6.312599,-1.528925,0.14761963,3.1042602,-0.5798584,0.0
18992,-2.4839172,6.312599,-1.528925,0.51826173,2.4755495,-0.60322267,0.0
18993,-2.0523682,8.22509,-1.0621414,0.51826173,2.4755495,-0.60322267,0.0
18994,-2.0523682,8.22509,-1.0621414,0.5543701,2.1590698,-0.5129517,0.0
18995,-1.4181271,9.40081,-0.23021889,0.5543701,2.1590698,-0.5129517,0.0
18996,-1.4181271,9.40081,-0.23021889,0.6287109,1.6546143,-0.6573853,0.0
18997,-1.954936,9.47747,0.81669235,0.6287109,1.6546143,-0.6573853,0.0
18998,-1.954936,9.47747,0.81669235,0.634021,0.66588134,-0.2538208,0.0
18999,-4.5751553,7.9493256,1.025753,0.634021,0.66588134,-0.2538208,0.0
19000,-4.5751553,7.9493256,1.025753,0.42374268,-0.3079834,0.9430664,0.0
19001,-8.1661415,5.3708878,0.19822693,0.42374268,-0.3079834,0.9430664,0.0
19002,-8.1661415,5.3708878,0.19822693,1.0556396,-1.3285767,1.537793,0.0
19003,-8.893924,3.2074127,-0.31527138,1.0556396,-1.3285767,1.537793,0.0
19004,-8.893924,3.2074127,-0.31527138,1.7799317,-2.546704,1.7024049,0.0
19005,-5.3452415,0.99492645,0.018630981,1.7799317,-2.546704,1.7024049,0.0
19006,-5.3452415,0.99492645,0.018630981,1.1873292,-2.6783936,1.8404664,0.0
19007,-1.8775482,-3.9141998,0.42653847,1.1873292,-2.6783936,1.8404664,0.0
19008,-1.8775482,-3.9141998,0.42653847,0.81243896,-2.4001465,1.8043579,0.0
19009,-0.9656372,-12.263855,0.8555374,0.81243896,-2.4001465,1.8043579,0.0
19010,-0.9656372,-12.263855,0.8555374,1.0375855,-2.3927124,2.6847656,0.0
19011,0.63261604,-19.150429,1.3244705,1.0375855,-2.3927124,2.6847656,0.0
19012,0.63261604,-19.150429,1.3244705,2.616797,-1.9742798,3.3952515,0.0
19013,4.488393,-17.839981,1.6230049,2.616797,-1.9742798,3.3952515,0.0
19014,4.488393,-17.839981,1.6230049,2.2238526,-2.889734,2.9088502,0.0
19015,8.482328,-9.467735,1.9404087,2.2238526,-2.889734,2.9088502,0.0
19016,8.482328,-9.467735,1.9404087,0.0637207,-3.2370117,1.9806519,0.0
19017,9.726622,-1.2404938,1.9161682,0.0637207,-3.2370117,1.9806519,0.0
19018,9.726622,-1.2404938,1.9161682,-2.720874,-2.2408447,1.5431031,0.0
19019,6.5207987,3.1154633,1.5691528,-2.720874,-2.2408447,1.5431031,0.0
19020,6.5207987,3.1154633,1.5691528,-3.79563,-1.7300171,0.44604492,0.0
19021,1.7624149,5.037834,0.9083252,-3.79563,-1.7300171,0.44604492,0.0
19022,1.7624149,5.037834,0.9083252,-3.270996,-1.9317993,-0.28780517,0.0
19023,-0.18619823,6.5714417,-0.23072624,-3.270996,-1.9317993,-0.28780517,0.0
19024,-0.18619823,6.5714417,-0.23072624,-2.6029909,-1.7597535,-1.1958252,0.0
19025,0.8017378,8.258385,-0.8798561,-2.6029909,-1.7597535,-1.1958252,0.0
19026,0.8017378,8.258385,-0.8798561,-1.9296753,-1.4984986,-1.910559,0.0
19027,2.4584193,10.058907,-0.4503441,-1.9296753,-1.4984986,-1.910559,0.0
19028,2.4584193,10.058907,-0.4503441,-1.6960328,-1.2298096,-2.250403,0.0
19029,3.0901728,11.757462,0.19242287,-1.6960328,-1.2298096,-2.250403,0.0
19030,3.0901728,11.757462,0.19242287,-2.1091554,-0.6180908,-2.5148437,0.0
19031,2.458662,11.879906,0.4374714,-2.1091554,-0.6180908,-2.5148437,0.0
19032,2.458662,11.879906,0.4374714,-2.1548219,0.54693604,-2.263147,0.0
19033,1.4124985,8.249619,0.51579666,-2.1548219,0.54693604,-2.263147,0.0
19034,1.4124985,8.249619,0.51579666,-1.1289185,1.0545777,-2.5775025,0.0
19035,1.2868834,1.4783707,0.32397842,-1.1289185,1.0545777,-2.5775025,0.0
19036,1.2868834,1.4783707,0.32397842,0.5033936,1.9073731,-2.0146363,0.0
19037,2.119082,-6.9976044,-0.17151833,0.5033936,1.9073731,-2.0146363,0.0
19038,2.119082,-6.9976044,-0.17151833,2.6093628,2.171814,-0.10089111,0.0
19039,2.478908,-15.10305,-0.5492134,2.6093628,2.171814,-0.10089111,0.0
19040,2.478908,-15.10305,-0.5492134,2.984253,1.8680786,-0.23151855,0.0
19041,1.5139613,-18.88353,-0.18304825,2.984253,1.8680786,-0.23151855,0.0
19042,1.5139613,-18.88353,-0.18304825,2.0252564,2.3767822,-0.79332274,0.0
19043,0.5114255,-15.375519,1.1766815,2.0252564,2.3767822,-0.79332274,0.0
19044,0.5114255,-15.375519,1.1766815,2.1261475,1.9137452,-0.19328614,0.0
19045,0.76860094,-6.065628,2.064415,2.1261475,1.9137452,-0.19328614,0.0
19046,0.76860094,-6.065628,2.064415,0.11682129,2.2068603,-0.7890747,0.0
19047,0.43299603,1.3391876,1.6157799,0.11682129,2.2068603,-0.7890747,0.0
19048,0.43299603,1.3391876,1.6157799,-2.4829834,3.5874755,-0.76464844,0.0
19049,-1.7636495,1.8379517,1.1374588,-2.4829834,3.5874755,-0.76464844,0.0
19050,-1.7636495,1.8379517,1.1374588,-2.2185426,3.521631,-0.19753419,0.0
19051,-3.600556,0.31518555,0.6380081,-2.2185426,3.521631,-0.19753419,0.0
19052,-3.600556,0.31518555,0.6380081,-0.4970215,2.7771606,0.10620117,0.0
19053,-3.281702,2.407608,-0.41090775,-0.4970215,2.7771606,0.10620117,0.0
19054,-3.281702,2.407608,-0.41090775,-0.64782715,2.5934327,-0.10407715,0.0
19055,-2.074666,6.2443466,-1.0191422,-0.64782715,2.5934327,-0.10407715,0.0
19056,-2.074666,6.2443466,-1.0191422,-1.2298096,2.709192,-0.2803711,0.0
19057,-1.79423,8.346436,-0.20731735,-1.2298096,2.709192,-0.2803711,0.0
19058,-1.79423,8.346436,-0.20731735,-1.1278565,2.175,-0.070092775,0.0
19059,-2.3298178,8.913528,1.2135773,-1.1278565,2.175,-0.070092775,0.0
19060,-2.3298178,8.913528,1.2135773,-0.41524658,1.4262818,0.23045655,0.0
19061,-2.9114256,9.909241,1.4403801,-0.41524658,1.4262818,0.23045655,0.0
19062,-2.9114256,9.909241,1.4403801,0.25806886,0.6202149,0.5734863,0.0
19063,-4.0106716,10.451256,-0.18109512,0.25806886,0.6202149,0.5734863,0.0
19064,-4.0106716,10.451256,-0.18109512,0.53950197,-0.5957886,0.78164065,0.0
19065,-5.567107,8.02005,-2.152481,0.53950197,-0.5957886,0.78164065,0.0
19066,-5.567107,8.02005,-2.152481,1.0513916,-1.6333741,0.7657105,0.0
19067,-5.9886475,3.2982178,-2.7040176,1.0513916,-1.6333741,0.7657105,0.0
19068,-5.9886475,3.2982178,-2.7040176,1.535669,-2.4967897,1.0386475,0.0
19069,-4.753784,-1.2532806,-2.2326717,1.535669,-2.4967897,1.0386475,0.0
19070,-4.753784,-1.2532806,-2.2326717,1.5537232,-3.1573608,1.2287476,0.0
19071,-3.5695066,-5.5668945,-2.3075485,1.5537232,-3.1573608,1.2287476,0.0
19072,-3.5695066,-5.5668945,-2.3075485,1.4995606,-3.6554444,1.4623902,0.0
19073,-3.4561052,-11.640854,-3.2738342,1.4995606,-3.6554444,1.4623902,0.0
19074,-3.4561052,-11.640854,-3.2738342,1.269104,-3.8667848,2.156946,0.0
19075,-2.5704136,-19.059006,-4.3982544,1.269104,-3.8667848,2.156946,0.0
19076,-2.5704136,-19.059006,-4.3982544,1.363623,-2.6614015,2.7198122,0.0
19077,0.923296,-22.102951,-4.9896984,1.363623,-2.6614015,2.7198122,0.0
19078,0.923296,-22.102951,-4.9896984,0.86978763,-1.5813354,3.5556152,0.0
19079,5.421156,-15.51236,-3.8118515,0.86978763,-1.5813354,3.5556152,0.0
19080,5.421156,-15.51236,-3.8118515,-0.35683593,-4.516736,3.8285522,0.0
19081,10.247704,-4.284027,-1.4018993,-0.35683593,-4.516736,3.8285522,0.0
19082,10.247704,-4.284027,-1.4018993,-2.0741088,-4.0005984,2.890796,0.0
19083,11.577997,3.6611328,1.0592899,-2.0741088,-4.0005984,2.890796,0.0
19084,11.577997,3.6611328,1.0592899,-3.815808,-2.0284424,2.9821289,0.0
19085,6.1172075,6.8398285,3.2598343,-3.815808,-2.0284424,2.9821289,0.0
19086,6.1172075,6.8398285,3.2598343,-3.702173,-2.537146,1.5781494,0.0
19087,-0.75181484,7.166565,3.90699,-3.702173,-2.537146,1.5781494,0.0
19088,-0.75181484,7.166565,3.90699,-2.8589356,-2.8525636,0.5384399,0.0
19089,-3.5069084,6.7951355,3.1101265,-2.8589356,-2.8525636,0.5384399,0.0
19090,-3.5069084,6.7951355,3.1101265,-2.2259767,-2.351294,-0.18797608,0.0
19091,-2.2709074,7.027725,2.4000034,-2.2259767,-2.351294,-0.18797608,0.0
19092,-2.2709074,7.027725,2.4000034,-1.3126465,-1.8171021,-0.6287109,0.0
19093,0.011912346,8.52523,2.6484833,-1.3126465,-1.8171021,-0.6287109,0.0
19094,0.011912346,8.52523,2.6484833,-1.3891114,-1.2244996,-0.8995239,0.0
19095,1.3774738,10.577225,3.5309696,-1.3891114,-1.2244996,-0.8995239,0.0
19096,1.3774738,10.577225,3.5309696,-1.8298463,-0.60216063,-1.0365235,0.0
19097,1.3774738,10.577225,3.5309696,-1.8298463,-0.60216063,-1.0365235,0.0
19098,1.3913832,10.974571,4.1730804,-1.8298463,-0.60216063,-1.0365235,0.0
19099,1.3913832,10.974571,4.1730804,-2.2365968,0.016992187,-0.58198243,0.0
19100,1.3032064,8.154366,3.3718033,-2.2365968,0.016992187,-0.58198243,0.0
19101,1.3032064,8.154366,3.3718033,-1.3232666,0.540564,-0.1901001,0.0
19102,2.3668575,4.1022034,1.0835037,-1.3232666,0.540564,-0.1901001,0.0
19103,2.3668575,4.1022034,1.0835037,1.3041505,0.5979126,-1.2138795,0.0
19104,3.43372,1.9124527,-1.0564651,1.3041505,0.5979126,-1.2138795,0.0
19105,3.43372,1.9124527,-1.0564651,2.8451295,0.86766356,-1.630188,0.0
19106,3.0086217,1.0951233,-1.8251038,2.8451295,0.86766356,-1.630188,0.0
19107,3.0086217,1.0951233,-1.8251038,2.8706176,1.5080566,-1.6843506,0.0
19108,1.2293949,-2.2048187,-1.5640144,2.8706176,1.5080566,-1.6843506,0.0
19109,1.2293949,-2.2048187,-1.5640144,2.6592774,2.7368042,-2.086853,0.0
19110,-1.2627001,-10.319626,-0.61094284,2.6592774,2.7368042,-2.086853,0.0
19111,-1.2627001,-10.319626,-0.61094284,1.9424194,2.8610597,-4.336194,0.0
19112,-2.6690345,-17.030945,0.995121,1.9424194,2.8610597,-4.336194,0.0
19113,-2.6690345,-17.030945,0.995121,2.7580445,1.9859619,-5.0944705,0.0
19114,-0.84388256,-16.599945,1.9755669,2.7580445,1.9859619,-5.0944705,0.0
19115,-0.84388256,-16.599945,1.9755669,0.70305175,1.7321411,-3.2911744,0.0
19116,1.5366373,-11.548172,1.2408562,0.70305175,1.7321411,-3.2911744,0.0
19117,1.5366373,-11.548172,1.2408562,-1.1480347,1.9211792,-3.0288575,0.0
19118,0.802845,-4.6849136,-0.5479393,-1.1480347,1.9211792,-3.0288575,0.0
19119,0.802845,-4.6849136,-0.5479393,-1.7066529,1.5261109,-2.8589356,0.0
19120,-1.1819305,2.1652527,-1.8903542,-1.7066529,1.5261109,-2.8589356,0.0
19121,-1.1819305,2.1652527,-1.8903542,-1.9222412,1.3753052,-3.09364,0.0
19122,-1.6682372,6.299362,-1.7583656,-1.9222412,1.3753052,-3.09364,0.0
19123,-1.6682372,6.299362,-1.7583656,-1.7119629,2.6040528,-3.5609252,0.0
19124,-0.89223146,5.0391235,-0.8992462,-1.7119629,2.6040528,-3.5609252,0.0
19125,-0.89223146,5.0391235,-0.8992462,-0.83474123,3.4610963,-2.6900756,0.0
19126,-0.58577013,1.5811996,-0.8555641,-0.83474123,3.4610963,-2.6900756,0.0
19127,-0.58577013,1.5811996,-0.8555641,0.7062378,2.0656128,-1.3402588,0.0
19128,-1.4833498,1.5405121,-1.3456688,0.7062378,2.0656128,-1.3402588,0.0
19129,-1.4833498,1.5405121,-1.3456688,2.247217,0.40250245,-1.2383057,0.0
19130,-3.9143658,3.6992798,-0.8439293,2.247217,0.40250245,-1.2383057,0.0
19131,-3.9143658,3.6992798,-0.8439293,2.714502,-0.9802368,-0.59472656,0.0
19132,-8.048351,4.080406,0.6423855,2.714502,-0.9802368,-0.59472656,0.0
19133,-8.048351,4.080406,0.6423855,3.2359498,-2.088977,0.43117675,0.0
19134,-11.117319,3.0179749,0.9002247,3.2359498,-2.088977,0.43117675,0.0
19135,-11.117319,3.0179749,0.9002247,3.2996705,-2.5552003,1.2106934,0.0
19136,-9.501814,1.7628021,-0.72435,3.2996705,-2.5552003,1.2106934,0.0
19137,-9.501814,1.7628021,-0.72435,2.7686646,-2.4086425,1.8648926,0.0
19138,-5.3439445,-0.73226166,-2.1495361,2.7686646,-2.4086425,1.8648926,0.0
19139,-5.3439445,-0.73226166,-2.1495361,2.6709595,-2.4744873,2.4245727,0.0
19140,-2.5119362,-4.386322,-2.4796638,2.6709595,-2.4744873,2.4245727,0.0
19141,-2.5119362,-4.386322,-2.4796638,2.716626,-2.6645875,3.268872,0.0
19142,-0.7160187,-8.920868,-2.2455235,2.716626,-2.6645875,3.268872,0.0
19143,-0.7160187,-8.920868,-2.2455235,2.461743,-2.085791,3.7850099,0.0
19144,1.84198,-14.291817,-1.3647919,2.461743,-2.085791,3.7850099,0.0
19145,1.84198,-14.291817,-1.3647919,1.6854126,-0.68712157,4.789673,0.0
19146,4.902563,-16.797638,-0.1283207,1.6854126,-0.68712157,4.789673,0.0
19147,4.902563,-16.797638,-0.1283207,0.13806152,-1.0428956,6.066211,0.0
19148,7.993389,-13.971191,0.5086479,0.13806152,-1.0428956,6.066211,0.0
19149,7.993389,-13.971191,0.5086479,-2.811145,-4.8130374,5.9430175,0.0
19150,13.583176,-7.772972,-1.8921795,-2.811145,-4.8130374,5.9430175,0.0
19151,13.583176,-7.772972,-1.8921795,-5.8453126,-4.6611695,5.1921754,0.0
19152,17.010082,-0.91038513,-5.572521,-5.8453126,-4.6611695,5.1921754,0.0
19153,17.010082,-0.91038513,-5.572521,-6.244629,0.6605713,4.180078,0.0
19154,10.287217,4.8795776,-4.0466156,-6.244629,0.6605713,4.180078,0.0
19155,10.287217,4.8795776,-4.0466156,-3.6883667,-1.4294678,3.1244385,0.0
19156,0.1398201,9.153656,0.8558216,-3.6883667,-1.4294678,3.1244385,0.0
19157,0.1398201,9.153656,0.8558216,-1.4868164,-3.7945678,2.1728761,0.0
19158,-4.1980805,11.854385,3.9986572,-1.4868164,-3.7945678,2.1728761,0.0
19159,-4.1980805,11.854385,3.9986572,-0.28355715,-4.517798,1.7586914,0.0
19160,-3.0175953,13.299759,4.8143196,-0.28355715,-4.517798,1.7586914,0.0
19161,-3.0175953,13.299759,4.8143196,-0.43117675,-3.7584596,0.8251831,0.0
19162,-0.6166153,14.512085,4.8914337,-0.43117675,-3.7584596,0.8251831,0.0
19163,-0.6166153,14.512085,4.8914337,-0.42268068,-3.167981,-0.49489745,0.0
19164,0.6227846,18.24707,5.47838,-0.42268068,-3.167981,-0.49489745,0.0
19165,0.6227846,18.24707,5.47838,0.8315552,-1.9976441,-2.4914796,0.0
19166,-0.3427391,22.349548,6.718872,0.8315552,-1.9976441,-2.4914796,0.0
19167,-0.3427391,22.349548,6.718872,-0.7657105,-0.544812,-0.13699952,0.0
19168,-3.1242037,20.682068,6.689514,-0.7657105,-0.544812,-0.13699952,0.0
19169,-3.1242037,20.682068,6.689514,-1.3848633,0.36851808,-2.265271,0.0
19170,-4.72357,13.222343,4.4513664,-1.3848633,0.36851808,-2.265271,0.0
19171,-4.72357,13.222343,4.4513664,-1.1926392,1.6854126,-4.3882327,0.0
19172,-2.7889023,2.776619,2.3753395,-1.1926392,1.6854126,-4.3882327,0.0
19173,-2.7889023,2.776619,2.3753395,1.085376,3.6660645,-4.9532228,0.0
19174,2.089398,-10.411491,3.258644,1.085376,3.6660645,-4.9532228,0.0
19175,2.089398,-10.411491,3.258644,1.1841431,2.250403,-2.800525,0.0
19176,7.6257787,-22.552193,4.1521072,1.1841431,2.250403,-2.800525,0.0
19177,7.6257787,-22.552193,4.1521072,-1.993396,-0.5979126,-0.07434082,0.0
19178,9.909388,-25.518745,-0.019367218,-1.993396,-0.5979126,-0.07434082,0.0
19179,9.909388,-25.518745,-0.019367218,-1.2807862,2.1590698,-1.8001099,0.0
19180,5.041231,-19.400238,-5.123234,-1.2807862,2.1590698,-1.8001099,0.0
19181,5.041231,-19.400238,-5.123234,-0.7412842,3.0203614,-1.7321411,0.0
19182,-2.7094102,-11.914261,-5.6319237,-0.7412842,3.0203614,-1.7321411,0.0
19183,-2.7094102,-11.914261,-5.6319237,1.0471436,1.2329956,-1.9339234,0.0
19184,-6.6154776,-6.072464,-3.701706,1.0471436,1.2329956,-1.9339234,0.0
19185,-6.6154776,-6.072464,-3.701706,2.1728761,0.5129517,-0.81243896,0.0
19186,-5.720092,-2.7275467,-2.2475967,2.1728761,0.5129517,-0.81243896,0.0
19187,-5.720092,-2.7275467,-2.2475967,1.538855,0.62127686,-0.97067875,0.0
19188,-3.5259514,-0.92878723,-1.8544502,1.538855,0.62127686,-0.97067875,0.0
19189,-3.5259514,-0.92878723,-1.8544502,0.40037844,1.3381348,-0.9802368,0.0
19190,-2.6499238,0.5155182,-2.1126633,0.40037844,1.3381348,-0.9802368,0.0
19191,-2.6499238,0.5155182,-2.1126633,-0.14337158,1.6450561,-0.8219971,0.0
19192,-2.7197561,2.3566437,-2.6162796,-0.14337158,1.6450561,-0.8219971,0.0
19193,-2.7197561,2.3566437,-2.6162796,-0.2262085,1.3381348,-0.5713623,0.0
19194,-3.0105953,5.0913696,-2.8417435,-0.2262085,1.3381348,-0.5713623,0.0
19195,-3.0105953,5.0913696,-2.8417435,-0.40356445,1.0120972,-0.45560303,0.0
19196,-4.0249434,7.739029,-2.1610165,-0.40356445,1.0120972,-0.45560303,0.0
19197,-4.0249434,7.739029,-2.1610165,-0.62977296,0.41737062,-0.33240968,0.0
19198,-6.7027063,9.019836,-0.7842331,-0.62977296,0.41737062,-0.33240968,0.0
19199,-6.7027063,9.019836,-0.7842331,-0.42799073,-0.11151123,0.26762697,0.0
19200,-11.334614,8.935219,-0.18097496,-0.42799073,-0.11151123,0.26762697,0.0
19201,-11.334614,8.935219,-0.18097496,0.3462158,-0.34940186,1.351941,0.0
19202,-14.262882,7.610733,-0.6370392,0.3462158,-0.34940186,1.351941,0.0
19203,-14.262882,7.610733,-0.6370392,0.3462158,-0.34940186,1.351941,0.0
19204,-14.262882,7.610733,-0.6370392,0.99298096,-1.4719483,0.85385746,0.0
19205,-10.823563,4.854355,-0.81193924,0.99298096,-1.4719483,0.85385746,0.0
19206,-10.823563,4.854355,-0.81193924,0.9855469,-2.8610597,1.0545777,0.0
19207,-4.2620125,0.72219086,-0.19520569,0.9855469,-2.8610597,1.0545777,0.0
19208,-4.2620125,0.72219086,-0.19520569,1.3891114,-2.1080933,1.4836304,0.0
19209,-0.9024582,-3.1178207,0.59033203,1.3891114,-2.1080933,1.4836304,0.0
19210,-0.9024582,-3.1178207,0.59033203,1.3668091,-3.361267,2.1144655,0.0
19211,-0.15936852,-6.438034,0.7737198,1.3668091,-3.361267,2.1144655,0.0
19212,-0.15936852,-6.438034,0.7737198,0.6701294,-3.0447876,2.2737672,0.0
19213,0.80005646,-9.851105,0.9174614,0.6701294,-3.0447876,2.2737672,0.0
19214,0.80005646,-9.851105,0.9174614,0.90695804,-2.7729127,3.0978882,0.0
19215,2.8523006,-11.607704,1.234127,0.90695804,-2.7729127,3.0978882,0.0
19216,2.8523006,-11.607704,1.234127,1.7841797,-2.8100832,4.3807983,0.0
19217,5.583147,-9.867256,1.5330887,1.7841797,-2.8100832,4.3807983,0.0
19218,5.583147,-9.867256,1.5330887,2.4320068,-3.4048097,4.12804,0.0
19219,8.6395035,-5.5102386,2.4830246,2.4320068,-3.4048097,4.12804,0.0
19220,8.6395035,-5.5102386,2.4830246,3.706421,-5.06792,2.6762695,0.0
19221,12.195075,-1.0804825,3.7366142,3.706421,-5.06792,2.6762695,0.0
19222,12.195075,-1.0804825,3.7366142,3.7722657,-5.2537723,0.59047854,0.0
19223,13.533173,3.0004807,4.124996,3.7722657,-5.2537723,0.59047854,0.0
19224,13.533173,3.0004807,4.124996,0.9897949,-2.8663697,0.35152587,0.0
19225,10.114124,6.7043457,3.1688576,0.9897949,-2.8663697,0.35152587,0.0
19226,10.114124,6.7043457,3.1688576,-0.43861085,-2.538208,0.17841797,0.0
19227,4.894998,8.309753,1.443058,-0.43861085,-2.538208,0.17841797,0.0
19228,4.894998,8.309753,1.443058,-0.9802368,-1.9817139,0.25594482,0.0
19229,1.6364088,7.7765656,1.399025,-0.9802368,-1.9817139,0.25594482,0.0
19230,1.6364088,7.7765656,1.399025,-0.40462646,-1.3657471,-0.41418457,0.0
19231,0.317904,8.253265,3.2259712,-0.40462646,-1.3657471,-0.41418457,0.0
19232,0.317904,8.253265,3.2259712,-0.4248047,-0.9568726,-0.9494385,0.0
19233,-0.8309183,11.20475,4.3454742,-0.4248047,-0.9568726,-0.9494385,0.0
19234,-0.8309183,11.20475,4.3454742,-1.3476928,-0.9197022,-0.6956177,0.0
19235,-2.3088264,13.451355,3.6017685,-1.3476928,-0.9197022,-0.6956177,0.0
19236,-2.3088264,13.451355,3.6017685,-1.9148072,-0.14868164,-0.32922363,0.0
19237,-3.266593,11.256332,2.1689758,-1.9148072,-0.14868164,-0.32922363,0.0
19238,-3.266593,11.256332,2.1689758,-2.3119996,0.7943848,-1.6684204,0.0
19239,-2.9290218,6.060425,1.8975601,-2.3119996,0.7943848,-1.6684204,0.0
19240,-2.9290218,6.060425,1.8975601,-2.076233,1.8202881,-2.9162843,0.0
19241,-1.5566082,1.6706314,2.8294144,-2.076233,1.8202881,-2.9162843,0.0
19242,-1.5566082,1.6706314,2.8294144,-1.4082276,2.1102173,-3.3028564,0.0
19243,-0.13117504,-0.7101364,3.4540443,-1.4082276,2.1102173,-3.3028564,0.0
19244,-0.13117504,-0.7101364,3.4540443,-0.7880127,2.4797974,-3.3272827,0.0
19245,1.5532751,-2.7382965,3.8952522,-0.7880127,2.4797974,-3.3272827,0.0
19246,1.5532751,-2.7382965,3.8952522,-1.2765381,3.0139892,-3.5375612,0.0
19247,5.1628475,-9.398254,3.7000275,-1.2765381,3.0139892,-3.5375612,0.0
19248,5.1628475,-9.398254,3.7000275,-4.6547976,1.6556762,-1.8723267,0.0
19249,9.376213,-18.875221,-1.2700348,-4.6547976,1.6556762,-1.8723267,0.0
19250,9.376213,-18.875221,-1.2700348,-5.500159,2.179248,-2.1888063,0.0
19251,9.074701,-21.073624,-7.075573,-5.500159,2.179248,-2.1888063,0.0
19252,9.074701,-21.073624,-7.075573,-5.313245,4.326636,-1.26698,0.0
19253,3.588423,-15.027344,-7.2695885,-5.313245,4.326636,-1.26698,0.0
19254,3.588423,-15.027344,-7.2695885,-4.5146117,3.270996,-0.88253176,0.0
19255,-1.5995255,-7.5343475,-6.021347,-4.5146117,3.270996,-0.88253176,0.0
19256,-1.5995255,-7.5343475,-6.021347,-2.9545166,2.5785644,-0.30161133,0.0
19257,-3.7117372,-1.1416092,-6.582531,-2.9545166,2.5785644,-0.30161133,0.0
19258,-3.7117372,-1.1416092,-6.582531,-1.9307374,2.4213867,0.19647217,0.0
19259,-3.9408498,4.1037445,-7.7817116,-1.9307374,2.4213867,0.19647217,0.0
19260,-3.9408498,4.1037445,-7.7817116,-1.4868164,2.5084717,0.271875,0.0
19261,-4.0726385,7.1135254,-7.46315,-1.4868164,2.5084717,0.271875,0.0
19262,-4.0726385,7.1135254,-7.46315,-1.7013428,2.8387573,0.20603028,0.0
19263,-5.3208303,7.261696,-4.734583,-1.7013428,2.8387573,0.20603028,0.0
19264,-5.3208303,7.261696,-4.734583,-1.7087768,2.8525636,0.14655761,0.0
19265,-7.961755,6.17688,-1.4728107,-1.7087768,2.8525636,0.14655761,0.0
19266,-7.961755,6.17688,-1.4728107,-1.1650269,2.7803466,1.3275146,0.0
19267,-11.578767,6.0603333,-0.14360428,-1.1650269,2.7803466,1.3275146,0.0
19268,-11.578767,6.0603333,-0.14360428,-0.41206056,2.8653076,3.2072754,0.0
19269,-14.385474,6.2659683,-1.1726952,-0.41206056,2.8653076,3.2072754,0.0
19270,-14.385474,6.2659683,-1.1726952,-0.040356446,2.3385499,3.5460572,0.0
19271,-13.518866,4.5556107,-2.8654747,-0.040356446,2.3385499,3.5460572,0.0
19272,-13.518866,4.5556107,-2.8654747,-1.0152832,0.124255374,3.0405395,0.0
19273,-9.133793,1.3925476,-3.0764008,-1.0152832,0.124255374,3.0405395,0.0
19274,-9.133793,1.3925476,-3.0764008,-1.6004517,-0.8517334,5.0201297,0.0
19275,-4.186661,-1.227356,-1.9270763,-1.6004517,-0.8517334,5.0201297,0.0
19276,-4.186661,-1.227356,-1.9270763,-0.35895997,-1.9233032,5.607422,0.0
19277,-0.59269905,-3.0756378,-2.563549,-0.35895997,-1.9233032,5.607422,0.0
19278,-0.59269905,-3.0756378,-2.563549,0.83686525,-2.6698976,5.3652835,0.0
19279,1.2287464,-5.112015,-5.801853,0.83686525,-2.6698976,5.3652835,0.0
19280,1.2287464,-5.112015,-5.801853,0.9388184,-3.8795288,5.977002,0.0
19281,2.447609,-6.824852,-8.160759,0.9388184,-3.8795288,5.977002,0.0
19282,2.447609,-6.824852,-8.160759,0.23151855,-5.3089967,5.9345217,0.0
19283,4.8912907,-6.3689957,-6.90423,0.23151855,-5.3089967,5.9345217,0.0
19284,4.8912907,-6.3689957,-6.90423,-0.44604492,-5.7104373,5.408826,0.0
19285,8.46456,-3.9272842,-2.5575027,-0.44604492,-5.7104373,5.408826,0.0
19286,8.46456,-3.9272842,-2.5575027,-0.98129886,-6.5526123,4.2214966,0.0
19287,10.807781,-1.1953888,2.485176,-0.98129886,-6.5526123,4.2214966,0.0
19288,10.807781,-1.1953888,2.485176,-1.0460815,-5.758228,2.9120362,0.0
19289,8.065085,2.4298935,7.531391,-1.0460815,-5.758228,2.9120362,0.0
19290,8.065085,2.4298935,7.531391,-2.2068603,-4.2002563,2.6040528,0.0
19291,0.634881,6.349716,12.159378,-2.2068603,-4.2002563,2.6040528,0.0
19292,0.634881,6.349716,12.159378,-2.8430054,-3.8370483,2.9492066,0.0
19293,-5.8461,8.49929,13.441856,-2.8430054,-3.8370483,2.9492066,0.0
19294,-5.8461,8.49929,13.441856,-2.636975,-3.3750732,3.8689086,0.0
19295,-7.598377,9.174782,10.446209,-2.636975,-3.3750732,3.8689086,0.0
19296,-7.598377,9.174782,10.446209,-2.9290283,-3.612964,4.87782,0.0
19297,-3.6118927,9.618584,6.045933,-2.9290283,-3.612964,4.87782,0.0
19298,-3.6118927,9.618584,6.045933,-3.7414672,-4.7355103,5.640344,0.0
19299,5.0364876,10.143929,3.2936554,-3.7414672,-4.7355103,5.640344,0.0
19300,5.0364876,10.143929,3.2936554,-4.3903565,-4.71427,5.2006717,0.0
19301,14.215591,10.440826,1.856823,-4.3903565,-4.71427,5.2006717,0.0
19302,14.215591,10.440826,1.856823,-4.5655885,-2.9566407,2.1378295,0.0
19303,16.167322,10.344276,0.67556,-4.5655885,-2.9566407,2.1378295,0.0
19304,16.167322,10.344276,0.67556,-4.512488,0.026550293,0.7147339,0.0
19305,9.318819,8.5629425,0.5226021,-4.512488,0.026550293,0.7147339,0.0
19306,9.318819,8.5629425,0.5226021,-4.6845336,0.67225343,-0.53100586,0.0
19307,2.5713763,4.573387,1.7381134,-4.6845336,0.67225343,-0.53100586,0.0
19308,2.5713763,4.573387,1.7381134,-2.5711305,1.906311,-1.806482,0.0
19309,0.4874115,-1.5170593,3.9323387,-2.5711305,1.906311,-1.806482,0.0
19310,0.4874115,-1.5170593,3.9323387,0.6053467,4.164148,-3.062842,0.0
19311,-1.1932864,-9.296371,4.78286,0.6053467,4.164148,-3.062842,0.0
19312,-1.1932864,-9.296371,4.78286,3.2476318,5.2027955,-4.3616824,0.0
19313,-5.433609,-15.070045,4.089386,3.2476318,5.2027955,-4.3616824,0.0
19314,-5.433609,-15.070045,4.089386,2.0560548,4.7556887,-4.873572,0.0
19315,-9.658765,-17.667877,2.6830063,2.0560548,4.7556887,-4.873572,0.0
19316,-9.658765,-17.667877,2.6830063,-1.264856,5.440686,-3.0341675,0.0
19317,-11.6225195,-17.949257,-1.8163757,-1.264856,5.440686,-3.0341675,0.0
19318,-11.6225195,-17.949257,-1.8163757,-0.39613038,6.0959473,-1.1225464,0.0
19319,-12.685003,-13.39772,-8.556507,-0.39613038,6.0959473,-1.1225464,0.0
19320,-12.685003,-13.39772,-8.556507,3.7754517,4.584705,-0.75509036,0.0
19321,-13.2596245,-3.1352997,-11.9464035,3.7754517,4.584705,-0.75509036,0.0
19322,-13.2596245,-3.1352997,-11.9464035,5.418384,2.72937,-0.7614624,0.0
19323,-11.46627,7.512108,-9.512215,5.418384,2.72937,-0.7614624,0.0
19324,-11.46627,7.512108,-9.512215,3.8317382,1.6673584,-1.4188477,0.0
19325,-6.3989315,12.698029,-4.7481155,3.8317382,1.6673584,-1.4188477,0.0
19326,-6.3989315,12.698029,-4.7481155,1.6705445,1.8011719,-1.7926759,0.0
19327,-0.6976719,12.628479,-1.6467838,1.6705445,1.8011719,-1.7926759,0.0
19328,-0.6976719,12.628479,-1.6467838,0.6265869,1.8606446,-1.7512573,0.0
19329,2.3228817,10.883034,-0.4594307,0.6265869,1.8606446,-1.7512573,0.0
19330,2.3228817,10.883034,-0.4594307,0.22833252,1.2903442,-1.6992188,0.0
19331,2.6089516,9.980804,0.30752945,0.22833252,1.2903442,-1.6992188,0.0
19332,2.6089516,9.980804,0.30752945,-0.09239502,0.67437744,-1.5473511,0.0
19333,1.6669712,9.5197525,1.3200111,-0.09239502,0.67437744,-1.5473511,0.0
19334,1.6669712,9.5197525,1.3200111,-0.5479981,0.41524658,-1.545227,0.0
19335,-0.05587578,7.947983,2.7082062,-0.5479981,0.41524658,-1.545227,0.0
19336,-0.05587578,7.947983,2.7082062,-1.1161743,0.4959595,-1.4921265,0.0
19337,-2.6312008,5.036728,4.133705,-1.1161743,0.4959595,-1.4921265,0.0
19338,-2.6312008,5.036728,4.133705,-1.2510499,0.38338622,-0.41099855,0.0
19339,-4.8304977,0.7800293,4.789116,-1.2510499,0.38338622,-0.41099855,0.0
19340,-4.8304977,0.7800293,4.789116,-0.038232423,0.1178833,0.5501221,0.0
19341,-5.2371883,-4.0791855,3.8759232,-0.038232423,0.1178833,0.5501221,0.0
19342,-5.2371883,-4.0791855,3.8759232,1.0375855,-0.7678345,0.08283692,0.0
19343,-4.4248085,-8.351738,0.8630905,1.0375855,-0.7678345,0.08283692,0.0
19344,-4.4248085,-8.351738,0.8630905,0.9494385,-1.0322754,0.26762697,0.0
19345,-3.8958282,-14.941536,-3.363163,0.9494385,-1.0322754,0.26762697,0.0
19346,-3.8958282,-14.941536,-3.363163,0.83898926,-0.4630371,0.44923097,0.0
19347,-2.2791862,-22.978989,-6.62455,0.83898926,-0.4630371,0.44923097,0.0
19348,-2.2791862,-22.978989,-6.62455,0.4715332,0.3791382,2.9407105,0.0
19349,2.4582672,-22.942772,-6.812359,0.4715332,0.3791382,2.9407105,0.0
19350,2.4582672,-22.942772,-6.812359,0.36108398,0.9494385,5.7550416,0.0
19351,8.587599,-11.349869,-4.1472263,0.36108398,0.9494385,5.7550416,0.0
19352,8.587599,-11.349869,-4.1472263,-1.5739014,-0.8517334,6.1787844,0.0
19353,14.468016,2.7242203,-1.5546589,-1.5739014,-0.8517334,6.1787844,0.0
19354,14.468016,2.7242203,-1.5546589,-4.1025515,-0.75721437,2.9300904,0.0
19355,15.394421,10.709518,0.33968353,-4.1025515,-0.75721437,2.9300904,0.0
19356,15.394421,10.709518,0.33968353,-4.3181396,1.1671509,-0.41843262,0.0
19357,7.492197,12.709373,4.477886,-4.3181396,1.1671509,-0.41843262,0.0
19358,7.492197,12.709373,4.477886,-3.2869263,-1.0673218,-1.5292969,0.0
19359,-1.4528847,11.115326,9.250999,-3.2869263,-1.0673218,-1.5292969,0.0
19360,-1.4528847,11.115326,9.250999,-2.1919923,-1.538855,-3.541809,0.0
19361,-3.7443638,8.14286,10.122246,-2.1919923,-1.538855,-3.541809,0.0
19362,-3.7443638,8.14286,10.122246,-1.09281,-1.1161743,-4.2268066,0.0
19363,-0.47144318,5.7867737,7.106186,-1.09281,-1.1161743,-4.2268066,0.0
19364,-0.47144318,5.7867737,7.106186,1.5792115,-2.3035035,-4.466821,0.0
19365,4.439764,5.395653,3.56913,1.5792115,-2.3035035,-4.466821,0.0
19366,4.439764,5.395653,3.56913,2.6837037,-2.5976808,-3.6554444,0.0
19367,6.5489054,7.5168,1.4317551,2.6837037,-2.5976808,-3.6554444,0.0
19368,6.5489054,7.5168,1.4317551,0.33878174,-1.450708,-2.357666,0.0
19369,4.394349,8.969154,-0.085868835,0.33878174,-1.450708,-2.357666,0.0
19370,4.394349,8.969154,-0.085868835,-1.5632813,-0.15930176,-2.4691772,0.0
19371,1.0112066,5.7241745,-2.2192688,-1.5632813,-0.15930176,-2.4691772,0.0
19372,1.0112066,5.7241745,-2.2192688,-2.8376954,1.4868164,-2.7718506,0.0
19373,1.0112066,5.7241745,-2.2192688,-2.8376954,1.4868164,-2.7718506,142.0
19374,-0.5412178,-1.239006,-3.9781723,-2.8376954,1.4868164,-2.7718506,142.0
19375,-0.5412178,-1.239006,-3.9781723,-4.884192,3.0660279,-1.7703736,142.0
19376,0.5002165,-8.72496,-4.873028,-4.884192,3.0660279,-1.7703736,142.0
19377,0.5002165,-8.72496,-4.873028,-5.8251343,3.6405761,-0.0010620117,142.0
19378,2.4399805,-15.609062,-5.9592857,-5.8251343,3.6405761,-0.0010620117,142.0
19379,2.4399805,-15.609062,-5.9592857,-2.1388917,4.1832643,2.7654786,142.0
19380,2.9749947,-17.335686,-6.9080315,-2.1388917,4.1832643,2.7654786,142.0
19381,2.9749947,-17.335686,-6.9080315,3.5088868,2.7676027,3.4833984,142.0
19382,2.6541176,-10.80809,-6.757332,3.5088868,2.7676027,3.4833984,142.0
19383,2.6541176,-10.80809,-6.757332,1.9286133,2.170752,1.9785279,142.0
19384,2.2543,-3.8291016,-5.971491,1.9286133,2.170752,1.9785279,142.0
19385,2.2543,-3.8291016,-5.971491,-0.54693604,2.9184082,0.8591675,142.0
19386,0.29101372,-1.0715485,-5.0660477,-0.54693604,2.9184082,0.8591675,142.0
19387,0.29101372,-1.0715485,-5.0660477,1.2149414,2.3746583,0.30479738,142.0
19388,-2.8710346,0.38442993,-4.859638,1.2149414,2.3746583,0.30479738,142.0
19389,-2.8710346,0.38442993,-4.859638,2.066675,2.899292,-0.49277344,142.0
19390,-3.8166037,0.86434937,-4.728325,2.066675,2.899292,-0.49277344,142.0
19391,-3.8166037,0.86434937,-4.728325,2.1250856,3.1456788,-0.71367186,142.0
19392,-6.862158,4.3677826,-3.531538,2.1250856,3.1456788,-0.71367186,142.0
19393,-6.862158,4.3677826,-3.531538,0.79119873,2.8334472,0.04460449,142.0
19394,-5.819646,5.2720337,-2.1201534,0.79119873,2.8334472,0.04460449,142.0
19395,-5.819646,5.2720337,-2.1201534,-0.033984374,2.811145,0.27293703,142.0
19396,-4.1924114,8.734978,2.6421337,-0.033984374,2.811145,0.27293703,142.0
19397,-4.1924114,8.734978,2.6421337,-0.38657227,2.6093628,0.3536499,142.0
19398,-2.742199,7.87825,3.5555534,-0.38657227,2.6093628,0.3536499,142.0
19399,-2.742199,7.87825,3.5555534,0.35789797,2.2992554,0.4428589,142.0
19400,-2.1242638,8.17836,6.31732,0.35789797,2.2992554,0.4428589,142.0
19401,-2.1242638,8.17836,6.31732,2.253589,1.0343994,0.69986576,142.0
19402,-2.3257656,7.171913,5.525511,2.253589,1.0343994,0.69986576,142.0
19403,-2.3257656,7.171913,5.525511,2.1293335,0.6467652,0.75509036,142.0
19404,-6.501213,6.3674393,4.303795,2.1293335,0.6467652,0.75509036,142.0
19405,-6.501213,6.3674393,4.303795,1.5229248,0.21346436,0.98129886,142.0
19406,-6.930584,3.8386154,2.8103104,1.5229248,0.21346436,0.98129886,142.0
19407,-6.930584,3.8386154,2.8103104,2.086853,0.014868164,0.90802,142.0
19408,-7.5792446,-1.0722351,0.102436066,2.086853,0.014868164,0.90802,142.0
19409,-7.5792446,-1.0722351,0.102436066,3.1074464,-1.4039795,2.2355347,142.0
19410,-5.9252357,-1.6238251,-0.4785614,3.1074464,-1.4039795,2.2355347,142.0
19411,-5.9252357,-1.6238251,-0.4785614,2.1877441,-1.719397,2.5711305,142.0
19412,-3.5137978,-4.7596207,-3.6751823,2.1877441,-1.719397,2.5711305,142.0
19413,-3.5137978,-4.7596207,-3.6751823,-0.72216797,-2.6645875,3.5471191,142.0
19414,-2.6792145,-6.1032867,-3.8306122,-0.72216797,-2.6645875,3.5471191,142.0
19415,-2.6792145,-6.1032867,-3.8306122,-0.50445557,-3.255066,3.706421,142.0
19416,-0.36892128,-16.357277,-5.8720093,-0.50445557,-3.255066,3.706421,142.0
19417,-0.36892128,-16.357277,-5.8720093,1.540979,-4.0345826,3.7308471,142.0
19418,0.5428505,-16.326889,-5.153467,1.540979,-4.0345826,3.7308471,142.0
19419,0.5428505,-16.326889,-5.153467,1.8585205,-4.0855594,4.259729,142.0
19420,5.2406654,-14.911987,-3.7953815,1.8585205,-4.0855594,4.259729,142.0
19421,5.2406654,-14.911987,-3.7953815,1.448584,-4.6686034,5.325989,142.0
19422,6.3988056,-9.210846,-1.4161148,1.448584,-4.6686034,5.325989,142.0
19423,6.3988056,-9.210846,-1.4161148,0.6074707,-4.85658,5.249524,142.0
19424,12.799036,1.7355042,4.068598,0.6074707,-4.85658,5.249524,142.0
19425,12.799036,1.7355042,4.068598,-1.6939087,-4.1322875,2.5944946,142.0
19426,11.66976,4.4093323,5.374592,-1.6939087,-4.1322875,2.5944946,142.0
19427,11.66976,4.4093323,5.374592,-2.1590698,-2.8376954,2.0178223,142.0
19428,6.295659,9.809937,8.620876,-2.1590698,-2.8376954,2.0178223,142.0
19429,6.295659,9.809937,8.620876,-1.8638306,-2.3024414,1.2712281,142.0
19430,2.9464025,9.658936,7.7307205,-1.8638306,-2.3024414,1.2712281,142.0
19431,2.9464025,9.658936,7.7307205,-1.4772583,-2.1930542,1.3976074,142.0
19432,0.38763905,12.491165,5.7482986,-1.4772583,-2.1930542,1.3976074,142.0
19433,0.38763905,12.491165,5.7482986,-1.4889405,-1.9764038,1.3721192,142.0
19434,1.587882,11.51062,4.5465393,-1.4889405,-1.9764038,1.3721192,142.0
19435,1.587882,11.51062,4.5465393,-1.8054199,-2.0433106,1.0864381,142.0
19436,7.5245543,12.841011,2.8808975,-1.8054199,-2.0433106,1.0864381,142.0
19437,7.5245543,12.841011,2.8808975,-3.0277956,-1.2255615,-0.46728516,142.0
19438,7.561965,11.018829,2.4449997,-3.0277956,-1.2255615,-0.46728516,142.0
19439,7.561965,11.018829,2.4449997,-3.4738405,-0.18054199,-1.0248413,142.0
19440,4.978979,7.61985,2.89505,-3.4738405,-0.18054199,-1.0248413,142.0
19441,4.978979,7.61985,2.89505,-3.2720582,1.9413575,-2.5955567,142.0
19442,2.1039715,4.1818924,2.8588142,-3.2720582,1.9413575,-2.5955567,142.0
19443,2.1039715,4.1818924,2.8588142,-2.4065187,2.3013794,-3.1562989,142.0
19444,-2.967946,-3.1983337,4.521744,-2.4065187,2.3013794,-3.1562989,142.0
19445,-2.967946,-3.1983337,4.521744,-1.075818,2.9375246,-3.979358,142.0
19446,-3.830985,-6.6774673,3.6273804,-1.075818,2.9375246,-3.979358,142.0
19447,-3.830985,-6.6774673,3.6273804,-1.5770874,3.1977174,-4.3754883,142.0
19448,-7.9499073,-22.749405,1.6035271,-1.5770874,3.1977174,-4.3754883,142.0
19449,-7.9499073,-22.749405,1.6035271,-1.7385132,2.5063477,-1.4379638,142.0
19450,-8.368765,-23.481216,0.34944916,-1.7385132,2.5063477,-1.4379638,142.0
19451,-8.368765,-23.481216,0.34944916,-0.019116212,1.6004517,0.12000733,142.0
19452,-10.273235,-22.181343,-1.3580627,-0.019116212,1.6004517,0.12000733,142.0
19453,-10.273235,-22.181343,-1.3580627,1.9657837,0.632959,2.811145,142.0
19454,-8.688644,-11.473869,-2.3453865,1.9657837,0.632959,2.811145,142.0
19455,-8.688644,-11.473869,-2.3453865,2.6868896,0.6616333,3.5545533,142.0
19456,-3.043066,5.053314,-1.5321808,2.6868896,0.6616333,3.5545533,142.0
19457,-3.043066,5.053314,-1.5321808,3.706421,0.16673584,2.3109376,142.0
19458,-1.3606491,8.380234,-1.3549309,3.706421,0.16673584,2.3109376,142.0
19459,-1.3606491,8.380234,-1.3549309,3.4918945,0.39506838,1.893567,142.0
19460,-0.34602547,13.271118,-1.972969,3.4918945,0.39506838,1.893567,142.0
19461,-0.34602547,13.271118,-1.972969,2.893982,0.8336792,1.2414917,142.0
19462,-0.026550293,14.259735,-3.1436348,2.893982,0.8336792,1.2414917,142.0
19463,-0.026550293,14.259735,-3.1436348,2.7909667,0.67331547,0.4258667,142.0
19464,-0.026550293,14.259735,-3.1436348,2.7909667,0.67331547,0.4258667,142.0
19465,0.5156746,13.988419,-3.750126,2.7909667,0.67331547,0.4258667,142.0
19466,0.5156746,13.988419,-3.750126,2.2812011,0.3462158,-0.5129517,142.0
19467,0.77765274,14.038559,-3.3667488,2.2812011,0.3462158,-0.5129517,142.0
19468,0.77765274,14.038559,-3.3667488,1.5197388,-0.3079834,-1.4199097,142.0
19469,0.6686802,13.105713,-2.0408592,1.5197388,-0.3079834,-1.4199097,142.0
19470,0.6686802,13.105713,-2.0408592,0.19541016,-0.84536135,-1.4815063,142.0
19471,-0.33540535,9.746109,-0.028682709,0.19541016,-0.84536135,-1.4815063,142.0
19472,-0.33540535,9.746109,-0.028682709,-0.9685547,-0.98873293,-1.0726318,142.0
19473,-3.08119,5.3026733,1.5297775,-0.9685547,-0.98873293,-1.0726318,142.0
19474,-3.08119,5.3026733,1.5297775,-1.4082276,-1.176709,-0.5076416,142.0
19475,-6.420994,1.7225952,1.79599,-1.4082276,-1.176709,-0.5076416,142.0
19476,-6.420994,1.7225952,1.79599,-1.5696534,-1.3243287,0.08602295,142.0
19477,-7.207962,-2.6133804,0.8885994,-1.5696534,-1.3243287,0.08602295,142.0
19478,-7.207962,-2.6133804,0.8885994,-1.1236085,-1.6078857,0.9345703,142.0
19479,-5.190075,-3.714981,0.7508316,-1.1236085,-1.6078857,0.9345703,142.0
19480,-5.190075,-3.714981,0.7508316,-0.811377,-1.6716064,1.0280274,142.0
19481,-3.22324,-7.532753,0.010066986,-0.811377,-1.6716064,1.0280274,142.0
19482,-3.22324,-7.532753,0.010066986,-0.04141846,-1.8425903,1.0609497,142.0
19483,-2.808525,-12.122574,-1.3203659,-0.04141846,-1.8425903,1.0609497,142.0
19484,-2.808525,-12.122574,-1.3203659,0.6860596,-1.8850708,1.269104,142.0
19485,-1.9051075,-15.335205,-1.7978592,0.6860596,-1.8850708,1.269104,142.0
19486,-1.9051075,-15.335205,-1.7978592,0.5129517,-2.1229615,2.2833252,142.0
19487,0.9178581,-14.104111,-0.16220093,0.5129517,-2.1229615,2.2833252,142.0
19488,0.9178581,-14.104111,-0.16220093,-0.72216797,-1.9625977,3.7319093,142.0
19489,4.6211147,-8.703239,2.165001,-0.72216797,-1.9625977,3.7319093,142.0
19490,4.6211147,-8.703239,2.165001,-2.0624268,-1.632312,3.8381104,142.0
19491,6.76635,-2.618103,3.4653778,-2.0624268,-1.632312,3.8381104,142.0
19492,6.76635,-2.618103,3.4653778,-3.1541748,-1.3944215,2.3109376,142.0
19493,6.2978096,1.7588425,3.9902954,-3.1541748,-1.3944215,2.3109376,142.0
19494,6.2978096,1.7588425,3.9902954,-3.5503051,-0.9420044,1.4273437,142.0
19495,5.0793,4.3804398,4.2871933,-3.5503051,-0.9420044,1.4273437,142.0
19496,5.0793,4.3804398,4.2871933,-3.5003908,-0.5055176,1.2552979,142.0
19497,5.349928,5.9490128,4.2963104,-3.5003908,-0.5055176,1.2552979,142.0
19498,5.349928,5.9490128,4.2963104,-3.3262208,-0.093457036,0.8092529,142.0
19499,6.689842,7.2079163,4.2030525,-3.3262208,-0.093457036,0.8092529,142.0
19500,6.689842,7.2079163,4.2030525,-3.1467407,0.07327881,0.060534667,142.0
19501,8.078339,8.227989,4.190544,-3.1467407,0.07327881,0.060534667,142.0
19502,8.078339,8.227989,4.190544,-2.2992554,-0.35152587,-0.76464844,142.0
19503,9.181738,8.653732,3.9583206,-2.2992554,-0.35152587,-0.76464844,142.0
19504,9.181738,8.653732,3.9583206,-1.0875,-0.49489745,-1.8903809,142.0
19505,8.46314,8.654457,3.4682426,-1.0875,-0.49489745,-1.8903809,142.0
19506,8.46314,8.654457,3.4682426,-0.20178223,0.38551027,-2.4808595,142.0
19507,5.021391,7.330307,2.458908,-0.20178223,0.38551027,-2.4808595,142.0
19508,5.021391,7.330307,2.458908,0.014868164,1.0120972,-2.6008668,142.0
19509,1.1978264,3.805954,0.3758316,0.014868164,1.0120972,-2.6008668,142.0
19510,1.1978264,3.805954,0.3758316,0.68924564,1.7119629,-3.5906618,142.0
19511,1.1978264,3.805954,0.3758316,1.8309082,2.4553711,-3.883777,142.0
19512,-0.48941994,-0.52651215,-2.2827454,1.8309082,2.4553711,-3.883777,142.0
19513,-4.75815,-22.516975,-7.535244,1.8309082,2.4553711,-3.883777,142.0
19514,-4.75815,-22.516975,-7.535244,1.9721558,3.1509888,-3.4143677,142.0
19515,-4.75815,-22.516975,-7.535244,0.16567384,4.081311,-3.9921021,142.0
19516,-4.75815,-22.516975,-7.535244,0.14655761,4.032459,-3.3665771,142.0
19517,-3.8065205,-18.01358,-6.0281944,0.14655761,4.032459,-3.3665771,142.0
19518,-6.987196,-11.749611,-5.5839806,0.14655761,4.032459,-3.3665771,142.0
19519,-6.987196,-11.749611,-5.5839806,0.20709229,3.8731568,-1.0428956,142.0
19520,-6.987196,-11.749611,-5.5839806,0.24320069,3.6586304,-0.31435546,142.0
19521,-6.987196,-11.749611,-5.5839806,-0.22408448,3.6618164,-0.32391357,142.0
19522,-4.94862,-4.8354874,-4.6284637,-0.22408448,3.6618164,-0.32391357,142.0
19523,-4.94862,-4.8354874,-4.6284637,-0.29311523,3.7234132,-0.6180908,142.0
19524,-4.1128635,-0.5304947,-3.968113,-0.29311523,3.7234132,-0.6180908,142.0
19525,-4.1128635,-0.5304947,-3.968113,0.22302246,3.4823365,-0.22089843,142.0
19526,-4.0150223,2.4095993,-3.4357185,0.22302246,3.4823365,-0.22089843,142.0
19527,-4.0150223,2.4095993,-3.4357185,1.0864381,3.1414306,0.13699952,142.0
19528,-3.587799,4.9596786,-3.0545197,1.0864381,3.1414306,0.13699952,142.0
19529,-3.587799,4.9596786,-3.0545197,1.8680786,2.807959,0.28355715,142.0
19530,-2.6818237,7.3022156,-2.731823,1.8680786,2.807959,0.28355715,142.0
19531,-2.6818237,7.3022156,-2.731823,2.0964112,2.156946,0.14230958,142.0
19532,-2.2839718,9.356979,-2.3773308,2.0964112,2.156946,0.14230958,142.0
19533,-2.2839718,9.356979,-2.3773308,1.803296,1.2393677,-0.021240234,142.0
19534,-3.2822685,10.438339,-1.989193,1.803296,1.2393677,-0.021240234,142.0
19535,-3.2822685,10.438339,-1.989193,1.3020264,0.32709962,0.18691407,142.0
19536,-4.986679,8.633812,-1.7295876,1.3020264,0.32709962,0.18691407,142.0
19537,-4.986679,8.633812,-1.7295876,0.55968016,-0.29948732,0.5798584,142.0
19538,-5.7041016,3.592125,-1.5022507,0.55968016,-0.29948732,0.5798584,142.0
19539,-5.7041016,3.592125,-1.5022507,0.4343628,-0.82836914,0.4609131,142.0
19540,-4.7360477,-1.4334183,-1.1306839,0.4343628,-0.82836914,0.4609131,142.0
19541,-4.7360477,-1.4334183,-1.1306839,0.6701294,-1.6992188,1.2807862,142.0
19542,-2.8264236,-4.2304764,-0.6544876,0.6701294,-1.6992188,1.2807862,142.0
19543,-2.8264236,-4.2304764,-0.6544876,0.49489745,-2.4139526,1.9498535,142.0
19544,-0.81372833,-7.0481873,0.19565964,0.49489745,-2.4139526,1.9498535,142.0
19545,-0.81372833,-7.0481873,0.19565964,0.27506104,-2.4150147,1.8330323,142.0
19546,1.2853584,-10.806335,1.2904396,0.27506104,-2.4150147,1.8330323,142.0
19547,1.2853584,-10.806335,1.2904396,0.901648,-1.8394043,2.3332398,142.0
19548,3.6341705,-12.201721,1.9679108,0.901648,-1.8394043,2.3332398,142.0
19549,3.6341705,-12.201721,1.9679108,1.4305298,-1.5962037,2.066675,142.0
19550,5.729908,-9.510277,2.33844,1.4305298,-1.5962037,2.066675,142.0
19551,5.729908,-9.510277,2.33844,0.8581055,-1.7586914,1.8415283,142.0
19552,6.897171,-5.935272,2.6077042,0.8581055,-1.7586914,1.8415283,142.0
19553,6.897171,-5.935272,2.6077042,-1.3997315,-1.6822265,1.6153198,142.0
19554,5.919544,-4.1225815,2.794159,-1.3997315,-1.6822265,1.6153198,142.0
19555,5.919544,-4.1225815,2.794159,-3.1308105,-0.904834,1.3710572,142.0
19556,2.2197666,-2.2773514,2.960022,-3.1308105,-0.904834,1.3710572,142.0
19557,2.2197666,-2.2773514,2.960022,-2.1643798,-0.97067875,2.5668824,142.0
19558,-1.3444386,2.2096405,2.4126816,-2.1643798,-0.97067875,2.5668824,142.0
19559,-1.3444386,2.2096405,2.4126816,0.0063720704,-1.0715698,3.7860718,142.0
19560,-1.6424828,8.961845,1.1506538,0.0063720704,-1.0715698,3.7860718,142.0
19561,-1.6424828,8.961845,1.1506538,0.0637207,-0.9855469,3.8635986,142.0
19562,1.5491867,15.170799,0.539238,0.0637207,-0.9855469,3.8635986,142.0
19563,1.5491867,15.170799,0.539238,-0.85491943,-1.539917,3.7850099,142.0
19564,6.8565254,18.865005,1.2343559,-0.85491943,-1.539917,3.7850099,142.0
19565,6.8565254,18.865005,1.2343559,-2.1962402,-1.7576294,1.6057618,142.0
19566,10.180252,18.390892,2.0875206,-2.1962402,-1.7576294,1.6057618,142.0
19567,10.180252,18.390892,2.0875206,-3.2784302,0.2623169,0.27506104,142.0
19568,7.631714,11.072845,1.9389496,-3.2784302,0.2623169,0.27506104,142.0
19569,7.631714,11.072845,1.9389496,-3.2115235,1.1182984,-0.69136965,142.0
19570,1.8650398,0.5536041,0.7424202,-3.2115235,1.1182984,-0.69136965,142.0
19571,1.8650398,0.5536041,0.7424202,-0.6159668,0.75509036,-1.7650635,142.0
19572,1.8650398,0.5536041,0.7424202,-0.6159668,0.75509036,-1.7650635,142.0
19573,-1.5976534,-4.91864,-0.851902,-0.6159668,0.75509036,-1.7650635,142.0
19574,-1.5976534,-4.91864,-0.851902,1.5707153,0.23364258,-1.4900025,142.0
19575,-1.3072739,-5.755394,-1.6428604,1.5707153,0.23364258,-1.4900025,142.0
19576,-1.3072739,-5.755394,-1.6428604,1.3944215,1.0312134,-2.0061402,142.0
19577,-0.54920006,-8.351425,-1.5136642,1.3944215,1.0312134,-2.0061402,142.0
19578,-0.54920006,-8.351425,-1.5136642,0.32391357,1.9562256,-3.1881592,142.0
19579,-2.3304367,-14.11544,-1.599163,0.32391357,1.9562256,-3.1881592,142.0
19580,-2.3304367,-14.11544,-1.599163,-0.59047854,2.1176515,-2.275891,142.0
19581,-5.3857613,-17.15644,-1.0915489,-0.59047854,2.1176515,-2.275891,142.0
19582,-5.3857613,-17.15644,-1.0915489,-0.73597413,2.0911012,-0.24107666,142.0
19583,-7.0946693,-13.567963,1.0654564,-0.73597413,2.0911012,-0.24107666,142.0
19584,-7.0946693,-13.567963,1.0654564,0.118945315,1.9551636,0.52250975,142.0
19585,-6.8000145,-6.33873,2.6000595,0.118945315,1.9551636,0.52250975,142.0
19586,-6.8000145,-6.33873,2.6000595,1.7820557,2.1080933,0.13062744,142.0
19587,-5.526451,0.46972656,0.95376587,1.7820557,2.1080933,0.13062744,142.0
19588,-5.526451,0.46972656,0.95376587,3.158423,2.2079225,0.0180542,142.0
19589,-3.7131538,5.3270187,-2.6114616,3.158423,2.2079225,0.0180542,142.0
19590,-3.7131538,5.3270187,-2.6114616,2.727246,2.1452637,-0.51826173,142.0
19591,-1.4329758,7.8313446,-4.7584686,2.727246,2.1452637,-0.51826173,142.0
19592,-1.4329758,7.8313446,-4.7584686,1.8744507,2.3300538,-0.9717407,142.0
19593,0.5084171,8.551247,-4.1114388,1.8744507,2.3300538,-0.9717407,142.0
19594,0.5084171,8.551247,-4.1114388,1.8457764,2.4075806,-1.0131592,142.0
19595,1.5626907,8.502731,-2.3037262,1.8457764,2.4075806,-1.0131592,142.0
19596,1.5626907,8.502731,-2.3037262,2.2227905,1.8521484,-1.1915772,142.0
19597,1.6985664,8.28054,-1.363903,2.2227905,1.8521484,-1.1915772,142.0
19598,1.6985664,8.28054,-1.363903,2.0645509,1.2266235,-1.3179566,142.0
19599,1.0197906,7.736725,-1.3559914,2.0645509,1.2266235,-1.3179566,142.0
19600,1.0197906,7.736725,-1.3559914,1.6376221,0.52038574,-1.1193603,142.0
19601,-0.44031906,6.282547,-1.309864,1.6376221,0.52038574,-1.1193603,142.0
19602,-0.44031906,6.282547,-1.309864,1.0492676,-0.20709229,-0.89208984,142.0
19603,-2.2737885,4.289467,-0.9793472,1.0492676,-0.20709229,-0.89208984,142.0
19604,-2.2737885,4.289467,-0.9793472,0.3154175,-0.7805786,-0.013806152,142.0
19605,-3.353466,2.479599,-0.5953293,0.3154175,-0.7805786,-0.013806152,142.0
19606,-3.353466,2.479599,-0.5953293,-0.2814331,-1.360437,1.0683838,142.0
19607,-3.0563679,0.76348114,-0.12859726,-0.2814331,-1.360437,1.0683838,142.0
19608,-3.0563679,0.76348114,-0.12859726,-0.6000366,-2.1325195,1.5717773,142.0
19609,-2.4525146,-1.7269821,0.59881973,-0.6000366,-2.1325195,1.5717773,142.0
19610,-2.4525146,-1.7269821,0.59881973,-0.70198977,-2.980005,1.717273,142.0
19611,-2.6889782,-6.3614197,1.2415085,-0.70198977,-2.980005,1.717273,142.0
19612,-2.6889782,-6.3614197,1.2415085,-0.58304447,-3.1945312,1.3753052,142.0
19613,-2.6343727,-11.748131,1.3292046,-0.58304447,-3.1945312,1.3753052,142.0
19614,-2.6343727,-11.748131,1.3292046,0.3440918,-2.9449584,1.6939087,142.0
19615,-0.61388206,-14.102951,1.1207237,0.3440918,-2.9449584,1.6939087,142.0
19616,-0.61388206,-14.102951,1.1207237,0.7880127,-2.7442384,1.806482,142.0
19617,2.6421585,-11.612244,1.3717117,0.7880127,-2.7442384,1.806482,142.0
19618,2.6421585,-11.612244,1.3717117,-0.43011475,-2.3109376,2.0008302,142.0
19619,4.8344307,-6.272499,2.1394958,-0.43011475,-2.3109376,2.0008302,142.0
19620,4.8344307,-6.272499,2.1394958,-1.9774659,-2.2843874,1.5972656,142.0
19621,4.6162148,-0.8770294,2.598133,-1.9774659,-2.2843874,1.5972656,142.0
19622,4.6162148,-0.8770294,2.598133,-2.7633545,-1.8319702,1.1554688,142.0
19623,3.0737839,3.1943054,2.64357,-2.7633545,-1.8319702,1.1554688,142.0
19624,3.0737839,3.1943054,2.64357,-2.9991212,-1.3466309,0.84536135,142.0
19625,2.3699894,5.6025314,2.3594475,-2.9991212,-1.3466309,0.84536135,142.0
19626,2.3699894,5.6025314,2.3594475,-3.1350586,-0.72216797,0.60322267,142.0
19627,3.3362274,7.0279007,2.2218094,-3.1350586,-0.72216797,0.60322267,142.0
19628,3.3362274,7.0279007,2.2218094,-2.7707887,-0.4364868,0.2166504,142.0
19629,5.4946423,8.074043,2.7103462,-2.7707887,-0.4364868,0.2166504,142.0
19630,5.4946423,8.074043,2.7103462,-1.9094971,-0.7423462,-0.4704712,142.0
19631,7.5809307,9.286003,3.4247475,-1.9094971,-0.7423462,-0.4704712,142.0
19632,7.5809307,9.286003,3.4247475,-0.5766724,-1.0428956,-2.5711305,142.0
19633,8.23026,10.390129,3.452629,-0.5766724,-1.0428956,-2.5711305,142.0
19634,8.23026,10.390129,3.452629,0.15080567,-0.14868164,-2.896106,142.0
19635,6.558133,9.257866,2.149765,0.15080567,-0.14868164,-2.896106,142.0
19636,6.558133,9.257866,2.149765,0.28674316,0.8315552,-2.6752076,142.0
19637,3.5347023,5.519005,-0.13667297,0.28674316,0.8315552,-2.6752076,142.0
19638,3.5347023,5.519005,-0.13667297,1.364685,1.4719483,-4.2894654,142.0
19639,1.5871372,2.5147247,-1.8224487,1.364685,1.4719483,-4.2894654,142.0
19640,1.5871372,2.5147247,-1.8224487,2.3279297,1.81073,-5.543701,142.0
19641,1.3099928,0.8822479,-1.8637466,2.3279297,1.81073,-5.543701,142.0
19642,1.3099928,0.8822479,-1.8637466,1.6896607,2.2111084,-6.4665895,142.0
19643,2.1110077,-2.0341034,-1.2801323,1.6896607,2.2111084,-6.4665895,142.0
19644,2.1110077,-2.0341034,-1.2801323,-0.70092773,2.972571,-7.77605,142.0
19645,5.07876,-9.7148285,-1.5677338,-0.70092773,2.972571,-7.77605,142.0
19646,5.07876,-9.7148285,-1.5677338,-3.2189577,4.0122805,-7.945972,142.0
19647,11.354024,-23.295273,-1.2123642,-3.2189577,4.0122805,-7.945972,142.0
19648,11.354024,-23.295273,-1.2123642,-2.805835,3.617212,-5.2314696,142.0
19649,15.587345,-32.188354,-0.039798737,-2.805835,3.617212,-5.2314696,142.0
19650,15.587345,-32.188354,-0.039798737,0.74871826,4.13866,-5.5012207,142.0
19651,11.332852,-27.190636,0.29674911,0.74871826,4.13866,-5.5012207,142.0
19652,11.332852,-27.190636,0.29674911,-0.0361084,2.9067261,-3.6310182,142.0
19653,2.595469,-15.8346405,-0.76047516,-0.0361084,2.9067261,-3.6310182,142.0
19654,2.595469,-15.8346405,-0.76047516,0.5055176,2.1187134,-3.0023072,142.0
19655,-3.8507977,-5.4355927,-2.6757736,0.5055176,2.1187134,-3.0023072,142.0
19656,-3.8507977,-5.4355927,-2.6757736,0.32178956,1.9402955,-2.2546508,142.0
19657,-6.2629137,2.0727005,-3.344841,0.32178956,1.9402955,-2.2546508,142.0
19658,-6.2629137,2.0727005,-3.344841,-0.7965088,2.4022706,-1.5176147,142.0
19659,-6.494193,6.061905,-2.9503136,-0.7965088,2.4022706,-1.5176147,142.0
19660,-6.494193,6.061905,-2.9503136,-1.5866455,2.4298828,-1.2818482,142.0
19661,-7.102325,7.4343643,-2.9570274,-1.5866455,2.4298828,-1.2818482,142.0
19662,-7.102325,7.4343643,-2.9570274,-1.8733886,1.7799317,-1.0567017,142.0
19663,-8.75221,7.410736,-3.4190903,-1.8733886,1.7799317,-1.0567017,142.0
19664,-8.75221,7.410736,-3.4190903,-1.0152832,1.2255615,-0.26868898,142.0
19665,-10.481736,6.3875427,-3.2860909,-1.0152832,1.2255615,-0.26868898,142.0
19666,-10.481736,6.3875427,-3.2860909,0.4800293,0.85598147,0.71791995,142.0
19667,-11.253895,4.7315903,-2.544365,0.4800293,0.85598147,0.71791995,142.0
19668,-11.253895,4.7315903,-2.544365,2.2397828,-0.3802002,1.1278565,142.0
19669,-10.562296,3.2116394,-1.638813,2.2397828,-0.3802002,1.1278565,142.0
19670,-10.562296,3.2116394,-1.638813,3.1286867,-1.719397,1.4305298,142.0
19671,-8.435518,2.685028,-0.58031464,3.1286867,-1.719397,1.4305298,142.0
19672,-8.435518,2.685028,-0.58031464,2.9237182,-2.3948364,2.3109376,142.0
19673,-5.3155403,2.6913223,0.17471313,2.9237182,-2.3948364,2.3109376,142.0
19674,-5.3155403,2.6913223,0.17471313,2.8132691,-2.9492066,3.0224855,142.0
19675,-1.7551308,0.5499191,0.75109863,2.8132691,-2.9492066,3.0224855,142.0
19676,-1.7551308,0.5499191,0.75109863,3.3740113,-2.7814088,2.9513307,142.0
19677,1.7300377,-5.393013,2.5742798,3.3740113,-2.7814088,2.9513307,142.0
19678,1.7300377,-5.393013,2.5742798,3.434546,-1.7735596,3.8816528,142.0
19679,3.8893642,-11.191528,5.6824226,3.434546,-1.7735596,3.8816528,142.0
19680,3.8893642,-11.191528,5.6824226,4.0579467,-1.8903809,6.322156,142.0
19681,4.7172165,-12.2441025,7.8025665,4.0579467,-1.8903809,6.322156,142.0
19682,4.7172165,-12.2441025,7.8025665,3.8614748,-2.0125122,6.605713,142.0
19683,4.7172165,-12.2441025,7.8025665,3.8614748,-2.0125122,6.605713,143.0
19684,5.7375546,-9.610901,8.128197,3.8614748,-2.0125122,6.605713,143.0
19685,5.7375546,-9.610901,8.128197,2.3226197,-2.2036743,7.423462,143.0
19686,8.08466,-6.415619,7.2004814,2.3226197,-2.2036743,7.423462,143.0
19687,8.08466,-6.415619,7.2004814,1.6854126,-2.352356,6.7384644,143.0
19688,9.053385,-1.3392181,4.4435883,1.6854126,-2.352356,6.7384644,143.0
19689,9.053385,-1.3392181,4.4435883,0.39613038,-1.2744141,5.884607,143.0
19690,6.1132402,6.024193,0.7186127,0.39613038,-1.2744141,5.884607,143.0
19691,6.1132402,6.024193,0.7186127,-1.358313,-0.5543701,5.9525757,143.0
19692,2.2531538,11.535881,-1.5946312,-1.358313,-0.5543701,5.9525757,143.0
19693,2.2531538,11.535881,-1.5946312,-1.4592041,0.028674318,5.243152,143.0
19694,0.1821127,13.764694,-2.1731796,-1.4592041,0.028674318,5.243152,143.0
19695,0.1821127,13.764694,-2.1731796,-0.5341919,-0.0541626,4.429651,143.0
19696,-0.06445408,15.147011,-2.6546097,-0.5341919,-0.0541626,4.429651,143.0
19697,-0.06445408,15.147011,-2.6546097,1.2213135,-1.1087402,2.9523926,143.0
19698,1.2483273,18.883713,-4.7349777,1.2213135,-1.1087402,2.9523926,143.0
19699,1.2483273,18.883713,-4.7349777,2.9959352,-3.259314,-0.83474123,143.0
19700,3.0132494,25.60183,-6.9681587,2.9959352,-3.259314,-0.83474123,143.0
19701,3.0132494,25.60183,-6.9681587,-0.0021240234,-2.2875733,-1.7289551,143.0
19702,3.8010902,26.901878,-5.549721,-0.0021240234,-2.2875733,-1.7289551,143.0
19703,3.8010902,26.901878,-5.549721,-4.9160523,-0.57454836,-3.9751098,143.0
19704,3.357315,17.80848,-1.7466507,-4.9160523,-0.57454836,-3.9751098,143.0
19705,3.357315,17.80848,-1.7466507,-3.8519166,-1.7863038,-6.7458987,143.0
19706,2.6237063,7.3862114,0.7970047,-3.8519166,-1.7863038,-6.7458987,143.0
19707,2.6237063,7.3862114,0.7970047,-3.170105,-2.624231,-8.704248,143.0
19708,3.50834,0.19068527,1.554451,-3.170105,-2.624231,-8.704248,143.0
19709,3.50834,0.19068527,1.554451,-2.8440673,-1.6885986,-10.062561,143.0
19710,7.6098948,-7.2224274,3.1201134,-2.8440673,-1.6885986,-10.062561,143.0
19711,7.6098948,-7.2224274,3.1201134,-0.81031495,-0.6223389,-11.18086,143.0
19712,15.844386,-17.499512,8.773045,-0.81031495,-0.6223389,-11.18086,143.0
19713,15.844386,-17.499512,8.773045,0.61915284,-4.6739135,-10.101855,143.0
19714,15.844386,-17.499512,8.773045,-0.90802,-2.272705,-8.407947,143.0
19715,23.962423,-26.475433,10.994633,-0.90802,-2.272705,-8.407947,143.0
19716,10.119219,-24.1213,1.8593178,-0.90802,-2.272705,-8.407947,143.0
19717,10.119219,-24.1213,1.8593178,-2.7421143,0.16354981,-4.35,143.0
19718,10.119219,-24.1213,1.8593178,-3.810498,1.5006226,-1.9594116,143.0
19719,10.119219,-24.1213,1.8593178,-3.7297852,3.8508546,-1.3338867,143.0
19720,-1.0240345,-16.581345,0.33835602,-3.7297852,3.8508546,-1.3338867,143.0
19721,-1.0240345,-16.581345,0.33835602,-2.6295412,3.4929566,-1.5877075,143.0
19722,-7.6189103,-10.668808,-0.637825,-2.6295412,3.4929566,-1.5877075,143.0
19723,-7.6189103,-10.668808,-0.637825,-2.3990846,3.3156006,-1.5792115,143.0
19724,-7.6189103,-10.668808,-0.637825,-2.814331,2.9991212,-1.3710572,143.0
19725,-9.213366,-6.7095795,-1.4267883,-2.814331,2.9991212,-1.3710572,143.0
19726,-8.799965,-4.0378876,-2.479042,-2.814331,2.9991212,-1.3710572,143.0
19727,-8.799965,-4.0378876,-2.479042,-3.264624,2.7814088,-0.72323,143.0
19728,-8.848053,-2.1878738,-3.5307808,-3.264624,2.7814088,-0.72323,143.0
19729,-8.848053,-2.1878738,-3.5307808,-3.9538696,1.7597535,-0.42905274,143.0
19730,-10.544995,-0.3683014,-3.8105888,-3.9538696,1.7597535,-0.42905274,143.0
19731,-10.544995,-0.3683014,-3.8105888,-4.623999,0.08496094,-0.17735596,143.0
19732,-14.71389,1.321785,-3.232029,-4.623999,0.08496094,-0.17735596,143.0
19733,-14.71389,1.321785,-3.232029,-3.2869263,-0.4704712,1.3115845,143.0
19734,-18.817804,1.7894974,-2.7106476,-3.2869263,-0.4704712,1.3115845,143.0
19735,-18.817804,1.7894974,-2.7106476,-0.8623535,-0.79969484,2.8653076,143.0
19736,-18.094563,1.6980286,-2.258789,-0.8623535,-0.79969484,2.8653076,143.0
19737,-18.094563,1.6980286,-2.258789,1.4082276,-2.2833252,2.3990846,143.0
19738,-12.831266,1.2843323,-0.7167473,1.4082276,-2.2833252,2.3990846,143.0
19739,-12.831266,1.2843323,-0.7167473,3.2295778,-2.9736328,2.7984009,143.0
19740,-6.717222,-0.81604767,1.5916901,3.2295778,-2.9736328,2.7984009,143.0
19741,-6.717222,-0.81604767,1.5916901,4.781177,-2.89292,3.8763428,143.0
19742,-1.0724602,-3.9702454,2.8859024,4.781177,-2.89292,3.8763428,143.0
19743,-1.0724602,-3.9702454,2.8859024,6.607837,-2.1994264,6.1150637,143.0
19744,4.3644943,-6.8156586,3.3329277,6.607837,-2.1994264,6.1150637,143.0
19745,4.3644943,-6.8156586,3.3329277,9.315967,-0.8219971,7.9003053,143.0
19746,8.692425,-8.604904,6.1675873,9.315967,-0.8219971,7.9003053,143.0
19747,8.692425,-8.604904,6.1675873,11.597168,-0.18479005,9.1067505,143.0
19748,10.915024,-7.0013504,10.527416,11.597168,-0.18479005,9.1067505,143.0
19749,10.915024,-7.0013504,10.527416,12.185523,-1.8829468,7.6337404,143.0
19750,13.924792,-3.0943222,12.102291,12.185523,-1.8829468,7.6337404,143.0
19751,13.924792,-3.0943222,12.102291,7.0071535,-2.5127199,3.4738405,143.0
19752,17.004055,0.668869,9.321236,7.0071535,-2.5127199,3.4738405,143.0
19753,17.004055,0.668869,9.321236,1.5473511,2.983191,2.9290283,143.0
19754,12.734898,5.507889,4.145088,1.5473511,2.983191,2.9290283,143.0
19755,12.734898,5.507889,4.145088,-4.421155,6.712976,4.2958374,143.0
19756,1.8242707,10.125069,-0.5631294,-4.421155,6.712976,4.2958374,143.0
19757,1.8242707,10.125069,-0.5631294,-6.9954715,4.444519,5.28457,143.0
19758,-6.190852,11.484512,-4.594208,-6.9954715,4.444519,5.28457,143.0
19759,-6.190852,11.484512,-4.594208,-6.6503177,2.2971313,4.985083,143.0
19760,-7.2540855,10.937637,-6.6700935,-6.6503177,2.2971313,4.985083,143.0
19761,-7.2540855,10.937637,-6.6700935,-4.9500365,1.179895,4.8587036,143.0
19762,-4.156064,11.240578,-6.7856216,-4.9500365,1.179895,4.8587036,143.0
19763,-4.156064,11.240578,-6.7856216,-2.2270386,-0.92713624,3.7648315,143.0
19764,0.27717543,14.626053,-6.413288,-2.2270386,-0.92713624,3.7648315,143.0
19765,0.27717543,14.626053,-6.413288,-0.5649902,-2.2429688,1.6439942,143.0
19766,3.248291,20.630356,-5.054741,-0.5649902,-2.2429688,1.6439942,143.0
19767,3.248291,20.630356,-5.054741,-3.3771973,-1.1129884,0.3451538,143.0
19768,2.0966306,21.78872,-1.8416939,-3.3771973,-1.1129884,0.3451538,143.0
19769,2.0966306,21.78872,-1.8416939,-6.000366,0.6945557,-1.2266235,143.0
19770,-0.6575098,13.9665985,1.4176216,-6.000366,0.6945557,-1.2266235,143.0
19771,-0.6575098,13.9665985,1.4176216,-3.6660645,1.3200806,-3.6713746,143.0
19772,-1.4353704,4.462597,1.7099037,-3.6660645,1.3200806,-3.6713746,143.0
19773,-1.4353704,4.462597,1.7099037,-0.23895264,1.2223755,-4.7737427,143.0
19774,-1.1851249,-1.0096703,-0.7040863,-0.23895264,1.2223755,-4.7737427,143.0
19775,-1.1851249,-1.0096703,-0.7040863,1.4199097,1.0651978,-5.4109497,143.0
19776,-0.47671318,-5.114525,-1.4078865,1.4199097,1.0651978,-5.4109497,143.0
19777,-0.47671318,-5.114525,-1.4078865,1.2595459,1.6524903,-6.32428,143.0
19778,2.6705828,-14.936874,1.0630951,1.2595459,1.6524903,-6.32428,143.0
19779,2.6705828,-14.936874,1.0630951,2.52334,1.4857544,-5.7518554,143.0
19780,6.5338664,-29.496681,4.8025017,2.52334,1.4857544,-5.7518554,143.0
19781,6.5338664,-29.496681,4.8025017,2.6157348,2.1590698,-4.6516113,143.0
19782,6.5338664,-29.496681,4.8025017,2.6157348,2.1590698,-4.6516113,143.0
19783,4.7045345,-34.85312,7.791317,2.6157348,2.1590698,-4.6516113,143.0
19784,4.7045345,-34.85312,7.791317,-1.4846925,1.5643433,-2.2546508,143.0
19785,4.7045345,-34.85312,7.791317,-3.3325927,1.1289185,-0.4959595,143.0
19786,-1.5902052,-26.065285,6.4924774,-3.3325927,1.1289185,-0.4959595,143.0
19787,-9.527243,4.6286163,-5.5385857,-3.3325927,1.1289185,-0.4959595,143.0
19788,-9.527243,4.6286163,-5.5385857,-2.0549927,2.2950075,-0.2623169,143.0
19789,-9.527243,4.6286163,-5.5385857,-1.7586914,2.5679443,-0.6159668,143.0
19790,-9.527243,4.6286163,-5.5385857,-1.7045288,2.6730835,-0.89846194,143.0
19791,-10.803325,8.47496,-7.155113,-1.7045288,2.6730835,-0.89846194,143.0
19792,-10.803325,8.47496,-7.155113,-2.3141236,2.636975,-1.6939087,143.0
19793,-12.784811,9.574295,-7.21175,-2.3141236,2.636975,-1.6939087,143.0
19794,-12.784811,9.574295,-7.21175,-2.7442384,2.1155274,-1.7894897,143.0
19795,-13.99992,9.946899,-5.808647,-2.7442384,2.1155274,-1.7894897,143.0
19796,-13.99992,9.946899,-5.808647,-2.5870607,2.250403,-0.4704712,143.0
19797,-13.99992,9.946899,-5.808647,-1.26698,1.807544,0.7412842,143.0
19798,-12.723337,9.47715,-3.130268,-1.26698,1.807544,0.7412842,143.0
19799,-9.814522,8.453903,-1.0022964,-1.26698,1.807544,0.7412842,143.0
19800,-9.814522,8.453903,-1.0022964,0.37807617,1.0301514,0.813501,143.0
19801,-7.632025,8.032127,-0.8177414,0.37807617,1.0301514,0.813501,143.0
19802,-7.632025,8.032127,-0.8177414,1.0694458,-0.032922365,1.0620117,143.0
19803,-6.026287,8.143097,-1.3454399,1.0694458,-0.032922365,1.0620117,143.0
19804,-6.026287,8.143097,-1.3454399,0.84111327,-1.1915772,1.5845215,143.0
19805,-3.63702,7.386612,-1.7086029,0.84111327,-1.1915772,1.5845215,143.0
19806,-3.63702,7.386612,-1.7086029,0.14230958,-1.725769,1.6174439,143.0
19807,-1.5878868,5.48777,-2.055214,0.14230958,-1.725769,1.6174439,143.0
19808,-1.5878868,5.48777,-2.055214,-0.5331299,-2.0348146,1.356189,143.0
19809,-1.4201622,2.712822,-1.4796562,-0.5331299,-2.0348146,1.356189,143.0
19810,-1.4201622,2.712822,-1.4796562,-0.21877442,-2.703882,0.6138428,143.0
19811,-0.97034454,-6.6563034,0.8460846,-0.21877442,-2.703882,0.6138428,143.0
19812,-0.97034454,-6.6563034,0.8460846,-0.9303223,-3.1170044,-2.9566407,143.0
19813,2.7437077,-24.547592,1.5286865,-0.9303223,-3.1170044,-2.9566407,143.0
19814,2.7437077,-24.547592,1.5286865,0.23151855,0.5299439,-0.93350834,143.0
19815,8.051985,-38.948868,0.18013763,0.23151855,0.5299439,-0.93350834,143.0
19816,8.051985,-38.948868,0.18013763,4.4806275,-0.34727785,7.1037965,143.0
19817,13.77639,-36.502167,0.5074043,4.4806275,-0.34727785,7.1037965,143.0
19818,13.77639,-36.502167,0.5074043,5.26333,-4.882068,6.264807,143.0
19819,16.32132,-16.317093,1.2995491,5.26333,-4.882068,6.264807,143.0
19820,16.32132,-16.317093,1.2995491,3.4186158,-4.2384887,5.621228,143.0
19821,12.426063,5.845421,1.1775208,3.4186158,-4.2384887,5.621228,143.0
19822,12.426063,5.845421,1.1775208,-0.32922363,-0.5564942,6.332776,143.0
19823,6.540203,16.665176,1.3833008,-0.32922363,-0.5564942,6.332776,143.0
19824,6.540203,16.665176,1.3833008,-1.8670167,-0.61278075,5.79646,143.0
19825,3.0890837,17.535194,1.5131989,-1.8670167,-0.61278075,5.79646,143.0
19826,3.0890837,17.535194,1.5131989,-0.6966797,-1.9179932,5.5755615,143.0
19827,1.784914,16.891037,1.5007324,-0.6966797,-1.9179932,5.5755615,143.0
19828,1.784914,16.891037,1.5007324,-0.29205322,-2.7060058,4.0855594,143.0
19829,1.4220839,19.656593,2.3346405,-0.29205322,-2.7060058,4.0855594,143.0
19830,1.4220839,19.656593,2.3346405,1.0981201,-2.1834962,0.3079834,143.0
19831,1.6436605,24.220284,2.1546745,1.0981201,-2.1834962,0.3079834,143.0
19832,1.6436605,24.220284,2.1546745,-2.1728761,-2.1218994,-0.67331547,143.0
19833,4.6800165,29.583359,-2.29208,-2.1728761,-2.1218994,-0.67331547,143.0
19834,4.6800165,29.583359,-2.29208,-9.752454,-1.5346069,-4.8512697,143.0
19835,8.250299,26.755554,-5.8069077,-9.752454,-1.5346069,-4.8512697,143.0
19836,8.250299,26.755554,-5.8069077,-12.452087,2.613611,-3.2890503,143.0
19837,7.461568,10.018909,-1.935112,-12.452087,2.613611,-3.2890503,143.0
19838,7.461568,10.018909,-1.935112,-7.2949586,4.525232,-7.6284304,143.0
19839,6.061283,-4.384018,1.4736252,-7.2949586,4.525232,-7.6284304,143.0
19840,6.061283,-4.384018,1.4736252,0.41949463,5.171997,-8.28794,143.0
19841,6.738858,-8.648582,-0.20526886,0.41949463,5.171997,-8.28794,143.0
19842,6.738858,-8.648582,-0.20526886,0.026550293,6.433667,-8.212537,143.0
19843,6.738858,-8.648582,-0.20526886,-5.4523683,6.35614,-7.7197633,143.0
19844,8.976329,-9.890266,-2.967022,-5.4523683,6.35614,-7.7197633,143.0
19845,14.940279,-37.022934,-17.044846,-5.4523683,6.35614,-7.7197633,143.0
19846,14.940279,-37.022934,-17.044846,-6.948743,7.0645022,-4.6558595,143.0
19847,14.940279,-37.022934,-17.044846,-3.1000123,8.706372,-4.951099,143.0
19848,14.940279,-37.022934,-17.044846,0.65844727,5.5415773,-5.162439,143.0
19849,11.952224,-29.618347,-13.635878,0.65844727,5.5415773,-5.162439,143.0
19850,0.40090275,-17.091812,-3.6256828,0.65844727,5.5415773,-5.162439,143.0
19851,0.40090275,-17.091812,-3.6256828,1.5176147,3.0139892,-4.3096437,143.0
19852,0.40090275,-17.091812,-3.6256828,2.8302612,1.5144287,-3.541809,143.0
19853,-3.6549492,-8.27346,-2.0670738,2.8302612,1.5144287,-3.541809,143.0
19854,-3.6549492,-8.27346,-2.0670738,1.4315919,1.545227,-3.3793213,143.0
19855,-6.132126,-3.1389236,-2.1285,1.4315919,1.545227,-3.3793213,143.0
19856,-6.132126,-3.1389236,-2.1285,-0.12850343,1.7884277,-2.156946,143.0
19857,-7.3170166,-1.2341995,-1.8092709,-0.12850343,1.7884277,-2.156946,143.0
19858,-7.3170166,-1.2341995,-1.8092709,-3.42605,1.7342652,-2.6582153,143.0
19859,-7.944751,-0.45108032,-0.7532387,-3.42605,1.7342652,-2.6582153,143.0
19860,-7.944751,-0.45108032,-0.7532387,-4.9298587,2.8132691,-1.2574219,143.0
19861,-9.29656,0.5932083,-0.0069732666,-4.9298587,2.8132691,-1.2574219,143.0
19862,-9.29656,0.5932083,-0.0069732666,-5.8686767,2.7389283,-0.12319336,143.0
19863,-12.249858,2.8197174,-1.2296143,-5.8686767,2.7389283,-0.12319336,143.0
19864,-12.249858,2.8197174,-1.2296143,-5.612732,0.86978763,0.814563,143.0
19865,-15.514047,4.366638,-4.2992554,-5.612732,0.86978763,0.814563,143.0
19866,-15.514047,4.366638,-4.2992554,-2.9630127,1.2468017,-1.5537232,143.0
19867,-15.37231,1.5010529,-6.2242184,-2.9630127,1.2468017,-1.5537232,143.0
19868,-15.37231,1.5010529,-6.2242184,-0.7986328,-2.636975,0.07115479,143.0
19869,-9.322372,-2.6470566,-5.550932,-0.7986328,-2.636975,0.07115479,143.0
19870,-9.322372,-2.6470566,-5.550932,1.3370727,-2.812207,4.335132,143.0
19871,-1.9679565,-3.7313385,-2.7084217,1.3370727,-2.812207,4.335132,143.0
19872,-1.9679565,-3.7313385,-2.7084217,2.4160767,-4.263977,3.3867555,143.0
19873,1.7643433,-2.8695831,-0.0015888214,2.4160767,-4.263977,3.3867555,143.0
19874,1.7643433,-2.8695831,-0.0015888214,2.4192626,-4.1099854,5.0732303,143.0
19875,3.130969,-3.7194977,0.61867523,2.4192626,-4.1099854,5.0732303,143.0
19876,3.130969,-3.7194977,0.61867523,2.6029909,-4.055823,6.3943725,143.0
19877,4.729347,-6.858536,-0.03677368,2.6029909,-4.055823,6.3943725,143.0
19878,4.729347,-6.858536,-0.03677368,2.7686646,-4.3510623,8.082972,143.0
19879,9.056477,-11.194977,0.18359375,2.7686646,-4.3510623,8.082972,143.0
19880,9.056477,-11.194977,0.18359375,4.12273,-9.759888,9.18003,143.0
19881,13.092191,-10.423805,-0.3342533,4.12273,-9.759888,9.18003,143.0
19882,13.092191,-10.423805,-0.3342533,3.9326293,-11.826563,7.516919,143.0
19883,24.88004,-2.100624,-4.111971,3.9326293,-11.826563,7.516919,143.0
19884,24.88004,-2.100624,-4.111971,1.6206299,-2.902478,7.5562134,143.0
19885,17.20679,4.0402145,-1.392067,1.6206299,-2.902478,7.5562134,143.0
19886,17.20679,4.0402145,-1.392067,0.2538208,-3.9613037,7.1367188,143.0
19887,0.4849391,14.585129,5.7803764,0.2538208,-3.9613037,7.1367188,143.0
19888,0.4849391,14.585129,5.7803764,-2.0549927,-3.8657227,6.18197,143.0
19889,-2.4396,14.261215,6.9139977,-2.0549927,-3.8657227,6.18197,143.0
19890,-2.4396,14.261215,6.9139977,-1.4815063,-3.9984741,5.694507,143.0
19891,-6.987044,16.106445,9.152489,-1.4815063,-3.9984741,5.694507,143.0
19892,-6.987044,16.106445,9.152489,-1.0014771,-3.9283814,3.974048,143.0
19893,-6.586327,14.730278,8.622026,-1.0014771,-3.9283814,3.974048,143.0
19894,-6.586327,14.730278,8.622026,-1.2563599,-3.9188232,3.4812744,143.0
19895,-7.6119084,15.605049,9.938858,-1.2563599,-3.9188232,3.4812744,143.0
19896,-7.6119084,15.605049,9.938858,-1.6716064,-4.433899,1.263794,143.0
19897,-5.5599737,13.812302,9.994484,-1.6716064,-4.433899,1.263794,143.0
19898,-5.5599737,13.812302,9.994484,-1.2903442,-4.771619,0.70092773,143.0
19899,-5.5599737,13.812302,9.994484,-1.2903442,-4.771619,0.70092773,143.0
19900,0.3172555,14.255432,13.007965,-1.2903442,-4.771619,0.70092773,143.0
19901,0.3172555,14.255432,13.007965,-0.011682129,-3.7648315,-0.3695801,143.0
19902,1.7290485,11.898903,11.429028,-0.011682129,-3.7648315,-0.3695801,143.0
19903,1.7290485,11.898903,11.429028,-0.13699952,-2.2907593,-0.17735596,143.0
19904,-0.06468606,8.046577,8.182945,-0.13699952,-2.2907593,-0.17735596,143.0
19905,-0.06468606,8.046577,8.182945,-1.1406006,0.69349366,-2.7548585,143.0
19906,-1.7500644,4.801773,5.9841347,-1.1406006,0.69349366,-2.7548585,143.0
19907,-1.7500644,4.801773,5.9841347,-0.9855469,1.177771,-4.2958374,143.0
19908,-4.393545,-1.2909927,3.954399,-0.9855469,1.177771,-4.2958374,143.0
19909,-4.393545,-1.2909927,3.954399,-0.97280276,3.076648,-4.151404,143.0
19910,-3.6970873,-5.2260056,2.0692673,-0.97280276,3.076648,-4.151404,143.0
19911,-3.6970873,-5.2260056,2.0692673,-0.027612304,3.4271119,-4.0398927,143.0
19912,-1.6655188,-23.811249,-3.0393867,-0.027612304,3.4271119,-4.0398927,143.0
19913,-1.6655188,-23.811249,-3.0393867,2.6475952,3.330469,-5.05199,143.0
19914,-1.1694269,-25.031166,-3.963066,2.6475952,3.330469,-5.05199,143.0
19915,-1.1694269,-25.031166,-3.963066,2.0241945,3.160547,-4.821533,143.0
19916,-0.58783627,-25.491196,-4.5955124,2.0241945,3.160547,-4.821533,143.0
19917,-0.58783627,-25.491196,-4.5955124,-0.2357666,3.1095703,-3.0076172,143.0
19918,-1.0554738,-19.762299,-5.4855194,-0.2357666,3.1095703,-3.0076172,143.0
19919,-1.0554738,-19.762299,-5.4855194,-0.18691407,4.516736,-2.4351928,143.0
19920,-4.3949776,-9.972961,-6.464672,-0.18691407,4.516736,-2.4351928,143.0
19921,-4.3949776,-9.972961,-6.464672,-0.23045655,4.9532228,-1.7841797,143.0
19922,-7.814041,-0.8645477,-6.014229,-0.23045655,4.9532228,-1.7841797,143.0
19923,-7.814041,-0.8645477,-6.014229,-0.26868898,4.1099854,-1.8702027,143.0
19924,-8.97467,7.0404816,-4.8409233,-0.26868898,4.1099854,-1.8702027,143.0
19925,-8.97467,7.0404816,-4.8409233,0.15717773,3.4791505,-2.5636964,143.0
19926,-7.3193493,7.2402344,-4.1982765,0.15717773,3.4791505,-2.5636964,143.0
19927,-7.3193493,7.2402344,-4.1982765,-0.08602295,3.3888795,-2.3704102,143.0
19928,-6.940233,8.937195,-3.2932892,-0.08602295,3.3888795,-2.3704102,143.0
19929,-6.940233,8.937195,-3.2932892,-0.88359374,2.6539674,-1.6705445,143.0
19930,-8.634401,10.18264,-1.5906754,-0.88359374,2.6539674,-1.6705445,143.0
19931,-8.634401,10.18264,-1.5906754,-0.5501221,2.1112792,-0.7614624,143.0
19932,-14.086927,11.072731,0.9035568,-0.5501221,2.1112792,-0.7614624,143.0
19933,-14.086927,11.072731,0.9035568,0.20921631,1.4061035,0.2548828,143.0
19934,-12.911997,9.233704,0.85305786,0.20921631,1.4061035,0.2548828,143.0
19935,-12.911997,9.233704,0.85305786,0.34727785,1.0567017,0.5851685,143.0
19936,-11.128439,7.1312485,0.39036942,0.34727785,1.0567017,0.5851685,143.0
19937,-11.128439,7.1312485,0.39036942,0.9653687,-0.09451904,1.3976074,143.0
19938,-7.1226234,4.3207474,-0.04389572,0.9653687,-0.09451904,1.3976074,143.0
19939,-7.1226234,4.3207474,-0.04389572,1.3795532,-1.2468017,1.9402955,143.0
19940,-3.3337421,1.5811234,-0.17831802,1.3795532,-1.2468017,1.9402955,143.0
19941,-3.3337421,1.5811234,-0.17831802,1.1958252,-1.9179932,2.3332398,143.0
19942,-0.7709732,-1.9923248,0.12919617,1.1958252,-1.9179932,2.3332398,143.0
19943,-0.7709732,-1.9923248,0.12919617,0.51188964,-2.0295045,2.5562623,143.0
19944,1.1432686,-9.121826,0.39691162,0.51188964,-2.0295045,2.5562623,143.0
19945,1.1432686,-9.121826,0.39691162,-0.050976563,-1.5632813,2.266333,143.0
19946,3.2794113,-17.255821,-0.20572662,-0.050976563,-1.5632813,2.266333,143.0
19947,3.2794113,-17.255821,-0.20572662,2.0210083,-1.357251,4.786487,143.0
19948,6.0701714,-19.498474,-0.7061119,2.0210083,-1.357251,4.786487,143.0
19949,6.0701714,-19.498474,-0.7061119,3.6692505,-1.7756836,6.486768,143.0
19950,8.308113,-13.854286,-0.2776451,3.6692505,-1.7756836,6.486768,143.0
19951,8.308113,-13.854286,-0.2776451,2.8525636,-2.788843,6.333838,143.0
19952,13.367792,-2.4066315,-0.54213715,2.8525636,-2.788843,6.333838,143.0
19953,13.367792,-2.4066315,-0.54213715,0.9239502,-4.3669925,4.609131,143.0
19954,14.287264,1.7259216,-0.64289093,0.9239502,-4.3669925,4.609131,143.0
19955,14.287264,1.7259216,-0.64289093,0.24001466,-2.6911378,3.8391724,143.0
19956,16.94197,8.526077,-0.33241653,0.24001466,-2.6911378,3.8391724,143.0
19957,16.94197,8.526077,-0.33241653,-1.2393677,1.4315919,2.9375246,143.0
19958,11.579382,13.109901,2.2401962,-1.2393677,1.4315919,2.9375246,143.0
19959,11.579382,13.109901,2.2401962,-2.3937745,0.84111327,1.8415283,143.0
19960,2.262041,14.179924,4.5922318,-2.3937745,0.84111327,1.8415283,143.0
19961,2.262041,14.179924,4.5922318,-3.8646607,-0.10301514,0.98873293,143.0
19962,-3.3854961,13.118927,5.6064262,-3.8646607,-0.10301514,0.98873293,143.0
19963,-3.3854961,13.118927,5.6064262,-3.7796998,-0.23258057,-0.090270996,143.0
19964,-3.8182116,11.766579,6.2510834,-3.7796998,-0.23258057,-0.090270996,143.0
19965,-3.8182116,11.766579,6.2510834,-3.270996,-1.1448487,-1.7438233,143.0
19966,-0.6324129,11.106819,5.9713974,-3.270996,-1.1448487,-1.7438233,143.0
19967,-0.6324129,11.106819,5.9713974,-2.3109376,-2.0592408,-1.9498535,143.0
19968,2.931179,10.169136,4.8006134,-2.3109376,-2.0592408,-1.9498535,143.0
19969,2.931179,10.169136,4.8006134,-2.2440307,-1.4528321,-1.6705445,143.0
19970,3.7376432,7.1222076,3.525158,-2.2440307,-1.4528321,-1.6705445,143.0
19971,3.7376432,7.1222076,3.525158,-1.9742798,0.014868164,-2.9555786,143.0
19972,2.2625628,2.857338,2.2737503,-1.9742798,0.014868164,-2.9555786,143.0
19973,2.2625628,2.857338,2.2737503,-0.7582764,0.87191164,-3.8189943,143.0
19974,0.8031292,-0.8545227,0.60206985,-0.7582764,0.87191164,-3.8189943,143.0
19975,0.8031292,-0.8545227,0.60206985,1.3933594,1.3880494,-3.5726075,143.0
19976,0.20419788,-4.434044,-1.7079086,1.3933594,1.3880494,-3.5726075,143.0
19977,0.20419788,-4.434044,-1.7079086,3.3325927,1.9689697,-3.443042,143.0
19978,0.20419788,-4.434044,-1.7079086,5.0286255,3.521631,-4.2968993,143.0
19979,0.4784584,-10.992302,-2.963192,5.0286255,3.521631,-4.2968993,143.0
19980,-1.3906221,-23.47586,1.2132225,5.0286255,3.521631,-4.2968993,143.0
19981,-1.3906221,-23.47586,1.2132225,2.4702394,2.9460206,-4.535852,143.0
19982,-1.3906221,-23.47586,1.2132225,-1.9594116,1.9169312,-3.5991578,143.0
19983,-1.7489843,-19.451698,-0.53860474,-1.9594116,1.9169312,-3.5991578,143.0
19984,-1.7489843,-19.451698,-0.53860474,-3.3941896,4.967029,-2.176062,143.0
19985,-1.2327328,-13.933182,-3.5972176,-3.3941896,4.967029,-2.176062,143.0
19986,-1.2327328,-13.933182,-3.5972176,-1.2170655,3.981482,-2.8238893,143.0
19987,-1.6286058,-8.02327,-5.5624924,-1.2170655,3.981482,-2.8238893,143.0
19988,-1.6286058,-8.02327,-5.5624924,-0.4088745,3.8359864,-2.1994264,143.0
19989,-3.3157625,-2.1031265,-6.2388115,-0.4088745,3.8359864,-2.1994264,143.0
19990,-3.3157625,-2.1031265,-6.2388115,-0.07752686,3.1796632,-1.7055908,143.0
19991,-4.659483,2.8444748,-5.5115204,-0.07752686,3.1796632,-1.7055908,143.0
19992,-4.659483,2.8444748,-5.5115204,-0.18585205,3.258252,-1.6662964,143.0
19993,-4.8306503,5.8286743,-3.5672607,-0.18585205,3.258252,-1.6662964,143.0
19994,-4.8306503,5.8286743,-3.5672607,-0.04885254,3.0192993,-2.1176515,143.0
19995,-4.6089535,7.2426987,-0.95562744,-0.04885254,3.0192993,-2.1176515,143.0
19996,-4.6089535,7.2426987,-0.95562744,0.33771974,2.4054565,-2.1346436,143.0
19997,-5.594219,8.045845,1.5137825,0.33771974,2.4054565,-2.1346436,143.0
19998,-5.594219,8.045845,1.5137825,0.71367186,1.3901733,-1.5218629,143.0
19999,-8.918331,8.13726,2.1233444,0.71367186,1.3901733,-1.5218629,143.0
20000,-8.918331,8.13726,2.1233444,1.2988404,1.4634522,-0.71791995,143.0
20001,-12.358042,6.911728,0.43457794,1.2988404,1.4634522,-0.71791995,143.0
20002,-12.358042,6.911728,0.43457794,1.0290893,1.1629028,-0.39082032,143.0
20003,-10.9083805,4.147232,-1.2764473,1.0290893,1.1629028,-0.39082032,143.0
20004,-10.9083805,4.147232,-1.2764473,0.901648,-0.7104859,0.38444826,143.0
20005,-4.6940746,-0.07293701,-1.3191566,0.901648,-0.7104859,0.38444826,143.0
20006,-4.6940746,-0.07293701,-1.3191566,2.1229615,-0.9218262,0.70305175,143.0
20007,0.08642578,-4.7242584,-1.1829758,2.1229615,-0.9218262,0.70305175,143.0
20008,0.08642578,-4.7242584,-1.1829758,2.0252564,-1.357251,2.175,143.0
20009,1.0452023,-8.898277,-2.2844048,2.0252564,-1.357251,2.175,143.0
20010,1.0452023,-8.898277,-2.2844048,2.1420777,-1.6057618,3.7616456,143.0
20011,1.6978817,-12.768936,-3.2916107,2.1420777,-1.6057618,3.7616456,143.0
20012,1.6978817,-12.768936,-3.2916107,1.9615357,-0.58198243,4.3892946,143.0
20013,4.5621624,-14.96019,-2.715931,1.9615357,-0.58198243,4.3892946,143.0
20014,4.5621624,-14.96019,-2.715931,2.177124,0.33028564,7.1080446,143.0
20015,4.5621624,-14.96019,-2.715931,2.177124,0.33028564,7.1080446,142.0
20016,7.999523,-13.796677,-0.22834778,2.177124,0.33028564,7.1080446,142.0
20017,7.999523,-13.796677,-0.22834778,2.1240234,-0.2527588,7.695337,142.0
20018,10.885031,-9.500084,2.6380615,2.1240234,-0.2527588,7.695337,142.0
20019,10.885031,-9.500084,2.6380615,1.6036377,-2.5711305,6.5451784,142.0
20020,13.746965,-2.486374,3.3334465,1.6036377,-2.5711305,6.5451784,142.0
20021,13.746965,-2.486374,3.3334465,-0.18479005,-3.4759643,5.4045777,142.0
20022,13.386135,5.9868546,2.3004837,-0.18479005,-3.4759643,5.4045777,142.0
20023,13.386135,5.9868546,2.3004837,-3.4164917,-0.9600586,5.6254764,142.0
20024,8.332138,12.098869,2.423359,-3.4164917,-0.9600586,5.6254764,142.0
20025,8.332138,12.098869,2.423359,-5.261206,-1.2223755,4.429651,142.0
20026,3.0836544,13.896309,3.5000992,-5.261206,-1.2223755,4.429651,142.0
20027,3.0836544,13.896309,3.5000992,-4.5401,-1.4772583,3.2465699,142.0
20028,0.41556835,13.631302,4.5834656,-4.5401,-1.4772583,3.2465699,142.0
20029,0.41556835,13.631302,4.5834656,-2.985315,-1.627002,1.3190186,142.0
20030,0.0910244,15.459557,5.106163,-2.985315,-1.627002,1.3190186,142.0
20031,0.0910244,15.459557,5.106163,-1.5590333,-3.0808961,-1.2075074,142.0
20032,2.548503,22.394302,3.811348,-1.5590333,-3.0808961,-1.2075074,142.0
20033,2.548503,22.394302,3.811348,0.33134767,-2.3321779,-5.088098,142.0
20034,5.7456136,27.807205,1.9772873,0.33134767,-2.3321779,-5.088098,142.0
20035,5.7456136,27.807205,1.9772873,-1.9795898,1.1331666,-6.137366,142.0
20036,5.475922,23.570595,2.1386642,-1.9795898,1.1331666,-6.137366,142.0
20037,5.475922,23.570595,2.1386642,-1.992334,1.5898316,-9.819361,142.0
20038,4.1277103,12.725651,2.8570251,-1.992334,1.5898316,-9.819361,142.0
20039,4.1277103,12.725651,2.8570251,-1.7098389,0.07646485,-11.232898,142.0
20040,6.5384474,0.8244629,1.3700409,-1.7098389,0.07646485,-11.232898,142.0
20041,6.5384474,0.8244629,1.3700409,-0.76677245,-0.68499756,-12.440406,142.0
20042,11.739487,-8.522911,-0.77150726,-0.76677245,-0.68499756,-12.440406,142.0
20043,11.739487,-8.522911,-0.77150726,-0.2527588,-2.16969,-11.835059,142.0
20044,18.958216,-15.280731,-2.8613434,-0.2527588,-2.16969,-11.835059,142.0
20045,18.958216,-15.280731,-2.8613434,-1.9456055,-4.3786745,-11.343348,142.0
20046,18.958216,-15.280731,-2.8613434,-4.968091,0.9505005,-8.155189,142.0
20047,27.521639,-22.77346,-7.332947,-4.968091,0.9505005,-8.155189,142.0
20048,8.021889,-29.957466,-3.2174911,-4.968091,0.9505005,-8.155189,142.0
20049,8.021889,-29.957466,-3.2174911,-3.2040894,2.7559204,-5.94408,142.0
20050,8.021889,-29.957466,-3.2174911,-1.5600952,3.2136476,-3.0331056,142.0
20051,8.021889,-29.957466,-3.2174911,-1.8394043,2.987439,-0.65419924,142.0
20052,-3.2163754,-16.624481,-0.700737,-1.8394043,2.987439,-0.65419924,142.0
20053,-3.2163754,-16.624481,-0.700737,-3.1902833,3.1170044,0.66269535,142.0
20054,-8.281328,-9.193344,-2.4198418,-3.1902833,3.1170044,0.66269535,142.0
20055,-8.281328,-9.193344,-2.4198418,-4.134412,3.0299194,0.51082766,142.0
20056,-9.713381,-6.7873077,-4.6044044,-4.134412,3.0299194,0.51082766,142.0
20057,-9.713381,-6.7873077,-4.6044044,-4.009094,3.1945312,-0.081774905,142.0
20058,-9.811915,-5.5006104,-4.923073,-4.009094,3.1945312,-0.081774905,142.0
20059,-9.811915,-5.5006104,-4.923073,-3.3166625,2.6125488,-0.0998291,142.0
20060,-10.7015705,-2.9207764,-4.2198906,-3.3166625,2.6125488,-0.0998291,142.0
20061,-10.7015705,-2.9207764,-4.2198906,-3.075586,0.66588134,0.8496094,142.0
20062,-13.662856,0.33438873,-3.558834,-3.075586,0.66588134,0.8496094,142.0
20063,-13.662856,0.33438873,-3.558834,-2.005078,-1.5962037,1.6832886,142.0
20064,-18.507679,1.9328461,-2.8603249,-2.005078,-1.5962037,1.6832886,142.0
20065,-18.507679,1.9328461,-2.8603249,0.48321533,-1.1926392,0.5533081,142.0
20066,-19.994375,1.401329,-2.9661407,0.48321533,-1.1926392,0.5533081,142.0
20067,-19.994375,1.401329,-2.9661407,0.7147339,-1.3041505,2.366162,142.0
20068,-14.693876,-0.3979416,-3.5807495,0.7147339,-1.3041505,2.366162,142.0
20069,-14.693876,-0.3979416,-3.5807495,0.25700685,-1.4432739,2.6964478,142.0
20070,-7.1309805,-2.9219666,-2.4763298,0.25700685,-1.4432739,2.6964478,142.0
20071,-7.1309805,-2.9219666,-2.4763298,0.36639404,-2.1548219,2.9906251,142.0
20072,-1.0347891,-5.182617,-0.22557068,0.36639404,-2.1548219,2.9906251,142.0
20073,-1.0347891,-5.182617,-0.22557068,0.53100586,-1.983838,4.620813,142.0
20074,3.243287,-7.5637817,0.74233246,0.53100586,-1.983838,4.620813,142.0
20075,3.243287,-7.5637817,0.74233246,1.075818,-1.7958618,6.497388,142.0
20076,5.7736826,-10.902428,0.61172485,1.075818,-1.7958618,6.497388,142.0
20077,5.7736826,-10.902428,0.61172485,2.3311157,-2.4213867,7.872693,142.0
20078,7.6200695,-14.407005,1.3853989,2.3311157,-2.4213867,7.872693,142.0
20079,7.6200695,-14.407005,1.3853989,3.539685,-4.448767,9.445533,142.0
20080,11.745312,-15.651184,2.457878,3.539685,-4.448767,9.445533,142.0
20081,11.745312,-15.651184,2.457878,4.0175905,-9.490137,9.05365,142.0
20082,19.732565,-9.086975,0.07282257,4.0175905,-9.490137,9.05365,142.0
20083,19.732565,-9.086975,0.07282257,1.535669,-0.88996583,9.041968,142.0
20084,19.706926,2.4155655,-1.0247498,1.535669,-0.88996583,9.041968,142.0
20085,19.706926,2.4155655,-1.0247498,-0.65632325,-1.0099732,8.818946,142.0
20086,9.352773,10.406235,1.4253311,-0.65632325,-1.0099732,8.818946,142.0
20087,9.352773,10.406235,1.4253311,-0.7880127,-2.258899,8.213599,142.0
20088,1.3204017,15.364624,2.698944,-0.7880127,-2.258899,8.213599,142.0
20089,1.3204017,15.364624,2.698944,-0.5278198,-2.2684572,7.3767333,142.0
20090,-2.0481222,18.978088,2.868969,-0.5278198,-2.2684572,7.3767333,142.0
20091,-2.0481222,18.978088,2.868969,-0.2357666,-2.618921,6.346582,142.0
20092,-2.863925,21.701942,2.6677208,-0.2357666,-2.618921,6.346582,142.0
20093,-2.863925,21.701942,2.6677208,-0.43967286,-2.9630127,5.0158815,142.0
20094,-2.3607934,24.366356,1.8775101,-0.43967286,-2.9630127,5.0158815,142.0
20095,-2.3607934,24.366356,1.8775101,-0.16142578,-3.4472902,3.1308105,142.0
20096,-1.8370112,28.389862,1.3278008,-0.16142578,-3.4472902,3.1308105,142.0
20097,-1.8370112,28.389862,1.3278008,-1.2818482,-3.2221437,-0.15930176,142.0
20098,-1.6843429,33.041077,3.737938,-1.2818482,-3.2221437,-0.15930176,142.0
20099,-1.6843429,33.041077,3.737938,-2.0985353,-0.8666016,-4.517798,142.0
20100,-2.0468516,29.374989,7.1356277,-2.0985353,-0.8666016,-4.517798,142.0
20101,-2.0468516,29.374989,7.1356277,0.7497803,-0.04248047,-8.102088,142.0
20102,-2.4357846,17.251358,6.403923,0.7497803,-0.04248047,-8.102088,142.0
20103,-2.4357846,17.251358,6.403923,1.3838013,0.03717041,-11.7352295,142.0
20104,0.31121114,5.020279,3.5490189,1.3838013,0.03717041,-11.7352295,142.0
20105,0.31121114,5.020279,3.5490189,-2.3842163,-0.38975832,-12.201453,142.0
20106,0.31121114,5.020279,3.5490189,-2.3842163,-0.38975832,-12.201453,144.0
20107,7.8626533,-6.923889,3.6185837,-2.3842163,-0.38975832,-12.201453,144.0
20108,7.8626533,-6.923889,3.6185837,-4.9245486,-1.4995606,-12.816358,144.0
20109,21.282494,-19.432823,1.1833076,-4.9245486,-1.4995606,-12.816358,144.0
20110,21.282494,-19.432823,1.1833076,-10.777295,-0.38763428,-8.574683,144.0
20111,30.67237,-32.52764,-7.473629,-10.777295,-0.38763428,-8.574683,144.0
20112,30.67237,-32.52764,-7.473629,-10.903674,4.3850465,-7.872693,144.0
20113,24.841303,-40.824326,-13.48225,-10.903674,4.3850465,-7.872693,144.0
20114,24.841303,-40.824326,-13.48225,-5.879297,6.2063966,-4.0027223,144.0
20115,8.486664,-36.893967,-11.061226,-5.879297,6.2063966,-4.0027223,144.0
20116,8.486664,-36.893967,-11.061226,-0.48321533,5.414136,-2.1357057,144.0
20117,-6.5751343,-21.128632,-3.4376144,-0.48321533,5.414136,-2.1357057,144.0
20118,-6.5751343,-21.128632,-3.4376144,1.8362182,4.330884,-0.64782715,144.0
20119,-12.800673,-4.9440765,1.2639694,1.8362182,4.330884,-0.64782715,144.0
20120,-12.800673,-4.9440765,1.2639694,1.5600952,3.0532837,-1.0821899,144.0
20121,-12.179809,2.6604767,-0.46300888,1.5600952,3.0532837,-1.0821899,144.0
20122,-12.179809,2.6604767,-0.46300888,-0.6244629,3.1255004,-0.8952759,144.0
20123,-10.4354,3.1292267,-5.0684776,-0.6244629,3.1255004,-0.8952759,144.0
20124,-10.4354,3.1292267,-5.0684776,-1.8829468,3.5757935,-1.535669,144.0
20125,-11.029216,1.9715271,-8.326473,-1.8829468,3.5757935,-1.535669,144.0
20126,-11.029216,1.9715271,-8.326473,-1.910559,2.2142944,-1.9987061,144.0
20127,-12.795883,1.7073746,-8.735935,-1.910559,2.2142944,-1.9987061,144.0
20128,-12.795883,1.7073746,-8.735935,-0.59897465,0.92501223,-2.8621216,144.0
20129,-14.557629,2.026886,-4.539749,-0.59897465,0.92501223,-2.8621216,144.0
20130,-14.557629,2.026886,-4.539749,0.22939454,-1.5685914,-3.5832276,144.0
20131,-16.86201,2.0557632,2.0068111,0.22939454,-1.5685914,-3.5832276,144.0
20132,-16.86201,2.0557632,2.0068111,0.6977417,-4.2958374,-4.642053,144.0
20133,-19.941547,0.1876297,5.8753967,0.6977417,-4.2958374,-4.642053,144.0
20134,-19.941547,0.1876297,5.8753967,0.4980835,-2.7803466,-9.187464,144.0
20135,-22.142399,-2.5283127,5.987562,0.4980835,-2.7803466,-9.187464,144.0
20136,-22.142399,-2.5283127,5.987562,-0.57242435,-0.75721437,-4.706836,144.0
20137,-17.90009,-4.6397705,3.7517567,-0.57242435,-0.75721437,-4.706836,144.0
20138,-17.90009,-4.6397705,3.7517567,-0.7880127,-2.2323487,-1.5515991,144.0
20139,-5.937662,-7.0785294,1.3621101,-0.7880127,-2.2323487,-1.5515991,144.0
20140,-5.937662,-7.0785294,1.3621101,0.08814698,-1.2499878,0.14761963,144.0
20141,5.4140663,-9.43454,0.5526161,0.08814698,-1.2499878,0.14761963,144.0
20142,5.4140663,-9.43454,0.5526161,0.9133301,-1.3731812,3.4271119,144.0
20143,11.345401,-9.577332,0.72185326,0.9133301,-1.3731812,3.4271119,144.0
20144,11.345401,-9.577332,0.72185326,1.7979859,-0.6573853,5.153943,144.0
20145,13.82471,-8.362793,1.5102348,1.7979859,-0.6573853,5.153943,144.0
20146,13.82471,-8.362793,1.5102348,4.0016603,-2.71344,7.568958,144.0
20147,18.78948,-8.843353,0.09792328,4.0016603,-2.71344,7.568958,144.0
20148,18.78948,-8.843353,0.09792328,5.2643924,-6.2924194,8.960193,144.0
20149,25.365007,-7.577606,-4.034088,5.2643924,-6.2924194,8.960193,144.0
20150,25.365007,-7.577606,-4.034088,4.5401,-1.2871583,8.377149,144.0
20151,23.126003,-2.1511078,-6.210619,4.5401,-1.2871583,8.377149,144.0
20152,23.126003,-2.1511078,-6.210619,5.013757,-2.2833252,8.0776615,144.0
20153,14.415157,4.3954926,-6.22571,5.013757,-2.2833252,8.0776615,144.0
20154,14.415157,4.3954926,-6.22571,0.54587406,-1.4092896,9.2172,144.0
20155,6.9188814,9.364029,-3.480896,0.54587406,-1.4092896,9.2172,144.0
20156,6.9188814,9.364029,-3.480896,0.24532472,-2.35979,8.652209,144.0
20157,0.86535454,13.181938,0.6257572,0.24532472,-2.35979,8.652209,144.0
20158,0.86535454,13.181938,0.6257572,2.270581,-3.2986085,7.9311037,144.0
20159,-3.370656,17.027916,3.3937454,2.270581,-3.2986085,7.9311037,144.0
20160,-3.370656,17.027916,3.3937454,3.5970337,-3.5906618,7.252478,144.0
20161,-5.2510653,20.218079,4.3034,3.5970337,-3.5906618,7.252478,144.0
20162,-5.2510653,20.218079,4.3034,4.1089234,-3.5046387,5.594678,144.0
20163,-5.9678936,21.791702,3.9330292,4.1089234,-3.5046387,5.594678,144.0
20164,-5.9678936,21.791702,3.9330292,3.6596925,-2.9683228,4.7344484,144.0
20165,-6.077074,21.979706,3.7123032,3.6596925,-2.9683228,4.7344484,144.0
20166,-6.077074,21.979706,3.7123032,2.7803466,-3.0617797,3.620398,144.0
20167,-5.0351577,22.087227,4.9308395,2.7803466,-3.0617797,3.620398,144.0
20168,-5.0351577,22.087227,4.9308395,1.2945923,-2.3693483,2.2737672,144.0
20169,-4.449159,20.016518,7.1263504,1.2945923,-2.3693483,2.2737672,144.0
20170,-4.449159,20.016518,7.1263504,0.06584473,-1.7608155,0.44498292,144.0
20171,-5.008497,14.496746,7.984123,0.06584473,-1.7608155,0.44498292,144.0
20172,-5.008497,14.496746,7.984123,0.68287355,-0.7497803,-2.0156982,144.0
20173,-5.443419,8.931187,7.00301,0.68287355,-0.7497803,-2.0156982,144.0
20174,-5.443419,8.931187,7.00301,-0.27612305,0.07434082,-3.6511962,144.0
20175,-5.3897815,3.7295685,5.733879,-0.27612305,0.07434082,-3.6511962,144.0
20176,-5.3897815,3.7295685,5.733879,-3.4271119,1.0248413,-5.1231446,144.0
20177,-4.3433075,-3.6867065,5.985161,-3.4271119,1.0248413,-5.1231446,144.0
20178,-4.3433075,-3.6867065,5.985161,-3.7457154,0.77102053,-6.2902956,144.0
20179,-1.420349,-16.116653,4.739399,-3.7457154,0.77102053,-6.2902956,144.0
20180,-1.420349,-16.116653,4.739399,-3.6586304,-1.3094605,-5.8070803,144.0
20181,2.5634768,-28.153488,0.049747467,-3.6586304,-1.3094605,-5.8070803,144.0
20182,2.5634768,-28.153488,0.049747467,-4.456201,4.8183475,-6.9190063,144.0
20183,2.5634768,-28.153488,0.049747467,-4.456201,4.8183475,-6.9190063,144.0
20184,2.4563966,-33.719833,0.43201065,-4.456201,4.8183475,-6.9190063,144.0
20185,2.4563966,-33.719833,0.43201065,-4.179016,4.878882,-3.4961426,144.0
20186,-2.2974439,-32.243713,1.994667,-4.179016,4.878882,-3.4961426,144.0
20187,-2.2974439,-32.243713,1.994667,-2.608301,5.1985474,0.24957275,144.0
20188,-5.6615515,-22.220657,-2.6035843,-2.608301,5.1985474,0.24957275,144.0
20189,-5.6615515,-22.220657,-2.6035843,2.8748658,4.720642,-0.71791995,144.0
20190,-6.768218,-8.469086,-7.964302,2.8748658,4.720642,-0.71791995,144.0
20191,-6.768218,-8.469086,-7.964302,3.1329346,6.097009,-0.41099855,144.0
20192,-7.8156977,3.2161102,-8.158123,3.1329346,6.097009,-0.41099855,144.0
20193,-7.8156977,3.2161102,-8.158123,1.2744141,5.879297,-1.7809937,144.0
20194,-7.8156977,3.2161102,-8.158123,-0.20178223,6.5696044,-1.1002442,144.0
20195,-8.827119,10.028091,-6.059799,-0.20178223,6.5696044,-1.1002442,144.0
20196,-16.817299,13.037224,-8.29966,-0.20178223,6.5696044,-1.1002442,144.0
20197,-16.817299,13.037224,-8.29966,-1.5515991,5.8506227,-1.1278565,144.0
20198,-16.817299,13.037224,-8.29966,-2.6550293,4.6792235,-1.7523193,144.0
20199,-16.817299,13.037224,-8.29966,-2.7410524,2.9715087,-2.4139526,144.0
20200,-20.670662,11.811394,-4.264324,-2.7410524,2.9715087,-2.4139526,144.0
20201,-20.670662,11.811394,-4.264324,-1.7788696,1.5930176,-0.4598511,144.0
20202,-18.547039,10.980423,-1.5563583,-1.7788696,1.5930176,-0.4598511,144.0
20203,-18.547039,10.980423,-1.5563583,-1.2244996,-1.6046997,1.4677002,144.0
20204,-18.547039,10.980423,-1.5563583,-0.6839356,-1.5569092,0.9802368,144.0
20205,-10.922764,9.085136,-0.51161575,-0.6839356,-1.5569092,0.9802368,144.0
20206,-5.155094,6.2471237,0.91394806,-0.6839356,-1.5569092,0.9802368,144.0
20207,-5.155094,6.2471237,0.91394806,-0.813501,-3.7287233,1.2552979,144.0
20208,-1.5718765,2.1612015,2.8360558,-0.813501,-3.7287233,1.2552979,144.0
20209,-1.5718765,2.1612015,2.8360558,-0.52250975,-3.6819947,2.1463258,144.0
20210,1.6558666,-4.838463,3.5602264,-0.52250975,-3.6819947,2.1463258,144.0
20211,1.6558666,-4.838463,3.5602264,0.99298096,-4.0855594,2.1951783,144.0
20212,4.5090923,-13.397438,2.871338,0.99298096,-4.0855594,2.1951783,144.0
20213,4.5090923,-13.397438,2.871338,4.189636,-4.280969,1.4209718,144.0
20214,4.9873524,-16.938217,2.2532082,4.189636,-4.280969,1.4209718,144.0
20215,4.9873524,-16.938217,2.2532082,2.8015869,-2.3003175,7.4988647,144.0
20216,4.943838,-16.484985,2.6920204,2.8015869,-2.3003175,7.4988647,144.0
20217,4.943838,-16.484985,2.6920204,3.710669,-1.3391968,5.609546,144.0
20218,6.2163124,-12.896446,2.6454735,3.710669,-1.3391968,5.609546,144.0
20219,6.2163124,-12.896446,2.6454735,3.9432495,-1.445398,6.967859,144.0
20220,7.796377,-5.1156006,0.89551544,3.9432495,-1.445398,6.967859,144.0
20221,7.796377,-5.1156006,0.89551544,2.3045654,-2.531836,6.0109863,144.0
20222,9.339775,3.8888931,-0.9701729,2.3045654,-2.531836,6.0109863,144.0
20223,9.339775,3.8888931,-0.9701729,1.1639649,-3.2062135,6.180908,144.0
20224,9.173236,12.217926,-0.37478256,1.1639649,-3.2062135,6.180908,144.0
20225,9.173236,12.217926,-0.37478256,-1.7969239,-2.8515015,4.8087893,144.0
20226,6.6625023,17.49768,1.653923,-1.7969239,-2.8515015,4.8087893,144.0
20227,6.6625023,17.49768,1.653923,-3.178601,-1.2988404,3.7733276,144.0
20228,3.0049772,17.855972,3.8732605,-3.178601,-1.2988404,3.7733276,144.0
20229,3.0049772,17.855972,3.8732605,-0.095581055,-3.3240967,1.3253907,144.0
20230,1.3623552,18.049522,5.2030754,-0.095581055,-3.3240967,1.3253907,144.0
20231,1.3623552,18.049522,5.2030754,1.6896607,-5.5075927,-1.3689331,144.0
20232,4.4826574,19.2072,3.6953354,1.6896607,-5.5075927,-1.3689331,144.0
20233,4.4826574,19.2072,3.6953354,0.5533081,-5.3801513,0.80606693,144.0
20234,7.842425,16.736984,-1.2583694,0.5533081,-5.3801513,0.80606693,144.0
20235,7.842425,16.736984,-1.2583694,2.1813722,-2.817517,-1.4284058,144.0
20236,5.4527855,12.761368,-4.858734,2.1813722,-2.817517,-1.4284058,144.0
20237,5.4527855,12.761368,-4.858734,2.2854493,-1.0524536,-4.249109,144.0
20238,-0.05272484,7.8522797,-2.757557,2.2854493,-1.0524536,-4.249109,144.0
20239,-0.05272484,7.8522797,-2.757557,1.3296387,-1.4061035,-4.5942626,144.0
20240,-3.084465,0.12821198,1.8782196,1.3296387,-1.4061035,-4.5942626,144.0
20241,-3.084465,0.12821198,1.8782196,2.2780151,-1.1108643,-5.598926,144.0
20242,-2.7516785,-5.8699417,5.00436,2.2780151,-1.1108643,-5.598926,144.0
20243,-2.7516785,-5.8699417,5.00436,3.7181032,-0.73809814,-5.3546634,144.0
20244,-1.1947632,-8.933418,7.063717,3.7181032,-0.73809814,-5.3546634,144.0
20245,-1.1947632,-8.933418,7.063717,7.148401,-0.91120607,-6.50907,144.0
20246,-0.047204494,-11.738953,11.399536,7.148401,-0.91120607,-6.50907,144.0
20247,-0.047204494,-11.738953,11.399536,5.815576,-2.6040528,-6.2839236,144.0
20248,1.1587086,-12.864426,15.954895,5.815576,-2.6040528,-6.2839236,144.0
20249,1.1587086,-12.864426,15.954895,2.2780151,-3.6108398,-6.2849855,144.0
20250,4.412636,-9.945602,17.049587,2.2780151,-3.6108398,-6.2849855,144.0
20251,4.412636,-9.945602,17.049587,-1.8893188,-1.6376221,-6.265869,144.0
20252,7.5843935,-7.2319107,13.683067,-1.8893188,-1.6376221,-6.265869,144.0
20253,7.5843935,-7.2319107,13.683067,-4.3043337,1.8500245,-4.0983033,144.0
20254,5.0272684,-6.8784103,6.8935966,-4.3043337,1.8500245,-4.0983033,144.0
20255,5.0272684,-6.8784103,6.8935966,-4.532666,2.6815796,-4.2979617,144.0
20256,-2.1787348,-5.186203,0.3864212,-4.532666,2.6815796,-4.2979617,144.0
20257,-2.1787348,-5.186203,0.3864212,-4.426465,2.2971313,-3.4472902,144.0
20258,-7.4788766,-2.4568863,-4.1583443,-4.426465,2.2971313,-3.4472902,144.0
20259,-7.4788766,-2.4568863,-4.1583443,-3.7786376,1.9615357,-2.8408813,144.0
20260,-9.175142,-0.18100739,-6.5542145,-3.7786376,1.9615357,-2.8408813,144.0
20261,-9.175142,-0.18100739,-6.5542145,-2.913098,1.6461182,-2.909912,144.0
20262,-9.371669,1.9217453,-7.196579,-2.913098,1.6461182,-2.909912,144.0
20263,-9.371669,1.9217453,-7.196579,-2.8451295,1.0726318,-2.8281372,144.0
20264,-9.371669,1.9217453,-7.196579,-2.7569826,0.84748536,-1.8956909,144.0
20265,-10.400155,4.5720444,-6.3826294,-2.7569826,0.84748536,-1.8956909,144.0
20266,-16.875862,6.6179886,-11.49889,-2.7569826,0.84748536,-1.8956909,144.0
20267,-16.875862,6.6179886,-11.49889,-1.6365601,2.7824707,-0.5543701,144.0
20268,-16.875862,6.6179886,-11.49889,-0.7880127,3.1393068,-1.1926392,144.0
20269,-16.875862,6.6179886,-11.49889,-1.1289185,2.9768188,-0.4598511,144.0
20270,-12.382355,2.2197723,-9.502274,-1.1289185,2.9768188,-0.4598511,144.0
20271,-12.382355,2.2197723,-9.502274,-1.7109009,3.0692139,1.3455689,144.0
20272,-8.495752,-1.9870987,-5.734314,-1.7109009,3.0692139,1.3455689,144.0
20273,-8.495752,-1.9870987,-5.734314,-1.09281,2.4628053,3.059656,144.0
20274,-5.486849,-4.114044,-2.8241959,-1.09281,2.4628053,3.059656,144.0
20275,-5.486849,-4.114044,-2.8241959,-1.080066,1.809668,4.2990236,144.0
20276,-3.0360851,-6.4137726,-0.6475029,-1.080066,1.809668,4.2990236,144.0
20277,-3.0360851,-6.4137726,-0.6475029,-1.085376,1.8213501,5.4173217,144.0
20278,-0.66487885,-11.230568,2.2056427,-1.085376,1.8213501,5.4173217,144.0
20279,-0.66487885,-11.230568,2.2056427,-0.53737795,2.267395,6.2626834,144.0
20280,1.2243347,-14.932533,4.611374,-0.53737795,2.267395,6.2626834,144.0
20281,1.2243347,-14.932533,4.611374,-0.2803711,1.9360474,7.2864623,144.0
20282,2.4109268,-14.162613,5.255394,-0.2803711,1.9360474,7.2864623,144.0
20283,2.4109268,-14.162613,5.255394,-0.6042847,2.1080933,7.9003053,144.0
20284,4.2127495,-9.4253235,4.414299,-0.6042847,2.1080933,7.9003053,144.0
20285,4.2127495,-9.4253235,4.414299,-0.28568116,1.2914063,8.164746,144.0
20286,7.3708706,-2.6801376,2.1886902,-0.28568116,1.2914063,8.164746,144.0
20287,7.3708706,-2.6801376,2.1886902,-0.8814697,0.22514649,7.2323,144.0
20288,10.429386,4.2877045,-0.9152107,-0.8814697,0.22514649,7.2323,144.0
20289,10.429386,4.2877045,-0.9152107,-1.0768799,-0.6488892,6.234009,144.0
20290,11.486173,10.476723,-3.710186,-1.0768799,-0.6488892,6.234009,144.0
20291,11.486173,10.476723,-3.710186,-0.92926025,-0.07540283,5.3217406,144.0
20292,10.036034,14.739761,-4.736828,-0.92926025,-0.07540283,5.3217406,144.0
20293,10.036034,14.739761,-4.736828,-0.35683593,0.038232423,4.5422244,144.0
20294,7.278925,16.747772,-4.247837,-0.35683593,0.038232423,4.5422244,144.0
20295,7.278925,16.747772,-4.247837,0.34090576,-0.5713623,4.2268066,144.0
20296,5.6717978,16.770851,-4.381386,0.34090576,-0.5713623,4.2268066,144.0
20297,5.6717978,16.770851,-4.381386,0.4715332,-1.4984986,4.630371,144.0
20298,5.949523,15.290146,-6.4569626,0.4715332,-1.4984986,4.630371,144.0
20299,5.949523,15.290146,-6.4569626,0.35577393,-2.8642457,3.9581177,144.0
20300,6.3527336,14.405907,-9.483688,0.35577393,-2.8642457,3.9581177,144.0
20301,6.3527336,14.405907,-9.483688,-1.075818,-3.8657227,2.1091554,144.0
20302,5.784543,13.606674,-10.021767,-1.075818,-3.8657227,2.1091554,144.0
20303,5.784543,13.606674,-10.021767,-2.9492066,-2.4012086,0.20496826,144.0
20304,3.8379493,9.23027,-5.5603333,-2.9492066,-2.4012086,0.20496826,144.0
20305,3.8379493,9.23027,-5.5603333,-4.364868,-1.3285767,-1.6036377,144.0
20306,0.79156303,3.3063507,1.2837906,-4.364868,-1.3285767,-1.6036377,144.0
20307,0.79156303,3.3063507,1.2837906,-3.3878174,-1.0694458,-3.8083742,144.0
20308,-2.2196302,0.21936035,6.3441963,-3.3878174,-1.0694458,-3.8083742,144.0
20309,-2.2196302,0.21936035,6.3441963,-1.2712281,-0.91014403,-4.962781,144.0
20310,-2.2196302,0.21936035,6.3441963,1.0184692,-0.9802368,-6.1840944,144.0
20311,-4.5655355,-2.450508,8.744839,1.0184692,-0.9802368,-6.1840944,144.0
20312,-7.7236443,-18.356644,21.879585,1.0184692,-0.9802368,-6.1840944,144.0
20313,-7.7236443,-18.356644,21.879585,2.4585571,-2.536084,-7.1940675,144.0
20314,-7.7236443,-18.356644,21.879585,2.0464966,-3.2200196,-6.694922,144.0
20315,-7.7236443,-18.356644,21.879585,0.26444092,-2.1548219,-5.6382203,144.0
20316,-6.1493874,-14.139084,19.003128,0.26444092,-2.1548219,-5.6382203,144.0
20317,-6.1493874,-14.139084,19.003128,-2.5445802,-0.29948732,-4.9946413,144.0
20318,-6.3349514,-10.206039,12.226318,-2.5445802,-0.29948732,-4.9946413,144.0
20319,-6.3349514,-10.206039,12.226318,-3.798816,1.0556396,-5.066858,144.0
20320,-7.3981,-6.8859253,3.461132,-3.798816,1.0556396,-5.066858,144.0
20321,-7.3981,-6.8859253,3.461132,-4.253357,1.1055542,-5.064734,144.0
20322,-8.198462,-3.6736908,-3.9231606,-4.253357,1.1055542,-5.064734,144.0
20323,-8.198462,-3.6736908,-3.9231606,-4.466821,0.92501223,-4.2066283,144.0
20324,-8.347979,-0.7555542,-7.874649,-4.466821,0.92501223,-4.2066283,144.0
20325,-8.347979,-0.7555542,-7.874649,-3.6596925,1.2223755,-3.2147095,144.0
20326,-7.306288,1.5571136,-8.980713,-3.6596925,1.2223755,-3.2147095,144.0
20327,-7.306288,1.5571136,-8.980713,-2.4978516,1.1289185,-2.4713013,144.0
20328,-6.047802,3.651413,-8.455994,-2.4978516,1.1289185,-2.4713013,144.0
20329,-6.047802,3.651413,-8.455994,-1.8319702,0.41099855,-1.5845215,144.0
20330,-6.3829308,5.4922943,-6.7564354,-1.8319702,0.41099855,-1.5845215,144.0
20331,-6.3829308,5.4922943,-6.7564354,-0.8442993,0.47471926,-0.36108398,144.0
20332,-7.8778286,5.847069,-4.523876,-0.8442993,0.47471926,-0.36108398,144.0
20333,-7.8778286,5.847069,-4.523876,0.27612305,0.5809204,0.31435546,144.0
20334,-7.7880783,4.1909714,-3.3906975,0.27612305,0.5809204,0.31435546,144.0
20335,-7.7880783,4.1909714,-3.3906975,0.75509036,0.55543214,0.6042847,144.0
20336,-5.4812202,2.2359695,-3.3353958,0.75509036,0.55543214,0.6042847,144.0
20337,-5.4812202,2.2359695,-3.3353958,0.86766356,0.64570314,1.9817139,144.0
20338,-2.7139912,0.37677765,-2.5799866,0.86766356,0.64570314,1.9817139,144.0
20339,-2.7139912,0.37677765,-2.5799866,0.7827026,0.8952759,3.6055298,144.0
20340,-0.9959984,-2.422943,-0.57149506,0.7827026,0.8952759,3.6055298,144.0
20341,-0.9959984,-2.422943,-0.57149506,0.7317261,1.2287476,5.0063233,144.0
20342,-0.5765114,-5.9351044,1.7884827,0.7317261,1.2287476,5.0063233,144.0
20343,-0.5765114,-5.9351044,1.7884827,1.2807862,1.4581422,5.3822756,144.0
20344,0.1120224,-10.169167,3.8678207,1.2807862,1.4581422,5.3822756,144.0
20345,0.1120224,-10.169167,3.8678207,1.9732178,2.3735962,4.54541,144.0
20346,2.1431465,-13.060173,4.906681,1.9732178,2.3735962,4.54541,144.0
20347,2.1431465,-13.060173,4.906681,2.1420777,2.2918212,4.8194094,144.0
20348,4.783865,-11.238724,4.264393,2.1420777,2.2918212,4.8194094,144.0
20349,4.783865,-11.238724,4.264393,1.1926392,1.3232666,5.165625,144.0
20350,7.9511395,-5.765999,3.1710014,1.1926392,1.3232666,5.165625,144.0
20351,7.9511395,-5.765999,3.1710014,-0.6064087,-0.6117188,4.701526,144.0
20352,11.562695,0.1651001,1.5091019,-0.6064087,-0.6117188,4.701526,144.0
20353,11.562695,0.1651001,1.5091019,-2.0263183,-1.1172364,3.3793213,144.0
20354,11.562695,0.1651001,1.5091019,-2.0263183,-1.1172364,3.3793213,144.0
20355,11.814951,5.887451,-1.2565002,-2.0263183,-1.1172364,3.3793213,144.0
20356,11.814951,5.887451,-1.2565002,-3.6650026,-0.040356446,3.0352294,144.0
20357,6.6527424,9.945946,-2.9091797,-3.6650026,-0.040356446,3.0352294,144.0
20358,6.6527424,9.945946,-2.9091797,-4.3170776,-0.9696167,2.4808595,144.0
20359,1.0611229,10.602158,-3.0773315,-4.3170776,-0.9696167,2.4808595,144.0
20360,1.0611229,10.602158,-3.0773315,-3.530127,-1.5239868,1.629126,144.0
20361,-0.08346367,9.7845,-2.9567146,-3.530127,-1.5239868,1.629126,144.0
20362,-0.08346367,9.7845,-2.9567146,-2.614673,-1.8818848,1.3774292,144.0
20363,2.6676903,9.9049835,-3.3484764,-2.614673,-1.8818848,1.3774292,144.0
20364,2.6676903,9.9049835,-3.3484764,-2.3714721,-2.717688,0.73703617,144.0
20365,6.0452356,11.926559,-4.188156,-2.3714721,-2.717688,0.73703617,144.0
20366,6.0452356,11.926559,-4.188156,-2.88761,-2.974695,-0.38763428,144.0
20367,7.4084053,13.505188,-3.8538818,-2.88761,-2.974695,-0.38763428,144.0
20368,7.4084053,13.505188,-3.8538818,-3.6745605,-0.6956177,-1.4623902,144.0
20369,5.6983557,10.316002,-1.4493027,-3.6745605,-0.6956177,-1.4623902,144.0
20370,5.6983557,10.316002,-1.4493027,-4.1067996,1.2457398,-2.9619508,144.0
20371,2.6195488,2.7442093,1.0322113,-4.1067996,1.2457398,-2.9619508,144.0
20372,2.6195488,2.7442093,1.0322113,-2.707068,1.8850708,-3.9942262,144.0
20373,-0.2324009,-4.8038635,1.1953125,-2.707068,1.8850708,-3.9942262,144.0
20374,-0.2324009,-4.8038635,1.1953125,-1.9774659,1.8245362,-3.2805543,144.0
20375,-3.5783768,-13.421143,0.07987213,-1.9774659,1.8245362,-3.2805543,144.0
20376,-3.5783768,-13.421143,0.07987213,-2.2281005,3.6766846,-3.0320435,144.0
20377,-5.1158752,-16.75341,-0.011310577,-2.2281005,3.6766846,-3.0320435,144.0
