,accx,accy,accz,gyrox,gyroy,gyroz,heart rate
16260,run,run,run,run,run,run,run
16261,0.008068085,0.19787598,-0.21116257,0.027612304,0.028674318,0.13168946,124.0
16262,0.008068085,0.19787598,-0.21116257,-0.16885987,-0.016992187,-0.11363526,124.0
16263,-0.009780884,0.17474365,-0.16656494,-0.16885987,-0.016992187,-0.11363526,124.0
16264,-0.009780884,0.17474365,-0.16656494,-0.13487549,-0.14655761,0.13168946,124.0
16265,-0.02347374,0.1556015,-0.12558746,-0.13487549,-0.14655761,0.13168946,124.0
16266,-0.02347374,0.1556015,-0.12558746,-0.04460449,-0.1263794,0.11682129,124.0
16267,1.5792923,-2.8144836,1.4891777,-0.04460449,-0.1263794,0.11682129,124.0
16268,1.5792923,-2.8144836,1.4891777,0.07646485,-0.10513916,0.07540283,124.0
16269,1.3844414,-2.300087,1.223175,0.07646485,-0.10513916,0.07540283,124.0
16270,1.3844414,-2.300087,1.223175,0.13806152,-0.07327881,0.028674318,124.0
16271,1.1567116,-1.7628021,1.0446663,0.13806152,-0.07327881,0.028674318,124.0
16272,1.1567116,-1.7628021,1.0446663,0.095581055,-0.015930176,0.070092775,124.0
16273,0.8905544,-1.2718048,0.83901596,0.095581055,-0.015930176,0.070092775,124.0
16274,0.8905544,-1.2718048,0.83901596,-0.009558106,-0.058410645,0.058410645,124.0
16275,0.65691376,-0.9197006,0.6590309,-0.009558106,-0.058410645,0.058410645,124.0
16276,0.65691376,-0.9197006,0.6590309,-0.027612304,-0.17841797,0.03717041,124.0
16277,0.5669975,-0.7272186,0.49993134,-0.027612304,-0.17841797,0.03717041,124.0
16278,0.5669975,-0.7272186,0.49993134,-0.081774905,-0.17629395,0.07115479,124.0
16279,0.5796242,-0.6345062,0.3676567,-0.081774905,-0.17629395,0.07115479,124.0
16280,0.5796242,-0.6345062,0.3676567,-0.13912354,-0.121069334,0.10407715,124.0
16281,0.5618801,-0.5859604,0.30654907,-0.13912354,-0.121069334,0.10407715,124.0
16282,0.5618801,-0.5859604,0.30654907,-0.10407715,-0.07540283,0.10089111,124.0
16283,0.48428154,-0.5374222,0.29172134,-0.10407715,-0.07540283,0.10089111,124.0
16284,0.48428154,-0.5374222,0.29172134,-0.04991455,-0.046728518,0.090270996,124.0
16285,0.36602688,-0.44245148,0.2628441,-0.04991455,-0.046728518,0.090270996,124.0
16286,0.36602688,-0.44245148,0.2628441,-0.026550293,-0.04991455,0.07540283,124.0
16287,0.28861046,-0.330101,0.20941925,-0.026550293,-0.04991455,0.07540283,124.0
16288,0.28861046,-0.330101,0.20941925,-0.06796875,-0.029736329,0.06159668,124.0
16289,0.24471855,-0.2274704,0.15759659,-0.06796875,-0.029736329,0.06159668,124.0
16290,0.24471855,-0.2274704,0.15759659,-0.052038576,0.008496094,0.07434082,124.0
16291,0.18211555,-0.14488983,0.12652588,-0.052038576,0.008496094,0.07434082,124.0
16292,0.18211555,-0.14488983,0.12652588,-0.050976563,-0.014868164,0.032922365,124.0
16293,0.13648891,-0.12545776,0.11025238,-0.050976563,-0.014868164,0.032922365,124.0
16294,0.13648891,-0.12545776,0.11025238,-0.03717041,-0.03079834,0.039294433,124.0
16295,0.13852406,-0.14089203,0.077228546,-0.03717041,-0.03079834,0.039294433,124.0
16296,0.13852406,-0.14089203,0.077228546,-0.021240234,-0.093457036,0.04460449,124.0
16297,0.22219658,-0.10067749,-0.015037537,-0.021240234,-0.093457036,0.04460449,124.0
16298,0.22219658,-0.10067749,-0.015037537,-0.087084964,-0.07327881,0.10301514,124.0
16299,0.3023672,-0.04273987,-0.08410263,-0.087084964,-0.07327881,0.10301514,124.0
16300,0.3023672,-0.04273987,-0.08410263,-0.16248779,0.011682129,0.15823975,124.0
16301,0.28482628,-0.059890747,-0.041488647,-0.16248779,0.011682129,0.15823975,124.0
16302,0.28482628,-0.059890747,-0.041488647,-0.1731079,0.0637207,0.16142578,124.0
16303,0.17745781,-0.06781769,0.041404724,-0.1731079,0.0637207,0.16142578,124.0
16304,0.17745781,-0.06781769,0.041404724,-0.19647217,0.14230958,0.18479005,124.0
16305,-0.12592888,-0.036956787,0.019878387,-0.19647217,0.14230958,0.18479005,124.0
16306,-0.12592888,-0.036956787,0.019878387,-0.20178223,0.010620117,0.11044922,124.0
16307,-0.33295727,-0.07663727,-0.121974945,-0.20178223,0.010620117,0.11044922,124.0
16308,-0.33295727,-0.07663727,-0.121974945,-0.098767094,-0.09770508,0.0063720704,124.0
16309,-0.20388985,-0.1036911,-0.2736168,-0.098767094,-0.09770508,0.0063720704,124.0
16310,-0.20388985,-0.1036911,-0.2736168,-0.028674318,-0.08814698,0.09451904,124.0
16311,0.008799553,-0.039718628,-0.29748535,-0.028674318,-0.08814698,0.09451904,124.0
16312,0.008799553,-0.039718628,-0.29748535,0.039294433,-0.09664307,0.04991455,124.0
16313,0.14743233,0.038757324,-0.14758301,0.039294433,-0.09664307,0.04991455,124.0
16314,0.14743233,0.038757324,-0.14758301,0.013806152,-0.13912354,0.032922365,124.0
16315,0.211977,0.048362732,0.05701828,0.013806152,-0.13912354,0.032922365,124.0
16316,0.211977,0.048362732,0.05701828,0.025488282,-0.16461182,0.045666505,124.0
16317,0.2350111,0.07304382,0.14823914,0.025488282,-0.16461182,0.045666505,124.0
16318,0.2350111,0.07304382,0.14823914,-0.07434082,-0.1720459,0.010620117,124.0
16319,0.25240135,0.08703613,0.15167236,-0.07434082,-0.1720459,0.010620117,124.0
16320,0.25240135,0.08703613,0.15167236,-0.19541016,-0.13487549,0.08814698,124.0
16321,0.21160126,-0.10025787,0.22447205,-0.19541016,-0.13487549,0.08814698,124.0
16322,0.21160126,-0.10025787,0.22447205,-0.10089111,-0.13912354,0.008496094,124.0
16323,0.10204506,-0.22447968,0.31361008,-0.10089111,-0.13912354,0.008496094,124.0
16324,0.10204506,-0.22447968,0.31361008,-0.07965088,-0.16036378,-0.07965088,124.0
16325,0.030379295,-0.048187256,0.251606,-0.07965088,-0.16036378,-0.07965088,124.0
16326,0.030379295,-0.048187256,0.251606,-0.18797608,-0.13699952,-0.012744141,124.0
16327,0.0153923035,0.11328125,0.0855484,-0.18797608,-0.13699952,-0.012744141,124.0
16328,0.0153923035,0.11328125,0.0855484,-0.1444336,-0.08814698,0.095581055,124.0
16329,0.0153923035,0.11328125,0.0855484,-0.10938721,-0.0361084,0.08814698,124.0
16330,-0.006082535,0.11047363,-0.028839111,-0.10938721,-0.0361084,0.08814698,124.0
16331,-0.085933685,0.079185486,-0.020923615,-0.10938721,-0.0361084,0.08814698,124.0
16332,-0.085933685,0.079185486,-0.020923615,-0.10301514,-0.09451904,0.10089111,124.0
16333,-0.12458229,0.07015991,-0.027980804,-0.10301514,-0.09451904,0.10089111,124.0
16334,-0.12458229,0.07015991,-0.027980804,-0.090270996,-0.14761963,0.029736329,124.0
16335,-0.057014465,0.14850616,-0.13443375,-0.090270996,-0.14761963,0.029736329,124.0
16336,-0.057014465,0.14850616,-0.13443375,-0.059472658,-0.09133301,0.06690674,124.0
16337,0.12695885,0.46385193,-0.38380432,-0.059472658,-0.09133301,0.06690674,124.0
16338,0.12695885,0.46385193,-0.38380432,-0.3971924,-0.32178956,-0.6244629,124.0
16339,0.5905323,0.9492035,-1.0468903,-0.3971924,-0.32178956,-0.6244629,124.0
16340,0.5905323,0.9492035,-1.0468903,-0.32391357,-0.17629395,0.24001466,124.0
16341,1.0311422,1.207161,-1.905407,-0.32391357,-0.17629395,0.24001466,124.0
16342,1.0311422,1.207161,-1.905407,-0.5734863,-0.18054199,-0.21027832,124.0
16343,0.9534054,0.87275696,-2.48143,-0.5734863,-0.18054199,-0.21027832,124.0
16344,0.9534054,0.87275696,-2.48143,-0.5214478,-0.47471926,-0.3175415,124.0
16345,0.82815456,0.0019378662,-2.6197395,-0.5214478,-0.47471926,-0.3175415,124.0
16346,0.82815456,0.0019378662,-2.6197395,-0.56605226,-0.68499756,-0.68924564,124.0
16347,0.7382202,-0.65979004,-2.022194,-0.56605226,-0.68499756,-0.68924564,124.0
16348,0.7382202,-0.65979004,-2.022194,-0.901648,-1.2106934,-1.088562,124.0
16349,0.8849001,-1.0204391,-0.80150604,-0.901648,-1.2106934,-1.088562,124.0
16350,0.8849001,-1.0204391,-0.80150604,-1.354065,-1.635498,-1.3806152,124.0
16351,1.4130592,-1.1636047,0.13272095,-1.354065,-1.635498,-1.3806152,124.0
16352,1.4130592,-1.1636047,0.13272095,-1.6556762,-1.7236451,-1.3880494,124.0
16353,1.7552156,-1.0290527,0.23925781,-1.6556762,-1.7236451,-1.3880494,124.0
16354,1.7552156,-1.0290527,0.23925781,-2.0401247,-1.7778076,-1.3275146,124.0
16355,1.6203232,-0.5955429,-0.012008667,-2.0401247,-1.7778076,-1.3275146,124.0
16356,1.6203232,-0.5955429,-0.012008667,-2.986377,-1.992334,-1.3487549,124.0
16357,1.3844786,-0.7674408,0.116127014,-2.986377,-1.992334,-1.3487549,124.0
16358,1.3844786,-0.7674408,0.116127014,-3.1924074,-2.1144655,-1.364685,124.0
16359,1.4201441,-2.1213531,0.7489548,-3.1924074,-2.1144655,-1.364685,124.0
16360,1.4201441,-2.1213531,0.7489548,-1.8627685,-1.9233032,-1.4061035,124.0
16361,1.5094795,-2.8110352,1.2135086,-1.8627685,-1.9233032,-1.4061035,124.0
16362,1.5094795,-2.8110352,1.2135086,-1.2255615,-1.7916138,-1.5579712,124.0
16363,1.3839016,-1.5473251,0.9716606,-1.2255615,-1.7916138,-1.5579712,124.0
16364,1.3839016,-1.5473251,0.9716606,-1.901001,-1.9519776,-1.8043579,124.0
16365,1.3750296,0.21565247,-0.014995575,-1.901001,-1.9519776,-1.8043579,124.0
16366,1.3750296,0.21565247,-0.014995575,-3.5672975,-2.092163,-1.9636596,124.0
16367,1.78269,0.71492004,-1.4484215,-3.5672975,-2.092163,-1.9636596,124.0
16368,1.78269,0.71492004,-1.4484215,-5.0891604,-2.160132,-2.175,124.0
16369,2.4282036,-0.669899,-2.8780746,-5.0891604,-2.160132,-2.175,124.0
16370,2.4282036,-0.669899,-2.8780746,-5.2059817,-2.0687988,-2.529712,124.0
16371,3.0082731,-3.0285492,-3.702446,-5.2059817,-2.0687988,-2.529712,124.0
16372,3.0082731,-3.0285492,-3.702446,-4.0005984,-1.9084351,-3.0267334,124.0
16373,3.3388696,-4.350998,-3.5221748,-4.0005984,-1.9084351,-3.0267334,124.0
16374,3.3388696,-4.350998,-3.5221748,-3.3803833,-1.9572877,-3.5428712,124.0
16375,3.4304585,-3.4660645,-2.9711227,-3.3803833,-1.9572877,-3.5428712,124.0
16376,3.4304585,-3.4660645,-2.9711227,-4.952161,-1.988086,-3.533313,124.0
16377,3.5711002,-1.9043121,-2.7981148,-4.952161,-1.988086,-3.533313,124.0
16378,3.5711002,-1.9043121,-2.7981148,-5.7614136,-2.0422485,-3.364453,124.0
16379,4.1005692,-2.1312866,-2.7693367,-5.7614136,-2.0422485,-3.364453,124.0
16380,4.1005692,-2.1312866,-2.7693367,-4.525232,-1.7788696,-3.0108032,124.0
16381,4.506249,-3.5937653,-2.5641518,-4.525232,-1.7788696,-3.0108032,124.0
16382,4.506249,-3.5937653,-2.5641518,-2.8886719,-1.2340577,-3.0384157,124.0
16383,3.5928533,-3.802559,-2.0641403,-2.8886719,-1.2340577,-3.0384157,124.0
16384,3.5928533,-3.802559,-2.0641403,-2.7198122,-1.2414917,-2.9375246,124.0
16385,1.8231719,-2.5886078,-1.2764244,-2.7198122,-1.2414917,-2.9375246,124.0
16386,1.8231719,-2.5886078,-1.2764244,-2.8695557,-1.6068238,-2.9481447,124.0
16387,1.0745044,-2.0578003,-0.54836273,-2.8695557,-1.6068238,-2.9481447,124.0
16388,1.0745044,-2.0578003,-0.54836273,-1.9817139,-1.6907227,-2.6295412,124.0
16389,1.797958,-2.4019165,-0.08307648,-1.9817139,-1.6907227,-2.6295412,124.0
16390,1.797958,-2.4019165,-0.08307648,-1.983838,-1.3381348,-2.3311157,124.0
16391,2.2925167,-2.5403366,0.14371872,-1.983838,-1.3381348,-2.3311157,124.0
16392,2.2925167,-2.5403366,0.14371872,-2.70813,-1.2170655,-2.1909301,124.0
16393,1.5859056,-2.5935516,0.30562592,-2.70813,-1.2170655,-2.1909301,124.0
16394,1.5859056,-2.5935516,0.30562592,-3.0309815,-1.1342286,-2.0114503,124.0
16395,0.40832406,-2.9599762,0.6300125,-3.0309815,-1.1342286,-2.0114503,124.0
16396,0.40832406,-2.9599762,0.6300125,-2.0496826,-1.0036011,-1.3360108,124.0
16397,-0.663746,-3.4378128,0.8718071,-2.0496826,-1.0036011,-1.3360108,124.0
16398,-0.663746,-3.4378128,0.8718071,-0.63933104,-0.7147339,-0.8708496,124.0
16399,-1.5068147,-2.9906616,0.8226013,-0.63933104,-0.7147339,-0.8708496,124.0
16400,-1.5068147,-2.9906616,0.8226013,-0.1274414,-0.7593384,-0.42055663,124.0
16401,-1.6728591,-1.5017929,0.72585297,-0.1274414,-0.7593384,-0.42055663,124.0
16402,-1.6728591,-1.5017929,0.72585297,0.17629395,-0.5564942,0.12213135,124.0
16403,-1.1927428,0.2760849,1.025589,0.17629395,-0.5564942,0.12213135,124.0
16404,-1.1927428,0.2760849,1.025589,0.14230958,0.012744141,0.87191164,124.0
16405,-0.916975,1.3268433,1.4161987,0.14230958,0.012744141,0.87191164,124.0
16406,-0.916975,1.3268433,1.4161987,0.21134034,0.51188964,1.5123047,124.0
16407,-1.170604,0.87766266,1.1037254,0.21134034,0.51188964,1.5123047,124.0
16408,-1.170604,0.87766266,1.1037254,0.6839356,1.081128,2.1261475,124.0
16409,-1.0772302,-0.013008118,0.62516785,0.6839356,1.081128,2.1261475,124.0
16410,-1.0772302,-0.013008118,0.62516785,1.1182984,1.5781494,2.7314942,124.0
16411,0.2820146,-0.28690338,0.87429047,1.1182984,1.5781494,2.7314942,124.0
16412,0.2820146,-0.28690338,0.87429047,0.72641605,2.1229615,3.796692,124.0
16413,2.674977,-1.3878174,1.2917786,0.72641605,2.1229615,3.796692,124.0
16414,2.674977,-1.3878174,1.2917786,0.17416993,2.4606812,4.71958,124.0
16415,5.426615,-4.9184875,0.9189606,0.17416993,2.4606812,4.71958,124.0
16416,5.426615,-4.9184875,0.9189606,1.4677002,2.994873,4.776929,124.0
16417,8.631001,-8.456528,0.35528564,1.4677002,2.994873,4.776929,124.0
16418,8.631001,-8.456528,0.35528564,2.8387573,3.8816528,5.162439,124.0
16419,10.783878,-8.168968,0.17977142,2.8387573,3.8816528,5.162439,124.0
16420,10.783878,-8.168968,0.17977142,2.3831544,3.977234,5.968506,124.0
16421,9.3438635,-4.4988937,-0.9597702,2.3831544,3.977234,5.968506,124.0
16422,9.3438635,-4.4988937,-0.9597702,2.4659913,3.5099487,6.065149,124.0
16423,5.0584164,0.9484253,-3.7657394,2.4659913,3.5099487,6.065149,124.0
16424,5.0584164,0.9484253,-3.7657394,3.0012453,3.08302,4.945789,124.0
16425,0.28315878,6.943886,-7.5085754,3.0012453,3.08302,4.945789,124.0
16426,0.28315878,6.943886,-7.5085754,2.7569826,2.6943238,3.519507,124.0
16427,-3.4962878,11.652191,-10.87516,2.7569826,2.6943238,3.519507,124.0
16428,-3.4962878,11.652191,-10.87516,2.1420777,1.4730103,2.2950075,124.0
16429,-4.8997526,14.931213,-13.122417,2.1420777,1.4730103,2.2950075,124.0
16430,-4.8997526,14.931213,-13.122417,1.540979,-0.08920898,1.2160034,124.0
16431,-3.9393334,17.68924,-14.626352,1.540979,-0.08920898,1.2160034,124.0
16432,-3.9393334,17.68924,-14.626352,0.7062378,-1.5749635,-0.4704712,124.0
16433,-2.6018085,18.504066,-14.187641,0.7062378,-1.5749635,-0.4704712,124.0
16434,-2.6018085,18.504066,-14.187641,-0.80819094,-2.975757,-2.4266968,124.0
16435,-1.4893816,16.421638,-11.52128,-0.80819094,-2.975757,-2.4266968,124.0
16436,-1.4893816,16.421638,-11.52128,-3.2104614,-4.0303345,-4.609131,124.0
16437,0.19600701,12.235947,-8.278816,-3.2104614,-4.0303345,-4.609131,124.0
16438,0.19600701,12.235947,-8.278816,-4.89375,-4.348938,-6.067273,124.0
16439,2.362433,7.3757095,-4.715948,-4.89375,-4.348938,-6.067273,124.0
16440,2.362433,7.3757095,-4.715948,-6.4835815,-4.36593,-7.5583377,124.0
16441,5.596282,3.027069,-1.3099174,-6.4835815,-4.36593,-7.5583377,124.0
16442,5.596282,3.027069,-1.3099174,-7.310889,-4.1822023,-8.217847,124.0
16443,10.635632,-2.331993,1.1714382,-7.310889,-4.1822023,-8.217847,124.0
16444,10.635632,-2.331993,1.1714382,-5.8357544,-2.9237182,-8.476977,124.0
16445,17.51971,-9.778473,3.4766521,-5.8357544,-2.9237182,-8.476977,124.0
16446,17.51971,-9.778473,3.4766521,-5.054114,-1.2468017,-8.581055,124.0
16447,22.927794,-18.13263,5.323288,-5.054114,-1.2468017,-8.581055,124.0
16448,22.927794,-18.13263,5.323288,-8.464233,0.37807617,-6.761829,124.0
16449,19.420849,-25.602798,6.334448,-8.464233,0.37807617,-6.761829,124.0
16450,19.420849,-25.602798,6.334448,-9.231006,0.8793457,-3.2412598,124.0
16451,6.164938,-26.742577,6.846819,-9.231006,0.8793457,-3.2412598,124.0
16452,6.164938,-26.742577,6.846819,-5.0190673,0.32178956,-0.8326172,124.0
16453,-7.586567,-17.774773,5.7557144,-5.0190673,0.32178956,-0.8326172,124.0
16454,-7.586567,-17.774773,5.7557144,-1.2053833,0.3440918,-0.49489745,124.0
16455,-15.203445,-4.6579514,2.9612007,-1.2053833,0.3440918,-0.49489745,124.0
16456,-15.203445,-4.6579514,2.9612007,-0.30267334,1.2882203,0.09770508,124.0
16457,-18.39303,4.3005676,1.4917393,-0.30267334,1.2882203,0.09770508,124.0
16458,-18.39303,4.3005676,1.4917393,-1.0354614,1.9594116,0.11044922,124.0
16459,-20.271126,7.510124,2.4571724,-1.0354614,1.9594116,0.11044922,124.0
16460,-20.271126,7.510124,2.4571724,-1.5834595,2.6412232,1.5250489,124.0
16461,-20.797419,8.240692,2.822012,-1.5834595,2.6412232,1.5250489,124.0
16462,-20.797419,8.240692,2.822012,-1.9604737,2.0995972,2.2026124,124.0
16463,-19.258955,9.001633,1.6668015,-1.9604737,2.0995972,2.2026124,124.0
16464,-19.258955,9.001633,1.6668015,-1.9509156,2.446875,2.5828125,124.0
16465,-18.073473,8.916283,0.7093582,-1.9509156,2.446875,2.5828125,124.0
16466,-18.073473,8.916283,0.7093582,-2.0528686,2.165442,3.1435547,124.0
16467,-17.311478,6.463814,-0.11195755,-2.0528686,2.165442,3.1435547,124.0
16468,-17.311478,6.463814,-0.11195755,-2.5828125,0.86553955,1.6068238,124.0
16469,-14.269726,1.6331329,-1.2875633,-2.5828125,0.86553955,1.6068238,124.0
16470,-14.269726,1.6331329,-1.2875633,-2.1941164,-0.5150757,2.1548219,124.0
16471,-8.717954,-4.9606247,-1.9105206,-2.1941164,-0.5150757,2.1548219,124.0
16472,-8.717954,-4.9606247,-1.9105206,-1.2170655,-2.079419,3.3665771,124.0
16473,-1.5993385,-11.663246,-0.8402214,-1.2170655,-2.079419,3.3665771,124.0
16474,-1.5993385,-11.663246,-0.8402214,0.30479738,-3.3687012,4.7344484,124.0
16475,6.1242037,-18.26329,1.023941,0.30479738,-3.3687012,4.7344484,124.0
16476,6.1242037,-18.26329,1.023941,2.6157348,-4.803479,6.890332,124.0
16477,17.878635,-25.064293,1.0157719,2.6157348,-4.803479,6.890332,124.0
16478,17.878635,-25.064293,1.0157719,4.6526732,-2.9513307,9.322339,124.0
16479,31.351028,-24.832619,-0.23828697,4.6526732,-2.9513307,9.322339,124.0
16480,31.351028,-24.832619,-0.23828697,5.691321,-0.99722904,8.573621,124.0
16481,34.98998,-12.186554,-1.2972221,5.691321,-0.99722904,8.573621,124.0
16482,34.98998,-12.186554,-1.2972221,4.6887817,-0.60216063,8.82107,124.0
16483,34.98998,-12.186554,-1.2972221,4.6887817,-0.60216063,8.82107,0.0
16484,27.292265,5.041374,-3.165842,4.6887817,-0.60216063,8.82107,0.0
16485,27.292265,5.041374,-3.165842,5.356787,-0.75721437,6.998657,0.0
16486,18.863354,11.563095,-4.132038,5.356787,-0.75721437,6.998657,0.0
16487,18.863354,11.563095,-4.132038,5.4513063,-0.5766724,5.888855,0.0
16488,2.9561863,33.922897,-9.98727,5.4513063,-0.5766724,5.888855,0.0
16489,2.9561863,33.922897,-9.98727,2.616797,-0.43754885,2.3640382,0.0
16490,-2.4990158,33.574257,-8.952988,2.616797,-0.43754885,2.3640382,0.0
16491,-2.4990158,33.574257,-8.952988,1.6131958,-0.8729736,1.0705079,0.0
16492,-12.547516,33.99164,-4.445751,1.6131958,-0.8729736,1.0705079,0.0
16493,-12.547516,33.99164,-4.445751,0.8931519,-2.2111084,-3.528003,0.0
16494,-11.464185,26.367126,-2.1728497,0.8931519,-2.2111084,-3.528003,0.0
16495,-11.464185,26.367126,-2.1728497,0.26868898,-2.347046,-4.5868287,0.0
16496,-9.132811,15.796577,0.36839676,0.26868898,-2.347046,-4.5868287,0.0
16497,-9.132811,15.796577,0.36839676,-2.9311523,-2.5201538,-7.325757,0.0
16498,-6.29171,10.26186,0.76623917,-2.9311523,-2.5201538,-7.325757,0.0
16499,-6.29171,10.26186,0.76623917,-3.3665771,-2.446875,-7.7463136,0.0
16500,-0.12907124,-1.106636,3.4425812,-3.3665771,-2.446875,-7.7463136,0.0
16501,-0.12907124,-1.106636,3.4425812,-2.716626,-2.084729,-7.956592,0.0
16502,2.1891012,-3.309967,3.6735458,-2.716626,-2.084729,-7.956592,0.0
16503,2.1891012,-3.309967,3.6735458,-2.6890137,-1.9094971,-7.78136,0.0
16504,10.514074,-9.76194,4.7580986,-2.6890137,-1.9094971,-7.78136,0.0
16505,10.514074,-9.76194,4.7580986,-1.8468384,-0.20284425,-7.5392213,0.0
16506,12.369999,-10.359833,4.097908,-1.8468384,-0.20284425,-7.5392213,0.0
16507,12.369999,-10.359833,4.097908,-2.0741088,0.5501221,-7.354431,0.0
16508,16.986942,-18.572624,4.847456,-2.0741088,0.5501221,-7.354431,0.0
16509,16.986942,-18.572624,4.847456,-4.9372926,0.815625,-4.4827514,0.0
16510,12.901016,-17.502884,4.231407,-4.9372926,0.815625,-4.4827514,0.0
16511,12.901016,-17.502884,4.231407,-4.5932007,0.8867798,-2.88761,0.0
16512,0.040319443,-17.216736,3.7696342,-4.5932007,0.8867798,-2.88761,0.0
16513,0.040319443,-17.216736,3.7696342,-2.0603027,1.3699951,-0.9260742,0.0
16514,-4.3858833,-12.193016,3.2820396,-2.0603027,1.3699951,-0.9260742,0.0
16515,-4.3858833,-12.193016,3.2820396,-1.4007934,1.5197388,-0.75296634,0.0
16516,-12.555582,-5.892151,3.8771706,-1.4007934,1.5197388,-0.75296634,0.0
16517,-12.555582,-5.892151,3.8771706,-0.40356445,1.9817139,-1.1172364,0.0
16518,-19.397615,-2.8006897,5.0189743,-0.40356445,1.9817139,-1.1172364,0.0
16519,-19.397615,-2.8006897,5.0189743,0.36320803,4.3733644,0.24957275,0.0
16520,-26.881313,-1.2341003,4.6182785,0.36320803,4.3733644,0.24957275,0.0
16521,-26.881313,-1.2341003,4.6182785,-1.0736939,2.889734,3.09364,0.0
16522,-27.832724,0.27591705,1.9787407,-1.0736939,2.889734,3.09364,0.0
16523,-27.832724,0.27591705,1.9787407,-1.713025,1.4666382,1.5006226,0.0
16524,-18.120184,-0.83657837,-2.1269073,-1.713025,1.4666382,1.5006226,0.0
16525,-18.120184,-0.83657837,-2.1269073,0.71154785,-0.45029297,2.266333,0.0
16526,-12.238604,-1.1933975,-2.435192,0.71154785,-0.45029297,2.266333,0.0
16527,-12.238604,-1.1933975,-2.435192,1.4623902,-1.0120972,2.9184082,0.0
16528,-4.958436,-0.81764984,-2.1485558,1.4623902,-1.0120972,2.9184082,0.0
16529,-4.958436,-0.81764984,-2.1485558,2.636975,-2.0464966,3.2232056,0.0
16530,1.0282955,-1.2083817,-0.4422226,2.636975,-2.0464966,3.2232056,0.0
16531,1.0282955,-1.2083817,-0.4422226,3.352771,-3.1074464,4.2990236,0.0
16532,9.58593,-2.9026413,0.8774605,3.352771,-3.1074464,4.2990236,0.0
16533,9.58593,-2.9026413,0.8774605,2.8281372,-3.9156373,4.162024,0.0
16534,24.483074,-5.527725,-0.4715309,2.8281372,-3.9156373,4.162024,0.0
16535,24.483074,-5.527725,-0.4715309,3.2125854,-0.45454103,3.1382446,0.0
16536,31.230467,-4.933937,-3.4825592,3.2125854,-0.45454103,3.1382446,0.0
16537,31.230467,-4.933937,-3.4825592,3.7478395,0.039294433,5.251648,0.0
16538,21.782959,1.8072891,-5.146044,3.7478395,0.039294433,5.251648,0.0
16539,21.782959,1.8072891,-5.146044,2.6560915,-0.5586182,5.357849,0.0
16540,7.928295,10.6423645,-5.419924,2.6560915,-0.5586182,5.357849,0.0
16541,7.928295,10.6423645,-5.419924,2.904602,-0.8262451,3.8582885,0.0
16542,-3.17659,16.579079,-4.722706,2.904602,-0.8262451,3.8582885,0.0
16543,-3.17659,16.579079,-4.722706,3.265686,-1.174585,2.439441,0.0
16544,-9.519629,17.750763,-2.8069496,3.265686,-1.174585,2.439441,0.0
16545,-9.519629,17.750763,-2.8069496,2.998059,-1.5346069,1.5707153,0.0
16546,-11.684428,16.273178,-1.0598164,2.998059,-1.5346069,1.5707153,0.0
16547,-11.684428,16.273178,-1.0598164,2.0358765,-1.2213135,1.0120972,0.0
16548,-11.908993,13.856186,0.034873962,2.0358765,-1.2213135,1.0120972,0.0
16549,-11.908993,13.856186,0.034873962,0.5894165,-1.002539,-0.26762697,0.0
16550,-10.679807,10.183762,0.988678,0.5894165,-1.002539,-0.26762697,0.0
16551,-10.679807,10.183762,0.988678,-0.48109132,-1.1522827,-1.7905518,0.0
16552,-7.848167,5.8876953,2.0510254,-0.48109132,-1.1522827,-1.7905518,0.0
16553,-7.848167,5.8876953,2.0510254,-1.0662597,-1.273352,-2.3162477,0.0
16554,-4.1764584,2.085617,3.0504875,-1.0662597,-1.273352,-2.3162477,0.0
16555,-4.1764584,2.085617,3.0504875,-1.5091187,-1.450708,-2.799463,0.0
16556,-0.49982142,-0.89097595,3.495041,-1.5091187,-1.450708,-2.799463,0.0
16557,-0.49982142,-0.89097595,3.495041,-1.5813354,-1.538855,-2.9226563,0.0
16558,3.7960534,-3.2133713,2.7366333,-1.5813354,-1.538855,-2.9226563,0.0
16559,3.7960534,-3.2133713,2.7366333,-1.1533448,-1.5069946,-2.8281372,0.0
16560,11.81863,-6.730255,2.3423843,-1.1533448,-1.5069946,-2.8281372,0.0
16561,11.81863,-6.730255,2.3423843,-2.4543092,0.3695801,-3.0957642,0.0
16562,18.661545,-13.183754,4.187641,-2.4543092,0.3695801,-3.0957642,0.0
16563,18.661545,-13.183754,4.187641,-2.080481,0.26975098,-2.4861696,0.0
16564,16.051428,-17.682442,5.843132,-2.080481,0.26975098,-2.4861696,0.0
16565,16.051428,-17.682442,5.843132,-1.4602661,0.5671143,-0.9388184,0.0
16566,6.455352,-14.76413,5.973419,-1.4602661,0.5671143,-0.9388184,0.0
16567,6.455352,-14.76413,5.973419,-0.727478,1.0513916,0.8814697,0.0
16568,-3.7593393,-8.032127,6.2773323,-0.727478,1.0513916,0.8814697,0.0
16569,-3.7593393,-8.032127,6.2773323,0.9611206,1.9647217,0.7455322,0.0
16570,-11.291883,-2.123993,6.311428,0.9611206,1.9647217,0.7455322,0.0
16571,-11.291883,-2.123993,6.311428,1.8956909,3.7743897,-0.5777344,0.0
16572,-17.905663,2.0785217,5.361702,1.8956909,3.7743897,-0.5777344,0.0
16573,-17.905663,2.0785217,5.361702,1.906311,4.4636354,0.8581055,0.0
16574,-24.46794,2.4773254,3.5334892,1.906311,4.4636354,0.8581055,0.0
16575,-24.46794,2.4773254,3.5334892,1.449646,1.4634522,2.2132325,0.0
16576,-23.207396,0.27280426,0.46325302,1.449646,1.4634522,2.2132325,0.0
16577,-23.207396,0.27280426,0.46325302,2.4256349,0.9547486,0.72323,0.0
16578,-13.895568,-1.1169815,-2.3361244,2.4256349,0.9547486,0.72323,0.0
16579,-13.895568,-1.1169815,-2.3361244,2.5137818,1.0683838,2.6093628,0.0
16580,-4.2512445,-3.40168,-2.796608,2.5137818,1.0683838,2.6093628,0.0
16581,-4.2512445,-3.40168,-2.796608,2.7612305,-0.04460449,1.8001099,0.0
16582,2.9380674,-5.4491425,-2.067768,2.7612305,-0.04460449,1.8001099,0.0
16583,2.9380674,-5.4491425,-2.067768,2.35448,-0.9674927,2.0326905,0.0
16584,8.649075,-3.514351,-3.4322548,2.35448,-0.9674927,2.0326905,0.0
16585,8.649075,-3.514351,-3.4322548,0.7848267,-1.6684204,1.9944581,0.0
16586,15.597129,-1.9113922,-6.680458,0.7848267,-1.6684204,1.9944581,0.0
16587,15.597129,-1.9113922,-6.680458,0.0031860352,-0.68499756,1.7703736,0.0
16588,20.176592,-4.83374,-7.8073654,0.0031860352,-0.68499756,1.7703736,0.0
16589,20.176592,-4.83374,-7.8073654,2.7399902,0.020178223,0.91864014,0.0
16590,15.945253,-4.1420135,-6.1060104,2.7399902,0.020178223,0.91864014,0.0
16591,15.945253,-4.1420135,-6.1060104,1.9328613,-0.65419924,2.1261475,0.0
16592,7.253359,2.445671,-3.2903996,1.9328613,-0.65419924,2.1261475,0.0
16593,7.253359,2.445671,-3.2903996,0.9451904,-1.1586548,1.9307374,0.0
16594,0.38685465,9.205696,-0.7481041,0.9451904,-1.1586548,1.9307374,0.0
16595,0.38685465,9.205696,-0.7481041,1.0991821,-0.81987303,0.7476563,0.0
16596,-4.4347425,16.015518,0.84065247,1.0991821,-0.81987303,0.7476563,0.0
16597,-4.4347425,16.015518,0.84065247,0.38975832,-0.0541626,0.0637207,0.0
16598,-8.864799,20.947289,1.614111,0.38975832,-0.0541626,0.0637207,0.0
16599,-8.864799,20.947289,1.614111,-1.3721192,-0.45029297,-0.07646485,0.0
16600,-8.864799,20.947289,1.614111,-1.3721192,-0.45029297,-0.07646485,0.0
16601,-9.279082,19.503326,2.2780914,-1.3721192,-0.45029297,-0.07646485,0.0
16602,-9.279082,19.503326,2.2780914,-2.2196045,-1.898877,-3.2147095,0.0
16603,-2.5610101,12.945084,2.7347908,-2.2196045,-1.898877,-3.2147095,0.0
16604,-2.5610101,12.945084,2.7347908,-1.6854126,-2.0964112,-3.993164,0.0
16605,7.015926,4.366783,2.14822,-1.6854126,-2.0964112,-3.993164,0.0
16606,7.015926,4.366783,2.14822,-1.2531738,-2.1420777,-3.3379028,0.0
16607,15.599752,-6.5606766,0.8358879,-1.2531738,-2.1420777,-3.3379028,0.0
16608,15.599752,-6.5606766,0.8358879,-1.5972656,-0.4067505,-1.9657837,0.0
16609,19.309465,-16.581955,0.7474327,-1.5972656,-0.4067505,-1.9657837,0.0
16610,19.309465,-16.581955,0.7474327,-2.8323853,0.70198977,-1.3423828,0.0
16611,14.6308975,-18.321068,2.4426842,-2.8323853,0.70198977,-1.3423828,0.0
16612,14.6308975,-18.321068,2.4426842,-2.5658205,1.713025,-0.41099855,0.0
16613,5.106121,-11.992828,4.2564774,-2.5658205,1.713025,-0.41099855,0.0
16614,5.106121,-11.992828,4.2564774,-1.5069946,2.7867188,-0.7720825,0.0
16615,-3.2810707,-5.3218155,5.325165,-1.5069946,2.7867188,-0.7720825,0.0
16616,-3.2810707,-5.3218155,5.325165,0.15611573,3.4823365,-0.3971924,0.0
16617,-7.2192173,-2.0171432,5.849571,0.15611573,3.4823365,-0.3971924,0.0
16618,-7.2192173,-2.0171432,5.849571,1.0492676,4.3829226,-1.1023682,0.0
16619,-8.581466,-0.55843353,5.021538,1.0492676,4.3829226,-1.1023682,0.0
16620,-8.581466,-0.55843353,5.021538,1.6779785,5.900537,-1.9360474,0.0
16621,-13.230981,2.977501,1.2819519,1.6779785,5.900537,-1.9360474,0.0
16622,-13.230981,2.977501,1.2819519,2.2334106,8.29856,-1.3222046,0.0
16623,-25.198078,5.2724533,-2.9577637,2.2334106,8.29856,-1.3222046,0.0
16624,-25.198078,5.2724533,-2.9577637,0.014868164,2.4596193,1.3944215,0.0
16625,-31.305058,0.37350464,-5.994957,0.014868164,2.4596193,1.3944215,0.0
16626,-31.305058,0.37350464,-5.994957,2.4936035,0.6159668,-1.7724975,0.0
16627,-25.95441,-6.944412,-8.131523,2.4936035,0.6159668,-1.7724975,0.0
16628,-25.95441,-6.944412,-8.131523,2.250403,-1.080066,1.9817139,0.0
16629,-17.149773,-13.096741,-7.8808517,2.250403,-1.080066,1.9817139,0.0
16630,-17.149773,-13.096741,-7.8808517,1.9392334,-2.6900756,2.8217652,0.0
16631,-7.540888,-18.50293,-4.0229416,1.9392334,-2.6900756,2.8217652,0.0
16632,-7.540888,-18.50293,-4.0229416,3.352771,-3.347461,4.2055664,0.0
16633,1.7628098,-20.091652,2.083416,3.352771,-3.347461,4.2055664,0.0
16634,1.7628098,-20.091652,2.083416,3.717041,-3.3952515,5.8134522,0.0
16635,10.264691,-18.945602,7.46262,3.717041,-3.3952515,5.8134522,0.0
16636,10.264691,-18.945602,7.46262,2.909912,-5.244214,7.524353,0.0
16637,23.972033,-17.96814,8.610649,2.909912,-5.244214,7.524353,0.0
16638,23.972033,-17.96814,8.610649,1.5664673,-4.12273,7.4489503,0.0
16639,35.60282,-13.236359,5.347393,1.5664673,-4.12273,7.4489503,0.0
16640,35.60282,-13.236359,5.347393,4.056885,1.2234375,7.303455,0.0
16641,30.5738,-1.6532288,1.39365,4.056885,1.2234375,7.303455,0.0
16642,30.5738,-1.6532288,1.39365,1.7109009,1.0736939,7.959778,0.0
16643,16.015594,8.702141,-1.1177444,1.7109009,1.0736939,7.959778,0.0
16644,16.015594,8.702141,-1.1177444,1.8808228,-0.008496094,7.179199,0.0
16645,4.8608894,14.270195,-3.606758,1.8808228,-0.008496094,7.179199,0.0
16646,4.8608894,14.270195,-3.606758,2.2780151,-0.68712157,5.3865237,0.0
16647,-0.19552898,19.45076,-6.6514816,2.2780151,-0.68712157,5.3865237,0.0
16648,-0.19552898,19.45076,-6.6514816,1.0205933,-1.1607789,3.536499,0.0
16649,-3.8993187,24.546951,-8.653217,1.0205933,-1.1607789,3.536499,0.0
16650,-3.8993187,24.546951,-8.653217,0.46516114,-1.9201173,1.9424194,0.0
16651,-7.662546,26.631165,-7.384268,0.46516114,-1.9201173,1.9424194,0.0
16652,-7.662546,26.631165,-7.384268,0.6531372,-3.1892211,-0.053100586,0.0
16653,-8.584444,25.930939,-3.7312908,0.6531372,-3.1892211,-0.053100586,0.0
16654,-8.584444,25.930939,-3.7312908,-0.21983643,-4.3022094,-1.8585205,0.0
16655,-5.050307,23.396461,-0.75445557,-0.21983643,-4.3022094,-1.8585205,0.0
16656,-5.050307,23.396461,-0.75445557,-2.2015502,-4.445581,-3.9984741,0.0
16657,1.4213266,17.965805,2.1138306,-2.2015502,-4.445581,-3.9984741,0.0
16658,1.4213266,17.965805,2.1138306,-3.6087158,-3.970862,-5.7614136,0.0
16659,8.182056,9.212364,5.670326,-3.6087158,-3.970862,-5.7614136,0.0
16660,8.182056,9.212364,5.670326,-3.8593507,-2.6794555,-6.426233,0.0
16661,12.012577,-0.46208954,9.279743,-3.8593507,-2.6794555,-6.426233,0.0
16662,12.012577,-0.46208954,9.279743,-3.3039186,-1.6896607,-6.9965334,0.0
16663,13.197353,-8.425667,10.996059,-3.3039186,-1.6896607,-6.9965334,0.0
16664,13.197353,-8.425667,10.996059,-2.0964112,-0.727478,-6.756519,0.0
16665,12.883541,-14.119415,11.113449,-2.0964112,-0.727478,-6.756519,0.0
16666,12.883541,-14.119415,11.113449,-1.8340943,-0.9345703,-6.6428833,0.0
16667,9.347288,-18.266129,11.372948,-1.8340943,-0.9345703,-6.6428833,0.0
16668,9.347288,-18.266129,11.372948,-0.634021,-0.70942384,-5.523523,0.0
16669,3.5084343,-19.59729,9.346527,-0.634021,-0.70942384,-5.523523,0.0
16670,3.5084343,-19.59729,9.346527,0.059472658,1.2818482,-3.0352294,0.0
16671,-3.0621243,-15.976135,5.220093,0.059472658,1.2818482,-3.0352294,0.0
16672,-3.0621243,-15.976135,5.220093,-2.069861,2.1994264,-1.0959961,0.0
16673,-9.185492,-11.256454,1.711647,-2.069861,2.1994264,-1.0959961,0.0
16674,-9.185492,-11.256454,1.711647,-1.2627319,1.9286133,0.68287355,0.0
16675,-13.229142,-9.182045,-1.0313797,-1.2627319,1.9286133,0.68287355,0.0
16676,-13.229142,-9.182045,-1.0313797,1.175647,1.8043579,1.2160034,0.0
16677,-15.764906,-7.249466,-2.976799,1.175647,1.8043579,1.2160034,0.0
16678,-15.764906,-7.249466,-2.976799,1.7703736,2.182434,2.2015502,0.0
16679,-18.62434,-4.6466904,-3.6427803,1.7703736,2.182434,2.2015502,0.0
16680,-18.62434,-4.6466904,-3.6427803,1.2011353,2.069861,3.6076539,0.0
16681,-20.950632,-3.5630035,-3.5731354,1.2011353,2.069861,3.6076539,0.0
16682,-20.950632,-3.5630035,-3.5731354,1.2298096,1.718335,4.6271853,0.0
16683,-20.09206,-3.3039246,-4.0462265,1.2298096,1.718335,4.6271853,0.0
16684,-20.09206,-3.3039246,-4.0462265,0.16779785,1.3912354,4.062195,0.0
16685,-15.9692545,-3.2345428,-4.33321,0.16779785,1.3912354,4.062195,0.0
16686,-15.9692545,-3.2345428,-4.33321,-1.1236085,0.32391357,4.4678836,0.0
16687,-10.580262,-4.347519,-3.4469643,-1.1236085,0.32391357,4.4678836,0.0
16688,-10.580262,-4.347519,-3.4469643,-0.23045655,-0.93775636,5.4056396,0.0
16689,-4.984461,-5.770935,-1.8919945,-0.23045655,-0.93775636,5.4056396,0.0
16690,-4.984461,-5.770935,-1.8919945,1.5261109,-1.9742798,6.390125,0.0
16691,1.0120659,-6.0884247,0.09863281,1.5261109,-1.9742798,6.390125,0.0
16692,1.0120659,-6.0884247,0.09863281,2.608301,-2.5456421,7.4723144,0.0
16693,8.50814,-7.3025436,2.9069443,2.608301,-2.5456421,7.4723144,0.0
16694,8.50814,-7.3025436,2.9069443,2.890796,-4.3776126,8.013941,0.0
16695,23.299444,-10.98732,3.5471,2.890796,-4.3776126,8.013941,0.0
16696,23.299444,-10.98732,3.5471,3.3973756,-2.4351928,5.678577,0.0
16697,34.251385,-8.2584,-0.22444153,3.3973756,-2.4351928,5.678577,0.0
16698,34.251385,-8.2584,-0.22444153,4.1163573,1.1129884,6.0141726,0.0
16699,27.925888,5.0656357,-5.2814217,4.1163573,1.1129884,6.0141726,0.0
16700,27.925888,5.0656357,-5.2814217,1.7332032,1.2945923,7.4818726,0.0
16701,14.112988,18.51152,-8.400406,1.7332032,1.2945923,7.4818726,0.0
16702,14.112988,18.51152,-8.400406,1.634436,0.8782837,6.8043094,0.0
16703,2.372056,26.722626,-8.449097,1.634436,0.8782837,6.8043094,0.0
16704,2.372056,26.722626,-8.449097,1.8171021,0.4609131,5.059424,0.0
16705,-7.22019,30.814087,-6.5520897,1.8171021,0.4609131,5.059424,0.0
16706,-7.22019,30.814087,-6.5520897,1.2287476,-0.2824951,3.706421,0.0
16707,-14.869317,29.616821,-4.0146065,1.2287476,-0.2824951,3.706421,0.0
16708,-14.869317,29.616821,-4.0146065,0.2803711,-2.005078,1.8712647,0.0
16709,-14.869317,29.616821,-4.0146065,0.2803711,-2.005078,1.8712647,0.0
16710,-17.45185,24.30626,-1.4529572,0.2803711,-2.005078,1.8712647,0.0
16711,-17.45185,24.30626,-1.4529572,1.634436,-3.183911,-0.07646485,0.0
16712,-14.202545,18.874405,0.9227295,1.634436,-3.183911,-0.07646485,0.0
16713,-14.202545,18.874405,0.9227295,0.5766724,-3.9591796,-1.7087768,0.0
16714,-7.9420657,14.066528,2.2857437,0.5766724,-3.9591796,-1.7087768,0.0
16715,-7.9420657,14.066528,2.2857437,-0.41843262,-4.1237917,-3.531189,0.0
16716,-2.4250271,8.835144,2.5179367,-0.41843262,-4.1237917,-3.531189,0.0
16717,-2.4250271,8.835144,2.5179367,-1.1066163,-3.6830566,-4.5634646,0.0
16718,1.0932058,4.2979584,2.9233208,-1.1066163,-3.6830566,-4.5634646,0.0
16719,1.0932058,4.2979584,2.9233208,-1.7438233,-3.8232422,-5.4799805,0.0
16720,4.113847,1.1539192,4.3226547,-1.7438233,-3.8232422,-5.4799805,0.0
16721,4.113847,1.1539192,4.3226547,-2.805835,-3.3984375,-5.609546,0.0
16722,7.5900035,-1.8389015,6.1228104,-2.805835,-3.3984375,-5.609546,0.0
16723,7.5900035,-1.8389015,6.1228104,-3.534375,-2.3098755,-6.0279784,0.0
16724,9.283038,-5.1837463,6.199871,-3.534375,-2.3098755,-6.0279784,0.0
16725,9.283038,-5.1837463,6.199871,-2.9438965,-1.2106934,-6.0885134,0.0
16726,9.343813,-7.3397675,4.6784897,-2.9438965,-1.2106934,-6.0885134,0.0
16727,9.343813,-7.3397675,4.6784897,-4.0218387,-0.7827026,-5.5564456,0.0
16728,11.4187765,-10.129189,3.6124687,-4.0218387,-0.7827026,-5.5564456,0.0
16729,11.4187765,-10.129189,3.6124687,-6.260559,0.3345337,-5.0211916,0.0
16730,13.45957,-15.681244,2.8609085,-6.260559,0.3345337,-5.0211916,0.0
16731,13.45957,-15.681244,2.8609085,-7.1037965,0.24957275,-4.997827,0.0
16732,12.077826,-22.29464,1.3950615,-7.1037965,0.24957275,-4.997827,0.0
16733,12.077826,-22.29464,1.3950615,-4.7801147,0.8857178,-3.4940186,0.0
16734,6.278679,-25.174408,0.30369568,-4.7801147,0.8857178,-3.4940186,0.0
16735,6.278679,-25.174408,0.30369568,-3.9241333,1.5462891,-1.1363525,0.0
16736,-1.9353943,-20.9133,-0.16517258,-3.9241333,1.5462891,-1.1363525,0.0
16737,-1.9353943,-20.9133,-0.16517258,-4.3276978,1.8245362,0.5543701,0.0
16738,-9.26012,-13.376854,-0.9328346,-4.3276978,1.8245362,0.5543701,0.0
16739,-9.26012,-13.376854,-0.9328346,-2.6879518,2.069861,0.9781128,0.0
16740,-15.368508,-6.3231125,-1.5781898,-2.6879518,2.069861,0.9781128,0.0
16741,-15.368508,-6.3231125,-1.5781898,-0.52888185,2.252527,1.2903442,0.0
16742,-19.387238,0.38256073,-1.8595009,-0.52888185,2.252527,1.2903442,0.0
16743,-19.387238,0.38256073,-1.8595009,1.1182984,2.6645875,1.6195679,0.0
16744,-22.112,6.628113,-2.19944,1.1182984,2.6645875,1.6195679,0.0
16745,-22.112,6.628113,-2.19944,0.4715332,2.5775025,1.629126,0.0
16746,-24.581238,9.5935135,-3.2815971,0.4715332,2.5775025,1.629126,0.0
16747,-24.581238,9.5935135,-3.2815971,-1.1289185,1.0078491,1.1968873,0.0
16748,-24.161427,7.2097397,-5.2694435,-1.1289185,1.0078491,1.1968873,0.0
16749,-24.161427,7.2097397,-5.2694435,-1.2574219,0.081774905,0.26762697,0.0
16750,-19.935745,1.2981644,-6.4583893,-1.2574219,0.081774905,0.26762697,0.0
16751,-19.935745,1.2981644,-6.4583893,-1.9997681,-0.813501,0.16354981,0.0
16752,-13.357874,-6.273903,-5.541588,-1.9997681,-0.813501,0.16354981,0.0
16753,-13.357874,-6.273903,-5.541588,-2.3151855,-2.1431396,1.2255615,0.0
16754,-5.8852863,-13.53244,-3.5818558,-2.3151855,-2.1431396,1.2255615,0.0
16755,-5.8852863,-13.53244,-3.5818558,-1.4241577,-2.9672608,3.4048097,0.0
16756,0.73516846,-17.259506,-1.0151787,-1.4241577,-2.9672608,3.4048097,0.0
16757,0.73516846,-17.259506,-1.0151787,-0.82836914,-3.4101198,5.604236,0.0
16758,6.0480347,-18.157791,2.5389328,-0.82836914,-3.4101198,5.604236,0.0
16759,6.0480347,-18.157791,2.5389328,-0.33665773,-4.1885743,7.76012,0.0
16760,13.558423,-21.225502,5.4028397,-0.33665773,-4.1885743,7.76012,0.0
16761,13.558423,-21.225502,5.4028397,0.91120607,-3.9326293,11.269007,0.0
16762,24.445812,-23.393288,6.0308037,0.91120607,-3.9326293,11.269007,0.0
16763,24.445812,-23.393288,6.0308037,3.2295778,-1.7416992,11.803199,0.0
16764,31.276913,-16.500565,5.5111923,3.2295778,-1.7416992,11.803199,0.0
16765,31.276913,-16.500565,5.5111923,3.5662353,-1.8850708,11.826563,0.0
16766,29.153599,-1.9483261,3.9590988,3.5662353,-1.8850708,11.826563,0.0
16767,29.153599,-1.9483261,3.9590988,5.093408,-2.2323487,10.951465,0.0
16768,20.942043,13.652519,0.6132393,5.093408,-2.2323487,10.951465,0.0
16769,20.942043,13.652519,0.6132393,5.4003296,-1.7055908,9.537928,0.0
16770,11.762803,27.565826,-3.5778923,5.4003296,-1.7055908,9.537928,0.0
16771,11.762803,27.565826,-3.5778923,3.003369,-0.85385746,7.1154785,0.0
16772,4.0805426,38.524292,-5.9649773,3.003369,-0.85385746,7.1154785,0.0
16773,4.0805426,38.524292,-5.9649773,0.97386473,-0.98129886,4.4593873,0.0
16774,-2.8300123,42.818596,-6.1708336,0.97386473,-0.98129886,4.4593873,0.0
16775,-2.8300123,42.818596,-6.1708336,1.9445435,-0.8262451,2.613611,0.0
16776,-8.214963,40.660583,-5.586899,1.9445435,-0.8262451,2.613611,0.0
16777,-8.214963,40.660583,-5.586899,1.448584,-1.2011353,-0.07115479,0.0
16778,-9.698716,35.37606,-5.018017,1.448584,-1.2011353,-0.07115479,0.0
16779,-9.698716,35.37606,-5.018017,-1.0152832,-1.991272,-3.3219726,0.0
16780,-6.9927015,26.715218,-4.64748,-1.0152832,-1.991272,-3.3219726,0.0
16781,-6.9927015,26.715218,-4.64748,-2.7484863,-2.6709595,-7.0645022,0.0
16782,-2.4421835,15.423885,-3.5268211,-2.7484863,-2.6709595,-7.0645022,0.0
16783,-2.4421835,15.423885,-3.5268211,-2.5127199,-3.888025,-9.458277,0.0
16784,2.1773205,4.475315,-1.9866295,-2.5127199,-3.888025,-9.458277,0.0
16785,2.1773205,4.475315,-1.9866295,-1.4687623,-5.0976562,-10.753931,0.0
16786,6.9950304,-3.8827362,-0.40063095,-1.4687623,-5.0976562,-10.753931,0.0
16787,6.9950304,-3.8827362,-0.40063095,-1.4783204,-5.0796022,-10.96421,0.0
16788,12.156071,-10.08403,2.9338646,-1.4783204,-5.0796022,-10.96421,0.0
16789,12.156071,-10.08403,2.9338646,-1.9158691,-3.911389,-10.711451,0.0
16790,17.02753,-14.1875,7.397606,-1.9158691,-3.911389,-10.711451,0.0
16791,17.02753,-14.1875,7.397606,-3.1191285,-2.704944,-10.836768,0.0
16792,21.76658,-16.942001,8.011955,-3.1191285,-2.704944,-10.836768,0.0
16793,21.76658,-16.942001,8.011955,-5.593616,-1.3731812,-10.09867,0.0
16794,22.152485,-23.454422,4.856365,-5.593616,-1.3731812,-10.09867,0.0
16795,22.152485,-23.454422,4.856365,-7.057068,0.0637207,-7.3119507,0.0
16796,14.324856,-31.235611,2.5860062,-7.057068,0.0637207,-7.3119507,0.0
16797,14.324856,-31.235611,2.5860062,-6.4549074,0.7954468,-4.370178,0.0
16798,1.9601059,-30.015541,1.6668892,-6.4549074,0.7954468,-4.370178,0.0
16799,1.9601059,-30.015541,1.6668892,-5.5245852,1.1480347,-1.9339234,0.0
16800,-9.439032,-20.377739,0.583889,-5.5245852,1.1480347,-1.9339234,0.0
16801,-9.439032,-20.377739,0.583889,-5.8495607,1.4772583,-1.5632813,0.0
16802,-18.031414,-10.989952,0.23117447,-5.8495607,1.4772583,-1.5632813,0.0
16803,-18.031414,-10.989952,0.23117447,-5.1029663,1.4942505,-1.6163819,0.0
16804,-25.414524,-5.5580215,1.4165802,-5.1029663,1.4942505,-1.6163819,0.0
16805,-25.414524,-5.5580215,1.4165802,-2.3289917,3.3655152,-0.1901001,0.0
16806,-31.780045,-1.0474243,2.5389175,-2.3289917,3.3655152,-0.1901001,0.0
16807,-31.780045,-1.0474243,2.5389175,-1.4177856,3.981482,2.0029542,0.0
16808,-32.92799,4.435364,1.5073166,-1.4177856,3.981482,2.0029542,0.0
16809,-32.92799,4.435364,1.5073166,-2.1845582,2.3735962,-0.06478272,0.0
16810,-27.517406,6.805229,-1.5339546,-2.1845582,2.3735962,-0.06478272,0.0
16811,-27.517406,6.805229,-1.5339546,-2.1303957,1.3901733,0.5150757,0.0
16812,-19.604525,3.141098,-4.152275,-2.1303957,1.3901733,0.5150757,0.0
16813,-19.604525,3.141098,-4.152275,-2.1250856,-0.03717041,-0.5564942,0.0
16814,-12.639797,-4.043419,-4.9107857,-2.1250856,-0.03717041,-0.5564942,0.0
16815,-12.639797,-4.043419,-4.9107857,-1.6386842,-1.1469727,0.68287355,0.0
16816,-7.665537,-10.60038,-3.0337067,-1.6386842,-1.1469727,0.68287355,0.0
16817,-7.665537,-10.60038,-3.0337067,-0.64995116,-2.0146363,2.5987427,0.0
16818,-3.6843338,-13.63414,0.32642746,-0.64995116,-2.0146363,2.5987427,0.0
16819,-3.6843338,-13.63414,0.32642746,0.63614506,-2.443689,4.460449,0.0
16820,0.6276674,-13.559586,3.0329208,0.63614506,-2.443689,4.460449,0.0
16821,0.6276674,-13.559586,3.0329208,1.6737305,-2.8217652,6.84679,0.0
16822,6.919492,-13.816772,5.155327,1.6737305,-2.8217652,6.84679,0.0
16823,6.919492,-13.816772,5.155327,1.5919555,-3.1170044,9.786438,0.0
16824,18.143394,-16.590729,6.063957,1.5919555,-3.1170044,9.786438,0.0
16825,18.143394,-16.590729,6.063957,3.2986085,-0.6680054,12.44253,0.0
16826,29.009502,-15.193436,5.424057,3.2986085,-0.6680054,12.44253,0.0
16827,29.009502,-15.193436,5.424057,3.3708253,0.23364258,12.074012,0.0
16828,32.10649,-5.415344,3.271389,3.3708253,0.23364258,12.074012,0.0
16829,32.10649,-5.415344,3.271389,3.3230348,0.28780517,11.548316,0.0
16830,26.894924,8.221962,-0.6129074,3.3230348,0.28780517,11.548316,0.0
16831,26.894924,8.221962,-0.6129074,3.5588014,0.29736328,10.335498,0.0
16832,14.833359,22.35463,-4.5930367,3.5588014,0.29736328,10.335498,0.0
16833,14.833359,22.35463,-4.5930367,3.6342041,-0.04460449,8.639465,0.0
16834,2.1342163,34.238724,-7.504715,3.6342041,-0.04460449,8.639465,0.0
16835,2.1342163,34.238724,-7.504715,3.4706542,-0.815625,6.163916,0.0
16836,-6.3485107,40.9832,-8.535461,3.4706542,-0.815625,6.163916,0.0
16837,-6.3485107,40.9832,-8.535461,3.264624,-1.6493043,4.2830935,0.0
16838,-10.440088,40.948936,-8.240623,3.264624,-1.6493043,4.2830935,0.0
16839,-10.440088,40.948936,-8.240623,3.0192993,-2.069861,2.1590698,0.0
16840,-11.226008,36.723373,-7.9078674,3.0192993,-2.069861,2.1590698,0.0
16841,-11.226008,36.723373,-7.9078674,1.5292969,-2.3056276,-0.7072998,0.0
16842,-9.07452,29.465137,-6.8484764,1.5292969,-2.3056276,-0.7072998,0.0
16843,-9.07452,29.465137,-6.8484764,-1.2276856,-3.2932985,-4.6537356,0.0
16844,-4.7287936,18.293522,-5.121908,-1.2276856,-3.2932985,-4.6537356,0.0
16845,-4.7287936,18.293522,-5.121908,-1.7512573,-3.9188232,-6.881836,0.0
16846,-0.1653347,6.180996,-3.3651657,-1.7512573,-3.9188232,-6.881836,0.0
16847,-0.1653347,6.180996,-3.3651657,-0.8814697,-3.9230714,-7.8928714,0.0
16848,3.7478962,-1.9233665,-0.75839233,-0.8814697,-3.9230714,-7.8928714,0.0
16849,3.7478962,-1.9233665,-0.75839233,-2.2121704,-4.609131,-9.565539,0.0
16850,7.323476,-5.690708,1.5264416,-2.2121704,-4.609131,-9.565539,0.0
16851,7.323476,-5.690708,1.5264416,-3.4016235,-4.912866,-10.334436,0.0
16852,10.135832,-8.620216,2.26268,-3.4016235,-4.912866,-10.334436,0.0
16853,10.135832,-8.620216,2.26268,-2.9672608,-3.6734986,-9.869275,0.0
16854,10.808947,-11.601959,3.6443367,-2.9672608,-3.6734986,-9.869275,0.0
16855,10.808947,-11.601959,3.6443367,-3.4005616,-2.975757,-9.662183,0.0
16856,10.359877,-13.01709,6.0746,-3.4005616,-2.975757,-9.662183,0.0
16857,10.359877,-13.01709,6.0746,-3.9623659,-2.617859,-9.8161745,0.0
16858,15.538511,-12.61216,4.7799454,-3.9623659,-2.617859,-9.8161745,0.0
16859,15.538511,-12.61216,4.7799454,-5.8336306,-1.6503662,-9.944678,0.0
16860,22.334702,-12.69429,0.5241127,-5.8336306,-1.6503662,-9.944678,0.0
16861,22.334702,-12.69429,0.5241127,-7.8652587,-1.2202514,-10.345057,0.0
16862,21.812817,-14.514,0.10814667,-7.8652587,-1.2202514,-10.345057,0.0
16863,21.812817,-14.514,0.10814667,-6.1267457,-1.4687623,-9.733337,0.0
16864,21.812817,-14.514,0.10814667,-6.1267457,-1.4687623,-9.733337,159.0
16865,13.942345,-16.87812,4.6446724,-6.1267457,-1.4687623,-9.733337,159.0
16866,13.942345,-16.87812,4.6446724,-0.3695801,-1.3328247,-7.3682375,159.0
16867,1.942913,-14.691933,7.1389694,-0.3695801,-1.3328247,-7.3682375,159.0
16868,1.942913,-14.691933,7.1389694,-1.2595459,-0.40250245,-5.3026247,159.0
16869,-8.995216,-7.491913,4.352829,-1.2595459,-0.40250245,-5.3026247,159.0
16870,-8.995216,-7.491913,4.352829,-7.1983156,-0.18797608,-3.4101198,159.0
16871,-16.19316,-3.9055862,0.6877823,-7.1983156,-0.18797608,-3.4101198,159.0
16872,-16.19316,-3.9055862,0.6877823,-7.767554,0.6435791,-1.5239868,159.0
16873,-19.718065,-5.8168106,-1.3635788,-7.767554,0.6435791,-1.5239868,159.0
16874,-19.718065,-5.8168106,-1.3635788,-6.411365,1.8723267,-0.42905274,159.0
16875,-22.507254,-9.088821,-1.3371048,-6.411365,1.8723267,-0.42905274,159.0
16876,-22.507254,-9.088821,-1.3371048,-3.8646607,1.9296753,0.6690674,159.0
16877,-24.037628,-11.070328,-1.3374443,-3.8646607,1.9296753,0.6690674,159.0
16878,-24.037628,-11.070328,-1.3374443,-0.2623169,0.49277344,0.7848267,159.0
16879,-22.913721,-10.474823,-2.994175,-0.2623169,0.49277344,0.7848267,159.0
16880,-22.913721,-10.474823,-2.994175,-1.1575928,0.1083252,2.069861,159.0
16881,-19.38171,-9.771996,-4.2024918,-1.1575928,0.1083252,2.069861,159.0
16882,-19.38171,-9.771996,-4.2024918,-1.1894531,-1.4262818,2.9279664,159.0
16883,-13.921359,-10.3497925,-3.2175484,-1.1894531,-1.4262818,2.9279664,159.0
16884,-13.921359,-10.3497925,-3.2175484,2.4893556,-2.5732543,4.1322875,159.0
16885,-8.627993,-9.025238,-1.2052536,2.4893556,-2.5732543,4.1322875,159.0
16886,-8.627993,-9.025238,-1.2052536,3.712793,-2.6932619,5.508655,159.0
16887,-4.1844625,-5.7343826,1.3892632,3.712793,-2.6932619,5.508655,159.0
16888,-4.1844625,-5.7343826,1.3892632,2.352356,-2.250403,6.882898,159.0
16889,0.37811375,-4.7082214,4.4111404,2.352356,-2.250403,6.882898,159.0
16890,0.37811375,-4.7082214,4.4111404,2.904602,-2.0040162,8.248645,159.0
16891,5.7074227,-6.8850327,5.7465897,2.904602,-2.0040162,8.248645,159.0
16892,5.7074227,-6.8850327,5.7465897,3.6342041,-1.364685,9.848035,159.0
16893,13.589266,-12.06572,6.444771,3.6342041,-1.364685,9.848035,159.0
16894,13.589266,-12.06572,6.444771,4.072815,-1.0227174,12.071887,159.0
16895,26.856949,-18.144928,6.8723946,4.072815,-1.0227174,12.071887,159.0
16896,26.856949,-18.144928,6.8723946,5.5968018,1.9498535,11.780896,159.0
16897,39.13379,-16.209732,5.0854874,5.5968018,1.9498535,11.780896,159.0
16898,39.13379,-16.209732,5.0854874,1.3211426,2.7654786,12.641126,159.0
16899,38.992943,-4.4124603,2.1551208,1.3211426,2.7654786,12.641126,159.0
16900,38.992943,-4.4124603,2.1551208,1.4103516,0.93138427,13.465247,159.0
16901,25.856297,10.599991,-2.3327484,1.4103516,0.93138427,13.465247,159.0
16902,25.856297,10.599991,-2.3327484,5.149695,-0.69349366,12.583777,159.0
16903,8.231449,27.092834,-8.843784,5.149695,-0.69349366,12.583777,159.0
16904,8.231449,27.092834,-8.843784,6.1076293,-0.6467652,10.329126,159.0
16905,-5.743782,43.481583,-14.316448,6.1076293,-0.6467652,10.329126,159.0
16906,-5.743782,43.481583,-14.316448,4.2268066,-0.3355957,7.687903,159.0
16907,-12.66518,50.97947,-15.67617,4.2268066,-0.3355957,7.687903,159.0
16908,-12.66518,50.97947,-15.67617,2.2068603,-0.6180908,5.9472656,159.0
16909,-14.065018,46.243492,-14.474968,2.2068603,-0.6180908,5.9472656,159.0
16910,-14.065018,46.243492,-14.474968,1.5590333,-0.7434082,2.0411866,159.0
16911,-13.579346,36.737465,-11.781292,1.5590333,-0.7434082,2.0411866,159.0
16912,-13.579346,36.737465,-11.781292,-1.2956543,-2.0486207,-2.1112792,159.0
16913,-12.529261,25.735283,-7.564951,-1.2956543,-2.0486207,-2.1112792,159.0
16914,-12.529261,25.735283,-7.564951,-3.0405395,-3.5641115,-4.995703,159.0
16915,-8.936409,13.305439,-3.0135689,-3.0405395,-3.5641115,-4.995703,159.0
16916,-8.936409,13.305439,-3.0135689,-2.3003175,-4.0303345,-6.892456,159.0
16917,-3.8613338,3.1347466,1.6119232,-2.3003175,-4.0303345,-6.892456,159.0
16918,-3.8613338,3.1347466,1.6119232,-2.0220704,-4.622937,-9.269238,159.0
16919,-0.21427536,-2.4642982,5.399315,-2.0220704,-4.622937,-9.269238,159.0
16920,-0.21427536,-2.4642982,5.399315,-3.4982667,-5.171997,-10.592505,159.0
16921,3.1023216,-7.1977577,7.417034,-3.4982667,-5.171997,-10.592505,159.0
16922,3.1023216,-7.1977577,7.417034,-3.5492432,-4.235303,-10.641357,159.0
16923,7.1988125,-13.833279,9.349911,-3.5492432,-4.235303,-10.641357,159.0
16924,7.1988125,-13.833279,9.349911,-3.164795,-2.9056642,-11.162806,159.0
16925,11.239288,-18.027008,10.706173,-3.164795,-2.9056642,-11.162806,159.0
16926,11.239288,-18.027008,10.706173,-4.7365723,-1.8319702,-11.94126,159.0
16927,18.68124,-17.632935,7.4575043,-4.7365723,-1.8319702,-11.94126,159.0
16928,18.68124,-17.632935,7.4575043,-8.696815,-0.08602295,-12.405359,159.0
16929,26.109749,-19.756165,3.0043945,-8.696815,-0.08602295,-12.405359,159.0
16930,26.109749,-19.756165,3.0043945,-9.790687,0.69986576,-11.981616,159.0
16931,20.915031,-25.489807,3.4689827,-9.790687,0.69986576,-11.981616,159.0
16932,20.915031,-25.489807,3.4689827,-3.1116943,0.38444826,-9.528369,159.0
16933,3.734085,-24.045013,4.97089,-3.1116943,0.38444826,-9.528369,159.0
16934,3.734085,-24.045013,4.97089,-3.5588014,0.15823975,-5.132703,159.0
16935,-12.386391,-14.371201,3.9328156,-3.5588014,0.15823975,-5.132703,159.0
16936,-12.386391,-14.371201,3.9328156,-5.7338014,0.032922365,-2.800525,159.0
16937,-21.157978,-6.4056854,2.2675934,-5.7338014,0.032922365,-2.800525,159.0
16938,-21.157978,-6.4056854,2.2675934,-3.5662353,0.6403931,-1.9806519,159.0
16939,-24.878347,-2.4984894,0.9162979,-3.5662353,0.6403931,-1.9806519,159.0
16940,-24.878347,-2.4984894,0.9162979,-3.793506,2.1590698,-0.6149048,159.0
16941,-25.68405,-1.5063248,-1.7634087,-3.793506,2.1590698,-0.6149048,159.0
16942,-25.68405,-1.5063248,-1.7634087,-5.5129027,3.1435547,0.82836914,159.0
16943,-25.624254,-3.975769,-5.5605927,-5.5129027,3.1435547,0.82836914,159.0
16944,-25.624254,-3.975769,-5.5605927,-3.1987793,2.263147,1.3455689,159.0
16945,-25.734413,-7.300812,-8.128395,-3.1987793,2.263147,1.3455689,159.0
16946,-25.734413,-7.300812,-8.128395,-0.20496826,-0.33984375,1.1915772,159.0
16947,-23.217535,-8.496902,-8.899822,-0.20496826,-0.33984375,1.1915772,159.0
16948,-23.217535,-8.496902,-8.899822,-0.050976563,-1.6673584,2.0709229,159.0
16949,-17.344597,-8.61451,-7.123348,-0.050976563,-1.6673584,2.0709229,159.0
16950,-17.344597,-8.61451,-7.123348,1.3891114,-2.9375246,3.5503051,159.0
16951,-10.626326,-7.810585,-2.5835419,1.3891114,-2.9375246,3.5503051,159.0
16952,-10.626326,-7.810585,-2.5835419,2.913098,-3.8306763,4.961719,159.0
16953,-4.638316,-5.7897415,2.4616833,2.913098,-3.8306763,4.961719,159.0
16954,-4.638316,-5.7897415,2.4616833,3.2954223,-3.9018312,6.142676,159.0
16955,1.0224285,-5.1438828,6.3882675,3.2954223,-3.9018312,6.142676,159.0
16956,1.0224285,-5.1438828,6.3882675,2.9736328,-3.349585,7.574268,159.0
16957,7.0553575,-8.056007,8.394882,2.9736328,-3.349585,7.574268,159.0
16958,7.0553575,-8.056007,8.394882,3.078772,-2.8695557,10.08274,159.0
16959,7.0553575,-8.056007,8.394882,3.078772,-2.8695557,10.08274,163.0
16960,16.469372,-15.360718,9.39579,3.078772,-2.8695557,10.08274,163.0
16961,16.469372,-15.360718,9.39579,5.341919,-2.360852,12.352259,163.0
16962,29.360813,-19.94954,9.055195,5.341919,-2.360852,12.352259,163.0
16963,29.360813,-19.94954,9.055195,5.768848,0.9494385,12.298096,163.0
16964,37.54981,-14.596573,7.2775917,5.768848,0.9494385,12.298096,163.0
16965,37.54981,-14.596573,7.2775917,1.7894897,1.3190186,12.687854,163.0
16966,34.848686,-2.640602,4.811428,1.7894897,1.3190186,12.687854,163.0
16967,34.848686,-2.640602,4.811428,2.2461548,1.26698,13.376038,163.0
16968,22.817486,11.088303,0.4164276,2.2461548,1.26698,13.376038,163.0
16969,22.817486,11.088303,0.4164276,3.3994997,0.55755615,12.9682255,163.0
16970,8.506294,24.077988,-4.9901123,3.3994997,0.55755615,12.9682255,163.0
16971,8.506294,24.077988,-4.9901123,3.0840821,0.6074707,12.206763,163.0
16972,-1.4225388,35.01841,-9.687023,3.0840821,0.6074707,12.206763,163.0
16973,-1.4225388,35.01841,-9.687023,1.6631104,0.37807617,10.151771,163.0
16974,-4.3794613,41.378426,-12.362583,1.6631104,0.37807617,10.151771,163.0
16975,-4.3794613,41.378426,-12.362583,2.8015869,0.69349366,8.841248,163.0
16976,-3.893547,42.420624,-13.355068,2.8015869,0.69349366,8.841248,163.0
16977,-3.893547,42.420624,-13.355068,2.9258423,1.1342286,5.4523683,163.0
16978,-5.419159,40.87056,-12.024349,2.9258423,1.1342286,5.4523683,163.0
16979,-5.419159,40.87056,-12.024349,0.10089111,0.40144044,0.26975098,163.0
16980,-8.3070545,36.004196,-7.913229,0.10089111,0.40144044,0.26975098,163.0
16981,-8.3070545,36.004196,-7.913229,-3.1297486,-1.6907227,-3.7011108,163.0
16982,-8.987476,25.197659,-3.1734428,-3.1297486,-1.6907227,-3.7011108,163.0
16983,-8.987476,25.197659,-3.1734428,-3.180725,-3.081958,-7.511609,163.0
16984,-7.857437,11.247139,1.4726467,-3.180725,-3.081958,-7.511609,163.0
16985,-7.857437,11.247139,1.4726467,-2.6125488,-4.162024,-10.435328,163.0
16986,-6.472143,3.1318893,3.5702934,-2.6125488,-4.162024,-10.435328,163.0
16987,-6.472143,3.1318893,3.5702934,-2.616797,-4.445581,-11.353968,163.0
16988,-1.8580017,-13.300617,8.181467,-2.616797,-4.445581,-11.353968,163.0
16989,-1.8580017,-13.300617,8.181467,-2.2196045,-3.255066,-10.897303,163.0
16990,0.8305912,-19.140923,9.683918,-2.2196045,-3.255066,-10.897303,163.0
16991,0.8305912,-19.140923,9.683918,-3.511011,-2.7410524,-10.519226,163.0
16992,5.66214,-37.277985,14.031815,-3.511011,-2.7410524,-10.519226,163.0
16993,5.66214,-37.277985,14.031815,-6.6301394,0.5628662,-10.021143,163.0
16994,5.027807,-34.655655,9.834145,-6.6301394,0.5628662,-10.021143,163.0
16995,5.027807,-34.655655,9.834145,-8.16687,1.4645141,-9.979724,163.0
16996,-0.04117012,-35.027725,3.1212082,-8.16687,1.4645141,-9.979724,163.0
16997,-0.04117012,-35.027725,3.1212082,-4.0526366,2.5031617,-7.161145,163.0
16998,-2.0329113,-30.304245,1.5790367,-4.0526366,2.5031617,-7.161145,163.0
16999,-2.0329113,-30.304245,1.5790367,-2.531836,2.5307739,-5.679639,163.0
17000,-12.189417,-17.304909,0.7900734,-2.531836,2.5307739,-5.679639,163.0
17001,-12.189417,-17.304909,0.7900734,-4.1301637,2.814331,-3.3166625,163.0
17002,-13.050129,-8.772453,-0.028266907,-4.1301637,2.814331,-3.3166625,163.0
17003,-13.050129,-8.772453,-0.028266907,-3.902893,2.895044,-3.0373535,163.0
17004,-20.083096,6.039276,-0.19081497,-3.902893,2.895044,-3.0373535,163.0
17005,-20.083096,6.039276,-0.19081497,-0.3164795,3.3368409,-1.8022339,163.0
17006,-18.510471,8.037712,-0.49407196,-0.3164795,3.3368409,-1.8022339,163.0
17007,-18.510471,8.037712,-0.49407196,0.15717773,3.3888795,-1.447522,163.0
17008,-22.514103,13.265686,-0.3038864,0.15717773,3.3888795,-1.447522,163.0
17009,-22.514103,13.265686,-0.3038864,1.8946289,2.2259767,-0.90058595,163.0
17010,-19.81077,11.230362,-0.5872612,1.8946289,2.2259767,-0.90058595,163.0
17011,-19.81077,11.230362,-0.5872612,1.8213501,2.1994264,-2.7760987,163.0
17012,-20.00599,6.1848907,-5.0487633,1.8213501,2.1994264,-2.7760987,163.0
17013,-20.00599,6.1848907,-5.0487633,-1.7289551,0.5501221,-2.3682861,163.0
17014,-17.127838,1.7258301,-5.3283424,-1.7289551,0.5501221,-2.3682861,163.0
17015,-17.127838,1.7258301,-5.3283424,-1.2829102,-0.28674316,-1.2945923,163.0
17016,-15.459606,-7.0302734,-4.9722824,-1.2829102,-0.28674316,-1.2945923,163.0
17017,-15.459606,-7.0302734,-4.9722824,1.7947998,-1.9137452,-0.07965088,163.0
17018,-11.446861,-11.1840515,-3.933941,1.7947998,-1.9137452,-0.07965088,163.0
17019,-11.446861,-11.1840515,-3.933941,0.87403566,-2.2514648,1.62594,163.0
17020,-5.7579403,-11.188072,-1.7419777,0.87403566,-2.2514648,1.62594,163.0
17021,-5.7579403,-11.188072,-1.7419777,0.6446411,-2.7824707,3.3240967,163.0
17022,-0.40797615,-11.037636,1.3938789,0.6446411,-2.7824707,3.3240967,163.0
17023,-0.40797615,-11.037636,1.3938789,1.6599244,-2.9184082,5.3111205,163.0
17024,7.24757,-13.552444,5.3331337,1.6599244,-2.9184082,5.3111205,163.0
17025,7.24757,-13.552444,5.3331337,1.629126,-2.5700684,8.776465,163.0
17026,8.172909,-13.136429,6.3682785,1.629126,-2.5700684,8.776465,163.0
17027,8.172909,-13.136429,6.3682785,1.7608155,-2.884424,10.0147705,163.0
17028,18.33398,-19.92511,7.346649,1.7608155,-2.884424,10.0147705,163.0
17029,18.33398,-19.92511,7.346649,3.4664063,-1.0875,13.0043335,163.0
17030,30.309666,-22.190842,5.472927,3.4664063,-1.0875,13.0043335,163.0
17031,30.309666,-22.190842,5.472927,1.9562256,1.4209718,11.547254,163.0
17032,33.1716,-12.047958,2.7851791,1.9562256,1.4209718,11.547254,163.0
17033,33.1716,-12.047958,2.7851791,0.544812,0.31010744,12.2641115,163.0
17034,27.739891,3.1334686,-0.057769775,0.544812,0.31010744,12.2641115,163.0
17035,27.739891,3.1334686,-0.057769775,2.264209,-0.7943848,11.996485,163.0
17036,18.704071,19.696022,-3.4463654,2.264209,-0.7943848,11.996485,163.0
17037,18.704071,19.696022,-3.4463654,2.804773,-1.3954834,10.98545,163.0
17038,9.54928,35.631126,-6.3612556,2.804773,-1.3954834,10.98545,163.0
17039,9.54928,35.631126,-6.3612556,1.7756836,-1.6641724,9.099317,163.0
17040,3.4726143,46.41146,-7.6573143,1.7756836,-1.6641724,9.099317,163.0
17041,3.4726143,46.41146,-7.6573143,1.6100098,-1.811792,7.0698123,163.0
17042,2.2274685,48.19536,-8.500828,1.6100098,-1.811792,7.0698123,163.0
17043,2.2274685,48.19536,-8.500828,2.3279297,-1.1852051,3.6076539,163.0
17044,2.5566444,44.39994,-9.558109,2.3279297,-1.1852051,3.6076539,163.0
17045,2.5566444,44.39994,-9.558109,-0.32391357,-0.8496094,-1.3434448,163.0
17046,0.9952431,36.590424,-8.5975,-0.32391357,-0.8496094,-1.3434448,163.0
17047,0.9952431,36.590424,-8.5975,-3.5407472,-1.9445435,-5.2835083,163.0
17048,-0.13857079,23.613308,-5.036583,-3.5407472,-1.9445435,-5.2835083,163.0
17049,-0.13857079,23.613308,-5.036583,-2.8376954,-3.263562,-8.882667,163.0
17050,0.72159004,8.928696,-0.10349846,-2.8376954,-3.263562,-8.882667,163.0
17051,0.72159004,8.928696,-0.10349846,-2.1973023,-4.9298587,-12.254554,163.0
17052,3.1305065,-2.04076,2.6255875,-2.1973023,-4.9298587,-12.254554,163.0
17053,3.1305065,-2.04076,2.6255875,-2.5169678,-5.358911,-13.780664,163.0
17054,7.08778,-9.517727,3.0053177,-2.5169678,-5.358911,-13.780664,163.0
17055,7.08778,-9.517727,3.0053177,-2.89292,-3.9368775,-13.514099,163.0
17056,13.013729,-17.879425,5.5851135,-2.89292,-3.9368775,-13.514099,163.0
17057,13.013729,-17.879425,5.5851135,-3.6331422,-2.546704,-12.403235,163.0
17058,19.185677,-26.91278,7.845703,-3.6331422,-2.546704,-12.403235,163.0
17059,19.185677,-26.91278,7.845703,-5.143323,-0.8230591,-12.207825,163.0
17060,20.671722,-30.495285,6.1938972,-5.143323,-0.8230591,-12.207825,163.0
17061,20.671722,-30.495285,6.1938972,-8.19873,0.070092775,-12.127112,163.0
17062,20.671722,-30.495285,6.1938972,-8.19873,0.070092775,-12.127112,166.0
17063,15.929943,-30.08664,4.4135056,-8.19873,0.070092775,-12.127112,166.0
17064,15.929943,-30.08664,4.4135056,-6.047095,0.10195313,-10.570203,166.0
17065,6.5575027,-28.275093,5.191265,-6.047095,0.10195313,-10.570203,166.0
17066,6.5575027,-28.275093,5.191265,-1.7714356,0.34727785,-7.7452517,166.0
17067,-6.1803627,-20.632492,4.9472733,-1.7714356,0.34727785,-7.7452517,166.0
17068,-6.1803627,-20.632492,4.9472733,-5.075354,1.1098022,-4.2204347,166.0
17069,-17.671658,-10.1604,3.6612244,-5.075354,1.1098022,-4.2204347,166.0
17070,-17.671658,-10.1604,3.6612244,-7.08468,1.3625611,-1.5484132,166.0
17071,-25.569223,-3.3018494,4.0444717,-7.08468,1.3625611,-1.5484132,166.0
17072,-25.569223,-3.3018494,4.0444717,-3.63208,2.3948364,-0.6605713,166.0
17073,-29.688362,0.8456116,3.5008621,-3.63208,2.3948364,-0.6605713,166.0
17074,-29.688362,0.8456116,3.5008621,-2.165442,4.5369143,0.5649902,166.0
17075,-30.856598,3.5909653,0.27941132,-2.165442,4.5369143,0.5649902,166.0
17076,-30.856598,3.5909653,0.27941132,-3.4855225,4.425403,0.98873293,166.0
17077,-28.369581,2.3712616,-4.3606033,-3.4855225,4.425403,0.98873293,166.0
17078,-28.369581,2.3712616,-4.3606033,-3.0426636,2.7283082,0.6138428,166.0
17079,-24.287231,-1.9543228,-8.455742,-3.0426636,2.7283082,0.6138428,166.0
17080,-24.287231,-1.9543228,-8.455742,-2.1282716,1.4815063,1.09281,166.0
17081,-21.184423,-6.0224533,-10.19178,-2.1282716,1.4815063,1.09281,166.0
17082,-21.184423,-6.0224533,-10.19178,-0.28461915,-0.817749,2.4596193,166.0
17083,-16.563602,-8.194862,-8.540253,-0.28461915,-0.817749,2.4596193,166.0
17084,-16.563602,-8.194862,-8.540253,1.9657837,-2.357666,3.8689086,166.0
17085,-9.388945,-7.693268,-4.4208145,1.9657837,-2.357666,3.8689086,166.0
17086,-9.388945,-7.693268,-4.4208145,1.8510865,-2.4787354,5.1305785,166.0
17087,-2.0544786,-6.687729,0.08777237,1.8510865,-2.4787354,5.1305785,166.0
17088,-2.0544786,-6.687729,0.08777237,1.5006226,-2.7506104,6.7820067,166.0
17089,4.4826136,-8.037781,3.5746384,1.5006226,-2.7506104,6.7820067,166.0
17090,4.4826136,-8.037781,3.5746384,1.2521118,-2.5127199,9.0271,166.0
17091,10.465326,-11.14817,5.46418,1.2521118,-2.5127199,9.0271,166.0
17092,10.465326,-11.14817,5.46418,1.5515991,-1.8181641,11.314673,166.0
17093,20.600277,-16.526978,6.842743,1.5515991,-1.8181641,11.314673,166.0
17094,20.600277,-16.526978,6.842743,2.2546508,-0.8294312,12.549792,166.0
17095,31.671726,-17.229362,7.330971,2.2546508,-0.8294312,12.549792,166.0
17096,31.671726,-17.229362,7.330971,1.5197388,0.46834716,12.569971,166.0
17097,32.527763,-6.919403,6.593014,1.5197388,0.46834716,12.569971,166.0
17098,32.527763,-6.919403,6.593014,0.06265869,-0.811377,12.82804,166.0
17099,24.291485,7.6428986,4.5045624,0.06265869,-0.811377,12.82804,166.0
17100,24.291485,7.6428986,4.5045624,2.171814,-0.9589966,12.371375,166.0
17101,13.593185,22.250648,0.42544937,2.171814,-0.9589966,12.371375,166.0
17102,13.593185,22.250648,0.42544937,1.7661256,-0.46834716,11.363525,166.0
17103,4.1942005,35.36435,-3.373825,1.7661256,-0.46834716,11.363525,166.0
17104,4.1942005,35.36435,-3.373825,0.5320679,-0.904834,9.619702,166.0
17105,-0.89912033,44.296837,-6.460781,0.5320679,-0.904834,9.619702,166.0
17106,-0.89912033,44.296837,-6.460781,1.3062744,-0.9897949,7.7643676,166.0
17107,-1.9303799,46.371246,-9.529747,1.3062744,-0.9897949,7.7643676,166.0
17108,-1.9303799,46.371246,-9.529747,0.88996583,-0.8251831,4.771619,166.0
17109,-3.2627125,41.99134,-10.779011,0.88996583,-0.8251831,4.771619,166.0
17110,-3.2627125,41.99134,-10.779011,-0.9855469,-0.89846194,0.65207523,166.0
17111,-5.308731,33.411015,-8.902714,-0.9855469,-0.89846194,0.65207523,166.0
17112,-5.308731,33.411015,-8.902714,-3.2168336,-1.8882569,-3.1053224,166.0
17113,-5.158888,22.09668,-5.390421,-3.2168336,-1.8882569,-3.1053224,166.0
17114,-5.158888,22.09668,-5.390421,-3.5120728,-2.6040528,-6.2764893,166.0
17115,-3.134056,10.403027,-1.2345905,-3.5120728,-2.6040528,-6.2764893,166.0
17116,-3.134056,10.403027,-1.2345905,-3.2221437,-3.3984375,-9.330835,166.0
17117,-1.4152889,0.839489,2.1516342,-3.2221437,-3.3984375,-9.330835,166.0
17118,-1.4152889,0.839489,2.1516342,-2.9067261,-3.9379394,-11.432556,166.0
17119,1.4670601,-7.070595,3.7373848,-2.9067261,-3.9379394,-11.432556,166.0
17120,1.4670601,-7.070595,3.7373848,-2.163318,-2.7856567,-11.232898,166.0
17121,7.8655796,-19.384468,6.8922615,-2.163318,-2.7856567,-11.232898,166.0
17122,7.8655796,-19.384468,6.8922615,-2.2429688,-1.4963745,-10.058313,166.0
17123,12.469696,-32.39589,10.052483,-2.2429688,-1.4963745,-10.058313,166.0
17124,12.469696,-32.39589,10.052483,-5.2081056,-0.3355957,-10.528785,166.0
17125,9.957813,-36.55314,8.955269,-5.2081056,-0.3355957,-10.528785,166.0
17126,9.957813,-36.55314,8.955269,-7.316199,0.3451538,-8.759473,166.0
17127,3.6254177,-34.859283,6.7859344,-7.316199,0.3451538,-8.759473,166.0
17128,3.6254177,-34.859283,6.7859344,-2.2918212,1.4868164,-7.344873,166.0
17129,-3.029049,-27.567749,5.6310043,-2.2918212,1.4868164,-7.344873,166.0
17130,-3.029049,-27.567749,5.6310043,-2.535022,2.0263183,-5.2474,166.0
17131,-8.780722,-15.6818695,3.5670815,-2.535022,2.0263183,-5.2474,166.0
17132,-8.780722,-15.6818695,3.5670815,-4.946851,2.4320068,-4.4636354,166.0
17133,-13.373627,-6.282608,0.6838646,-4.946851,2.4320068,-4.4636354,166.0
17134,-13.373627,-6.282608,0.6838646,-3.7712038,3.085144,-3.9464357,166.0
17135,-17.385096,-0.43013763,-1.0992432,-3.7712038,3.085144,-3.9464357,166.0
17136,-17.385096,-0.43013763,-1.0992432,-2.6868896,3.1095703,-3.5566773,166.0
17137,-20.257198,3.4766693,-1.4442635,-2.6868896,3.1095703,-3.5566773,166.0
17138,-20.257198,3.4766693,-1.4442635,-1.7671875,3.3145387,-1.901001,166.0
17139,-21.20543,5.2417603,-0.940094,-1.7671875,3.3145387,-1.901001,166.0
17140,-21.20543,5.2417603,-0.940094,0.0637207,3.5789795,-1.2181275,166.0
17141,-20.749842,5.1412888,-1.5183716,0.0637207,3.5789795,-1.2181275,166.0
17142,-20.749842,5.1412888,-1.5183716,-0.04141846,2.811145,-1.3912354,166.0
17143,-20.170565,2.6344757,-4.749878,-0.04141846,2.811145,-1.3912354,166.0
17144,-20.170565,2.6344757,-4.749878,-2.0518067,1.9392334,-2.272705,166.0
17145,-20.83008,-3.4493408,-6.8881226,-2.0518067,1.9392334,-2.272705,166.0
17146,-20.83008,-3.4493408,-6.8881226,-0.9324463,0.12000733,-0.6711914,166.0
17147,-20.06531,-9.582802,-5.346348,-0.9324463,0.12000733,-0.6711914,166.0
17148,-20.06531,-9.582802,-5.346348,2.0879152,-1.5728394,1.2234375,166.0
17149,-14.725893,-10.89769,-2.310463,2.0879152,-1.5728394,1.2234375,166.0
17150,-14.725893,-10.89769,-2.310463,1.7990478,-2.0252564,2.8536255,166.0
17151,-6.8091316,-8.828186,1.5438538,1.7990478,-2.0252564,2.8536255,166.0
17152,-6.8091316,-8.828186,1.5438538,1.8001099,-1.9859619,4.439209,166.0
17153,0.41319275,-7.6381836,5.1642227,1.8001099,-1.9859619,4.439209,166.0
17154,0.41319275,-7.6381836,5.1642227,2.5052857,-2.085791,6.520752,166.0
17155,7.466381,-10.232765,8.426655,2.5052857,-2.085791,6.520752,166.0
17156,7.466381,-10.232765,8.426655,3.2794921,-3.7181032,8.783899,166.0
17157,19.820261,-16.142166,8.152847,3.2794921,-3.7181032,8.783899,166.0
17158,19.820261,-16.142166,8.152847,4.605945,1.2170655,12.031531,166.0
17159,30.804548,-16.371788,5.0705795,4.605945,1.2170655,12.031531,166.0
17160,30.804548,-16.371788,5.0705795,1.0152832,2.2981935,11.23927,166.0
17161,33.16261,-9.096527,2.4223328,1.0152832,2.2981935,11.23927,166.0
17162,33.16261,-9.096527,2.4223328,0.6966797,2.2514648,12.078259,166.0
17163,29.80548,1.4323425,-1.8469353,0.6966797,2.2514648,12.078259,166.0
17164,29.80548,1.4323425,-1.8469353,0.70942384,1.1278565,11.93595,166.0
17165,21.31821,16.325066,-6.458664,0.70942384,1.1278565,11.93595,166.0
17166,21.31821,16.325066,-6.458664,1.6036377,-0.087084964,10.571265,166.0
17167,10.89418,33.021698,-9.419483,1.6036377,-0.087084964,10.571265,166.0
17168,10.89418,33.021698,-9.419483,1.6036377,-0.087084964,10.571265,167.0
17169,10.89418,33.021698,-9.419483,2.1187134,-1.4974365,8.316614,167.0
17170,2.6427994,45.58358,-9.9706955,2.1187134,-1.4974365,8.316614,167.0
17171,2.6427994,45.58358,-9.9706955,2.5902467,-2.4298828,6.220203,167.0
17172,-0.55101967,49.927216,-9.554157,2.5902467,-2.4298828,6.220203,167.0
17173,-0.55101967,49.927216,-9.554157,1.7427613,-2.6550293,2.8663697,167.0
17174,-1.3080273,47.15078,-8.618107,1.7427613,-2.6550293,2.8663697,167.0
17175,-1.3080273,47.15078,-8.618107,-0.8708496,-2.538208,-2.1611938,167.0
17176,-2.4095573,38.07862,-5.7490005,-0.8708496,-2.538208,-2.1611938,167.0
17177,-2.4095573,38.07862,-5.7490005,-3.0182374,-3.172229,-6.8605957,167.0
17178,-1.8929539,23.125118,-1.8733101,-3.0182374,-3.172229,-6.8605957,167.0
17179,-1.8929539,23.125118,-1.8733101,-3.5078247,-3.8317382,-9.901135,167.0
17180,0.66571426,6.3829575,0.78307724,-3.5078247,-3.8317382,-9.901135,167.0
17181,0.66571426,6.3829575,0.78307724,-2.2365968,-3.891211,-12.195081,167.0
17182,3.3616734,-6.0037537,1.7475929,-2.2365968,-3.891211,-12.195081,167.0
17183,3.3616734,-6.0037537,1.7475929,-2.2896974,-3.902893,-13.5672,167.0
17184,6.3070507,-12.823597,2.2008705,-2.2896974,-3.902893,-13.5672,167.0
17185,6.3070507,-12.823597,2.2008705,-2.822827,-3.2157714,-13.294263,167.0
17186,10.674583,-16.939003,4.007366,-2.822827,-3.2157714,-13.294263,167.0
17187,10.674583,-16.939003,4.007366,-3.4568481,-2.701758,-13.544898,167.0
17188,18.463251,-19.717072,4.9088364,-3.4568481,-2.701758,-13.544898,167.0
17189,18.463251,-19.717072,4.9088364,-4.1142335,-1.6684204,-13.210364,167.0
17190,27.29372,-21.390587,2.5495682,-4.1142335,-1.6684204,-13.210364,167.0
17191,27.29372,-21.390587,2.5495682,-7.6634765,-1.0991821,-13.843323,167.0
17192,28.513615,-23.025848,0.27866745,-7.6634765,-1.0991821,-13.843323,167.0
17193,28.513615,-23.025848,0.27866745,-8.412195,-1.4560181,-11.689563,167.0
17194,16.10645,-25.143082,1.530014,-8.412195,-1.4560181,-11.689563,167.0
17195,16.10645,-25.143082,1.530014,-2.5116577,-1.176709,-8.242273,167.0
17196,-5.0897064,-21.127258,3.6684685,-2.5116577,-1.176709,-8.242273,167.0
17197,-5.0897064,-21.127258,3.6684685,-3.1743531,-0.14868164,-3.6342041,167.0
17198,-21.701786,-10.064079,3.6313324,-3.1743531,-0.14868164,-3.6342041,167.0
17199,-21.701786,-10.064079,3.6313324,-6.888208,0.67437744,-0.6488892,167.0
17200,-28.186516,-1.8529053,2.8556137,-6.888208,0.67437744,-0.6488892,167.0
17201,-28.186516,-1.8529053,2.8556137,-6.529248,1.8213501,0.39082032,167.0
17202,-28.87409,0.42834473,2.5067062,-6.529248,1.8213501,0.39082032,167.0
17203,-28.87409,0.42834473,2.5067062,-4.878882,3.4695923,1.4581422,167.0
17204,-26.903751,0.16970825,0.77412796,-4.878882,3.4695923,1.4581422,167.0
17205,-26.903751,0.16970825,0.77412796,-4.4880614,2.8546875,1.1278565,167.0
17206,-22.928898,-1.5313187,-3.1582985,-4.4880614,2.8546875,1.1278565,167.0
17207,-22.928898,-1.5313187,-3.1582985,-2.8313234,1.7395753,0.6839356,167.0
17208,-19.5689,-4.721222,-6.7134895,-2.8313234,1.7395753,0.6839356,167.0
17209,-19.5689,-4.721222,-6.7134895,-0.9303223,0.2899292,0.46728516,167.0
17210,-17.756048,-7.6708755,-7.574051,-0.9303223,0.2899292,0.46728516,167.0
17211,-17.756048,-7.6708755,-7.574051,0.97492677,-1.7034668,1.8404664,167.0
17212,-15.419133,-8.549774,-5.510742,0.97492677,-1.7034668,1.8404664,167.0
17213,-15.419133,-8.549774,-5.510742,2.907788,-2.977881,3.0224855,167.0
17214,-11.169023,-7.3981094,-1.9975471,2.907788,-2.977881,3.0224855,167.0
17215,-11.169023,-7.3981094,-1.9975471,3.0532837,-3.264624,3.9687378,167.0
17216,-5.5095587,-6.0746536,1.4680519,3.0532837,-3.264624,3.9687378,167.0
17217,-5.5095587,-6.0746536,1.4680519,2.0656128,-2.5307739,5.6509643,167.0
17218,-0.36289597,-6.189636,4.2020035,2.0656128,-2.5307739,5.6509643,167.0
17219,-0.36289597,-6.189636,4.2020035,1.7788696,-2.633789,7.593384,167.0
17220,4.739737,-7.3984756,5.6635933,1.7788696,-2.633789,7.593384,167.0
17221,4.739737,-7.3984756,5.6635933,1.6885986,-1.9806519,9.96698,167.0
17222,10.820904,-8.374321,5.933098,1.6885986,-1.9806519,9.96698,167.0
17223,10.820904,-8.374321,5.933098,0.50020754,-0.21240234,11.867981,167.0
17224,19.250986,-10.931435,6.7261276,0.50020754,-0.21240234,11.867981,167.0
17225,19.250986,-10.931435,6.7261276,0.33984375,0.17735596,12.477576,167.0
17226,27.290388,-12.596024,6.528328,0.33984375,0.17735596,12.477576,167.0
17227,27.290388,-12.596024,6.528328,1.4655762,0.9855469,11.475037,167.0
17228,26.675158,-7.1666107,4.315487,1.4655762,0.9855469,11.475037,167.0
17229,26.675158,-7.1666107,4.315487,0.62340087,-1.4719483,11.907275,167.0
17230,18.405348,3.0057907,1.0815773,0.62340087,-1.4719483,11.907275,167.0
17231,18.405348,3.0057907,1.0815773,3.9464357,-2.3725343,11.758594,167.0
17232,9.388292,15.573944,-3.8896332,3.9464357,-2.3725343,11.758594,167.0
17233,9.388292,15.573944,-3.8896332,3.5726075,-2.4946656,11.18086,167.0
17234,1.8476696,29.91101,-8.333031,3.5726075,-2.4946656,11.18086,167.0
17235,1.8476696,29.91101,-8.333031,2.6645875,-2.527588,9.292603,167.0
17236,-2.5288467,42.370934,-11.11253,2.6645875,-2.527588,9.292603,167.0
17237,-2.5288467,42.370934,-11.11253,3.3134766,-1.7671875,6.6375732,167.0
17238,-4.165045,50.06678,-12.580612,3.3134766,-1.7671875,6.6375732,167.0
17239,-4.165045,50.06678,-12.580612,1.6588624,-1.1236085,2.899292,167.0
17240,-6.2874813,49.038567,-11.048084,1.6588624,-1.1236085,2.899292,167.0
17241,-6.2874813,49.038567,-11.048084,-2.1357057,-1.8553345,-2.2822633,167.0
17242,-7.739128,36.889572,-6.4809723,-2.1357057,-1.8553345,-2.2822633,167.0
17243,-7.739128,36.889572,-6.4809723,-3.804126,-3.1796632,-6.582349,167.0
17244,-5.3278503,19.13501,-1.90868,-3.804126,-3.1796632,-6.582349,167.0
17245,-5.3278503,19.13501,-1.90868,-2.5647583,-4.157776,-9.320215,167.0
17246,0.010778427,4.128662,1.3402061,-2.5647583,-4.157776,-9.320215,167.0
17247,0.010778427,4.128662,1.3402061,-1.8054199,-5.165625,-11.901965,167.0
17248,6.3383102,-5.47805,3.4887314,-1.8054199,-5.165625,-11.901965,167.0
17249,6.3383102,-5.47805,3.4887314,-1.7268311,-5.492725,-12.887512,167.0
17250,14.136236,-13.1537285,5.274666,-1.7268311,-5.492725,-12.887512,167.0
17251,14.136236,-13.1537285,5.274666,-1.2404298,-4.4084105,-12.574219,167.0
17252,22.243816,-21.041489,6.8924637,-1.2404298,-4.4084105,-12.574219,167.0
17253,22.243816,-21.041489,6.8924637,-3.364453,-3.1031983,-12.397925,167.0
17254,25.215706,-26.417046,8.429802,-3.364453,-3.1031983,-12.397925,167.0
17255,25.215706,-26.417046,8.429802,-6.145862,-3.4940186,-11.791516,167.0
17256,20.008148,-29.866264,9.753071,-6.145862,-3.4940186,-11.791516,167.0
17257,20.008148,-29.866264,9.753071,-1.1490967,-3.4164917,-9.578284,167.0
17258,7.5710945,-28.29219,9.450222,-1.1490967,-3.4164917,-9.578284,167.0
17259,7.5710945,-28.29219,9.450222,0.65632325,-2.2312868,-5.443872,167.0
17260,-5.9114,-18.601227,7.081856,0.65632325,-2.2312868,-5.443872,167.0
17261,-5.9114,-18.601227,7.081856,-4.85658,-0.6074707,-2.0401247,167.0
17262,-14.603962,-10.273872,4.9028244,-4.85658,-0.6074707,-2.0401247,167.0
17263,-14.603962,-10.273872,4.9028244,-7.134595,0.5798584,-1.9700317,167.0
17264,-21.176981,-8.743507,4.8095245,-7.134595,0.5798584,-1.9700317,167.0
17265,-21.176981,-8.743507,4.8095245,-5.088098,1.8585205,-2.360852,167.0
17266,-28.039988,-8.365715,4.381386,-5.088098,1.8585205,-2.360852,167.0
17267,-28.039988,-8.365715,4.381386,-4.2958374,4.6441774,0.5341919,167.0
17268,-33.66363,-5.512985,1.8672676,-4.2958374,4.6441774,0.5341919,167.0
17269,-33.66363,-5.512985,1.8672676,-6.137366,3.8179321,2.4012086,167.0
17270,-32.48735,-5.0362244,-1.4698486,-6.137366,3.8179321,2.4012086,167.0
17271,-32.48735,-5.0362244,-1.4698486,-3.5959718,1.6843506,0.5894165,167.0
17272,-25.033802,-8.1141205,-4.8355217,-3.5959718,1.6843506,0.5894165,167.0
17273,-25.033802,-8.1141205,-4.8355217,-1.6418701,0.39613038,1.2510499,167.0
17274,-25.033802,-8.1141205,-4.8355217,-1.6418701,0.39613038,1.2510499,170.0
17275,-18.102102,-11.038986,-5.2221527,-1.6418701,0.39613038,1.2510499,170.0
17276,-18.102102,-11.038986,-5.2221527,-0.14124756,-1.2521118,3.524817,170.0
17277,-12.957366,-11.262863,-1.3546143,-0.14124756,-1.2521118,3.524817,170.0
17278,-12.957366,-11.262863,-1.3546143,1.7077149,-1.5813354,5.700879,170.0
17279,-7.6361933,-7.999092,3.636879,1.7077149,-1.5813354,5.700879,170.0
17280,-7.6361933,-7.999092,3.636879,1.4029175,-1.0736939,7.4139037,170.0
17281,-2.238142,-5.1647644,7.3726616,1.4029175,-1.0736939,7.4139037,170.0
17282,-2.238142,-5.1647644,7.3726616,1.0046631,-1.1023682,9.4073,170.0
17283,5.63362,-7.519821,9.383701,1.0046631,-1.1023682,9.4073,170.0
17284,5.63362,-7.519821,9.383701,2.0826051,-1.9073731,12.224817,170.0
17285,20.28789,-13.34111,7.4890404,2.0826051,-1.9073731,12.224817,170.0
17286,20.28789,-13.34111,7.4890404,4.51355,2.2875733,12.959729,170.0
17287,32.417168,-11.879921,2.2725677,4.51355,2.2875733,12.959729,170.0
17288,32.417168,-11.879921,2.2725677,1.6875366,2.2068603,12.183398,170.0
17289,30.4377,-0.9412842,-2.8257332,1.6875366,2.2068603,12.183398,170.0
17290,30.4377,-0.9412842,-2.8257332,0.99298096,1.080066,12.004981,170.0
17291,19.178505,11.180634,-7.1504555,0.99298096,1.080066,12.004981,170.0
17292,19.178505,11.180634,-7.1504555,2.7580445,0.06690674,11.340161,170.0
17293,7.749359,22.69822,-10.715641,2.7580445,0.06690674,11.340161,170.0
17294,7.749359,22.69822,-10.715641,3.4770265,0.17416993,10.044507,170.0
17295,0.2890377,34.000534,-12.873932,3.4770265,0.17416993,10.044507,170.0
17296,0.2890377,34.000534,-12.873932,2.4351928,0.16779785,8.091468,170.0
17297,-3.8743973,42.11035,-12.967884,2.4351928,0.16779785,8.091468,170.0
17298,-3.8743973,42.11035,-12.967884,1.5622193,-0.18266602,6.1979003,170.0
17299,-5.416706,43.977333,-11.850613,1.5622193,-0.18266602,6.1979003,170.0
17300,-5.416706,43.977333,-11.850613,1.3253907,-0.67331547,2.5976808,170.0
17301,-5.1988926,39.894768,-9.5264015,1.3253907,-0.67331547,2.5976808,170.0
17302,-5.1988926,39.894768,-9.5264015,0.047790527,-1.8521484,-3.1127565,170.0
17303,-4.0014114,31.070148,-6.042351,0.047790527,-1.8521484,-3.1127565,170.0
17304,-4.0014114,31.070148,-6.042351,-2.631665,-3.4844606,-7.3055787,170.0
17305,-0.13018227,19.123383,-3.961567,-2.631665,-3.4844606,-7.3055787,170.0
17306,-0.13018227,19.123383,-3.961567,-3.707483,-4.0122805,-9.999903,170.0
17307,5.423662,7.1729507,-2.649149,-3.707483,-4.0122805,-9.999903,170.0
17308,5.423662,7.1729507,-2.649149,-3.6373901,-4.4689455,-12.468018,170.0
17309,9.185976,-2.697857,-0.04588127,-3.6373901,-4.4689455,-12.468018,170.0
17310,9.185976,-2.697857,-0.04588127,-2.4553711,-5.1465087,-14.370081,170.0
17311,11.49518,-10.502441,2.9061775,-2.4553711,-5.1465087,-14.370081,170.0
17312,11.49518,-10.502441,2.9061775,-0.68074954,-4.597449,-14.63877,170.0
17313,14.789772,-16.690868,6.4619904,-0.68074954,-4.597449,-14.63877,170.0
17314,14.789772,-16.690868,6.4619904,-0.31010744,-3.9071412,-14.104578,170.0
17315,21.005585,-19.92244,8.55764,-0.31010744,-3.9071412,-14.104578,170.0
17316,21.005585,-19.92244,8.55764,-2.88761,-2.8610597,-13.97926,170.0
17317,27.95293,-19.211014,6.1434135,-2.88761,-2.8610597,-13.97926,170.0
17318,27.95293,-19.211014,6.1434135,-8.833814,-2.3151855,-14.168299,170.0
17319,28.259464,-19.249268,2.8908043,-8.833814,-2.3151855,-14.168299,170.0
17320,28.259464,-19.249268,2.8908043,-8.532203,-1.4061035,-11.401758,170.0
17321,15.172585,-21.92688,2.5048065,-8.532203,-1.4061035,-11.401758,170.0
17322,15.172585,-21.92688,2.5048065,-2.0496826,-0.20178223,-7.592322,170.0
17323,-5.6074905,-18.859077,3.1392937,-2.0496826,-0.20178223,-7.592322,170.0
17324,-5.6074905,-18.859077,3.1392937,-4.963843,0.62764895,-2.6815796,170.0
17325,-19.28233,-11.092384,2.4754372,-4.963843,0.62764895,-2.6815796,170.0
17326,-19.28233,-11.092384,2.4754372,-8.206164,1.0195312,-0.70305175,170.0
17327,-24.089355,-7.5821533,0.9654083,-8.206164,1.0195312,-0.70305175,170.0
17328,-24.089355,-7.5821533,0.9654083,-4.987207,2.1080933,-0.69986576,170.0
17329,-27.290297,-6.018509,-0.2679062,-4.987207,2.1080933,-0.69986576,170.0
17330,-27.290297,-6.018509,-0.2679062,-4.4848757,3.4632204,0.6265869,170.0
17331,-29.068699,-4.3418884,-3.670269,-4.4848757,3.4632204,0.6265869,170.0
17332,-29.068699,-4.3418884,-3.670269,-5.4120116,3.4186158,1.8553345,170.0
17333,-27.523746,-5.4337463,-8.978916,-5.4120116,3.4186158,1.8553345,170.0
17334,-27.523746,-5.4337463,-8.978916,-3.355957,2.0995972,0.9451904,170.0
17335,-25.763931,-8.226471,-11.209452,-3.355957,2.0995972,0.9451904,170.0
17336,-25.763931,-8.226471,-11.209452,-0.4354248,-1.2999023,1.6535523,170.0
17337,-23.287647,-10.140167,-9.296919,-0.4354248,-1.2999023,1.6535523,170.0
17338,-23.287647,-10.140167,-9.296919,1.537793,-2.8504395,3.0957642,170.0
17339,-18.504276,-9.402512,-4.18906,1.537793,-2.8504395,3.0957642,170.0
17340,-18.504276,-9.402512,-4.18906,1.8192261,-3.7701416,5.0254397,170.0
17341,-12.306436,-7.191345,2.1881065,1.8192261,-3.7701416,5.0254397,170.0
17342,-12.306436,-7.191345,2.1881065,1.989148,-3.8678467,6.225513,170.0
17343,-5.930146,-6.206833,7.2399025,1.989148,-3.8678467,6.225513,170.0
17344,-5.930146,-6.206833,7.2399025,1.1363525,-3.9241333,7.682593,170.0
17345,-0.032154083,-8.466774,10.300957,1.1363525,-3.9241333,7.682593,170.0
17346,-0.032154083,-8.466774,10.300957,2.2026124,-4.619751,9.9244995,170.0
17347,8.179807,-14.57563,11.366436,2.2026124,-4.619751,9.9244995,170.0
17348,8.179807,-14.57563,11.366436,4.3160157,-4.3807983,12.891761,170.0
17349,20.764633,-20.237633,10.563511,4.3160157,-4.3807983,12.891761,170.0
17350,20.764633,-20.237633,10.563511,6.2807374,-1.174585,13.511975,170.0
17351,33.368042,-19.253448,8.930485,6.2807374,-1.174585,13.511975,170.0
17352,33.368042,-19.253448,8.930485,4.1312256,0.009558106,13.433387,170.0
17353,37.199097,-8.987572,5.657036,4.1312256,0.009558106,13.433387,170.0
17354,37.199097,-8.987572,5.657036,2.7378662,0.75615233,12.901319,170.0
17355,27.860157,6.404907,-0.03843689,2.7378662,0.75615233,12.901319,170.0
17356,27.860157,6.404907,-0.03843689,3.1339967,0.0637207,12.448901,170.0
17357,12.993874,21.352371,-6.272499,3.1339967,0.0637207,12.448901,170.0
17358,12.993874,21.352371,-6.272499,3.5757935,0.38657227,11.494153,170.0
17359,3.1632137,34.893585,-11.680389,3.5757935,0.38657227,11.494153,170.0
17360,3.1632137,34.893585,-11.680389,1.3965454,0.6796875,9.537928,170.0
17361,-1.1210155,45.027664,-14.5271,1.3965454,0.6796875,9.537928,170.0
17362,-1.1210155,45.027664,-14.5271,1.0036011,0.6595093,7.032642,170.0
17363,-3.6980095,50.829544,-15.673864,1.0036011,0.6595093,7.032642,170.0
17364,-3.6980095,50.829544,-15.673864,2.440503,0.31966552,2.70813,170.0
17365,-7.007017,51.588676,-13.394743,2.440503,0.31966552,2.70813,170.0
17366,-7.007017,51.588676,-13.394743,0.41949463,-2.1484497,-4.766309,170.0
17367,-7.007017,51.588676,-13.394743,0.41949463,-2.1484497,-4.766309,173.0
17368,-8.759933,43.398407,-5.9408684,0.41949463,-2.1484497,-4.766309,173.0
17369,-8.759933,43.398407,-5.9408684,-2.543518,-5.533081,-10.32063,173.0
17370,-4.0355835,26.175537,1.1512222,-2.543518,-5.533081,-10.32063,173.0
17371,-4.0355835,26.175537,1.1512222,-2.529712,-6.7543945,-13.874122,173.0
17372,4.342224,7.0522575,3.8947945,-2.529712,-6.7543945,-13.874122,173.0
17373,4.342224,7.0522575,3.8947945,-2.6412232,-6.6588135,-16.02151,173.0
17374,11.877733,-7.245144,3.416605,-2.6412232,-6.6588135,-16.02151,173.0
17375,11.877733,-7.245144,3.416605,-3.619336,-6.086389,-16.574818,173.0
17376,20.18235,-17.532822,2.1904755,-3.619336,-6.086389,-16.574818,173.0
17377,20.18235,-17.532822,2.1904755,-3.883777,-4.3829226,-15.44696,173.0
17378,30.647331,-26.825478,2.3335705,-3.883777,-4.3829226,-15.44696,173.0
17379,30.647331,-26.825478,2.3335705,-4.6516113,-2.5169678,-14.944629,173.0
17380,32.978035,-30.447052,4.2547474,-4.6516113,-2.5169678,-14.944629,173.0
17381,32.978035,-30.447052,4.2547474,-7.071936,-2.179248,-13.92085,173.0
17382,21.307598,-27.347214,6.010353,-7.071936,-2.179248,-13.92085,173.0
17383,21.307598,-27.347214,6.010353,-6.1044436,-1.6917847,-11.095899,173.0
17384,1.716465,-22.052391,6.072651,-6.1044436,-1.6917847,-11.095899,173.0
17385,1.716465,-22.052391,6.072651,-2.6837037,-0.35577393,-6.952991,173.0
17386,-16.343246,-14.356598,4.947891,-2.6837037,-0.35577393,-6.952991,173.0
17387,-16.343246,-14.356598,4.947891,-5.414136,0.2527588,-3.2720582,173.0
17388,-25.507423,-7.919739,3.8362541,-5.414136,0.2527588,-3.2720582,173.0
17389,-25.507423,-7.919739,3.8362541,-7.619934,0.25063476,-1.4666382,173.0
17390,-29.4351,-5.8160095,3.3800392,-7.619934,0.25063476,-1.4666382,173.0
17391,-29.4351,-5.8160095,3.3800392,-5.513965,1.9222412,-0.7582764,173.0
17392,-31.963472,-5.0791016,1.9592705,-5.513965,1.9222412,-0.7582764,173.0
17393,-31.963472,-5.0791016,1.9592705,-4.5485964,3.5556152,1.089624,173.0
17394,-30.725685,-5.2210007,-1.6142616,-4.5485964,3.5556152,1.089624,173.0
17395,-30.725685,-5.2210007,-1.6142616,-4.766309,1.5664673,0.46409914,173.0
17396,-24.65627,-8.46534,-5.223404,-4.766309,1.5664673,0.46409914,173.0
17397,-24.65627,-8.46534,-5.223404,-2.1994264,0.31435546,1.0439576,173.0
17398,-19.881424,-11.850418,-6.993469,-2.1994264,0.31435546,1.0439576,173.0
17399,-19.881424,-11.850418,-6.993469,0.9781128,-0.68287355,2.625293,173.0
17400,-18.882801,-11.183258,-5.7880363,0.9781128,-0.68287355,2.625293,173.0
17401,-18.882801,-11.183258,-5.7880363,1.9530395,-2.3088136,3.9230714,173.0
17402,-16.646488,-8.298439,-1.5347252,1.9530395,-2.3088136,3.9230714,173.0
17403,-16.646488,-8.298439,-1.5347252,2.72937,-3.25719,5.301563,173.0
17404,-10.459353,-6.1442566,3.1136398,2.72937,-3.25719,5.301563,173.0
17405,-10.459353,-6.1442566,3.1136398,2.8568115,-3.0044312,6.9455566,173.0
17406,-2.945095,-5.31382,5.996578,2.8568115,-3.0044312,6.9455566,173.0
17407,-2.945095,-5.31382,5.996578,1.6333741,-2.3109376,8.71062,173.0
17408,2.5732088,-6.1116867,7.1962967,1.6333741,-2.3109376,8.71062,173.0
17409,2.5732088,-6.1116867,7.1962967,0.75296634,-2.162256,10.614807,173.0
17410,6.888218,-9.007698,7.796589,0.75296634,-2.162256,10.614807,173.0
17411,6.888218,-9.007698,7.796589,1.2521118,-2.1845582,12.4988165,173.0
17412,17.19639,-15.668785,8.26453,1.2521118,-2.1845582,12.4988165,173.0
17413,17.19639,-15.668785,8.26453,3.911389,-0.5246338,13.158325,173.0
17414,31.836494,-18.110748,7.3822174,3.911389,-0.5246338,13.158325,173.0
17415,31.836494,-18.110748,7.3822174,3.164795,0.5915405,12.615638,173.0
17416,37.313606,-8.76503,4.448887,3.164795,0.5915405,12.615638,173.0
17417,37.313606,-8.76503,4.448887,1.6078857,-0.22727051,12.341639,173.0
17418,28.052313,6.4395294,0.4959488,1.6078857,-0.22727051,12.341639,173.0
17419,28.052313,6.4395294,0.4959488,2.8812377,-1.1395386,12.502002,173.0
17420,11.654167,21.471191,-3.839779,2.8812377,-1.1395386,12.502002,173.0
17421,11.654167,21.471191,-3.839779,4.5549684,-1.3391968,11.601417,173.0
17422,-0.47759438,34.565285,-8.502342,4.5549684,-1.3391968,11.601417,173.0
17423,-0.47759438,34.565285,-8.502342,3.7616456,-0.89421386,9.611206,173.0
17424,-4.692953,44.90815,-13.145882,3.7616456,-0.89421386,9.611206,173.0
17425,-4.692953,44.90815,-13.145882,3.0405395,0.29205322,7.3512454,173.0
17426,-5.9696712,49.57171,-16.548334,3.0405395,0.29205322,7.3512454,173.0
17427,-5.9696712,49.57171,-16.548334,1.3062744,0.63826907,3.4844606,173.0
17428,-9.525749,45.99759,-15.333931,1.3062744,0.63826907,3.4844606,173.0
17429,-9.525749,45.99759,-15.333931,-0.57242435,-1.7289551,-2.1495118,173.0
17430,-12.60091,35.963734,-11.034782,-0.57242435,-1.7289551,-2.1495118,173.0
17431,-12.60091,35.963734,-11.034782,-2.4670532,-4.4137206,-7.316199,173.0
17432,-9.973808,22.35934,-7.317255,-2.4670532,-4.4137206,-7.316199,173.0
17433,-9.973808,22.35934,-7.317255,-3.7913818,-5.7412353,-10.153894,173.0
17434,-3.1855164,7.1537666,-2.302412,-3.7913818,-5.7412353,-10.153894,173.0
17435,-3.1855164,7.1537666,-2.302412,-4.236365,-6.521814,-12.665552,173.0
17436,3.3846684,-5.6380615,3.510975,-4.236365,-6.521814,-12.665552,173.0
17437,3.3846684,-5.6380615,3.510975,-2.812207,-6.052405,-13.834826,173.0
17438,8.927267,-13.092117,7.2037277,-2.812207,-6.052405,-13.834826,173.0
17439,8.927267,-13.092117,7.2037277,-2.7814088,-3.511011,-13.431262,173.0
17440,14.494705,-16.727428,9.962921,-2.7814088,-3.511011,-13.431262,173.0
17441,14.494705,-16.727428,9.962921,-5.336609,-1.8255981,-13.072303,173.0
17442,22.580093,-19.459152,9.559376,-5.336609,-1.8255981,-13.072303,173.0
17443,22.580093,-19.459152,9.559376,-8.310242,0.2166504,-13.078674,173.0
17444,29.925465,-22.395485,5.586893,-8.310242,0.2166504,-13.078674,173.0
17445,29.925465,-22.395485,5.586893,-11.632215,0.7943848,-13.932532,173.0
17446,28.529816,-28.644234,4.264448,-11.632215,0.7943848,-13.932532,173.0
17447,28.529816,-28.644234,4.264448,-7.3172607,0.9589966,-10.85376,173.0
17448,10.871216,-32.69905,5.8368874,-7.3172607,0.9589966,-10.85376,173.0
17449,10.871216,-32.69905,5.8368874,-1.0450195,1.1098022,-5.3928957,173.0
17450,-15.146202,-23.348534,6.172882,-1.0450195,1.1098022,-5.3928957,173.0
17451,-15.146202,-23.348534,6.172882,-3.8572266,0.814563,-1.2584839,173.0
17452,-30.160568,-8.978493,4.8976326,-3.8572266,0.814563,-1.2584839,173.0
17453,-30.160568,-8.978493,4.8976326,-3.443042,1.4581422,0.1178833,173.0
17454,-33.06775,-1.1650467,2.6065598,-3.443042,1.4581422,0.1178833,173.0
17455,-33.06775,-1.1650467,2.6065598,-2.2812011,4.072815,1.1002442,173.0
17456,-32.156666,1.2618484,-0.3570633,-2.2812011,4.072815,1.1002442,173.0
17457,-32.156666,1.2618484,-0.3570633,-4.1875124,5.4109497,3.1902833,173.0
17458,-29.470121,0.645401,-5.3450737,-4.1875124,5.4109497,3.1902833,173.0
17459,-29.470121,0.645401,-5.3450737,-4.797107,4.3627443,2.3852785,173.0
17460,-26.703197,-1.939537,-10.937546,-4.797107,4.3627443,2.3852785,173.0
17461,-26.703197,-1.939537,-10.937546,-2.8323853,2.3810303,2.709192,173.0
17462,-25.233738,-4.255295,-12.927429,-2.8323853,2.3810303,2.709192,173.0
17463,-25.233738,-4.255295,-12.927429,-0.021240234,-1.1140503,3.3570192,173.0
17464,-22.462978,-3.9921494,-10.619057,-0.021240234,-1.1140503,3.3570192,173.0
17465,-22.462978,-3.9921494,-10.619057,1.1586548,-2.9651368,4.6452394,173.0
17466,-16.957188,-1.9523926,-5.2032166,1.1586548,-2.9651368,4.6452394,173.0
17467,-16.957188,-1.9523926,-5.2032166,0.63933104,-4.3818603,5.1911135,173.0
17468,-9.201077,-2.2944946,1.6673946,0.63933104,-4.3818603,5.1911135,173.0
17469,-9.201077,-2.2944946,1.6673946,0.65632325,-5.0498657,5.7231812,173.0
17470,-9.201077,-2.2944946,1.6673946,0.65632325,-5.0498657,5.7231812,175.0
17471,-1.2462997,-6.411476,7.1120644,0.65632325,-5.0498657,5.7231812,175.0
17472,-1.2462997,-6.411476,7.1120644,0.9653687,-5.2994385,7.598694,175.0
17473,5.4456244,-12.71003,9.576529,0.9653687,-5.2994385,7.598694,175.0
17474,5.4456244,-12.71003,9.576529,1.0418335,-5.1188965,10.100794,175.0
17475,14.9201355,-22.467773,10.169804,1.0418335,-5.1188965,10.100794,175.0
17476,14.9201355,-22.467773,10.169804,3.3432128,-3.6055298,12.667676,175.0
17477,27.169933,-27.211243,9.5847435,3.3432128,-3.6055298,12.667676,175.0
17478,27.169933,-27.211243,9.5847435,4.4923096,-0.3993164,11.912585,175.0
17479,33.927135,-17.175827,7.660652,4.4923096,-0.3993164,11.912585,175.0
17480,33.927135,-17.175827,7.660652,1.0471436,-0.36002198,11.619471,175.0
17481,29.909126,0.68672943,4.6506767,1.0471436,-0.36002198,11.619471,175.0
17482,29.909126,0.68672943,4.6506767,1.5770874,-1.5462891,12.002856,175.0
17483,18.128937,17.889595,0.35017014,1.5770874,-1.5462891,12.002856,175.0
17484,18.128937,17.889595,0.35017014,4.0239625,-2.879114,11.070411,175.0
17485,6.9592285,33.369537,-5.276638,4.0239625,-2.879114,11.070411,175.0
17486,6.9592285,33.369537,-5.276638,5.3005004,-3.0564697,8.9081545,175.0
17487,0.7025032,47.921158,-11.303413,5.3005004,-3.0564697,8.9081545,175.0
17488,0.7025032,47.921158,-11.303413,4.313892,-1.6875366,6.4209228,175.0
17489,-3.3362637,55.81662,-14.521065,4.313892,-1.6875366,6.4209228,175.0
17490,-3.3362637,55.81662,-14.521065,1.1618408,-1.1682129,2.427759,175.0
17491,-5.119171,49.70227,-12.482353,1.1618408,-1.1682129,2.427759,175.0
17492,-5.119171,49.70227,-12.482353,-0.2347046,-1.5016845,-0.45135498,175.0
17493,-8.827354,39.531433,-7.6596127,-0.2347046,-1.5016845,-0.45135498,175.0
17494,-8.827354,39.531433,-7.6596127,-3.0989501,-3.6841187,-8.068103,175.0
17495,-6.4279976,26.68407,-4.829912,-3.0989501,-3.6841187,-8.068103,175.0
17496,-6.4279976,26.68407,-4.829912,-3.2932985,-4.0388308,-9.647315,175.0
17497,3.5724335,5.564663,-2.4913578,-3.2932985,-4.0388308,-9.647315,175.0
17498,3.5724335,5.564663,-2.4913578,-3.6002197,-5.0434937,-13.518348,175.0
17499,6.7737923,-1.9489517,-0.7135582,-3.6002197,-5.0434937,-13.518348,175.0
17500,6.7737923,-1.9489517,-0.7135582,-3.6883667,-5.6467166,-14.392383,175.0
17501,16.197416,-14.674393,1.3234539,-3.6883667,-5.6467166,-14.392383,175.0
17502,16.197416,-14.674393,1.3234539,-2.261023,-5.3833375,-14.698242,175.0
17503,18.826733,-16.919937,2.27318,-2.261023,-5.3833375,-14.698242,175.0
17504,18.826733,-16.919937,2.27318,-2.3311157,-5.1847415,-14.774707,175.0
17505,28.554588,-23.742004,7.8923225,-2.3311157,-5.1847415,-14.774707,175.0
17506,28.554588,-23.742004,7.8923225,-2.987439,-4.505054,-13.162574,175.0
17507,27.619198,-21.301361,7.0660553,-2.987439,-4.505054,-13.162574,175.0
17508,27.619198,-21.301361,7.0660553,-4.2947755,-3.6734986,-12.16853,175.0
17509,18.578182,-21.630272,7.627941,-4.2947755,-3.6734986,-12.16853,175.0
17510,18.578182,-21.630272,7.627941,-6.86803,-2.6051147,-7.0804324,175.0
17511,9.394638,-18.936783,6.7817116,-6.86803,-2.6051147,-7.0804324,175.0
17512,9.394638,-18.936783,6.7817116,-5.572376,-1.7873658,-5.6499023,175.0
17513,-14.744728,-16.029625,8.288872,-5.572376,-1.7873658,-5.6499023,175.0
17514,-14.744728,-16.029625,8.288872,-7.2015014,1.1066163,-0.80606693,175.0
17515,-18.1456,-11.188339,6.2280807,-7.2015014,1.1066163,-0.80606693,175.0
17516,-18.1456,-11.188339,6.2280807,-8.661768,1.539917,-0.11257324,175.0
17517,-27.937084,-6.8175964,4.8117027,-8.661768,1.539917,-0.11257324,175.0
17518,-27.937084,-6.8175964,4.8117027,-6.869092,3.9432495,0.7540283,175.0
17519,-26.287094,-5.3597107,3.046444,-6.869092,3.9432495,0.7540283,175.0
17520,-26.287094,-5.3597107,3.046444,-5.7401733,5.0073853,1.7002808,175.0
17521,-28.255884,-3.8191147,-0.45254135,-5.7401733,5.0073853,1.7002808,175.0
17522,-28.255884,-3.8191147,-0.45254135,-5.2835083,5.037122,2.795215,175.0
17523,-27.77097,-2.9760056,-5.360924,-5.2835083,5.037122,2.795215,175.0
17524,-27.77097,-2.9760056,-5.360924,-4.6792235,3.437732,2.3778443,175.0
17525,-28.717728,-6.4399796,-11.19289,-4.6792235,3.437732,2.3778443,175.0
17526,-28.717728,-6.4399796,-11.19289,-1.0354614,-0.081774905,2.6475952,175.0
17527,-25.085999,-6.620178,-10.267532,-1.0354614,-0.081774905,2.6475952,175.0
17528,-25.085999,-6.620178,-10.267532,-0.4258667,-1.0694458,3.1276245,175.0
17529,-21.0745,-6.651306,-6.2984734,-0.4258667,-1.0694458,3.1276245,175.0
17530,-21.0745,-6.651306,-6.2984734,0.41099855,-4.0186524,4.882068,175.0
17531,-15.778106,-5.7843933,-3.0435753,0.41099855,-4.0186524,4.882068,175.0
17532,-15.778106,-5.7843933,-3.0435753,0.9547486,-4.37655,5.227222,175.0
17533,-7.106701,-6.3156967,1.8345985,0.9547486,-4.37655,5.227222,175.0
17534,-7.106701,-6.3156967,1.8345985,0.632959,-4.4731936,6.5547366,175.0
17535,0.5346098,-9.363922,5.7015533,0.632959,-4.4731936,6.5547366,175.0
17536,0.5346098,-9.363922,5.7015533,0.025488282,-5.2771363,8.850806,175.0
17537,7.169961,-15.412254,7.6319103,0.025488282,-5.2771363,8.850806,175.0
17538,7.169961,-15.412254,7.6319103,1.2829102,-4.886316,11.435742,175.0
17539,17.98155,-22.905571,7.779896,1.2829102,-4.886316,11.435742,175.0
17540,17.98155,-22.905571,7.779896,4.3946047,-3.1297486,13.1848755,175.0
17541,31.6969,-22.744087,6.8928146,4.3946047,-3.1297486,13.1848755,175.0
17542,31.6969,-22.744087,6.8928146,4.7333865,-0.79013675,11.58761,175.0
17543,35.52108,-9.051743,4.9215164,4.7333865,-0.79013675,11.58761,175.0
17544,35.52108,-9.051743,4.9215164,2.2142944,-1.1883911,11.387952,175.0
17545,25.996517,8.755775,1.7345505,2.2142944,-1.1883911,11.387952,175.0
17546,25.996517,8.755775,1.7345505,2.436255,-2.0220704,11.407068,175.0
17547,12.290134,24.11499,-2.312458,2.436255,-2.0220704,11.407068,175.0
17548,12.290134,24.11499,-2.312458,2.7113159,-2.5127199,10.208056,175.0
17549,1.9176064,37.567047,-5.8192406,2.7113159,-2.5127199,10.208056,175.0
17550,1.9176064,37.567047,-5.8192406,3.6841187,-2.0231323,7.7622437,175.0
17551,-4.3829193,48.90399,-8.399738,3.6841187,-2.0231323,7.7622437,175.0
17552,-4.3829193,48.90399,-8.399738,4.1938844,-0.631897,4.811975,175.0
17553,-7.670105,54.240173,-10.0056305,4.1938844,-0.631897,4.811975,175.0
17554,-7.670105,54.240173,-10.0056305,0.73597413,-0.3440918,0.93775636,175.0
17555,-8.148485,47.24099,-9.302465,0.73597413,-0.3440918,0.93775636,175.0
17556,-8.148485,47.24099,-9.302465,-2.5137818,-1.2191895,-4.4965577,175.0
17557,-5.6962414,30.763252,-6.370781,-2.5137818,-1.2191895,-4.4965577,175.0
17558,-5.6962414,30.763252,-6.370781,-3.978296,-2.5605104,-8.154126,175.0
17559,-0.900877,13.573933,-3.4069767,-3.978296,-2.5605104,-8.154126,175.0
17560,-0.900877,13.573933,-3.4069767,-2.0539308,-2.975757,-10.559583,175.0
17561,4.617214,1.5189247,-0.4389,-2.0539308,-2.975757,-10.559583,175.0
17562,4.617214,1.5189247,-0.4389,-1.26167,-3.7658937,-12.639002,175.0
17563,9.39089,-5.900055,3.1072788,-1.26167,-3.7658937,-12.639002,175.0
17564,9.39089,-5.900055,3.1072788,-0.9781128,-4.252295,-13.568262,175.0
17565,13.853228,-12.18689,5.987459,-0.9781128,-4.252295,-13.568262,175.0
17566,13.853228,-12.18689,5.987459,-0.48533937,-3.6915529,-13.492859,175.0
17567,13.853228,-12.18689,5.987459,-0.48533937,-3.6915529,-13.492859,178.0
17568,17.2532,-17.698364,8.03904,-0.48533937,-3.6915529,-13.492859,178.0
17569,17.2532,-17.698364,8.03904,-1.2351197,-3.7308471,-13.232666,178.0
17570,20.995419,-20.672684,8.052105,-1.2351197,-3.7308471,-13.232666,178.0
17571,20.995419,-20.672684,8.052105,-2.1165893,-2.631665,-11.655579,178.0
17572,22.43164,-20.88285,5.9709435,-2.1165893,-2.631665,-11.655579,178.0
17573,22.43164,-20.88285,5.9709435,-6.1724124,-2.1346436,-10.756055,178.0
17574,15.231041,-21.157402,4.6728134,-6.1724124,-2.1346436,-10.756055,178.0
17575,15.231041,-21.157402,4.6728134,-7.9958863,-1.2595459,-6.5781007,178.0
17576,0.78726196,-21.880943,5.066559,-7.9958863,-1.2595459,-6.5781007,178.0
17577,0.78726196,-21.880943,5.066559,-4.9160523,0.045666505,-3.3294067,178.0
17578,-13.603455,-17.717255,5.364147,-4.9160523,0.045666505,-3.3294067,178.0
17579,-13.603455,-17.717255,5.364147,-4.713208,0.95581055,-1.173523,178.0
17580,-21.431812,-9.779686,4.0454445,-4.713208,0.95581055,-1.173523,178.0
17581,-21.431812,-9.779686,4.0454445,-5.2856326,1.5473511,-0.58304447,178.0
17582,-24.607817,-4.4221573,2.1784096,-5.2856326,1.5473511,-0.58304447,178.0
17583,-24.607817,-4.4221573,2.1784096,-3.9496217,3.0405395,0.3536499,178.0
17584,-26.261927,-1.9651947,0.76963043,-3.9496217,3.0405395,0.3536499,178.0
17585,-26.261927,-1.9651947,0.76963043,-2.7453003,4.3744264,2.614673,178.0
17586,-25.054329,-0.18727112,-1.9892769,-2.7453003,4.3744264,2.614673,178.0
17587,-25.054329,-0.18727112,-1.9892769,-3.4302979,4.335132,1.8691406,178.0
17588,-22.4388,0.10134125,-5.958378,-3.4302979,4.335132,1.8691406,178.0
17589,-22.4388,0.10134125,-5.958378,-3.4249878,3.2529418,2.083667,178.0
17590,-21.613297,-2.0317078,-8.869911,-3.4249878,3.2529418,2.083667,178.0
17591,-21.613297,-2.0317078,-8.869911,-2.1208375,1.4570801,2.2429688,178.0
17592,-22.194458,-3.976799,-9.526974,-2.1208375,1.4570801,2.2429688,178.0
17593,-22.194458,-3.976799,-9.526974,-1.2202514,-0.7763306,3.2954223,178.0
17594,-20.668005,-4.7686615,-6.904257,-1.2202514,-0.7763306,3.2954223,178.0
17595,-20.668005,-4.7686615,-6.904257,0.12000733,-2.9300904,3.9050171,178.0
17596,-14.893572,-5.1225357,-2.5734787,0.12000733,-2.9300904,3.9050171,178.0
17597,-14.893572,-5.1225357,-2.5734787,0.42799073,-3.5481813,4.787549,178.0
17598,-7.299013,-5.7555847,1.4988594,0.42799073,-3.5481813,4.787549,178.0
17599,-7.299013,-5.7555847,1.4988594,-0.23045655,-3.7265992,6.0035524,178.0
17600,-0.46472263,-9.034874,5.022587,-0.23045655,-3.7265992,6.0035524,178.0
17601,-0.46472263,-9.034874,5.022587,-0.28568116,-4.642053,7.8355227,178.0
17602,7.8051634,-17.069145,7.397732,-0.28568116,-4.642053,7.8355227,178.0
17603,7.8051634,-17.069145,7.397732,0.43861085,-5.5914917,11.324231,178.0
17604,23.43842,-26.5951,7.534298,0.43861085,-5.5914917,11.324231,178.0
17605,23.43842,-26.5951,7.534298,4.179016,-1.3997315,11.929578,178.0
17606,37.68538,-23.912163,5.7411613,4.179016,-1.3997315,11.929578,178.0
17607,37.68538,-23.912163,5.7411613,2.1123414,-1.0503296,11.272193,178.0
17608,36.024757,-6.2644653,3.650692,2.1123414,-1.0503296,11.272193,178.0
17609,36.024757,-6.2644653,3.650692,0.8952759,-2.0231323,11.426185,178.0
17610,22.802727,12.699257,1.0588455,0.8952759,-2.0231323,11.426185,178.0
17611,22.802727,12.699257,1.0588455,2.2981935,-3.0479736,10.831458,178.0
17612,8.500799,27.265442,-1.7611885,2.2981935,-3.0479736,10.831458,178.0
17613,8.500799,27.265442,-1.7611885,3.3665771,-3.617212,8.895411,178.0
17614,-1.5919514,38.929955,-4.0710106,3.3665771,-3.617212,8.895411,178.0
17615,-1.5919514,38.929955,-4.0710106,3.9432495,-2.6507814,6.496326,178.0
17616,-7.2951546,46.77076,-5.7551117,3.9432495,-2.6507814,6.496326,178.0
17617,-7.2951546,46.77076,-5.7551117,2.9364624,-1.4092896,4.3680544,178.0
17618,-10.348368,47.725967,-6.2113266,2.9364624,-1.4092896,4.3680544,178.0
17619,-10.348368,47.725967,-6.2113266,1.0567017,-0.6881836,1.2043213,178.0
17620,-11.100679,40.020546,-4.9401054,1.0567017,-0.6881836,1.2043213,178.0
17621,-11.100679,40.020546,-4.9401054,-0.16461182,-0.7338501,-3.8455446,178.0
17622,-8.9933605,26.608234,-3.1289883,-0.16461182,-0.7338501,-3.8455446,178.0
17623,-8.9933605,26.608234,-3.1289883,-2.447937,-1.5123047,-7.149463,178.0
17624,-3.9549665,13.191483,-3.0948524,-2.447937,-1.5123047,-7.149463,178.0
17625,-3.9549665,13.191483,-3.0948524,-2.8153932,-1.5972656,-8.930457,178.0
17626,2.2069244,3.4351196,-3.973503,-2.8153932,-1.5972656,-8.930457,178.0
17627,2.2069244,3.4351196,-3.973503,-2.0273805,-1.4560181,-11.073596,178.0
17628,7.2312746,-2.5468292,-2.8933544,-2.0273805,-1.4560181,-11.073596,178.0
17629,7.2312746,-2.5468292,-2.8933544,-1.803296,-2.162256,-12.66449,178.0
17630,10.92418,-7.5279045,0.045009613,-1.803296,-2.162256,-12.66449,178.0
17631,10.92418,-7.5279045,0.045009613,-1.2414917,-2.7431762,-13.2932005,178.0
17632,14.94009,-13.032688,2.865696,-1.2414917,-2.7431762,-13.2932005,178.0
17633,14.94009,-13.032688,2.865696,-0.67650145,-3.1892211,-13.743494,178.0
17634,18.868614,-17.858551,5.1273346,-0.67650145,-3.1892211,-13.743494,178.0
17635,18.868614,-17.858551,5.1273346,0.42799073,-3.2794921,-12.926806,178.0
17636,22.652533,-19.178726,5.7843246,0.42799073,-3.2794921,-12.926806,178.0
17637,22.652533,-19.178726,5.7843246,-0.24744873,-2.7686646,-11.061914,178.0
17638,21.9076,-16.381645,4.744438,-0.24744873,-2.7686646,-11.061914,178.0
17639,21.9076,-16.381645,4.744438,-3.7690797,-2.716626,-9.811927,178.0
17640,13.016243,-13.980293,4.554291,-3.7690797,-2.716626,-9.811927,178.0
17641,13.016243,-13.980293,4.554291,-5.5362673,-1.713025,-5.900537,178.0
17642,-0.25027466,-13.970894,5.527748,-5.5362673,-1.713025,-5.900537,178.0
17643,-0.25027466,-13.970894,5.527748,-5.6201663,-0.059472658,-2.5042236,178.0
17644,-12.213402,-12.508575,5.6103706,-5.6201663,-0.059472658,-2.5042236,178.0
17645,-12.213402,-12.508575,5.6103706,-7.5636477,1.1246704,-0.18054199,178.0
17646,-18.44256,-9.668198,3.6082687,-7.5636477,1.1246704,-0.18054199,178.0
17647,-18.44256,-9.668198,3.6082687,-7.3130126,1.7533814,0.16992188,178.0
17648,-21.580343,-7.4516907,0.8377762,-7.3130126,1.7533814,0.16992188,178.0
17649,-21.580343,-7.4516907,0.8377762,-4.5560303,3.074524,0.5586182,178.0
17650,-24.04959,-4.899719,-1.955658,-4.5560303,3.074524,0.5586182,178.0
17651,-24.04959,-4.899719,-1.955658,-3.9166992,4.077063,1.7979859,178.0
17652,-23.77025,-2.4765625,-6.2707634,-3.9166992,4.077063,1.7979859,178.0
17653,-23.77025,-2.4765625,-6.2707634,-5.216602,3.352771,1.1416626,178.0
17654,-21.295742,-3.034912,-10.239342,-5.216602,3.352771,1.1416626,178.0
17655,-21.295742,-3.034912,-10.239342,-4.254419,1.6960328,1.3190186,178.0
17656,-18.997652,-6.1840973,-11.292902,-4.254419,1.6960328,1.3190186,178.0
17657,-18.997652,-6.1840973,-11.292902,-1.09281,-0.83686525,2.0146363,178.0
17658,-17.254055,-7.188759,-9.743954,-1.09281,-0.83686525,2.0146363,178.0
17659,-17.254055,-7.188759,-9.743954,0.2623169,-2.4659913,3.1127565,178.0
17660,-15.342551,-5.8385925,-5.711241,0.2623169,-2.4659913,3.1127565,178.0
17661,-15.342551,-5.8385925,-5.711241,0.5787964,-4.054761,4.066443,178.0
17662,-11.147991,-5.42717,-1.0988388,0.5787964,-4.054761,4.066443,178.0
17663,-11.147991,-5.42717,-1.0988388,0.7827026,-3.9751098,5.2643924,178.0
17664,-5.4332247,-6.783333,2.3903122,0.7827026,-3.9751098,5.2643924,178.0
17665,-5.4332247,-6.783333,2.3903122,0.035046387,-4.4785037,6.685364,178.0
17666,0.15754604,-10.625557,4.539116,0.035046387,-4.4785037,6.685364,178.0
17667,0.15754604,-10.625557,4.539116,0.7625244,-5.5872436,8.869922,178.0
17668,8.109398,-17.779327,5.5139847,0.7625244,-5.5872436,8.869922,178.0
17669,8.109398,-17.779327,5.5139847,2.4999757,-5.911157,11.899841,178.0
17670,8.109398,-17.779327,5.5139847,2.4999757,-5.911157,11.899841,180.0
17671,21.883478,-24.724167,5.3553886,2.4999757,-5.911157,11.899841,180.0
17672,21.883478,-24.724167,5.3553886,5.7422976,-2.4086425,11.840369,180.0
17673,34.03082,-22.032776,4.521847,5.7422976,-2.4086425,11.840369,180.0
17674,34.03082,-22.032776,4.521847,3.338965,-1.7958618,11.549377,180.0
17675,33.997044,-7.679901,3.5762558,3.338965,-1.7958618,11.549377,180.0
17676,33.997044,-7.679901,3.5762558,2.0061402,-2.1218994,11.444239,180.0
17677,23.061966,9.587341,1.6052551,2.0061402,-2.1218994,11.444239,180.0
17678,23.061966,9.587341,1.6052551,3.346399,-3.0086792,10.928101,180.0
17679,8.530479,24.523514,-1.0633659,3.346399,-3.0086792,10.928101,180.0
17680,8.530479,24.523514,-1.0633659,4.766309,-3.3251588,9.478455,180.0
17681,-3.2195854,36.29026,-3.4360313,4.766309,-3.3251588,9.478455,180.0
17682,-3.2195854,36.29026,-3.4360313,4.500806,-2.8398194,7.6358643,180.0
17683,-9.006371,43.031815,-4.77656,4.500806,-2.8398194,7.6358643,180.0
17684,-9.006371,43.031815,-4.77656,3.6618164,-1.7735596,5.904785,180.0
17685,-10.065252,44.26786,-5.588852,3.6618164,-1.7735596,5.904785,180.0
17686,-10.065252,44.26786,-5.588852,1.9530395,-0.80181885,3.2306397,180.0
17687,-9.73289,40.393112,-5.5458508,1.9530395,-0.80181885,3.2306397,180.0
17688,-9.73289,40.393112,-5.5458508,-0.7869507,-0.8931519,-1.0439576,180.0
17689,-8.318356,31.300049,-3.8913689,-0.7869507,-0.8931519,-1.0439576,180.0
17690,-8.318356,31.300049,-3.8913689,-2.5498903,-2.084729,-5.431128,180.0
17691,-3.8992643,20.030655,-3.2764874,-2.5498903,-2.084729,-5.431128,180.0
17692,-3.8992643,20.030655,-3.2764874,-2.6008668,-2.5636964,-8.50459,180.0
17693,2.22534,10.79557,-4.2844715,-2.6008668,-2.5636964,-8.50459,180.0
17694,2.22534,10.79557,-4.2844715,-2.3916504,-2.8515015,-11.264758,180.0
17695,7.874571,3.7997513,-3.0891361,-2.3916504,-2.8515015,-11.264758,180.0
17696,7.874571,3.7997513,-3.0891361,-3.1955934,-4.163086,-13.420642,180.0
17697,13.448412,-3.9500046,0.31975555,-3.1955934,-4.163086,-13.420642,180.0
17698,13.448412,-3.9500046,0.31975555,-2.3066895,-5.0095096,-14.490088,180.0
17699,19.612232,-12.833221,3.0544014,-2.3066895,-5.0095096,-14.490088,180.0
17700,19.612232,-12.833221,3.0544014,-0.814563,-4.4816895,-14.582483,180.0
17701,24.584599,-19.719643,5.711796,-0.814563,-4.4816895,-14.582483,180.0
17702,24.584599,-19.719643,5.711796,-0.94731444,-4.0133424,-13.902796,180.0
17703,29.4642,-21.899788,6.655922,-0.94731444,-4.0133424,-13.902796,180.0
17704,29.4642,-21.899788,6.655922,-3.6873047,-2.9640749,-13.072303,180.0
17705,29.13652,-21.059685,5.62022,-3.6873047,-2.9640749,-13.072303,180.0
17706,29.13652,-21.059685,5.62022,-6.609961,-3.0309815,-11.213782,180.0
17707,17.12516,-21.237396,6.0245094,-6.609961,-3.0309815,-11.213782,180.0
17708,17.12516,-21.237396,6.0245094,-3.6002197,-2.275891,-7.7569337,180.0
17709,-1.2787552,-18.769325,6.5881615,-3.6002197,-2.275891,-7.7569337,180.0
17710,-1.2787552,-18.769325,6.5881615,-3.893335,-0.8995239,-4.190698,180.0
17711,-16.31176,-11.302139,5.146042,-3.893335,-0.8995239,-4.190698,180.0
17712,-16.31176,-11.302139,5.146042,-7.516919,-0.0637207,-2.451123,180.0
17713,-23.572739,-5.9454803,2.298439,-7.516919,-0.0637207,-2.451123,180.0
17714,-23.572739,-5.9454803,2.298439,-7.779236,1.1044922,-2.456433,180.0
17715,-27.006226,-4.414261,0.17395782,-7.779236,1.1044922,-2.456433,180.0
17716,-27.006226,-4.414261,0.17395782,-6.7310305,2.451123,-1.1427246,180.0
17717,-27.418848,-3.5473022,-1.2721367,-6.7310305,2.451123,-1.1427246,180.0
17718,-27.418848,-3.5473022,-1.2721367,-6.761829,2.3130615,0.14974366,180.0
17719,-22.933382,-3.411499,-3.4078827,-6.761829,2.3130615,0.14974366,180.0
17720,-22.933382,-3.411499,-3.4078827,-5.6318483,1.9137452,0.31329346,180.0
17721,-17.138319,-4.4366226,-5.1655884,-5.6318483,1.9137452,0.31329346,180.0
17722,-17.138319,-4.4366226,-5.1655884,-3.5747316,1.1055542,0.6818115,180.0
17723,-15.449376,-5.6081467,-5.247608,-3.5747316,1.1055542,0.6818115,180.0
17724,-15.449376,-5.6081467,-5.247608,-1.6737305,-0.3334717,1.5972656,180.0
17725,-17.049564,-6.266411,-4.564369,-1.6737305,-0.3334717,1.5972656,180.0
17726,-17.049564,-6.266411,-4.564369,-0.39613038,-1.179895,2.5190918,180.0
17727,-17.973623,-6.660164,-3.2811584,-0.39613038,-1.179895,2.5190918,180.0
17728,-17.973623,-6.660164,-3.2811584,-0.050976563,-2.0942872,3.4334838,180.0
17729,-15.669792,-7.4354095,-1.1795406,-0.050976563,-2.0942872,3.4334838,180.0
17730,-15.669792,-7.4354095,-1.1795406,0.38232422,-2.913098,4.821533,180.0
17731,-10.226837,-8.604462,1.1264248,0.38232422,-2.913098,4.821533,180.0
17732,-10.226837,-8.604462,1.1264248,1.2414917,-3.889087,6.34552,180.0
17733,-2.9268193,-9.988846,3.2150555,1.2414917,-3.889087,6.34552,180.0
17734,-2.9268193,-9.988846,3.2150555,1.713025,-4.2990236,8.376086,180.0
17735,4.449805,-11.937973,4.473974,1.713025,-4.2990236,8.376086,180.0
17736,4.449805,-11.937973,4.473974,2.1335816,-3.983606,10.64242,180.0
17737,12.603948,-16.362045,5.9343796,2.1335816,-3.983606,10.64242,180.0
17738,12.603948,-16.362045,5.9343796,3.2125854,-3.5906618,12.931055,180.0
17739,25.515972,-21.749237,7.7215157,3.2125854,-3.5906618,12.931055,180.0
17740,25.515972,-21.749237,7.7215157,5.60636,-1.1352905,12.642188,180.0
17741,37.77728,-18.353928,7.309059,5.60636,-1.1352905,12.642188,180.0
17742,37.77728,-18.353928,7.309059,3.7913818,-0.8952759,12.165344,180.0
17743,36.956516,-3.6845398,4.2249947,3.7913818,-0.8952759,12.165344,180.0
17744,36.956516,-3.6845398,4.2249947,3.2062135,-1.6206299,12.162158,180.0
17745,22.461418,13.88932,-0.7875328,3.2062135,-1.6206299,12.162158,180.0
17746,22.461418,13.88932,-0.7875328,4.7397585,-1.8712647,10.957837,180.0
17747,4.8960495,29.315903,-6.463436,4.7397585,-1.8712647,10.957837,180.0
17748,4.8960495,29.315903,-6.463436,5.0498657,-1.3933594,9.05896,180.0
17749,-7.2799873,41.12146,-10.800056,5.0498657,-1.3933594,9.05896,180.0
17750,-7.2799873,41.12146,-10.800056,4.13335,-0.5384399,6.3593264,180.0
17751,-13.369425,47.323174,-12.419611,4.13335,-0.5384399,6.3593264,180.0
17752,-13.369425,47.323174,-12.419611,2.0581787,-0.20496826,4.1269774,180.0
17753,-15.501911,46.28736,-11.211494,2.0581787,-0.20496826,4.1269774,180.0
17754,-15.501911,46.28736,-11.211494,-0.45029297,-0.9876709,0.65207523,180.0
17755,-14.150431,38.287704,-8.147369,-0.45029297,-0.9876709,0.65207523,180.0
17756,-14.150431,38.287704,-8.147369,-2.1558838,-2.270581,-4.420093,180.0
17757,-10.353059,25.900707,-4.89353,-2.1558838,-2.270581,-4.420093,180.0
17758,-10.353059,25.900707,-4.89353,-3.445166,-3.3081665,-7.425586,180.0
17759,-5.0075693,13.044785,-2.9619427,-3.445166,-3.3081665,-7.425586,180.0
17760,-5.0075693,13.044785,-2.9619427,-2.1973023,-3.4239259,-9.44447,180.0
17761,0.55068207,3.4077415,-1.2431641,-2.1973023,-3.4239259,-9.44447,180.0
17762,0.55068207,3.4077415,-1.2431641,-1.8521484,-4.1291018,-11.677881,180.0
17763,5.511322,-2.6774063,1.0284195,-1.8521484,-4.1291018,-11.677881,180.0
17764,5.511322,-2.6774063,1.0284195,-2.2387207,-5.1348267,-12.788745,180.0
17765,11.095226,-8.068817,2.3980045,-2.2387207,-5.1348267,-12.788745,180.0
17766,11.095226,-8.068817,2.3980045,-1.6779785,-5.3079348,-13.013892,180.0
17767,16.889524,-13.809582,3.3208199,-1.6779785,-5.3079348,-13.013892,180.0
17768,16.889524,-13.809582,3.3208199,-0.6956177,-5.2994385,-12.798304,180.0
17769,22.938866,-17.14885,4.328335,-0.6956177,-5.2994385,-12.798304,180.0
17770,22.938866,-17.14885,4.328335,-0.3058594,-5.054114,-11.552564,180.0
17771,22.938866,-17.14885,4.328335,-0.3058594,-5.054114,-11.552564,179.0
17772,26.588177,-17.13601,5.4624596,-0.3058594,-5.054114,-11.552564,179.0
17773,26.588177,-17.13601,5.4624596,-2.5137818,-4.721704,-10.419397,179.0
17774,21.725769,-16.981377,8.05677,-2.5137818,-4.721704,-10.419397,179.0
17775,21.725769,-16.981377,8.05677,-4.134412,-4.250171,-6.676868,179.0
17776,8.535217,-17.477432,11.247234,-4.134412,-4.250171,-6.676868,179.0
17777,8.535217,-17.477432,11.247234,-3.5694215,-2.5913086,-2.7697265,179.0
17778,-6.401161,-15.408279,12.398926,-3.5694215,-2.5913086,-2.7697265,179.0
17779,-6.401161,-15.408279,12.398926,-5.1337647,-0.24638672,0.1901001,179.0
17780,-17.141804,-11.321152,11.57267,-5.1337647,-0.24638672,0.1901001,179.0
17781,-17.141804,-11.321152,11.57267,-6.485706,1.2234375,1.2340577,179.0
17782,-23.471087,-8.977982,9.510296,-6.485706,1.2234375,1.2340577,179.0
17783,-23.471087,-8.977982,9.510296,-5.008447,3.260376,1.3434448,179.0
17784,-28.990835,-7.456421,5.362484,-5.008447,3.260376,1.3434448,179.0
17785,-28.990835,-7.456421,5.362484,-4.5369143,6.4049926,2.6730835,179.0
17786,-34.885296,-6.3377304,-1.6426315,-4.5369143,6.4049926,2.6730835,179.0
17787,-34.885296,-6.3377304,-1.6426315,-7.6486087,4.806665,2.2684572,179.0
17788,-34.798668,-8.785339,-8.879768,-7.6486087,4.806665,2.2684572,179.0
17789,-34.798668,-8.785339,-8.879768,-6.072583,1.7756836,1.5123047,179.0
17790,-27.318659,-12.40078,-11.979046,-6.072583,1.7756836,1.5123047,179.0
17791,-27.318659,-12.40078,-11.979046,-2.2875733,-0.75296634,2.631665,179.0
17792,-18.841915,-11.320129,-9.758469,-2.2875733,-0.75296634,2.631665,179.0
17793,-18.841915,-11.320129,-9.758469,-0.009558106,-3.0309815,4.713208,179.0
17794,-11.272164,-7.1104584,-4.053383,-0.009558106,-3.0309815,4.713208,179.0
17795,-11.272164,-7.1104584,-4.053383,1.178833,-4.0452027,5.7454834,179.0
17796,-3.5625315,-4.8488235,1.3167763,1.178833,-4.0452027,5.7454834,179.0
17797,-3.5625315,-4.8488235,1.3167763,0.8219971,-3.8784668,6.8106813,179.0
17798,3.2892084,-6.7518616,4.1703873,0.8219971,-3.8784668,6.8106813,179.0
17799,3.2892084,-6.7518616,4.1703873,0.49064943,-4.151404,8.899658,179.0
17800,11.160053,-14.404419,4.644306,0.49064943,-4.151404,8.899658,179.0
17801,11.160053,-14.404419,4.644306,2.9906251,-4.346814,11.281751,179.0
17802,22.898722,-21.56128,2.5722923,2.9906251,-4.346814,11.281751,179.0
17803,22.898722,-21.56128,2.5722923,6.2085204,-1.0057251,11.22865,179.0
17804,34.33645,-18.194046,-0.88064194,6.2085204,-1.0057251,11.22865,179.0
17805,34.33645,-18.194046,-0.88064194,3.5439332,-0.28355715,11.364588,179.0
17806,35.65132,-4.0546646,-3.5587234,3.5439332,-0.28355715,11.364588,179.0
17807,35.65132,-4.0546646,-3.5587234,2.177124,-1.0439576,10.724195,179.0
17808,23.301746,13.165176,-4.4403152,2.177124,-1.0439576,10.724195,179.0
17809,23.301746,13.165176,-4.4403152,3.153113,-2.3268678,9.962732,179.0
17810,6.7516994,27.3833,-4.44516,3.153113,-2.3268678,9.962732,179.0
17811,6.7516994,27.3833,-4.44516,4.783301,-3.0299194,8.434497,179.0
17812,-4.27734,39.187233,-5.5504017,4.783301,-3.0299194,8.434497,179.0
17813,-4.27734,39.187233,-5.5504017,5.555383,-2.6104248,6.221265,179.0
17814,-8.330002,48.964508,-7.828163,5.555383,-2.6104248,6.221265,179.0
17815,-8.330002,48.964508,-7.828163,3.79563,-1.9498535,4.065381,179.0
17816,-9.141224,52.54695,-9.211933,3.79563,-1.9498535,4.065381,179.0
17817,-9.141224,52.54695,-9.211933,0.29205322,-2.081543,-0.58304447,179.0
17818,-9.158426,45.566406,-7.752043,0.29205322,-2.081543,-0.58304447,179.0
17819,-9.158426,45.566406,-7.752043,-2.3247437,-3.4961426,-6.6014647,179.0
17820,-6.8006916,29.871922,-5.3940907,-2.3247437,-3.4961426,-6.6014647,179.0
17821,-6.8006916,29.871922,-5.3940907,-3.703235,-4.4126587,-9.900073,179.0
17822,-1.2848778,11.55629,-3.9207535,-3.703235,-4.4126587,-9.900073,179.0
17823,-1.2848778,11.55629,-3.9207535,-2.1070313,-4.5432863,-12.2460575,179.0
17824,4.9937534,-2.5505257,-1.8079166,-2.1070313,-4.5432863,-12.2460575,179.0
17825,4.9937534,-2.5505257,-1.8079166,-1.7013428,-5.3674073,-13.967578,179.0
17826,11.466377,-10.35788,0.4671917,-1.7013428,-5.3674073,-13.967578,179.0
17827,11.466377,-10.35788,0.4671917,-2.5679443,-6.125684,-14.731165,179.0
17828,19.46916,-15.159851,1.3258648,-2.5679443,-6.125684,-14.731165,179.0
17829,19.46916,-15.159851,1.3258648,-2.3236816,-5.885669,-14.564429,179.0
17830,29.701157,-18.7258,1.2626076,-2.3236816,-5.885669,-14.564429,179.0
17831,29.701157,-18.7258,1.2626076,-1.893567,-4.809851,-13.295325,179.0
17832,33.32704,-21.77494,4.706093,-1.893567,-4.809851,-13.295325,179.0
17833,33.32704,-21.77494,4.706093,-2.5190918,-5.059424,-10.64773,179.0
17834,21.237473,-23.011017,10.176495,-2.5190918,-5.059424,-10.64773,179.0
17835,21.237473,-23.011017,10.176495,-3.1201904,-3.5736694,-5.1072145,179.0
17836,0.7816887,-18.829422,12.4436,-3.1201904,-3.5736694,-5.1072145,179.0
17837,0.7816887,-18.829422,12.4436,-7.173889,-0.32497558,0.77526855,179.0
17838,-14.832802,-12.790443,12.155968,-7.173889,-0.32497558,0.77526855,179.0
17839,-14.832802,-12.790443,12.155968,-10.518165,1.9243653,2.2748291,179.0
17840,-22.25848,-10.927483,10.208149,-10.518165,1.9243653,2.2748291,179.0
17841,-22.25848,-10.927483,10.208149,-9.007983,3.349585,1.2627319,179.0
17842,-26.829195,-10.504013,7.1032753,-9.007983,3.349585,1.2627319,179.0
17843,-26.829195,-10.504013,7.1032753,-5.9196534,5.4576783,1.6142578,179.0
17844,-31.786232,-7.242958,1.8328896,-5.9196534,5.4576783,1.6142578,179.0
17845,-31.786232,-7.242958,1.8328896,-5.4459963,6.463403,3.7648315,179.0
17846,-36.468403,-4.9098816,-5.20422,-5.4459963,6.463403,3.7648315,179.0
17847,-36.468403,-4.9098816,-5.20422,-5.537329,2.8185792,2.5711305,179.0
17848,-33.835575,-7.219055,-10.264904,-5.537329,2.8185792,2.5711305,179.0
17849,-33.835575,-7.219055,-10.264904,-2.3789062,0.22833252,1.6418701,179.0
17850,-24.34993,-9.307251,-11.633202,-2.3789062,0.22833252,1.6418701,179.0
17851,-24.34993,-9.307251,-11.633202,-1.6439942,-1.718335,2.2164185,179.0
17852,-16.274366,-8.5690155,-8.358759,-1.6439942,-1.718335,2.2164185,179.0
17853,-16.274366,-8.5690155,-8.358759,-0.903772,-3.3655152,4.6431155,179.0
17854,-9.912096,-7.106003,-2.155037,-0.903772,-3.3655152,4.6431155,179.0
17855,-9.912096,-7.106003,-2.155037,0.86553955,-4.4593873,5.6467166,179.0
17856,-3.7571545,-5.9615707,2.942791,0.86553955,-4.4593873,5.6467166,179.0
17857,-3.7571545,-5.9615707,2.942791,0.45347902,-4.37655,6.4676514,179.0
17858,1.8626232,-7.526245,5.755514,0.45347902,-4.37655,6.4676514,179.0
17859,1.8626232,-7.526245,5.755514,-0.68712157,-4.8385253,8.228467,179.0
17860,8.917613,-15.13945,6.465702,-0.68712157,-4.8385253,8.228467,179.0
17861,8.917613,-15.13945,6.465702,0.71154785,-5.4013915,11.158557,179.0
17862,21.12054,-23.071045,4.880619,0.71154785,-5.4013915,11.158557,179.0
17863,21.12054,-23.071045,4.880619,5.700879,-1.9902099,11.404944,179.0
17864,32.99066,-18.67244,2.1323738,5.700879,-1.9902099,11.404944,179.0
17865,32.99066,-18.67244,2.1323738,4.71958,-1.0259033,11.43999,179.0
17866,34.164745,-2.4299011,0.18617249,4.71958,-1.0259033,11.43999,179.0
17867,34.164745,-2.4299011,0.18617249,4.0197144,-2.0549927,10.133716,179.0
17868,23.268429,14.424759,-1.3915901,4.0197144,-2.0549927,10.133716,179.0
17869,23.268429,14.424759,-1.3915901,4.614441,-3.0108032,9.10144,179.0
17870,8.247225,27.456238,-3.994072,4.614441,-3.0108032,9.10144,179.0
17871,8.247225,27.456238,-3.994072,4.868262,-3.1244385,7.5647097,179.0
17872,-2.7790985,38.649475,-6.8874207,4.868262,-3.1244385,7.5647097,179.0
17873,-2.7790985,38.649475,-6.8874207,4.35531,-2.624231,5.4736085,179.0
17874,-2.7790985,38.649475,-6.8874207,4.35531,-2.624231,5.4736085,180.0
17875,-8.28252,47.437637,-9.072254,4.35531,-2.624231,5.4736085,180.0
17876,-8.28252,47.437637,-9.072254,2.4840455,-1.7905518,3.5906618,180.0
17877,-11.161051,48.839844,-9.159025,2.4840455,-1.7905518,3.5906618,180.0
17878,-11.161051,48.839844,-9.159025,-0.8623535,-1.6662964,-0.7763306,180.0
17879,-12.332467,40.137657,-5.34984,-0.8623535,-1.6662964,-0.7763306,180.0
17880,-12.332467,40.137657,-5.34984,-3.2295778,-2.8249512,-6.4506593,180.0
17881,-9.294294,25.13292,-0.7781143,-3.2295778,-2.8249512,-6.4506593,180.0
17882,-9.294294,25.13292,-0.7781143,-4.7493167,-3.6894288,-9.483765,180.0
17883,-2.2317486,8.908707,0.5425339,-4.7493167,-3.6894288,-9.483765,180.0
