,accx,accy,accz,gyrox,gyroy,gyroz,heart rate
16021,run,run,run,run,run,run,run
16022,0.2539174,-4.5800285,-6.8302274,2.0518067,-0.1178833,0.7688965,99.0
16023,0.21393716,-3.6392791,-5.4814305,2.0518067,-0.1178833,0.7688965,99.0
16024,0.21393716,-3.6392791,-5.4814305,-0.1985962,0.03079834,-0.08283692,99.0
16025,0.17936504,-2.8897438,-4.4002566,-0.1985962,0.03079834,-0.08283692,99.0
16026,0.17936504,-2.8897438,-4.4002566,-0.16567384,0.0053100586,-0.08283692,99.0
16027,1.001329,-1.7772491,3.9986057,-0.16567384,0.0053100586,-0.08283692,99.0
16028,1.001329,-1.7772491,3.9986057,-0.13168946,-0.033984374,-0.07965088,99.0
16029,0.8484142,-1.3936865,3.2328691,-0.13168946,-0.033984374,-0.07965088,99.0
16030,0.8484142,-1.3936865,3.2328691,-0.14230958,-0.040356446,-0.081774905,99.0
16031,0.74500334,-1.0996048,2.7578773,-0.14230958,-0.040356446,-0.081774905,99.0
16032,0.74500334,-1.0996048,2.7578773,-0.19647217,-0.016992187,-0.10195313,99.0
16033,0.6625432,-0.91230106,2.2852082,-0.19647217,-0.016992187,-0.10195313,99.0
16034,0.6625432,-0.91230106,2.2852082,-0.18266602,-0.009558106,-0.11257324,99.0
16035,0.5753226,-0.7790475,1.7880176,-0.18266602,-0.009558106,-0.11257324,99.0
16036,0.5753226,-0.7790475,1.7880176,-0.14974366,-0.020178223,-0.1083252,99.0
16037,0.4745648,-0.6168051,1.3621036,-0.14974366,-0.020178223,-0.1083252,99.0
16038,0.4745648,-0.6168051,1.3621036,-0.17841797,-0.016992187,-0.11044922,99.0
16039,-1.4732412,3.2025032,-0.25206518,-0.17841797,-0.016992187,-0.11044922,99.0
16040,-1.4732412,3.2025032,-0.25206518,-0.20178223,-0.011682129,-0.1083252,99.0
16041,-1.1473308,2.4859774,-0.18883476,-0.20178223,-0.011682129,-0.1083252,99.0
16042,-1.1473308,2.4859774,-0.18883476,-0.16779785,-0.009558106,-0.11257324,99.0
16043,-0.84384114,1.8906252,-0.18777436,-0.16779785,-0.009558106,-0.11257324,99.0
16044,-0.84384114,1.8906252,-0.18777436,-0.14974366,-0.004248047,-0.1263794,99.0
16045,-0.57823455,1.4805179,-0.24056374,-0.14974366,-0.004248047,-0.1263794,99.0
16046,-0.57823455,1.4805179,-0.24056374,-0.16248779,0.009558106,-0.1720459,99.0
16047,-0.35948706,1.210745,-0.29188946,-0.16248779,0.009558106,-0.1720459,99.0
16048,-0.35948706,1.210745,-0.29188946,-0.2623169,0.04991455,-0.23258057,99.0
16049,-0.35948706,1.210745,-0.29188946,-0.36745605,0.083898924,-0.29630128,99.0
16050,-0.19916195,0.99582994,-0.3304354,-0.36745605,0.083898924,-0.29630128,99.0
16051,-0.0949375,0.79338026,-0.388799,-0.36745605,0.083898924,-0.29630128,99.0
16052,-0.0949375,0.79338026,-0.388799,-0.48215333,0.1178833,-0.36108398,99.0
16053,0.008571446,0.6140499,-0.46600747,-0.48215333,0.1178833,-0.36108398,99.0
16054,0.008571446,0.6140499,-0.46600747,-0.6042847,0.15080567,-0.4364868,99.0
16055,0.08464038,0.4643234,-0.5705721,-0.6042847,0.15080567,-0.4364868,99.0
16056,0.08464038,0.4643234,-0.5705721,-0.72216797,0.18266602,-0.5299439,99.0
16057,0.14080799,0.35917842,-0.7121217,-0.72216797,0.18266602,-0.5299439,99.0
16058,0.14080799,0.35917842,-0.7121217,-0.8995239,0.23258057,-0.64995116,99.0
16059,0.15838611,0.34618062,-0.8485182,-0.8995239,0.23258057,-0.64995116,99.0
16060,0.15838611,0.34618062,-0.8485182,-1.1990112,0.3164795,-0.80394286,99.0
16061,0.0937987,0.3828283,-0.9089782,-1.1990112,0.3164795,-0.80394286,99.0
16062,0.0937987,0.3828283,-0.9089782,-1.4825684,0.38869628,-0.96218264,99.0
16063,-0.063388765,0.3600102,-0.8740332,-1.4825684,0.38869628,-0.96218264,99.0
16064,-0.063388765,0.3600102,-0.8740332,-1.7565674,0.452417,-1.089624,99.0
16065,-0.26827693,0.20922402,-0.77544737,-1.7565674,0.452417,-1.089624,99.0
16066,-0.26827693,0.20922402,-0.77544737,-1.806482,0.4895874,-1.2053833,99.0
16067,-0.47747558,0.10600227,-0.6253995,-1.806482,0.4895874,-1.2053833,99.0
16068,-0.47747558,0.10600227,-0.6253995,-1.8043579,0.49064943,-1.3115845,99.0
16069,-0.63449514,0.2064571,-0.43257058,-1.8043579,0.49064943,-1.3115845,99.0
16070,-0.63449514,0.2064571,-0.43257058,-1.903125,0.49064943,-1.3806152,99.0
16071,-0.77785975,0.3721725,-0.19872975,-1.903125,0.49064943,-1.3806152,99.0
16072,-0.77785975,0.3721725,-0.19872975,-2.0549927,0.4895874,-1.4687623,99.0
16073,-0.938987,0.36405882,0.09897518,-2.0549927,0.4895874,-1.4687623,99.0
16074,-0.938987,0.36405882,0.09897518,-2.258899,0.4895874,-1.5717773,99.0
16075,-0.938987,0.36405882,0.09897518,-2.357666,0.4248047,-1.6015137,99.0
16076,-1.099322,0.15281932,0.4609307,-2.357666,0.4248047,-1.6015137,99.0
16077,-1.2597432,-0.03414103,0.8851142,-2.357666,0.4248047,-1.6015137,99.0
16078,-1.2597432,-0.03414103,0.8851142,-2.439441,0.3430298,-1.6036377,99.0
16079,-1.297736,0.06770671,1.2743756,-2.439441,0.3430298,-1.6036377,99.0
16080,-1.297736,0.06770671,1.2743756,-2.6465333,0.32816163,-1.5972656,99.0
16081,-1.1414603,0.3212186,1.464642,-2.6465333,0.32816163,-1.5972656,99.0
16082,-1.1414603,0.3212186,1.464642,-2.7984009,0.36108398,-1.5834595,99.0
16083,-0.9222137,0.47843486,1.4979343,-2.7984009,0.36108398,-1.5834595,99.0
16084,-0.9222137,0.47843486,1.4979343,-3.0331056,0.44816896,-1.5484132,99.0
16085,-0.77401364,0.5634974,1.5243607,-3.0331056,0.44816896,-1.5484132,99.0
16086,-0.77401364,0.5634974,1.5243607,-3.2242677,0.5777344,-1.4804443,99.0
16087,-0.7445649,0.6368941,1.523871,-3.2242677,0.5777344,-1.4804443,99.0
16088,-0.7445649,0.6368941,1.523871,-3.2932985,0.67650145,-1.3190186,99.0
16089,-0.80097437,0.6303161,1.4136403,-3.2932985,0.67650145,-1.3190186,99.0
16090,-0.80097437,0.6303161,1.4136403,-3.3049805,0.7604004,-1.1512207,99.0
16091,-0.92615557,0.4868579,1.2397745,-3.3049805,0.7604004,-1.1512207,99.0
16092,-0.92615557,0.4868579,1.2397745,-3.0978882,0.7582764,-0.9600586,99.0
16093,-1.0385685,0.39087796,1.034349,-3.0978882,0.7582764,-0.9600586,99.0
16094,-1.0385685,0.39087796,1.034349,-2.7962768,0.7104859,-0.82836914,99.0
16095,-0.9640455,0.42931616,0.7903453,-2.7962768,0.7104859,-0.82836914,99.0
16096,-0.9640455,0.42931616,0.7903453,-2.5074098,0.65419924,-0.6977417,99.0
16097,-0.710763,0.4024861,0.5400276,-2.5074098,0.65419924,-0.6977417,99.0
16098,-0.710763,0.4024861,0.5400276,-2.170752,0.59260255,-0.6053467,99.0
16099,-0.4050238,0.21838784,0.3180939,-2.170752,0.59260255,-0.6053467,99.0
16100,-0.4050238,0.21838784,0.3180939,-1.7586914,0.51082766,-0.4991455,99.0
16101,-0.1297319,0.037832856,0.12698483,-1.7586914,0.51082766,-0.4991455,99.0
16102,-0.1297319,0.037832856,0.12698483,-1.3158325,0.4248047,-0.44816896,99.0
16103,0.13303089,0.030046582,-0.027184129,-1.3158325,0.4248047,-0.44816896,99.0
16104,0.13303089,0.030046582,-0.027184129,-1.0152832,0.38657227,-0.42374268,99.0
16105,0.38269424,0.1797502,-0.18346608,-1.0152832,0.38657227,-0.42374268,99.0
16106,0.38269424,0.1797502,-0.18346608,-0.90908206,0.3706421,-0.42905274,99.0
16107,0.56315017,0.39174938,-0.3864702,-0.90908206,0.3706421,-0.42905274,99.0
16108,0.56315017,0.39174938,-0.3864702,-0.99935305,0.37701416,-0.4895874,99.0
16109,0.64499044,0.5253136,-0.584811,-0.99935305,0.37701416,-0.4895874,99.0
16110,0.64499044,0.5253136,-0.584811,-1.2414917,0.37382814,-0.58304447,99.0
16111,0.63737917,0.43144476,-0.6955831,-1.2414917,0.37382814,-0.58304447,99.0
16112,0.63737917,0.43144476,-0.6955831,-1.4953126,0.33771974,-0.7455322,99.0
16113,0.6025424,0.1299336,-0.71142256,-1.4953126,0.33771974,-0.7455322,99.0
16114,0.6025424,0.1299336,-0.71142256,-1.7512573,0.26337892,-1.0545777,99.0
16115,0.658401,-0.35357273,-0.62447256,-1.7512573,0.26337892,-1.0545777,99.0
16116,0.658401,-0.35357273,-0.62447256,-1.9456055,0.18585205,-1.4889405,99.0
16117,0.98741424,-1.2560394,-0.407476,-1.9456055,0.18585205,-1.4889405,99.0
16118,0.98741424,-1.2560394,-0.407476,-1.8893188,0.021240234,-1.8648926,99.0
16119,1.5658835,-2.3592992,-0.12546813,-1.8893188,0.021240234,-1.8648926,99.0
16120,1.5658835,-2.3592992,-0.12546813,-1.3052124,-0.36002198,-2.256775,99.0
16121,2.1796112,-2.7715826,0.21161282,-1.3052124,-0.36002198,-2.256775,99.0
16122,2.1796112,-2.7715826,0.21161282,-0.32497558,-0.81031495,-2.5838745,99.0
16123,2.5871704,-2.1826835,0.52879953,-0.32497558,-0.81031495,-2.5838745,99.0
16124,2.5871704,-2.1826835,0.52879953,0.62127686,-1.2521118,-2.70813,99.0
16125,2.6493385,-1.0166547,0.5731617,0.62127686,-1.2521118,-2.70813,99.0
16126,2.6493385,-1.0166547,0.5731617,1.0779419,-1.5972656,-2.7198122,99.0
16127,2.3435917,0.35552388,0.22116363,1.0779419,-1.5972656,-2.7198122,99.0
16128,2.3435917,0.35552388,0.22116363,0.9324463,-1.7746216,-2.4766114,99.0
16129,1.9243486,1.363301,-0.39318633,0.9324463,-1.7746216,-2.4766114,99.0
16130,1.9243486,1.363301,-0.39318633,0.3451538,-1.6928467,-2.086853,99.0
16131,1.6765883,1.6460607,-1.0530989,0.3451538,-1.6928467,-2.086853,99.0
16132,1.6765883,1.6460607,-1.0530989,-0.36533204,-1.4560181,-1.9158691,99.0
16133,1.7079453,1.3792632,-1.5185167,-0.36533204,-1.4560181,-1.9158691,99.0
16134,1.7079453,1.3792632,-1.5185167,-1.1066163,-0.9653687,-1.7767457,99.0
16135,2.0698476,0.6026659,-1.580121,-1.1066163,-0.9653687,-1.7767457,99.0
16136,2.0698476,0.6026659,-1.580121,-1.6004517,-0.26019287,-1.6769165,99.0
16137,2.9565005,-0.8708947,-1.0175393,-1.6004517,-0.26019287,-1.6769165,99.0
16138,2.9565005,-0.8708947,-1.0175393,-1.4602661,0.452417,-1.5760254,99.0
16139,4.3897734,-3.3663325,0.014569715,-1.4602661,0.452417,-1.5760254,99.0
16140,4.3897734,-3.3663325,0.014569715,-1.5792115,0.8623535,-1.2372437,99.0
16141,5.5352197,-6.0419064,0.6949444,-1.5792115,0.8623535,-1.2372437,99.0
16142,5.5352197,-6.0419064,0.6949444,-3.2232056,1.6885986,-1.0343994,99.0
16143,4.6575704,-7.2403245,0.7797958,-3.2232056,1.6885986,-1.0343994,99.0
16144,4.6575704,-7.2403245,0.7797958,-5.459802,2.6667116,-0.6425171,99.0
16145,1.295002,-7.2274523,0.85895634,-5.459802,2.6667116,-0.6425171,99.0
16146,1.295002,-7.2274523,0.85895634,-5.5755615,3.0554078,-0.13168946,99.0
16147,-2.8281956,-6.196696,0.8313057,-5.5755615,3.0554078,-0.13168946,99.0
16148,-2.8281956,-6.196696,0.8313057,-3.5003908,2.885486,0.11257324,99.0
16149,-5.9031568,-3.1446981,0.25540102,-3.5003908,2.885486,0.11257324,99.0
16150,-5.9031568,-3.1446981,0.25540102,-2.3852785,2.9704468,0.24638672,99.0
16151,-7.4433017,0.8260994,-0.6817876,-2.3852785,2.9704468,0.24638672,99.0
16152,-7.4433017,0.8260994,-0.6817876,-2.3183715,3.155237,0.20709229,99.0
16153,-7.9666653,3.5946689,-1.3880937,-2.3183715,3.155237,0.20709229,99.0
16154,-7.9666653,3.5946689,-1.3880937,-2.6008668,3.2529418,0.047790527,99.0
16155,-7.813335,4.7618194,-1.5781263,-2.6008668,3.2529418,0.047790527,99.0
16156,-7.813335,4.7618194,-1.5781263,-2.6773317,3.258252,0.03717041,99.0
16157,-7.2124233,5.241926,-1.2901866,-2.6773317,3.258252,0.03717041,99.0
16158,-7.2124233,5.241926,-1.2901866,-2.4808595,3.0150514,0.0998291,99.0
16159,-6.6584888,5.957896,-0.5546835,-2.4808595,3.0150514,0.0998291,99.0
16160,-6.6584888,5.957896,-0.5546835,-2.1526978,2.630603,0.4725952,99.0
16161,-6.5050015,6.8788295,0.3512239,-2.1526978,2.630603,0.4725952,99.0
16162,-6.5050015,6.8788295,0.3512239,-1.6716064,1.9116211,0.9547486,99.0
16163,-6.5368624,7.4354367,0.97159195,-1.6716064,1.9116211,0.9547486,99.0
16164,-6.5368624,7.4354367,0.97159195,-1.174585,1.2032593,1.3689331,99.0
16165,-6.263584,7.2592745,1.0230865,-1.174585,1.2032593,1.3689331,99.0
16166,-6.263584,7.2592745,1.0230865,-0.635083,0.5766724,1.544165,99.0
16167,-5.67305,6.524571,0.3685669,-0.635083,0.5766724,1.544165,99.0
16168,-5.67305,6.524571,0.3685669,-0.45029297,-0.1709839,1.5866455,99.0
16169,-4.9361086,5.633854,-0.69992185,-0.45029297,-0.1709839,1.5866455,99.0
16170,-4.9361086,5.633854,-0.69992185,-0.60322267,-0.9653687,1.5292969,99.0
16171,-3.7593365,4.454019,-1.4098765,-0.60322267,-0.9653687,1.5292969,99.0
16172,-3.7593365,4.454019,-1.4098765,-0.54906005,-1.7087768,1.5165528,99.0
16173,-2.1992664,2.7653513,-1.6639608,-0.54906005,-1.7087768,1.5165528,99.0
16174,-2.1992664,2.7653513,-1.6639608,0.09133301,-2.3895264,1.81604,99.0
16175,-1.0440569,0.51190233,-2.0389566,0.09133301,-2.3895264,1.81604,99.0
16176,-1.0440569,0.51190233,-2.0389566,1.075818,-2.975757,1.8436524,99.0
16177,-0.16901016,-4.6278806,-2.8599374,1.075818,-2.975757,1.8436524,99.0
16178,-0.16901016,-4.6278806,-2.8599374,1.7119629,-3.4908326,1.4613281,99.0
16179,2.174777,-15.281797,-4.1175523,1.7119629,-3.4908326,1.4613281,99.0
16180,2.174777,-15.281797,-4.1175523,3.183911,-4.157776,3.0118654,99.0
16181,5.768715,-24.791588,-4.5326037,3.183911,-4.157776,3.0118654,99.0
16182,5.768715,-24.791588,-4.5326037,3.80625,-4.9086185,4.7121463,99.0
16183,8.812127,-26.721233,-2.7099943,3.80625,-4.9086185,4.7121463,99.0
16184,8.812127,-26.721233,-2.7099943,1.7841797,-4.3754883,5.9281497,99.0
16185,11.491022,-21.432823,-0.545876,1.7841797,-4.3754883,5.9281497,99.0
16186,11.491022,-21.432823,-0.545876,1.8287842,-4.6388674,6.0980716,99.0
16187,14.1717,-10.631512,0.21600914,1.8287842,-4.6388674,6.0980716,99.0
16188,14.1717,-10.631512,0.21600914,0.0180542,-4.1248536,5.9281497,99.0
16189,15.6654,0.42071915,0.054728508,0.0180542,-4.1248536,5.9281497,99.0
16190,15.6654,0.42071915,0.054728508,-1.1299804,-3.528003,4.8087893,99.0
16191,14.288021,8.006205,0.17504501,-1.1299804,-3.528003,4.8087893,99.0
16192,14.288021,8.006205,0.17504501,-1.4910644,-2.899292,3.5078247,99.0
16193,10.464413,11.992524,0.6090789,-1.4910644,-2.899292,3.5078247,99.0
16194,10.464413,11.992524,0.6090789,-1.0705079,-2.804773,2.5424562,99.0
16195,6.5447235,13.553553,0.99009514,-1.0705079,-2.804773,2.5424562,99.0
16196,6.5447235,13.553553,0.99009514,-0.7848267,-2.6412232,1.629126,99.0
16197,4.126623,13.814437,1.3753891,-0.7848267,-2.6412232,1.629126,99.0
16198,4.126623,13.814437,1.3753891,-0.68712157,-2.0603027,1.1098022,99.0
16199,2.9227467,13.36803,1.5673523,-0.68712157,-2.0603027,1.1098022,99.0
16200,2.9227467,13.36803,1.5673523,0.043542482,-1.3827393,0.38975832,99.0
16201,1.563674,13.257766,1.2261963,0.043542482,-1.3827393,0.38975832,99.0
16202,1.563674,13.257766,1.2261963,0.39400634,-0.7306641,-0.7657105,99.0
16203,-0.463624,13.2459955,0.38825703,0.39400634,-0.7306641,-0.7657105,99.0
16204,-0.463624,13.2459955,0.38825703,-0.43967286,0.29523927,-2.0964112,99.0
16205,-1.9863291,11.30378,-0.2478416,-0.43967286,0.29523927,-2.0964112,99.0
16206,-1.9863291,11.30378,-0.2478416,-1.0407715,1.1076783,-3.4600341,99.0
16207,-2.3821173,7.749298,0.04260826,-1.0407715,1.1076783,-3.4600341,99.0
16208,-2.3821173,7.749298,0.04260826,-0.6595093,1.630188,-4.268225,99.0
16209,-2.5772886,4.7727785,1.1430588,-0.6595093,1.630188,-4.268225,99.0
16210,-2.5772886,4.7727785,1.1430588,-0.5564942,2.2206666,-4.9999514,99.0
16211,-2.9849262,2.7666845,2.0639832,-0.5564942,2.2206666,-4.9999514,99.0
16212,-2.9849262,2.7666845,2.0639832,-1.265918,2.904602,-6.1862183,99.0
16213,-2.3228893,-0.6737499,1.9091456,-1.265918,2.904602,-6.1862183,99.0
16214,-2.3228893,-0.6737499,1.9091456,-1.7820557,4.1822023,-7.251416,99.0
16215,0.79915905,-11.285216,-0.027078152,-1.7820557,4.1822023,-7.251416,99.0
16216,0.79915905,-11.285216,-0.027078152,0.9568726,4.37124,-4.4073486,99.0
16217,1.6577969,-23.625854,-0.75453615,0.9568726,4.37124,-4.4073486,99.0
16218,1.6577969,-23.625854,-0.75453615,3.09364,3.7425294,-6.7713866,99.0
16219,-0.62018585,-26.518469,1.7024136,3.09364,3.7425294,-6.7713866,99.0
16220,-0.62018585,-26.518469,1.7024136,-1.0110352,3.4865844,-3.264624,99.0
16221,-3.3446836,-21.003593,2.659111,-1.0110352,3.4865844,-3.264624,99.0
16222,-3.3446836,-21.003593,2.659111,-2.6900756,3.361267,-3.245508,99.0
16223,-5.735281,-11.085053,0.41879272,-2.6900756,3.361267,-3.245508,99.0
16224,-5.735281,-11.085053,0.41879272,-4.174768,2.9608886,-1.7926759,99.0
16225,-7.5577073,-1.3471317,-1.7480713,-4.174768,2.9608886,-1.7926759,99.0
16226,-7.5577073,-1.3471317,-1.7480713,-5.070044,3.1987793,-1.3030884,99.0
16227,-8.794298,4.3203907,-1.9296217,-5.070044,3.1987793,-1.3030884,99.0
16228,-8.794298,4.3203907,-1.9296217,-4.0961795,2.9492066,-0.6552612,99.0
16229,-8.996315,6.579664,-0.940145,-4.0961795,2.9492066,-0.6552612,99.0
16230,-8.996315,6.579664,-0.940145,-2.6008668,2.5530763,-0.043542482,99.0
16231,-8.129389,7.7483015,0.38736153,-2.6008668,2.5530763,-0.043542482,99.0
16232,-8.129389,7.7483015,0.38736153,-1.7746216,2.0942872,0.5033936,99.0
16233,-6.8988476,8.968893,1.6922135,-1.7746216,2.0942872,0.5033936,99.0
16234,-6.8988476,8.968893,1.6922135,-1.2117554,1.4347779,1.0184692,99.0
16235,-6.319347,10.278948,2.722716,-1.2117554,1.4347779,1.0184692,99.0
16236,-6.319347,10.278948,2.722716,-0.45029297,0.66269535,1.5335449,99.0
16237,-6.4469814,10.818238,3.2007194,-0.45029297,0.66269535,1.5335449,99.0
16238,-6.4469814,10.818238,3.2007194,0.29311523,0.15611573,1.6418701,99.0
16239,-6.2352343,9.97234,2.9898725,0.29311523,0.15611573,1.6418701,99.0
16240,-6.2352343,9.97234,2.9898725,1.0290893,-0.4598511,1.7098389,99.0
16241,-5.1412764,8.332645,2.165958,1.0290893,-0.4598511,1.7098389,99.0
16242,-5.1412764,8.332645,2.165958,1.3243287,-1.1066163,1.7916138,99.0
16243,-3.4872885,6.841592,0.97193885,1.3243287,-1.1066163,1.7916138,99.0
16244,-3.4872885,6.841592,0.97193885,0.6711914,-1.63125,1.6408081,99.0
16245,-1.6068716,5.767573,-0.12109387,0.6711914,-1.63125,1.6408081,99.0
16246,-1.6068716,5.767573,-0.12109387,-0.7327881,-2.0709229,1.6110718,99.0
16247,-1.6068716,5.767573,-0.12109387,-0.7327881,-2.0709229,1.6110718,0.0
16248,0.14185905,4.131771,-0.95015883,-0.7327881,-2.0709229,1.6110718,0.0
16249,0.14185905,4.131771,-0.95015883,-1.3880494,-2.5159059,1.5473511,0.0
16250,1.2641344,-1.5994296,-2.2405348,-1.3880494,-2.5159059,1.5473511,0.0
16251,1.2641344,-1.5994296,-2.2405348,0.2899292,-3.1626709,1.540979,0.0
16252,1.6892252,-14.737699,-4.1901817,0.2899292,-3.1626709,1.540979,0.0
16253,1.6892252,-14.737699,-4.1901817,4.1078615,-4.3850465,1.4167236,0.0
16254,2.8366833,-26.879038,-5.5205536,4.1078615,-4.3850465,1.4167236,0.0
16255,2.8366833,-26.879038,-5.5205536,6.255249,-5.2697024,3.449414,0.0
16256,4.1143665,-26.016268,-5.514539,6.255249,-5.2697024,3.449414,0.0
16257,4.1143665,-26.016268,-5.514539,5.5415773,-5.2707644,4.7397585,0.0
16258,10.500099,-19.977663,-5.527708,5.5415773,-5.2707644,4.7397585,0.0
16259,10.500099,-19.977663,-5.527708,1.3370727,-4.5687747,5.4948487,0.0
16260,11.383222,-12.535305,-4.5739613,1.3370727,-4.5687747,5.4948487,0.0
16261,11.383222,-12.535305,-4.5739613,0.20496826,-4.2820315,5.4459963,0.0
16262,14.101194,1.6019802,-2.6635027,0.20496826,-4.2820315,5.4459963,0.0
16263,14.101194,1.6019802,-2.6635027,-0.7763306,-3.3899415,4.7790527,0.0
16264,12.052428,4.280363,-1.6981363,-0.7763306,-3.3899415,4.7790527,0.0
16265,12.052428,4.280363,-1.6981363,-0.39082032,-3.3060424,4.3181396,0.0
16266,7.9007316,11.344994,-0.20210075,-0.39082032,-3.3060424,4.3181396,0.0
16267,7.9007316,11.344994,-0.20210075,-0.66481936,-2.9428346,3.0522218,0.0
16268,5.717204,11.520599,0.25578785,-0.66481936,-2.9428346,3.0522218,0.0
16269,5.717204,11.520599,0.25578785,-0.9494385,-2.8260133,2.7962768,0.0
16270,3.925167,15.059632,1.8318763,-0.9494385,-2.8260133,2.7962768,0.0
16271,3.925167,15.059632,1.8318763,-1.7703736,-2.2960694,2.1888063,0.0
16272,3.6412325,13.558717,2.1114607,-1.7703736,-2.2960694,2.1888063,0.0
16273,3.6412325,13.558717,2.1114607,-1.8585205,-2.0741088,1.9084351,0.0
16274,3.6837378,16.85736,2.622445,-1.8585205,-2.0741088,1.9084351,0.0
16275,3.6837378,16.85736,2.622445,-2.1420777,-1.1862671,0.4694092,0.0
16276,2.5350637,15.6308365,2.3507514,-2.1420777,-1.1862671,0.4694092,0.0
16277,2.5350637,15.6308365,2.3507514,-2.4681153,-0.70942384,-0.13275146,0.0
16278,-0.25835037,13.583673,2.333372,-2.4681153,-0.70942384,-0.13275146,0.0
16279,-0.25835037,13.583673,2.333372,-2.4766114,0.7189819,-2.3035035,0.0
16280,-1.0711699,9.7185,2.5388901,-2.4766114,0.7189819,-2.3035035,0.0
16281,-1.0711699,9.7185,2.5388901,-1.544165,1.0524536,-3.2444458,0.0
16282,-1.1828518,4.154866,3.6971767,-1.544165,1.0524536,-3.2444458,0.0
16283,-1.1828518,4.154866,3.6971767,0.08920898,1.9859619,-4.71427,0.0
16284,-1.1919718,2.6791048,3.1303124,0.08920898,1.9859619,-4.71427,0.0
16285,-1.1919718,2.6791048,3.1303124,0.35895997,2.1208375,-4.961719,0.0
16286,-0.5857067,0.6636572,1.97466,0.35895997,2.1208375,-4.961719,0.0
16287,-0.5857067,0.6636572,1.97466,0.5713623,2.720874,-5.4884768,0.0
16288,1.5585833,-7.858161,-0.11072612,0.5713623,2.720874,-5.4884768,0.0
16289,1.5585833,-7.858161,-0.11072612,1.4677002,3.7786376,-4.1142335,0.0
16290,4.097563,-24.90688,-1.2092109,1.4677002,3.7786376,-4.1142335,0.0
16291,4.097563,-24.90688,-1.2092109,2.5137818,4.3914185,-5.982312,0.0
16292,3.7627296,-32.929653,0.6610371,2.5137818,4.3914185,-5.982312,0.0
16293,3.7627296,-32.929653,0.6610371,-0.79013675,4.1822023,-3.5566773,0.0
16294,-0.75307274,-22.096079,1.9788908,-0.79013675,4.1822023,-3.5566773,0.0
16295,-0.75307274,-22.096079,1.9788908,-3.2731202,4.1259155,-2.173938,0.0
16296,-2.678008,-13.210812,0.9936595,-3.2731202,4.1259155,-2.173938,0.0
16297,-2.678008,-13.210812,0.9936595,-4.048389,4.3053956,-1.9179932,0.0
16298,-8.637755,2.9356966,-2.1592839,-4.048389,4.3053956,-1.9179932,0.0
16299,-8.637755,2.9356966,-2.1592839,-4.609131,4.4795656,-1.364685,0.0
16300,-8.932641,4.971751,-2.0881815,-4.609131,4.4795656,-1.364685,0.0
16301,-8.932641,4.971751,-2.0881815,-3.9294434,4.52948,-1.0768799,0.0
16302,-10.323847,6.233016,-1.9346566,-3.9294434,4.52948,-1.0768799,0.0
16303,-10.323847,6.233016,-1.9346566,-1.5473511,3.8136842,-0.6988037,0.0
16304,-10.586629,6.067773,-1.2137408,-1.5473511,3.8136842,-0.6988037,0.0
16305,-10.586629,6.067773,-1.2137408,0.44604492,3.2476318,-1.0482056,0.0
16306,-9.888554,7.04018,0.012833118,0.44604492,3.2476318,-1.0482056,0.0
16307,-9.888554,7.04018,0.012833118,1.0705079,2.4543092,-0.26125488,0.0
16308,-9.096549,8.553152,1.4566655,1.0705079,2.4543092,-0.26125488,0.0
16309,-9.096549,8.553152,1.4566655,2.0911012,1.3625611,-0.24638672,0.0
16310,-8.856011,10.646392,2.884229,2.0911012,1.3625611,-0.24638672,0.0
16311,-8.856011,10.646392,2.884229,2.0082643,0.20390625,0.20496826,0.0
16312,-7.381049,9.222815,2.2655618,2.0082643,0.20390625,0.20496826,0.0
16313,-7.381049,9.222815,2.2655618,1.9764038,-0.15717773,0.35789797,0.0
16314,-6.2850885,8.120623,1.4383161,1.9764038,-0.15717773,0.35789797,0.0
16315,-6.2850885,8.120623,1.4383161,1.7066529,-0.88253176,0.5872925,0.0
16316,-5.223115,6.9852304,0.2862242,1.7066529,-0.88253176,0.5872925,0.0
16317,-5.223115,6.9852304,0.2862242,0.8623535,-1.4666382,0.7317261,0.0
16318,-4.1248913,5.8607187,-0.85194105,0.8623535,-1.4666382,0.7317261,0.0
16319,-4.1248913,5.8607187,-0.85194105,0.25806886,-1.899939,0.8623535,0.0
16320,-2.7222157,3.642652,-1.5886695,0.25806886,-1.899939,0.8623535,0.0
16321,-2.7222157,3.642652,-1.5886695,0.7614624,-2.2822633,1.179895,0.0
16322,-1.1908092,-0.938735,-2.4526253,0.7614624,-2.2822633,1.179895,0.0
16323,-1.1908092,-0.938735,-2.4526253,3.2699342,-2.5668824,1.7884277,0.0
16324,0.2737198,-8.121447,-4.483121,3.2699342,-2.5668824,1.7884277,0.0
16325,0.2737198,-8.121447,-4.483121,5.878235,-3.1339967,2.6157348,0.0
16326,1.4310246,-16.89877,-6.354905,5.878235,-3.1339967,2.6157348,0.0
16327,1.4310246,-16.89877,-6.354905,5.03075,-3.0384157,3.081958,0.0
16328,3.7378864,-26.195822,-6.060706,5.03075,-3.0384157,3.081958,0.0
16329,3.7378864,-26.195822,-6.060706,3.5842896,-2.5456421,4.69303,0.0
16330,8.626454,-28.940973,-4.3823786,3.5842896,-2.5456421,4.69303,0.0
16331,8.626454,-28.940973,-4.3823786,3.087268,-3.153113,7.1760135,0.0
16332,13.856779,-20.023886,-2.871162,3.087268,-3.153113,7.1760135,0.0
16333,13.856779,-20.023886,-2.871162,-1.6036377,-2.3948364,7.249292,0.0
16334,16.061632,-6.8075733,-1.3429499,-1.6036377,-2.3948364,7.249292,0.0
16335,16.061632,-6.8075733,-1.3429499,-4.0356445,-2.6890137,6.3200316,0.0
16336,14.47859,2.6956291,0.49670982,-4.0356445,-2.6890137,6.3200316,0.0
16337,14.47859,2.6956291,0.49670982,-3.3687012,-3.3368409,5.6722045,0.0
16338,10.841613,7.7665005,1.8998337,-3.3687012,-3.3368409,5.6722045,0.0
16339,10.841613,7.7665005,1.8998337,-1.8691406,-3.797754,4.618689,0.0
16340,7.2208366,10.995537,2.436212,-1.8691406,-3.797754,4.618689,0.0
16341,7.2208366,10.995537,2.436212,-1.2860962,-3.7637696,4.0059085,0.0
16342,4.8729095,13.084357,2.3997512,-1.2860962,-3.7637696,4.0059085,0.0
16343,4.8729095,13.084357,2.3997512,-1.1214844,-3.3931274,3.3920655,0.0
16344,3.9669924,13.642535,2.4516983,-1.1214844,-3.3931274,3.3920655,0.0
16345,3.9669924,13.642535,2.4516983,-0.9494385,-2.7856567,2.8100832,0.0
16346,3.923191,12.93511,2.506476,-0.9494385,-2.7856567,2.8100832,0.0
16347,3.923191,12.93511,2.506476,-0.7582764,-2.1059692,2.3799684,0.0
16348,3.8107204,12.125639,2.260198,-0.7582764,-2.1059692,2.3799684,0.0
16349,3.8107204,12.125639,2.260198,-0.75615233,-1.3795532,1.5526612,0.0
16350,2.7434864,12.17484,1.7937665,-0.75615233,-1.3795532,1.5526612,0.0
16351,2.7434864,12.17484,1.7937665,-1.080066,-0.632959,0.59472656,0.0
16352,2.7434864,12.17484,1.7937665,-1.080066,-0.632959,0.59472656,0.0
16353,0.76648045,12.020805,1.513541,-1.080066,-0.632959,0.59472656,0.0
16354,0.76648045,12.020805,1.513541,-1.5101807,0.07646485,-0.54375,0.0
16355,-0.74991417,9.817352,1.6942434,-1.5101807,0.07646485,-0.54375,0.0
16356,-0.74991417,9.817352,1.6942434,-1.0598878,0.6945557,-1.8893188,0.0
16357,-0.9199505,6.05791,2.0129266,-1.0598878,0.6945557,-1.8893188,0.0
16358,-0.9199505,6.05791,2.0129266,-0.10620117,1.2266235,-3.07771,0.0
16359,-0.63119984,2.6713161,2.069753,-0.10620117,1.2266235,-3.07771,0.0
16360,-0.63119984,2.6713161,2.069753,0.67225343,1.5579712,-3.707483,0.0
16361,-0.65007687,-0.30719757,1.6467936,0.67225343,1.5579712,-3.707483,0.0
16362,-0.65007687,-0.30719757,1.6467936,0.811377,2.272705,-4.139722,0.0
16363,-0.30785465,-7.4284487,0.06523764,0.811377,2.272705,-4.139722,0.0
16364,-0.30785465,-7.4284487,0.06523764,0.8623535,3.2370117,-3.6809328,0.0
16365,-0.6408758,-18.341343,-1.7262523,0.8623535,3.2370117,-3.6809328,0.0
16366,-0.6408758,-18.341343,-1.7262523,1.7363892,3.0108032,-6.4888916,0.0
16367,-1.9547539,-23.404081,-0.87155366,1.7363892,3.0108032,-6.4888916,0.0
16368,-1.9547539,-23.404081,-0.87155366,-1.358313,3.338965,-5.2006717,0.0
16369,-3.275754,-20.466734,1.3938339,-1.358313,3.338965,-5.2006717,0.0
16370,-3.275754,-20.466734,1.3938339,-3.4101198,3.6713746,-4.321326,0.0
16371,-5.0718727,-13.836437,1.0448155,-3.4101198,3.6713746,-4.321326,0.0
16372,-5.0718727,-13.836437,1.0448155,-2.9906251,3.161609,-3.5938478,0.0
16373,-7.1910677,-5.7885838,-1.3849483,-2.9906251,3.161609,-3.5938478,0.0
16374,-7.1910677,-5.7885838,-1.3849483,-2.977881,3.4749024,-3.183911,0.0
16375,-8.497093,0.24316883,-3.0542111,-2.977881,3.4749024,-3.183911,0.0
16376,-8.497093,0.24316883,-3.0542111,-1.6662964,3.3846314,-2.6582153,0.0
16377,-8.444745,3.1296673,-2.7383761,-1.6662964,3.3846314,-2.6582153,0.0
16378,-8.444745,3.1296673,-2.7383761,-0.30479738,3.1403687,-2.1431396,0.0
16379,-7.4186745,4.952818,-1.5566068,-0.30479738,3.1403687,-2.1431396,0.0
16380,-7.4186745,4.952818,-1.5566068,0.42161867,2.998059,-1.9710938,0.0
16381,-6.419876,7.0138903,-0.42017555,0.42161867,2.998059,-1.9710938,0.0
16382,-6.419876,7.0138903,-0.42017555,0.60322267,2.546704,-1.2871583,0.0
16383,-6.712085,8.807939,0.8108444,0.60322267,2.546704,-1.2871583,0.0
16384,-6.712085,8.807939,0.8108444,1.080066,1.7746216,-0.97492677,0.0
16385,-7.869546,9.609596,1.9379945,1.080066,1.7746216,-0.97492677,0.0
16386,-7.869546,9.609596,1.9379945,1.5526612,1.0227174,-0.5851685,0.0
16387,-8.330427,8.93487,2.3220387,1.5526612,1.0227174,-0.5851685,0.0
16388,-8.330427,8.93487,2.3220387,2.162256,0.38338622,-0.3802002,0.0
16389,-7.3574324,7.775166,1.6608658,2.162256,0.38338622,-0.3802002,0.0
16390,-7.3574324,7.775166,1.6608658,2.6008668,-0.3812622,0.060534667,0.0
16391,-5.7419033,7.4793983,0.22651982,2.6008668,-0.3812622,0.060534667,0.0
16392,-5.7419033,7.4793983,0.22651982,1.9041871,-1.0641358,0.43967286,0.0
16393,-4.3533,7.7487164,-1.3712378,1.9041871,-1.0641358,0.43967286,0.0
16394,-4.3533,7.7487164,-1.3712378,0.4959595,-1.6089478,0.6510132,0.0
16395,-3.2433949,6.770274,-2.409661,0.4959595,-1.6089478,0.6510132,0.0
16396,-3.2433949,6.770274,-2.409661,0.013806152,-2.1898682,0.82836914,0.0
16397,-2.3334122,3.2939782,-2.8981514,0.013806152,-2.1898682,0.82836914,0.0
16398,-2.3334122,3.2939782,-2.8981514,1.4167236,-3.0235474,1.3052124,0.0
16399,-1.9593563,-1.5285015,-3.9533234,1.4167236,-3.0235474,1.3052124,0.0
16400,-1.9593563,-1.5285015,-3.9533234,2.8727417,-3.9432495,1.9583496,0.0
16401,-1.8888359,-7.580931,-6.5114136,2.8727417,-3.9432495,1.9583496,0.0
16402,-1.8888359,-7.580931,-6.5114136,3.2752442,-4.325574,2.0528686,0.0
16403,-0.33273697,-16.841234,-9.35791,3.2752442,-4.325574,2.0528686,0.0
16404,-0.33273697,-16.841234,-9.35791,4.1768923,-5.002075,3.345337,0.0
16405,4.201376,-25.63993,-9.928418,4.1768923,-5.002075,3.345337,0.0
16406,4.201376,-25.63993,-9.928418,4.6048827,-5.0796022,6.0078006,0.0
16407,10.023907,-28.778694,-7.4691505,4.6048827,-5.0796022,6.0078006,0.0
16408,10.023907,-28.778694,-7.4691505,3.7372193,-3.8901489,7.546655,0.0
16409,14.776865,-24.218487,-2.9697056,3.7372193,-3.8901489,7.546655,0.0
16410,14.776865,-24.218487,-2.9697056,2.5562623,-3.967676,8.073413,0.0
16411,17.232552,-12.026279,1.906682,2.5562623,-3.967676,8.073413,0.0
16412,17.232552,-12.026279,1.906682,-1.5940796,-4.333008,8.021375,0.0
16413,16.916437,1.0448208,5.371855,-1.5940796,-4.333008,8.021375,0.0
16414,16.916437,1.0448208,5.371855,-5.2750125,-4.455139,6.9413085,0.0
16415,14.313961,8.316742,6.6536856,-5.2750125,-4.455139,6.9413085,0.0
16416,14.313961,8.316742,6.6536856,-5.0955324,-4.7556887,5.8410645,0.0
16417,10.885702,10.977112,6.013647,-5.0955324,-4.7556887,5.8410645,0.0
16418,10.885702,10.977112,6.013647,-2.5031617,-4.850208,4.5624022,0.0
16419,8.225481,13.202112,4.6832685,-2.5031617,-4.850208,4.5624022,0.0
16420,8.225481,13.202112,4.6832685,-0.9876709,-4.34469,3.6798706,0.0
16421,6.792592,15.824752,3.78442,-0.9876709,-4.34469,3.6798706,0.0
16422,6.792592,15.824752,3.78442,-0.9526245,-3.4186158,3.149927,0.0
16423,5.7791786,17.628407,3.421359,-0.9526245,-3.4186158,3.149927,0.0
16424,5.7791786,17.628407,3.421359,-1.5770874,-2.4043946,2.090039,0.0
16425,3.9078894,18.811478,3.031289,-1.5770874,-2.4043946,2.090039,0.0
16426,3.9078894,18.811478,3.031289,-2.444751,-1.3434448,0.4725952,0.0
16427,0.91703415,18.506348,2.692646,-2.444751,-1.3434448,0.4725952,0.0
16428,0.91703415,18.506348,2.692646,-3.1817873,-0.28461915,-1.1246704,0.0
16429,-1.7632351,14.650085,2.8792877,-3.1817873,-0.28461915,-1.1246704,0.0
16430,-1.7632351,14.650085,2.8792877,-2.362976,0.631897,-3.07771,0.0
16431,-2.773345,8.768518,3.284558,-2.362976,0.631897,-3.07771,0.0
16432,-2.773345,8.768518,3.284558,-0.49277344,1.1682129,-4.4031005,0.0
16433,-2.8926392,4.354146,3.2360206,-0.49277344,1.1682129,-4.4031005,0.0
16434,-2.8926392,4.354146,3.2360206,0.72960204,1.6163819,-5.088098,0.0
16435,-3.3904905,2.269413,2.4182966,0.72960204,1.6163819,-5.088098,0.0
16436,-3.3904905,2.269413,2.4182966,1.002539,2.0518067,-5.974878,0.0
16437,-3.9312038,0.8510046,0.9926084,1.002539,2.0518067,-5.974878,0.0
16438,-3.9312038,0.8510046,0.9926084,0.29417726,2.350232,-7.2800903,0.0
16439,-2.319744,-3.6276922,-0.37335718,0.29417726,2.350232,-7.2800903,0.0
16440,-2.319744,-3.6276922,-0.37335718,0.55755615,2.9492066,-7.509485,0.0
16441,1.6954746,-15.627838,-0.3617717,0.55755615,2.9492066,-7.509485,0.0
16442,1.6954746,-15.627838,-0.3617717,1.3678712,3.0978882,-5.2803226,0.0
16443,3.0830278,-26.789148,1.8360343,1.3678712,3.0978882,-5.2803226,0.0
16444,3.0830278,-26.789148,1.8360343,0.040356446,2.2981935,-6.053467,0.0
16445,1.2652502,-26.982723,2.9458418,0.040356446,2.2981935,-6.053467,0.0
16446,1.2652502,-26.982723,2.9458418,-2.5498903,2.5137818,-4.0292726,0.0
16447,-2.0205631,-19.132847,0.5215171,-2.5498903,2.5137818,-4.0292726,0.0
16448,-2.0205631,-19.132847,0.5215171,-4.054761,2.4776733,-3.07771,0.0
16449,-5.6961746,-8.622379,-2.4099712,-4.054761,2.4776733,-3.07771,0.0
16450,-5.6961746,-8.622379,-2.4099712,-4.450891,2.611487,-2.5456421,0.0
16451,-8.397296,-0.6882725,-3.3607287,-4.450891,2.611487,-2.5456421,0.0
16452,-8.397296,-0.6882725,-3.3607287,-3.61615,2.8408813,-2.250403,0.0
16453,-8.397296,-0.6882725,-3.3607287,-3.61615,2.8408813,-2.250403,0.0
16454,-9.910269,3.520403,-2.6347013,-3.61615,2.8408813,-2.250403,0.0
16455,-9.910269,3.520403,-2.6347013,-2.34386,2.6943238,-1.7140869,0.0
16456,-10.580278,5.355751,-1.2300386,-2.34386,2.6943238,-1.7140869,0.0
16457,-10.580278,5.355751,-1.2300386,-1.3062744,2.4808595,-1.1267945,0.0
16458,-10.513796,6.942487,-0.0786109,-1.3062744,2.4808595,-1.1267945,0.0
16459,-10.513796,6.942487,-0.0786109,-0.4056885,1.898877,-0.51932377,0.0
16460,-10.355812,9.423155,0.6761739,-0.4056885,1.898877,-0.51932377,0.0
16461,-10.355812,9.423155,0.6761739,-0.43861085,1.2935303,0.17629395,0.0
16462,-10.906061,11.540697,1.4055631,-0.43861085,1.2935303,0.17629395,0.0
16463,-10.906061,11.540697,1.4055631,-0.7072998,0.7869507,0.7943848,0.0
16464,-11.678463,11.698146,1.7513793,-0.7072998,0.7869507,0.7943848,0.0
16465,-11.678463,11.698146,1.7513793,-1.0205933,0.42161867,0.7497803,0.0
16466,-11.606687,10.310458,1.4267992,-1.0205933,0.42161867,0.7497803,0.0
16467,-11.606687,10.310458,1.4267992,-1.1660889,-0.13381349,0.813501,0.0
16468,-10.162827,8.431984,0.55193734,-1.1660889,-0.13381349,0.813501,0.0
16469,-10.162827,8.431984,0.55193734,-1.3912354,-0.727478,0.5787964,0.0
16470,-7.558276,5.8826113,-0.6716093,-1.3912354,-0.727478,0.5787964,0.0
16471,-7.558276,5.8826113,-0.6716093,-0.5734863,-1.5569092,0.7412842,0.0
16472,-5.019888,2.1275613,-2.0730786,-0.5734863,-1.5569092,0.7412842,0.0
16473,-5.019888,2.1275613,-2.0730786,1.1565307,-2.703882,1.1565307,0.0
16474,-2.6190224,-3.9902241,-3.6148107,1.1565307,-2.703882,1.1565307,0.0
16475,-2.6190224,-3.9902241,-3.6148107,2.8313234,-3.5588014,1.2552979,0.0
16476,1.193552,-13.315788,-5.553067,2.8313234,-3.5588014,1.2552979,0.0
16477,1.193552,-13.315788,-5.553067,3.970862,-4.1652102,2.6104248,0.0
16478,6.313961,-22.395624,-7.7785625,3.970862,-4.1652102,2.6104248,0.0
16479,6.313961,-22.395624,-7.7785625,4.1354737,-5.0318117,5.843189,0.0
16480,11.030186,-27.098824,-8.062304,4.1354737,-5.0318117,5.843189,0.0
16481,11.030186,-27.098824,-8.062304,1.6832886,-4.4848757,7.5774536,0.0
16482,15.599357,-26.579254,-5.794325,1.6832886,-4.4848757,7.5774536,0.0
16483,15.599357,-26.579254,-5.794325,1.901001,-5.0243773,9.063209,0.0
16484,20.397394,-19.448853,-2.9559307,1.901001,-5.0243773,9.063209,0.0
16485,20.397394,-19.448853,-2.9559307,1.178833,-5.3546634,9.2172,0.0
16486,23.23924,-6.2817745,-0.4182968,1.178833,-5.3546634,9.2172,0.0
16487,23.23924,-6.2817745,-0.4182968,-1.1076783,-4.5836425,7.97677,0.0
16488,21.056103,6.9795246,1.8965759,-1.1076783,-4.5836425,7.97677,0.0
16489,21.056103,6.9795246,1.8965759,-2.2939453,-4.2140627,6.6864257,0.0
16490,15.045578,15.393398,3.4596806,-2.2939453,-4.2140627,6.6864257,0.0
16491,15.045578,15.393398,3.4596806,-1.6811646,-4.2161865,5.2856326,0.0
16492,9.663648,18.943907,4.035701,-1.6811646,-4.2161865,5.2856326,0.0
16493,9.663648,18.943907,4.035701,-1.1395386,-3.8455446,4.0059085,0.0
16494,6.576048,20.103367,4.3317223,-1.1395386,-3.8455446,4.0059085,0.0
16495,6.576048,20.103367,4.3317223,-1.178833,-3.172229,2.7707887,0.0
16496,4.485094,21.328384,4.348447,-1.178833,-3.172229,2.7707887,0.0
16497,4.485094,21.328384,4.348447,-1.5739014,-2.2865112,1.0280274,0.0
16498,1.9600849,22.181362,3.8506818,-1.5739014,-2.2865112,1.0280274,0.0
16499,1.9600849,22.181362,3.8506818,-2.441565,-1.1937011,-0.8527954,0.0
16500,-1.0725689,20.041317,3.591166,-2.441565,-1.1937011,-0.8527954,0.0
16501,-1.0725689,20.041317,3.591166,-2.819641,0.14018555,-3.4069335,0.0
16502,-3.1664162,14.298789,3.6992636,-2.819641,0.14018555,-3.4069335,0.0
16503,-3.1664162,14.298789,3.6992636,-2.0008302,1.4730103,-5.3663454,0.0
16504,-3.4232578,6.93001,3.2833488,-2.0008302,1.4730103,-5.3663454,0.0
16505,-3.4232578,6.93001,3.2833488,-0.27506104,2.3162477,-6.458093,0.0
16506,-2.9986897,1.672987,2.2463934,-0.27506104,2.3162477,-6.458093,0.0
16507,-2.9986897,1.672987,2.2463934,1.1087402,2.613611,-6.893518,0.0
16508,-2.9700089,-0.03505993,0.90722215,1.1087402,2.613611,-6.893518,0.0
16509,-2.9700089,-0.03505993,0.90722215,1.0057251,2.804773,-7.3002687,0.0
16510,-2.2636414,-2.0895348,-0.77507687,1.0057251,2.804773,-7.3002687,0.0
16511,-2.2636414,-2.0895348,-0.77507687,0.2538208,3.2625,-7.709143,0.0
16512,1.4632683,-12.52236,-2.121856,0.2538208,3.2625,-7.709143,0.0
16513,1.4632683,-12.52236,-2.121856,-0.6180908,4.0802493,-4.3871703,0.0
16514,3.2240448,-27.199066,-1.3107295,-0.6180908,4.0802493,-4.3871703,0.0
16515,3.2240448,-27.199066,-1.3107295,-1.6726685,4.619751,-6.687488,0.0
16516,-0.057971,-31.540258,0.020813465,-1.6726685,4.619751,-6.687488,0.0
16517,-0.057971,-31.540258,0.020813465,-1.7863038,2.7750366,-2.3417358,0.0
16518,-4.687771,-22.796124,-1.3062739,-1.7863038,2.7750366,-2.3417358,0.0
16519,-4.687771,-22.796124,-1.3062739,-3.62146,4.319202,-2.642285,0.0
16520,-8.017112,-8.730881,-3.355322,-3.62146,4.319202,-2.642285,0.0
16521,-8.017112,-8.730881,-3.355322,-4.956409,4.7588744,-1.5494751,0.0
16522,-10.4426565,1.7454586,-3.5539598,-4.956409,4.7588744,-1.5494751,0.0
16523,-10.4426565,1.7454586,-3.5539598,-4.8448977,4.803479,-1.1852051,0.0
16524,-12.241906,6.5443287,-2.3011146,-4.8448977,4.803479,-1.1852051,0.0
16525,-12.241906,6.5443287,-2.3011146,-4.044141,4.2735353,-0.26550293,0.0
16526,-13.226899,7.9072037,-0.61501265,-4.044141,4.2735353,-0.26550293,0.0
16527,-13.226899,7.9072037,-0.61501265,-2.6773317,3.5088868,-0.08071289,0.0
16528,-13.039528,8.416132,1.2780704,-2.6773317,3.5088868,-0.08071289,0.0
16529,-13.039528,8.416132,1.2780704,-1.6195679,2.4734254,0.33878174,0.0
16530,-12.0895195,9.317464,3.3474808,-1.6195679,2.4734254,0.33878174,0.0
16531,-12.0895195,9.317464,3.3474808,-0.7168579,1.4570801,0.6064087,0.0
16532,-11.275511,9.942972,5.228827,-0.7168579,1.4570801,0.6064087,0.0
16533,-11.275511,9.942972,5.228827,0.15186767,0.6202149,1.0184692,0.0
16534,-10.548801,9.484249,6.02636,0.15186767,0.6202149,1.0184692,0.0
16535,-10.548801,9.484249,6.02636,0.90058595,-0.09133301,1.1044922,0.0
16536,-9.307584,8.7925625,5.2622256,0.90058595,-0.09133301,1.1044922,0.0
16537,-9.307584,8.7925625,5.2622256,1.0535157,-0.8772217,1.2329956,0.0
16538,-7.4107647,8.495586,3.477615,1.0535157,-0.8772217,1.2329956,0.0
16539,-7.4107647,8.495586,3.477615,0.24638672,-1.622754,1.0428956,0.0
16540,-4.889806,7.922604,1.5947263,0.24638672,-1.622754,1.0428956,0.0
16541,-4.889806,7.922604,1.5947263,-0.7062378,-2.2281005,1.1363525,0.0
16542,-2.3545208,5.8190527,0.18160385,-0.7062378,-2.2281005,1.1363525,0.0
16543,-2.3545208,5.8190527,0.18160385,-1.0683838,-2.5254638,1.539917,0.0
16544,-0.5325546,0.76234674,-1.6426197,-1.0683838,-2.5254638,1.539917,0.0
16545,-0.5325546,0.76234674,-1.6426197,0.901648,-2.8706176,1.807544,0.0
16546,1.1095161,-9.382603,-5.2284756,0.901648,-2.8706176,1.807544,0.0
16547,1.1095161,-9.382603,-5.2284756,4.443457,-3.2444458,0.89102787,0.0
16548,4.7278957,-23.261637,-9.117266,4.443457,-3.2444458,0.89102787,0.0
16549,4.7278957,-23.261637,-9.117266,6.3529544,-4.321326,3.1945312,0.0
16550,10.447978,-32.22689,-10.673317,6.3529544,-4.321326,3.1945312,0.0
16551,10.447978,-32.22689,-10.673317,3.799878,-4.7854247,6.3646364,0.0
16552,15.9696865,-29.46347,-9.453327,3.799878,-4.7854247,6.3646364,0.0
16553,15.9696865,-29.46347,-9.453327,0.42268068,-5.3270507,8.012878,0.0
16554,19.475456,-17.356054,-6.086685,0.42268068,-5.3270507,8.012878,0.0
16555,19.475456,-17.356054,-6.086685,-1.1554688,-4.9192386,7.3172607,0.0
16556,19.28199,-4.2814617,-1.9380617,-1.1554688,-4.9192386,7.3172607,0.0
16557,19.28199,-4.2814617,-1.9380617,-0.1529297,-5.06792,6.885022,0.0
16558,15.808355,5.139187,0.4819975,-0.1529297,-5.06792,6.885022,0.0
16559,15.808355,5.139187,0.4819975,0.38869628,-4.7418823,5.9547,0.0
16560,11.808794,12.068687,1.2293482,0.38869628,-4.7418823,5.9547,0.0
16561,11.808794,12.068687,1.2293482,-0.7126099,-3.9666138,4.269287,0.0
16562,8.84468,16.960285,2.5299263,-0.7126099,-3.9666138,4.269287,0.0
16563,8.84468,16.960285,2.5299263,-1.6684204,-3.4802125,3.5811036,0.0
16564,6.7125235,18.613638,4.7157135,-1.6684204,-3.4802125,3.5811036,0.0
16565,6.7125235,18.613638,4.7157135,-1.9679078,-3.0607178,3.0978882,0.0
16566,5.2557125,18.395048,6.164563,-1.9679078,-3.0607178,3.0978882,0.0
16567,5.2557125,18.395048,6.164563,-1.7979859,-2.351294,1.6641724,0.0
16568,3.9747972,20.089794,5.9246807,-1.7979859,-2.351294,1.6641724,0.0
16569,3.9747972,20.089794,5.9246807,-2.1367676,-1.1639649,-0.24532472,0.0
16570,1.6335974,21.859982,4.7513533,-2.1367676,-1.1639649,-0.24532472,0.0
16571,1.6335974,21.859982,4.7513533,-3.2996705,0.1083252,-2.4946656,0.0
16572,-1.1674871,19.27755,3.819589,-3.2996705,0.1083252,-2.4946656,0.0
16573,-1.1674871,19.27755,3.819589,-2.4266968,1.4082276,-5.5638795,0.0
16574,-2.2011766,12.155657,3.1567454,-2.4266968,1.4082276,-5.5638795,0.0
16575,-2.2011766,12.155657,3.1567454,-0.5915405,2.453247,-6.9572387,0.0
16576,-1.9904585,4.4335957,2.3251643,-0.5915405,2.453247,-6.9572387,0.0
16577,-1.9904585,4.4335957,2.3251643,1.3360108,2.8185792,-7.7250733,0.0
16578,-1.8778534,-0.027867317,1.4969357,1.3360108,2.8185792,-7.7250733,0.0
16579,-1.8778534,-0.027867317,1.4969357,1.6142578,3.0426636,-8.353785,0.0
16580,-0.23739052,-4.1377726,0.024367452,1.6142578,3.0426636,-8.353785,0.0
16581,-0.23739052,-4.1377726,0.024367452,1.8404664,3.5959718,-7.3013306,0.0
16582,4.8007736,-19.991188,-1.8025763,1.8404664,3.5959718,-7.3013306,0.0
16583,4.8007736,-19.991188,-1.8025763,0.7763306,4.064319,-4.2894654,0.0
16584,6.571272,-36.91873,-1.6789873,0.7763306,4.064319,-4.2894654,0.0
16585,6.571272,-36.91873,-1.6789873,-0.8857178,3.8391724,-6.1671023,0.0
16586,2.8246574,-35.34926,-0.40123415,-0.8857178,3.8391724,-6.1671023,0.0
16587,2.8246574,-35.34926,-0.40123415,-5.6562743,4.421155,-2.2939453,0.0
16588,-2.9007845,-21.7776,-1.3244908,-5.6562743,4.421155,-2.2939453,0.0
16589,-2.9007845,-21.7776,-1.3244908,-5.6573367,4.9436646,-1.5643433,0.0
16590,-8.370896,-6.2563686,-2.791697,-5.6573367,4.9436646,-1.5643433,0.0
16591,-8.370896,-6.2563686,-2.791697,-4.792859,5.353601,-1.44646,0.0
16592,-12.491175,4.6064644,-2.8530111,-4.792859,5.353601,-1.44646,0.0
16593,-12.491175,4.6064644,-2.8530111,-3.793506,5.178369,-0.7317261,0.0
16594,-15.094357,9.334292,-2.0241446,-3.793506,5.178369,-0.7317261,0.0
16595,-15.094357,9.334292,-2.0241446,-2.7984009,4.596387,-0.67331547,0.0
16596,-16.27651,10.495754,-0.9950237,-2.7984009,4.596387,-0.67331547,0.0
16597,-16.27651,10.495754,-0.9950237,-2.1187134,4.0367064,-0.52250975,0.0
16598,-16.057709,10.69907,0.38348532,-2.1187134,4.0367064,-0.52250975,0.0
16599,-16.057709,10.69907,0.38348532,-1.3030884,3.166919,-0.4067505,0.0
16600,-15.37124,10.944608,2.2234755,-1.3030884,3.166919,-0.4067505,0.0
16601,-15.37124,10.944608,2.2234755,-1.3030884,3.166919,-0.4067505,133.0
16602,-15.37124,10.944608,2.2234755,-0.34940186,2.1080933,0.07752686,133.0
16603,-14.501106,10.67108,3.5108972,-0.34940186,2.1080933,0.07752686,133.0
16604,-14.501106,10.67108,3.5108972,-0.033984374,1.4772583,0.19541016,133.0
16605,-12.738642,9.509105,3.4944358,-0.033984374,1.4772583,0.19541016,133.0
16606,-12.738642,9.509105,3.4944358,0.17629395,0.6775635,0.3717041,133.0
16607,-10.127363,7.883468,2.8205366,0.17629395,0.6775635,0.3717041,133.0
16608,-10.127363,7.883468,2.8205366,0.059472658,-0.23789063,0.29948732,133.0
16609,-6.7362537,6.0696163,2.1974816,0.059472658,-0.23789063,0.29948732,133.0
16610,-6.7362537,6.0696163,2.1974816,-0.23045655,-1.1002442,0.4322388,133.0
16611,-2.758669,3.6107955,1.66852,-0.23045655,-1.1002442,0.4322388,133.0
16612,-2.758669,3.6107955,1.66852,0.20284425,-1.9339234,1.081128,133.0
16613,0.8273792,-0.0026965141,0.7514297,0.20284425,-1.9339234,1.081128,133.0
16614,0.8273792,-0.0026965141,0.7514297,1.537793,-2.794153,2.0369384,133.0
16615,3.579506,-5.57767,-1.1696814,1.537793,-2.794153,2.0369384,133.0
16616,3.579506,-5.57767,-1.1696814,3.1265626,-3.3729494,2.5998046,133.0
16617,6.1353703,-14.210073,-3.486734,3.1265626,-3.3729494,2.5998046,133.0
16618,6.1353703,-14.210073,-3.486734,3.4950807,-3.7489014,3.1010742,133.0
16619,8.940633,-24.370512,-5.469551,3.4950807,-3.7489014,3.1010742,133.0
16620,8.940633,-24.370512,-5.469551,4.37124,-4.156714,4.425403,133.0
16621,12.986821,-28.446434,-6.781085,4.37124,-4.156714,4.425403,133.0
16622,12.986821,-28.446434,-6.781085,3.5503051,-5.1815553,7.303455,133.0
16623,18.308975,-21.015438,-7.271914,3.5503051,-5.1815553,7.303455,133.0
16624,18.308975,-21.015438,-7.271914,0.25594482,-4.432837,6.8361697,133.0
16625,20.463198,-7.297018,-5.7905045,0.25594482,-4.432837,6.8361697,133.0
16626,20.463198,-7.297018,-5.7905045,-2.0401247,-3.1456788,6.040723,133.0
16627,16.372242,4.1399975,-2.5352726,-2.0401247,-3.1456788,6.040723,133.0
16628,16.372242,4.1399975,-2.5352726,-1.1852051,-3.7297852,5.7157474,133.0
16629,9.969108,10.736082,-0.038838387,-1.1852051,-3.7297852,5.7157474,133.0
16630,9.969108,10.736082,-0.038838387,-0.55543214,-4.072815,4.523108,133.0
16631,6.133501,14.722582,1.5198083,-0.55543214,-4.072815,4.523108,133.0
16632,6.133501,14.722582,1.5198083,-1.0567017,-3.9453735,3.5556152,133.0
16633,5.226821,17.212368,3.2773337,-1.0567017,-3.9453735,3.5556152,133.0
16634,5.226821,17.212368,3.2773337,-1.3944215,-3.5078247,2.717688,133.0
16635,5.127611,19.416294,4.65623,-1.3944215,-3.5078247,2.717688,133.0
16636,5.127611,19.416294,4.65623,-1.4921265,-3.0968263,1.269104,133.0
16637,4.0916405,21.57842,4.644503,-1.4921265,-3.0968263,1.269104,133.0
16638,4.0916405,21.57842,4.644503,-2.3958986,-2.2323487,-0.17947999,133.0
16639,1.9908905,20.668596,4.0714984,-2.3958986,-2.2323487,-0.17947999,133.0
16640,1.9908905,20.668596,4.0714984,-2.8376954,-1.1246704,-2.085791,133.0
16641,-0.36357498,16.025284,4.1723475,-2.8376954,-1.1246704,-2.085791,133.0
16642,-0.36357498,16.025284,4.1723475,-2.4192626,0.18691407,-4.923486,133.0
16643,-1.8617945,9.369421,4.427844,-2.4192626,0.18691407,-4.923486,133.0
16644,-1.8617945,9.369421,4.427844,-1.179895,1.5335449,-5.6435304,133.0
16645,-2.8560982,2.8815355,3.7524557,-1.179895,1.5335449,-5.6435304,133.0
16646,-2.8560982,2.8815355,3.7524557,0.69349366,2.2164185,-6.4687133,133.0
16647,-3.598526,-1.066,2.2584956,0.69349366,2.2164185,-6.4687133,133.0
16648,-3.598526,-1.066,2.2584956,1.6248779,2.5647583,-6.5749145,133.0
16649,-2.6156979,-3.884282,0.112924315,1.6248779,2.5647583,-6.5749145,133.0
16650,-2.6156979,-3.884282,0.112924315,1.4687623,3.2879884,-5.9313354,133.0
16651,-2.6156979,-3.884282,0.112924315,-0.20284425,4.423279,-2.434131,133.0
16652,1.1793413,-11.824711,-0.9749682,-0.20284425,4.423279,-2.434131,133.0
16653,3.6410074,-25.831242,-0.84610003,-0.20284425,4.423279,-2.434131,133.0
16654,3.6410074,-25.831242,-0.84610003,-2.447937,5.9122195,-4.8629518,133.0
16655,1.3699226,-31.752188,-1.5349245,-2.447937,5.9122195,-4.8629518,133.0
16656,1.3699226,-31.752188,-1.5349245,-3.0862062,4.896936,-2.532898,133.0
16657,-1.4920139,-22.947662,-2.5411963,-3.0862062,4.896936,-2.532898,133.0
16658,-1.4920139,-22.947662,-2.5411963,-4.798169,4.958533,-0.9781128,133.0
16659,-3.4948559,-9.555592,-3.1721418,-4.798169,4.958533,-0.9781128,133.0
16660,-3.4948559,-9.555592,-3.1721418,-4.8310914,4.626123,-0.3462158,133.0
16661,-6.603649,0.93783855,-3.2405455,-4.8310914,4.626123,-0.3462158,133.0
16662,-6.603649,0.93783855,-3.2405455,-3.99104,4.686658,-0.45878908,133.0
16663,-10.213974,6.825308,-2.4282885,-3.99104,4.686658,-0.45878908,133.0
16664,-10.213974,6.825308,-2.4282885,-3.0416017,3.6958008,-0.13912354,133.0
16665,-12.71051,8.864336,-0.71941304,-3.0416017,3.6958008,-0.13912354,133.0
16666,-12.71051,8.864336,-0.71941304,-2.1282716,2.9417725,-0.15930176,133.0
16667,-13.299927,9.214138,1.0256536,-2.1282716,2.9417725,-0.15930176,133.0
16668,-13.299927,9.214138,1.0256536,-1.176709,2.0369384,0.090270996,133.0
16669,-13.155579,9.742941,2.7913115,-1.176709,2.0369384,0.090270996,133.0
16670,-13.155579,9.742941,2.7913115,-0.31223145,1.0492676,0.6860596,133.0
16671,-12.6276245,10.034062,4.3283377,-0.31223145,1.0492676,0.6860596,133.0
16672,-12.6276245,10.034062,4.3283377,0.32391357,0.4067505,0.5872925,133.0
16673,-10.800623,9.264189,4.9240713,0.32391357,0.4067505,0.5872925,133.0
16674,-10.800623,9.264189,4.9240713,1.081128,-0.19222413,0.5299439,133.0
16675,-8.114888,7.90637,4.4782586,1.081128,-0.19222413,0.5299439,133.0
16676,-8.114888,7.90637,4.4782586,1.7724975,-0.70942384,0.62764895,133.0
16677,-5.5102825,6.6425157,3.272817,1.7724975,-0.70942384,0.62764895,133.0
16678,-5.5102825,6.6425157,3.272817,1.9774659,-1.4390259,0.41206056,133.0
16679,-2.8872547,6.0863028,1.6692913,1.9774659,-1.4390259,0.41206056,133.0
16680,-2.8872547,6.0863028,1.6692913,1.0620117,-2.1240234,0.50233155,133.0
16681,-0.748415,5.452099,0.40557456,1.0620117,-2.1240234,0.50233155,133.0
16682,-0.748415,5.452099,0.40557456,-0.58304447,-2.173938,0.7614624,133.0
16683,0.75320816,2.6385465,-0.087491035,-0.58304447,-2.173938,0.7614624,133.0
16684,0.75320816,2.6385465,-0.087491035,-1.2266235,-2.617859,1.1852051,133.0
16685,2.0302515,-4.706131,-1.6228981,-1.2266235,-2.617859,1.1852051,133.0
16686,2.0302515,-4.706131,-1.6228981,2.1845582,-3.062842,1.4230957,133.0
16687,3.324665,-17.49696,-5.1379304,2.1845582,-3.062842,1.4230957,133.0
16688,3.324665,-17.49696,-5.1379304,6.53031,-3.982544,1.4698242,133.0
16689,5.6704865,-29.156504,-8.183293,6.53031,-3.982544,1.4698242,133.0
16690,5.6704865,-29.156504,-8.183293,6.9965334,-4.7525024,3.6873047,133.0
16691,9.978564,-31.261898,-8.727128,6.9965334,-4.7525024,3.6873047,133.0
16692,9.978564,-31.261898,-8.727128,3.6586304,-4.7482543,5.9069095,133.0
16693,15.588845,-22.163315,-7.5059457,3.6586304,-4.7482543,5.9069095,133.0
16694,15.588845,-22.163315,-7.5059457,-0.5065796,-4.265039,6.2871094,133.0
16695,18.043795,-7.9427013,-4.6349936,-0.5065796,-4.265039,6.2871094,133.0
16696,18.043795,-7.9427013,-4.6349936,-3.524817,-2.8366334,5.9323974,133.0
16697,14.414186,2.8286285,-1.2208853,-3.524817,-2.8366334,5.9323974,133.0
16698,14.414186,2.8286285,-1.2208853,-1.9169312,-3.5821655,5.5914917,133.0
16699,8.510426,9.307873,0.91247654,-1.9169312,-3.5821655,5.5914917,133.0
16700,8.510426,9.307873,0.91247654,-1.0237793,-4.069629,4.14928,133.0
16701,8.510426,9.307873,0.91247654,-1.0237793,-4.069629,4.14928,142.0
16702,5.510147,14.156625,2.324781,-1.0237793,-4.069629,4.14928,142.0
16703,5.510147,14.156625,2.324781,-1.1406006,-3.9921021,3.359143,142.0
16704,5.469263,17.371468,3.9356427,-1.1406006,-3.9921021,3.359143,142.0
16705,5.469263,17.371468,3.9356427,-1.2043213,-3.5577393,2.9322145,142.0
16706,6.1030474,19.929241,5.047672,-1.2043213,-3.5577393,2.9322145,142.0
16707,6.1030474,19.929241,5.047672,-1.2457398,-2.6709595,2.3980224,142.0
16708,5.7325964,22.26643,4.704507,-1.2457398,-2.6709595,2.3980224,142.0
16709,5.7325964,22.26643,4.704507,-2.2047365,-1.7735596,0.36002198,142.0
16710,3.6581469,21.653976,3.9938793,-2.2047365,-1.7735596,0.36002198,142.0
16711,3.6581469,21.653976,3.9938793,-3.4143677,-0.21452637,-1.4910644,142.0
16712,0.8297281,16.90476,4.021019,-3.4143677,-0.21452637,-1.4910644,142.0
16713,0.8297281,16.90476,4.021019,-3.173291,1.3678712,-4.213001,142.0
16714,-1.1083374,9.278704,3.8042054,-3.173291,1.3678712,-4.213001,142.0
16715,-1.1083374,9.278704,3.8042054,-0.6446411,2.5785644,-4.8672,142.0
16716,-2.40166,2.3688374,2.5680103,-0.6446411,2.5785644,-4.8672,142.0
16717,-2.40166,2.3688374,2.5680103,0.9876709,3.3219726,-5.689197,142.0
16718,-2.9816303,-0.47518158,0.6635636,0.9876709,3.3219726,-5.689197,142.0
16719,-2.9816303,-0.47518158,0.6635636,1.1979493,3.609778,-6.4549074,142.0
16720,-2.9816303,-0.47518158,0.6635636,0.33240968,4.072815,-6.0269165,142.0
16721,-2.0404806,-1.5829525,-1.3959435,0.33240968,4.072815,-6.0269165,142.0
16722,1.1027107,-39.86054,-5.1829658,0.33240968,4.072815,-6.0269165,142.0
16723,1.1027107,-39.86054,-5.1829658,-0.6839356,5.0126953,-3.4005616,142.0
16724,1.1027107,-39.86054,-5.1829658,-0.994043,6.1671023,-4.3691163,142.0
16725,1.1027107,-39.86054,-5.1829658,-0.60216063,4.4710693,-2.9587648,142.0
16726,-1.1483126,-31.984697,-4.9200907,-0.60216063,4.4710693,-2.9587648,142.0
16727,-1.1483126,-31.984697,-4.9200907,-2.7909667,4.6686034,-1.3020264,142.0
16728,-3.6723852,-16.920143,-3.687684,-2.7909667,4.6686034,-1.3020264,142.0
16729,-3.6723852,-16.920143,-3.687684,-4.0409546,4.535852,-0.45878908,142.0
16730,-7.0904226,-3.8055115,-2.2849617,-4.0409546,4.535852,-0.45878908,142.0
16731,-7.0904226,-3.8055115,-2.2849617,-4.7748046,4.9149904,-0.85491943,142.0
16732,-10.866272,3.6902342,-1.2374907,-4.7748046,4.9149904,-0.85491943,142.0
16733,-10.866272,3.6902342,-1.2374907,-4.12273,4.3128295,-0.17735596,142.0
16734,-14.370801,6.6469755,0.13206577,-4.12273,4.3128295,-0.17735596,142.0
16735,-14.370801,6.6469755,0.13206577,-2.4606812,3.2030275,0.115759276,142.0
16736,-15.584947,8.131082,1.6795783,-2.4606812,3.2030275,0.115759276,142.0
16737,-15.584947,8.131082,1.6795783,-1.2807862,2.2482789,0.8326172,142.0
16738,-14.469911,9.62425,3.4118512,-1.2807862,2.2482789,0.8326172,142.0
16739,-14.469911,9.62425,3.4118512,-0.12850343,1.263794,0.35683593,142.0
16740,-12.485254,10.568456,5.1018443,-0.12850343,1.263794,0.35683593,142.0
16741,-12.485254,10.568456,5.1018443,0.6881836,0.53950197,0.2538208,142.0
16742,-9.914852,9.663688,5.7378235,0.6881836,0.53950197,0.2538208,142.0
16743,-9.914852,9.663688,5.7378235,1.0142212,0.095581055,0.13062744,142.0
16744,-6.810544,7.3997493,4.9673095,1.0142212,0.095581055,0.13062744,142.0
16745,-6.810544,7.3997493,4.9673095,0.9717407,-0.59472656,0.007434082,142.0
16746,-3.695262,5.2177362,3.260896,0.9717407,-0.59472656,0.007434082,142.0
16747,-3.695262,5.2177362,3.260896,0.44073486,-1.1958252,-0.31010744,142.0
16748,-0.6529875,3.1122017,1.3570812,0.44073486,-1.1958252,-0.31010744,142.0
16749,-0.6529875,3.1122017,1.3570812,-0.090270996,-1.7576294,0.20603028,142.0
16750,2.1787205,-0.8968353,-0.46330976,-0.090270996,-1.7576294,0.20603028,142.0
16751,2.1787205,-0.8968353,-0.46330976,0.9759888,-2.7368042,0.8963379,142.0
16752,3.9166584,-8.17677,-2.7644346,0.9759888,-2.7368042,0.8963379,142.0
16753,3.9166584,-8.17677,-2.7644346,3.4557862,-2.5870607,1.621692,142.0
16754,5.1934834,-17.02042,-5.3867188,3.4557862,-2.5870607,1.621692,142.0
16755,5.1934834,-17.02042,-5.3867188,4.2990236,-4.325574,2.1346436,142.0
16756,7.4344378,-24.44622,-7.6463013,4.2990236,-4.325574,2.1346436,142.0
16757,7.4344378,-24.44622,-7.6463013,5.6828246,-4.354248,3.183911,142.0
16758,8.680693,-23.313763,-7.905444,5.6828246,-4.354248,3.183911,142.0
16759,8.680693,-23.313763,-7.905444,6.2945437,-5.0296874,4.690906,142.0
16760,16.175083,-16.1441,-8.216751,6.2945437,-5.0296874,4.690906,142.0
16761,16.175083,-16.1441,-8.216751,1.8659546,-4.0165286,5.232532,142.0
16762,15.897758,-8.465916,-6.1690793,1.8659546,-4.0165286,5.232532,142.0
16763,15.897758,-8.465916,-6.1690793,-0.18903808,-2.7622926,4.787549,142.0
16764,12.227825,4.7560635,-1.3929176,-0.18903808,-2.7622926,4.787549,142.0
16765,12.227825,4.7560635,-1.3929176,-0.4364868,-3.4897707,4.607007,142.0
16766,8.287839,6.381731,-0.11576271,-0.4364868,-3.4897707,4.607007,142.0
16767,8.287839,6.381731,-0.11576271,0.10195313,-3.714917,4.3977904,142.0
16768,3.4722514,13.006655,1.336772,0.10195313,-3.714917,4.3977904,142.0
16769,3.4722514,13.006655,1.336772,-0.007434082,-3.7765138,3.7531495,142.0
16770,3.2623224,13.225539,1.4517298,-0.007434082,-3.7765138,3.7531495,142.0
16771,3.2623224,13.225539,1.4517298,-0.14868164,-3.6650026,3.6076539,142.0
16772,4.4345036,19.746105,2.9336863,-0.14868164,-3.6650026,3.6076539,142.0
16773,4.4345036,19.746105,2.9336863,-0.79013675,-3.1255004,2.53396,142.0
16774,4.313057,19.09094,2.8358407,-0.79013675,-3.1255004,2.53396,142.0
16775,4.313057,19.09094,2.8358407,-1.5983276,-2.633789,2.090039,142.0
16776,3.05097,22.157177,2.8959064,-1.5983276,-2.633789,2.090039,142.0
16777,3.05097,22.157177,2.8959064,-4.094055,-1.0981201,-0.7455322,142.0
16778,1.6768723,18.027927,3.2359881,-4.094055,-1.0981201,-0.7455322,142.0
16779,1.6768723,18.027927,3.2359881,-3.9464357,-0.45560303,-2.2164185,142.0
16780,0.38425827,10.406948,5.1477504,-3.9464357,-0.45560303,-2.2164185,142.0
16781,0.38425827,10.406948,5.1477504,-0.8028809,1.2244996,-4.449829,142.0
16782,-0.41997337,6.23353,4.6499753,-0.8028809,1.2244996,-4.449829,142.0
16783,-0.41997337,6.23353,4.6499753,0.15823975,1.6769165,-4.9351687,142.0
16784,-1.0023365,0.81853867,2.4280736,0.15823975,1.6769165,-4.9351687,142.0
16785,-1.0023365,0.81853867,2.4280736,0.6860596,2.552014,-6.0885134,142.0
16786,-1.0023365,0.81853867,2.4280736,0.2442627,2.806897,-6.271179,142.0
16787,-1.2369394,-0.24687862,0.8636869,0.2442627,2.806897,-6.271179,142.0
16788,3.490099,-22.135063,-0.84463406,0.2442627,2.806897,-6.271179,142.0
16789,3.490099,-22.135063,-0.84463406,-1.5271729,5.441748,-2.0942872,142.0
16790,3.490099,-22.135063,-0.84463406,-2.0072021,6.458093,-2.342798,142.0
16791,3.490099,-22.135063,-0.84463406,1.0036011,5.1029663,-4.3924804,142.0
16792,2.2854385,-36.960274,-1.8653557,1.0036011,5.1029663,-4.3924804,142.0
16793,-3.9633608,-18.400421,-3.3687372,1.0036011,5.1029663,-4.3924804,142.0
16794,-3.9633608,-18.400421,-3.3687372,-2.3937745,5.3100586,-1.6174439,142.0
16795,-3.9633608,-18.400421,-3.3687372,-5.5479493,5.4120116,-0.6796875,142.0
16796,-5.8495455,-9.178894,-2.6174264,-5.5479493,5.4120116,-0.6796875,142.0
16797,-5.8495455,-9.178894,-2.6174264,-5.6668944,5.4226317,-0.724292,142.0
16798,-10.231004,0.5343504,-2.2369099,-5.6668944,5.4226317,-0.724292,142.0
16799,-10.231004,0.5343504,-2.2369099,-4.54541,4.7546268,-0.71579593,142.0
16800,-13.394606,4.3657007,-1.2580338,-4.54541,4.7546268,-0.71579593,142.0
16801,-13.394606,4.3657007,-1.2580338,-2.6061769,3.705359,-0.43967286,142.0
16802,-14.421154,6.0183053,0.29004502,-2.6061769,3.705359,-0.43967286,142.0
16803,-14.421154,6.0183053,0.29004502,-1.0875,2.6858277,-0.13275146,142.0
16804,-12.957907,7.9079676,2.0683153,-1.0875,2.6858277,-0.13275146,142.0
16805,-12.957907,7.9079676,2.0683153,-0.6690674,1.6832886,-0.3451538,142.0
16806,-12.957907,7.9079676,2.0683153,-0.6690674,1.6832886,-0.3451538,152.0
16807,-11.130962,11.246125,4.537001,-0.6690674,1.6832886,-0.3451538,152.0
16808,-11.130962,11.246125,4.537001,-0.3079834,0.45666504,0.34090576,152.0
16809,-9.3140955,9.604017,4.3885975,-0.3079834,0.45666504,0.34090576,152.0
16810,-9.3140955,9.604017,4.3885975,-0.18372802,0.14230958,0.29948732,152.0
16811,-8.280989,7.0441756,4.618544,-0.18372802,0.14230958,0.29948732,152.0
16812,-8.280989,7.0441756,4.618544,0.76677245,-0.4248047,-0.057348635,152.0
16813,-6.8723497,4.4179335,4.145336,0.76677245,-0.4248047,-0.057348635,152.0
16814,-6.8723497,4.4179335,4.145336,1.6970948,-1.1214844,-0.014868164,152.0
16815,-4.986991,3.298153,3.1725187,1.6970948,-1.1214844,-0.014868164,152.0
16816,-4.986991,3.298153,3.1725187,1.44115,-1.9562256,0.03186035,152.0
16817,-2.9099903,3.1287813,2.0910544,1.44115,-1.9562256,0.03186035,152.0
16818,-2.9099903,3.1287813,2.0910544,-0.027612304,-2.3396118,0.39188233,152.0
16819,-1.3311787,1.4949074,0.68473315,-0.027612304,-2.3396118,0.39188233,152.0
16820,-1.3311787,1.4949074,0.68473315,-0.020178223,-2.6614015,1.3041505,152.0
16821,-0.50478745,-4.4254975,-1.8752725,-0.020178223,-2.6614015,1.3041505,152.0
16822,-0.50478745,-4.4254975,-1.8752725,2.2992554,-3.3655152,1.1565307,152.0
16823,1.0293245,-17.253716,-5.519688,2.2992554,-3.3655152,1.1565307,152.0
16824,1.0293245,-17.253716,-5.519688,5.3036866,-3.445166,0.18797608,152.0
16825,5.6328096,-32.02673,-8.705802,5.3036866,-3.445166,0.18797608,152.0
16826,5.6328096,-32.02673,-8.705802,8.453613,-4.602759,3.9071412,152.0
16827,16.309385,-36.27336,-9.250799,8.453613,-4.602759,3.9071412,152.0
16828,16.309385,-36.27336,-9.250799,2.529712,-4.8236575,8.103149,152.0
16829,18.049011,-25.519384,-7.509941,2.529712,-4.8236575,8.103149,152.0
16830,18.049011,-25.519384,-7.509941,0.10407715,-4.2384887,7.76543,152.0
16831,21.288475,-8.264214,-5.190814,0.10407715,-4.2384887,7.76543,152.0
16832,21.288475,-8.264214,-5.190814,-3.1286867,-2.4840455,6.4209228,152.0
16833,18.35329,4.953644,-2.4854026,-3.1286867,-2.4840455,6.4209228,152.0
16834,18.35329,4.953644,-2.4854026,-0.9366943,-3.5152588,5.898413,152.0
16835,12.345108,12.938293,-0.96575165,-0.9366943,-3.5152588,5.898413,152.0
16836,12.345108,12.938293,-0.96575165,-0.19647217,-3.9719238,4.9426026,152.0
16837,8.526087,17.86825,0.13595581,-0.19647217,-3.9719238,4.9426026,152.0
16838,8.526087,17.86825,0.13595581,-0.81243896,-3.984668,4.8448977,152.0
16839,7.1461506,19.50267,2.2652712,-0.81243896,-3.984668,4.8448977,152.0
16840,7.1461506,19.50267,2.2652712,-1.7947998,-3.4579103,3.709607,152.0
16841,6.302822,19.857092,4.2839212,-1.7947998,-3.4579103,3.709607,152.0
16842,6.302822,19.857092,4.2839212,-1.9764038,-2.7569826,2.0369384,152.0
16843,4.4620333,21.29976,4.895106,-1.9764038,-2.7569826,2.0369384,152.0
16844,4.4620333,21.29976,4.895106,-3.538623,-1.5802735,0.71154785,152.0
16845,1.7246437,21.106167,4.6747637,-3.538623,-1.5802735,0.71154785,152.0
16846,1.7246437,21.106167,4.6747637,-4.3977904,-0.21346436,-2.173938,152.0
16847,-0.7977867,17.027695,4.7276654,-4.3977904,-0.21346436,-2.173938,152.0
16848,-0.7977867,17.027695,4.7276654,-3.1000123,1.1140503,-4.53479,152.0
16849,-2.1087246,10.131214,4.689725,-3.1000123,1.1140503,-4.53479,152.0
16850,-2.1087246,10.131214,4.689725,-0.5628662,2.356604,-5.826196,152.0
16851,-2.3302898,3.709341,3.7037942,-0.5628662,2.356604,-5.826196,152.0
16852,-2.3302898,3.709341,3.7037942,1.1926392,3.07771,-6.516504,152.0
16853,-2.3302898,3.709341,3.7037942,1.1629028,3.4632204,-7.1653934,152.0
16854,-2.1431265,0.29030037,1.5247664,1.1629028,3.4632204,-7.1653934,152.0
16855,3.2540417,-23.69614,-2.169982,1.1629028,3.4632204,-7.1653934,152.0
16856,3.2540417,-23.69614,-2.169982,0.9526245,4.4477053,-5.6276,152.0
16857,3.2540417,-23.69614,-2.169982,-0.6988037,6.34021,-3.725537,152.0
16858,2.5779152,-39.463665,-2.2831657,-0.6988037,6.34021,-3.725537,152.0
16859,2.5779152,-39.463665,-2.2831657,-0.4715332,5.4343143,-4.1354737,152.0
16860,-1.1655855,-34.744835,-2.251801,-0.4715332,5.4343143,-4.1354737,152.0
16861,-1.1655855,-34.744835,-2.251801,-3.1796632,5.317493,-1.0959961,152.0
16862,-5.2350082,-16.979351,-2.6946905,-3.1796632,5.317493,-1.0959961,152.0
16863,-5.2350082,-16.979351,-2.6946905,-5.060486,5.6658325,-0.5511841,152.0
16864,-9.18974,-0.11890602,-2.9147367,-5.060486,5.6658325,-0.5511841,152.0
16865,-9.18974,-0.11890602,-2.9147367,-5.6658325,5.9982424,-0.6690674,152.0
16866,-12.990611,8.462858,-2.409902,-5.6658325,5.9982424,-0.6690674,152.0
16867,-12.990611,8.462858,-2.409902,-4.250171,5.0562377,-0.50870365,152.0
16868,-15.697018,11.00891,-0.8821087,-4.250171,5.0562377,-0.50870365,152.0
16869,-15.697018,11.00891,-0.8821087,-2.5636964,3.889087,-0.07115479,152.0
16870,-15.815732,11.828136,1.0431411,-2.5636964,3.889087,-0.07115479,152.0
16871,-15.815732,11.828136,1.0431411,-1.3455689,3.0299194,0.6403931,152.0
16872,-14.013645,12.276987,3.0064857,-1.3455689,3.0299194,0.6403931,152.0
16873,-14.013645,12.276987,3.0064857,-0.57454836,2.0656128,-0.3334717,152.0
16874,-11.877896,12.260933,4.869166,-0.57454836,2.0656128,-0.3334717,152.0
16875,-11.877896,12.260933,4.869166,-0.38763428,1.3307008,-0.11257324,152.0
16876,-10.3478,10.39477,5.9263873,-0.38763428,1.3307008,-0.11257324,152.0
16877,-10.3478,10.39477,5.9263873,0.54375,0.64782715,-0.39294434,152.0
16878,-8.771393,6.798958,5.5151577,0.54375,0.64782715,-0.39294434,152.0
16879,-8.771393,6.798958,5.5151577,1.2510499,0.0031860352,-0.6701294,152.0
16880,-6.323633,3.47558,4.3955736,1.2510499,0.0031860352,-0.6701294,152.0
16881,-6.323633,3.47558,4.3955736,0.90695804,-0.52675784,-0.36533204,152.0
16882,-3.6624832,2.0624585,3.186967,0.90695804,-0.52675784,-0.36533204,152.0
16883,-3.6624832,2.0624585,3.186967,0.7434082,-1.2457398,-0.58198243,152.0
16884,-1.7575264,2.3328648,1.7467294,0.7434082,-1.2457398,-0.58198243,152.0
16885,-1.7575264,2.3328648,1.7467294,0.6000366,-1.993396,-0.16567384,152.0
16886,-0.63038635,1.209517,-0.011088371,0.6000366,-1.993396,-0.16567384,152.0
16887,-0.63038635,1.209517,-0.011088371,1.270166,-2.3056276,0.5968506,152.0
16888,0.24533653,-3.3823862,-2.8938682,1.270166,-2.3056276,0.5968506,152.0
16889,0.24533653,-3.3823862,-2.8938682,3.7796998,-3.0309815,1.2722901,152.0
16890,2.1182423,-13.92577,-6.4579167,3.7796998,-3.0309815,1.2722901,152.0
16891,2.1182423,-13.92577,-6.4579167,5.797522,-2.6932619,0.19328614,152.0
16892,6.712819,-27.663773,-8.764637,5.797522,-2.6932619,0.19328614,152.0
16893,6.712819,-27.663773,-8.764637,8.141382,-3.5545533,3.1828492,152.0
16894,13.177483,-32.92074,-8.621695,8.141382,-3.5545533,3.1828492,152.0
16895,13.177483,-32.92074,-8.621695,4.9935794,-4.616565,7.1961913,152.0
16896,18.766668,-24.86053,-6.8373585,4.9935794,-4.616565,7.1961913,152.0
16897,18.766668,-24.86053,-6.8373585,0.43011475,-4.179016,7.149463,152.0
16898,20.380083,-10.844395,-4.2878065,0.43011475,-4.179016,7.149463,152.0
16899,20.380083,-10.844395,-4.2878065,-1.9392334,-3.2019653,6.712976,152.0
16900,16.834023,0.70516014,-1.8381677,-1.9392334,-3.2019653,6.712976,152.0
16901,16.834023,0.70516014,-1.8381677,-0.6796875,-4.068567,6.3582644,152.0
16902,11.8278265,8.482426,-0.78423023,-0.6796875,-4.068567,6.3582644,152.0
16903,11.8278265,8.482426,-0.78423023,-0.38657227,-4.3181396,5.5713134,152.0
16904,8.690033,14.833475,-0.07329464,-0.38657227,-4.3181396,5.5713134,152.0
16905,8.690033,14.833475,-0.07329464,-1.0779419,-4.0271487,5.228284,152.0
16906,7.334302,18.51949,1.6983099,-1.0779419,-4.0271487,5.228284,152.0
16907,7.334302,18.51949,1.6983099,-1.9126831,-4.0027223,4.7684326,152.0
16908,6.936412,19.048954,3.7090387,-1.9126831,-4.0027223,4.7684326,152.0
16909,6.936412,19.048954,3.7090387,-1.628064,-3.42074,3.6671264,152.0
16910,6.0111294,21.241373,4.429377,-1.628064,-3.42074,3.6671264,152.0
16911,6.0111294,21.241373,4.429377,-1.7523193,-2.340674,2.1548219,152.0
16912,3.4184742,24.887691,4.206563,-1.7523193,-2.340674,2.1548219,152.0
16913,3.4184742,24.887691,4.206563,-4.2087526,-1.1108643,-0.28674316,152.0
16914,0.046657562,24.359676,4.20413,-4.2087526,-1.1108643,-0.28674316,152.0
16915,0.046657562,24.359676,4.20413,-4.070691,0.59260255,-3.522693,152.0
16916,-1.8330479,17.27788,3.9744492,-4.070691,0.59260255,-3.522693,152.0
16917,-1.8330479,17.27788,3.9744492,-1.8489624,2.1495118,-5.793274,152.0
16918,-1.7983112,7.334461,2.4944642,-1.8489624,2.1495118,-5.793274,152.0
16919,-1.7983112,7.334461,2.4944642,0.31329346,3.1361206,-6.813867,152.0
16920,-1.7983112,7.334461,2.4944642,0.31329346,3.1361206,-6.813867,143.0
16921,-1.4033833,0.15951252,0.3050806,0.31329346,3.1361206,-6.813867,143.0
16922,-1.4033833,0.15951252,0.3050806,0.89846194,3.6034057,-7.2769046,143.0
16923,0.1757803,-7.0684347,-1.676358,0.89846194,3.6034057,-7.2769046,143.0
16924,0.1757803,-7.0684347,-1.676358,1.44646,4.3669925,-5.3058105,143.0
16925,2.4704819,-22.125183,-2.496018,1.44646,4.3669925,-5.3058105,143.0
16926,2.4704819,-22.125183,-2.496018,-0.08814698,5.610608,-3.6448243,143.0
16927,0.59612465,-34.877674,-2.6208377,-0.08814698,5.610608,-3.6448243,143.0
16928,0.59612465,-34.877674,-2.6208377,-1.3668091,5.048804,-5.2474,143.0
16929,-3.187602,-32.47027,-2.7215116,-1.3668091,5.048804,-5.2474,143.0
16930,-3.187602,-32.47027,-2.7215116,-3.4610963,5.0339355,-2.4266968,143.0
16931,-5.7356043,-20.195377,-2.1826901,-3.4610963,5.0339355,-2.4266968,143.0
16932,-5.7356043,-20.195377,-2.1826901,-4.52948,5.1932373,-1.2106934,143.0
16933,-7.4049387,-6.3907385,-1.3773777,-4.52948,5.1932373,-1.2106934,143.0
16934,-7.4049387,-6.3907385,-1.3773777,-5.0328736,5.503345,-1.1586548,143.0
16935,-9.398548,3.5410833,-1.2254009,-5.0328736,5.503345,-1.1586548,143.0
16936,-9.398548,3.5410833,-1.2254009,-5.356787,6.2520633,-0.67331547,143.0
16937,-12.38975,7.613556,-0.964952,-5.356787,6.2520633,-0.67331547,143.0
16938,-12.38975,7.613556,-0.964952,-4.160962,5.340857,-0.61702883,143.0
16939,-14.528157,8.461169,-0.21479607,-4.160962,5.340857,-0.61702883,143.0
16940,-14.528157,8.461169,-0.21479607,-2.8823,4.4901857,-0.53737795,143.0
16941,-15.113407,9.659463,1.0588882,-2.8823,4.4901857,-0.53737795,143.0
16942,-15.113407,9.659463,1.0588882,-2.1548219,3.437732,0.51826173,143.0
16943,-15.069059,10.965791,3.1591346,-2.1548219,3.437732,0.51826173,143.0
16944,-15.069059,10.965791,3.1591346,-1.1278565,2.073047,0.6839356,143.0
16945,-13.804881,10.612354,5.141712,-1.1278565,2.073047,0.6839356,143.0
16946,-13.804881,10.612354,5.141712,-0.08496094,1.2181275,0.66481936,143.0
16947,-11.316598,8.18693,5.9417877,-0.08496094,1.2181275,0.66481936,143.0
16948,-11.316598,8.18693,5.9417877,1.1363525,0.5936646,0.12319336,143.0
16949,-8.062702,5.7816486,5.3108397,1.1363525,0.5936646,0.12319336,143.0
16950,-8.062702,5.7816486,5.3108397,1.6928467,-0.07965088,-0.015930176,143.0
16951,-4.9227448,4.848219,3.6475732,1.6928467,-0.07965088,-0.015930176,143.0
16952,-4.9227448,4.848219,3.6475732,1.1862671,-0.8421753,-0.08814698,143.0
16953,-2.3721561,4.679552,1.8615766,1.1862671,-0.8421753,-0.08814698,143.0
16954,-2.3721561,4.679552,1.8615766,0.2262085,-1.9657837,0.040356446,143.0
16955,-0.51098156,3.5256486,0.2876134,0.2262085,-1.9657837,0.040356446,143.0
16956,-0.51098156,3.5256486,0.2876134,-0.026550293,-1.7979859,0.68924564,143.0
16957,1.3090487,-0.8525281,-1.7183713,-0.026550293,-1.7979859,0.68924564,143.0
16958,1.3090487,-0.8525281,-1.7183713,1.9572877,-2.986377,1.0747559,143.0
16959,3.3598976,-11.008622,-4.625881,1.9572877,-2.986377,1.0747559,143.0
16960,3.3598976,-11.008622,-4.625881,5.1815553,-3.0182374,0.9165161,143.0
16961,6.6774445,-24.460829,-7.168808,5.1815553,-3.0182374,0.9165161,143.0
16962,6.6774445,-24.460829,-7.168808,7.7452517,-4.0005984,2.7867188,143.0
16963,11.924975,-31.161009,-8.190528,7.7452517,-4.0005984,2.7867188,143.0
16964,11.924975,-31.161009,-8.190528,6.548364,-5.251648,5.9207153,143.0
16965,17.60756,-24.42041,-7.54334,6.548364,-5.251648,5.9207153,143.0
16966,17.60756,-24.42041,-7.54334,1.6758546,-5.178369,6.9359984,143.0
16967,19.909681,-9.537609,-4.6662884,1.6758546,-5.178369,6.9359984,143.0
16968,19.909681,-9.537609,-4.6662884,-3.2136476,-3.177539,5.7624755,143.0
16969,15.55659,2.1121979,-0.6841049,-3.2136476,-3.177539,5.7624755,143.0
16970,15.55659,2.1121979,-0.6841049,-2.6635253,-3.9156373,5.3854613,143.0
16971,8.64183,7.3745613,1.2787657,-2.6635253,-3.9156373,5.3854613,143.0
16972,8.64183,7.3745613,1.2787657,-0.49064943,-4.5783324,4.8438354,143.0
16973,5.0554194,11.295938,1.196145,-0.49064943,-4.5783324,4.8438354,143.0
16974,5.0554194,11.295938,1.196145,-0.24744873,-4.268225,4.190698,143.0
16975,4.8486567,15.052827,1.306037,-0.24744873,-4.268225,4.190698,143.0
16976,4.8486567,15.052827,1.306037,-0.7688965,-3.993164,3.625708,143.0
16977,5.9548044,16.413807,2.155828,-0.7688965,-3.993164,3.625708,143.0
16978,5.9548044,16.413807,2.155828,-0.45878908,-3.6681886,3.3187866,143.0
16979,7.238124,17.13367,2.703239,-0.45878908,-3.6681886,3.3187866,143.0
16980,7.238124,17.13367,2.703239,-0.1720459,-2.8621216,2.2089844,143.0
16981,6.7110806,21.024199,2.7102718,-0.1720459,-2.8621216,2.2089844,143.0
16982,6.7110806,21.024199,2.7102718,-2.2153566,-1.4018555,0.4322388,143.0
16983,3.5250654,24.808079,3.1991744,-2.2153566,-1.4018555,0.4322388,143.0
16984,3.5250654,24.808079,3.1991744,-5.054114,0.23258057,-2.1367676,143.0
16985,0.30443954,21.64396,4.0854383,-5.054114,0.23258057,-2.1367676,143.0
16986,0.30443954,21.64396,4.0854383,-3.5959718,1.8234742,-5.2102294,143.0
16987,-0.69286156,12.016804,4.2099032,-3.5959718,1.8234742,-5.2102294,143.0
16988,-0.69286156,12.016804,4.2099032,-0.5533081,3.0416017,-6.796875,143.0
16989,-0.55930614,2.8223782,2.8617215,-0.5533081,3.0416017,-6.796875,143.0
16990,-0.55930614,2.8223782,2.8617215,0.8772217,3.5237548,-7.6677246,143.0
16991,0.32922745,-4.130293,-0.351736,0.8772217,3.5237548,-7.6677246,143.0
16992,0.32922745,-4.130293,-0.351736,0.47684327,3.710669,-6.787317,143.0
16993,3.2092075,-19.11792,-4.3894577,0.47684327,3.710669,-6.787317,143.0
16994,3.2092075,-19.11792,-4.3894577,-0.52888185,5.177307,-2.4192626,143.0
16995,2.6685257,-36.986244,-6.4359193,-0.52888185,5.177307,-2.4192626,143.0
16996,2.6685257,-36.986244,-6.4359193,-0.96218264,5.2590823,-5.62229,143.0
16997,-1.7846012,-38.4856,-5.670806,-0.96218264,5.2590823,-5.62229,143.0
16998,-1.7846012,-38.4856,-5.670806,-4.3340697,5.2951903,-2.1442018,143.0
16999,-5.629183,-24.97537,-3.2338858,-4.3340697,5.2951903,-2.1442018,143.0
17000,-5.629183,-24.97537,-3.2338858,-5.342981,5.4948487,-0.2803711,143.0
17001,-8.1408825,-8.751377,-0.6268425,-5.342981,5.4948487,-0.2803711,143.0
17002,-8.1408825,-8.751377,-0.6268425,-4.8077273,5.621228,-0.27293703,143.0
17003,-10.416539,2.963192,0.82555246,-4.8077273,5.621228,-0.27293703,143.0
17004,-10.416539,2.963192,0.82555246,-4.1184816,5.7465453,-0.028674318,143.0
17005,-12.766153,8.703623,1.5085378,-4.1184816,5.7465453,-0.028674318,143.0
17006,-12.766153,8.703623,1.5085378,-2.9587648,5.05199,-0.29417726,143.0
17007,-14.180233,10.60389,2.2964785,-2.9587648,5.05199,-0.29417726,143.0
17008,-14.180233,10.60389,2.2964785,-2.3215578,4.1981325,-0.26656494,143.0
17009,-14.473837,11.123323,3.3430178,-2.3215578,4.1981325,-0.26656494,143.0
17010,-14.473837,11.123323,3.3430178,-1.3307008,2.977881,0.2984253,143.0
17011,-13.899309,11.227504,4.3685184,-1.3307008,2.977881,0.2984253,143.0
17012,-13.899309,11.227504,4.3685184,-0.5278198,1.9466676,0.09664307,143.0
17013,-12.428298,10.6639,4.937149,-0.5278198,1.9466676,0.09664307,143.0
17014,-12.428298,10.6639,4.937149,0.2899292,1.0641358,-0.19753419,143.0
17015,-10.323376,8.901176,4.8411007,0.2899292,1.0641358,-0.19753419,143.0
17016,-10.323376,8.901176,4.8411007,1.2372437,0.31966552,-0.5055176,143.0
17017,-8.08486,6.5505676,4.1272755,1.2372437,0.31966552,-0.5055176,143.0
17018,-8.08486,6.5505676,4.1272755,1.8818848,-0.48427734,-0.8315552,143.0
17019,-5.987322,4.9114504,2.746974,1.8818848,-0.48427734,-0.8315552,143.0
17020,-5.987322,4.9114504,2.746974,1.6949707,-1.359375,-0.90695804,143.0
17021,-3.917677,3.6921241,1.2575645,1.6949707,-1.359375,-0.90695804,143.0
17022,-3.917677,3.6921241,1.2575645,1.449646,-2.1144655,-0.5065796,143.0
17023,-2.0737896,1.1466436,0.15542889,1.449646,-2.1144655,-0.5065796,143.0
17024,-2.0737896,1.1466436,0.15542889,1.449646,-2.1144655,-0.5065796,146.0
17025,-2.0737896,1.1466436,0.15542889,1.5590333,-2.7856567,0.4895874,146.0
17026,-1.0069447,-3.9032173,-1.8702371,1.5590333,-2.7856567,0.4895874,146.0
17027,-1.0069447,-3.9032173,-1.8702371,2.7506104,-3.1934693,1.0375855,146.0
17028,0.3139019,-11.792887,-5.820018,2.7506104,-3.1934693,1.0375855,146.0
17029,0.3139019,-11.792887,-5.820018,4.14928,-3.805188,1.3806152,146.0
17030,3.69868,-21.33022,-10.017122,4.14928,-3.805188,1.3806152,146.0
17031,3.69868,-21.33022,-10.017122,4.7238283,-4.2724733,3.3240967,146.0
17032,9.140487,-27.769169,-11.585659,4.7238283,-4.2724733,3.3240967,146.0
17033,9.140487,-27.769169,-11.585659,4.801355,-4.732324,5.9483275,146.0
17034,15.846239,-25.605972,-10.487485,4.801355,-4.732324,5.9483275,146.0
17035,15.846239,-25.605972,-10.487485,3.7361572,-5.3727174,8.011817,146.0
17036,22.079361,-14.663868,-8.054404,3.7361572,-5.3727174,8.011817,146.0
17037,22.079361,-14.663868,-8.054404,0.057348635,-4.347876,6.5547366,146.0
17038,23.18877,-1.6363297,-4.152691,0.057348635,-4.347876,6.5547366,146.0
17039,23.18877,-1.6363297,-4.152691,-1.5154908,-3.1021364,6.0152345,146.0
17040,17.125393,7.0190125,0.040249825,-1.5154908,-3.1021364,6.0152345,146.0
17041,17.125393,7.0190125,0.040249825,-0.26975098,-4.0929933,5.407764,146.0
17042,9.923264,12.056347,2.9982767,-0.26975098,-4.0929933,5.407764,146.0
17043,9.923264,12.056347,2.9982767,0.05522461,-4.173706,4.3616824,146.0
17044,6.260559,15.797044,4.9769907,0.05522461,-4.173706,4.3616824,146.0
17045,6.260559,15.797044,4.9769907,-0.4248047,-4.1046753,3.9135132,146.0
17046,5.3837776,18.20315,6.522059,-0.4248047,-4.1046753,3.9135132,146.0
17047,5.3837776,18.20315,6.522059,-0.7540283,-3.5205688,2.8483155,146.0
17048,5.133463,20.817036,6.9471517,-0.7540283,-3.5205688,2.8483155,146.0
17049,5.133463,20.817036,6.9471517,-1.1618408,-2.896106,1.1586548,146.0
17050,3.861702,23.532438,6.2117624,-1.1618408,-2.896106,1.1586548,146.0
17051,3.861702,23.532438,6.2117624,-3.1520507,-1.8362182,-0.43011475,146.0
17052,1.4881163,22.749804,5.524915,-3.1520507,-1.8362182,-0.43011475,146.0
17053,1.4881163,22.749804,5.524915,-3.3315308,-0.44498292,-3.3368409,146.0
17054,-0.56706333,16.893764,5.151963,-3.3315308,-0.44498292,-3.3368409,146.0
17055,-0.56706333,16.893764,5.151963,-1.8680786,1.3158325,-5.418384,146.0
17056,-1.7360849,8.3124485,3.9173472,-1.8680786,1.3158325,-5.418384,146.0
17057,-1.7360849,8.3124485,3.9173472,0.19541016,2.6327271,-6.254187,146.0
17058,-2.530384,1.7826366,1.4229647,0.19541016,2.6327271,-6.254187,146.0
17059,-2.530384,1.7826366,1.4229647,1.2552979,3.2773683,-7.0645022,146.0
17060,-1.9187164,-2.5560684,-1.3486644,1.2552979,3.2773683,-7.0645022,146.0
17061,-1.9187164,-2.5560684,-1.3486644,1.3997315,3.9018312,-6.773511,146.0
17062,-1.9187164,-2.5560684,-1.3486644,1.6917847,5.313245,-2.7336183,146.0
17063,1.7395878,-12.770538,-2.729188,1.6917847,5.313245,-2.7336183,146.0
17064,-3.300724,-38.46123,-4.918348,1.6917847,5.313245,-2.7336183,146.0
17065,-3.300724,-38.46123,-4.918348,-0.26444092,5.9483275,-5.4757323,146.0
17066,-3.300724,-38.46123,-4.918348,-2.5690064,5.149695,-3.6023438,146.0
17067,-3.300724,-38.46123,-4.918348,-4.4126587,5.358911,-1.3296387,146.0
17068,-6.6559114,-20.822708,-3.8036237,-4.4126587,5.358911,-1.3296387,146.0
17069,-6.6559114,-20.822708,-3.8036237,-5.4767947,5.4969726,-1.3891114,146.0
17070,-9.408176,-7.381055,-2.4454136,-5.4767947,5.4969726,-1.3891114,146.0
17071,-9.408176,-7.381055,-2.4454136,-5.402454,6.0088625,-0.90270996,146.0
17072,-12.263931,-0.12272692,-1.4798417,-5.402454,6.0088625,-0.90270996,146.0
17073,-12.263931,-0.12272692,-1.4798417,-4.2278686,5.2590823,-0.904834,146.0
17074,-14.427918,3.6769652,-0.19980335,-4.2278686,5.2590823,-0.904834,146.0
17075,-14.427918,3.6769652,-0.19980335,-3.8551025,4.5485964,-0.32603762,146.0
17076,-15.5172,6.216365,1.3985558,-3.8551025,4.5485964,-0.32603762,146.0
17077,-15.5172,6.216365,1.3985558,-2.8323853,3.3602052,0.36639404,146.0
17078,-15.298416,8.136532,3.292502,-2.8323853,3.3602052,0.36639404,146.0
17079,-15.298416,8.136532,3.292502,-2.2249146,2.3130615,0.20284425,146.0
17080,-13.397071,8.766733,4.910735,-2.2249146,2.3130615,0.20284425,146.0
17081,-13.397071,8.766733,4.910735,-1.0386475,1.4613281,0.1709839,146.0
17082,-10.8229065,7.0560503,5.57185,-1.0386475,1.4613281,0.1709839,146.0
17083,-10.8229065,7.0560503,5.57185,0.42692873,0.72216797,-0.3430298,146.0
17084,-8.169861,4.5959387,4.9687347,0.42692873,0.72216797,-0.3430298,146.0
17085,-8.169861,4.5959387,4.9687347,1.2457398,-0.12319336,-0.7657105,146.0
17086,-5.733447,3.1331596,3.1441774,1.2457398,-0.12319336,-0.7657105,146.0
17087,-5.733447,3.1331596,3.1441774,1.1013062,-1.0046631,-0.9409424,146.0
17088,-3.6731348,2.0416842,0.9534159,1.1013062,-1.0046631,-0.9409424,146.0
17089,-3.6731348,2.0416842,0.9534159,0.8421753,-1.8702027,-0.80181885,146.0
17090,-1.7968693,-0.39454556,-0.8655753,0.8421753,-1.8702027,-0.80181885,146.0
17091,-1.7968693,-0.39454556,-0.8655753,2.2376587,-2.7729127,0.28568116,146.0
17092,0.09853935,-5.1704464,-2.9289837,2.2376587,-2.7729127,0.28568116,146.0
17093,0.09853935,-5.1704464,-2.9289837,4.248047,-3.5503051,1.2977784,146.0
17094,2.7509632,-12.428398,-5.7098374,4.248047,-3.5503051,1.2977784,146.0
17095,2.7509632,-12.428398,-5.7098374,4.1875124,-3.7552736,2.071985,146.0
17096,6.762331,-21.074665,-8.725206,4.1875124,-3.7552736,2.071985,146.0
17097,6.762331,-21.074665,-8.725206,3.7276611,-4.044141,3.5131347,146.0
17098,12.052211,-27.288675,-9.829958,3.7276611,-4.044141,3.5131347,146.0
17099,12.052211,-27.288675,-9.829958,3.3145387,-4.8406496,6.2701173,146.0
17100,18.258064,-24.911043,-8.519215,3.3145387,-4.8406496,6.2701173,146.0
17101,18.258064,-24.911043,-8.519215,2.4851074,-6.245691,7.6719728,146.0
17102,22.861433,-13.340786,-6.7355747,2.4851074,-6.245691,7.6719728,146.0
17103,22.861433,-13.340786,-6.7355747,-0.75509036,-4.4774413,6.790503,146.0
17104,21.22539,-0.73776627,-4.2341022,-0.75509036,-4.4774413,6.790503,146.0
17105,21.22539,-0.73776627,-4.2341022,-1.4655762,-4.009094,6.8552856,146.0
17106,14.163235,7.1961746,-1.096962,-1.4655762,-4.009094,6.8552856,146.0
17107,14.163235,7.1961746,-1.096962,-0.76677245,-4.541162,5.714685,146.0
17108,8.074741,12.273016,1.7188416,-0.76677245,-4.541162,5.714685,146.0
17109,8.074741,12.273016,1.7188416,-1.1490967,-4.3160157,4.6441774,146.0
17110,5.0078278,15.743156,4.5543213,-1.1490967,-4.3160157,4.6441774,146.0
17111,5.0078278,15.743156,4.5543213,-1.5462891,-4.341504,3.9347534,146.0
17112,3.911108,17.432636,7.0862064,-1.5462891,-4.341504,3.9347534,146.0
17113,3.911108,17.432636,7.0862064,-1.2276856,-3.9687378,2.5987427,146.0
17114,3.782549,19.845865,7.927217,-1.2276856,-3.9687378,2.5987427,146.0
17115,3.782549,19.845865,7.927217,-0.8952759,-3.4133058,1.357251,146.0
17116,3.1510391,22.694025,6.8717175,-0.8952759,-3.4133058,1.357251,146.0
17117,3.1510391,22.694025,6.8717175,-2.6964478,-2.4245727,-0.011682129,146.0
17118,1.4125795,22.336336,5.866503,-2.6964478,-2.4245727,-0.011682129,146.0
17119,1.4125795,22.336336,5.866503,-3.1403687,-1.1161743,-2.9492066,146.0
17120,0.019432068,16.91437,5.8133316,-3.1403687,-1.1161743,-2.9492066,146.0
17121,0.019432068,16.91437,5.8133316,-2.3215578,0.72960204,-5.0275636,146.0
17122,-0.5042305,8.126797,5.0191956,-2.3215578,0.72960204,-5.0275636,146.0
17123,-0.5042305,8.126797,5.0191956,-0.1709839,2.2875733,-5.9419556,146.0
17124,-1.2035437,1.2940893,2.325403,-0.1709839,2.2875733,-5.9419556,146.0
17125,-1.2035437,1.2940893,2.325403,1.2892822,3.0224855,-6.791565,146.0
17126,-1.2035437,1.2940893,2.325403,1.2892822,3.0224855,-6.791565,152.0
17127,-1.1575489,-2.3003607,-0.95292234,1.2892822,3.0224855,-6.791565,152.0
17128,-1.1575489,-2.3003607,-0.95292234,1.0333375,3.521631,-6.7448363,152.0
17129,-1.1575489,-2.3003607,-0.95292234,0.121069334,4.9086185,-4.240613,152.0
17130,1.6592636,-9.16574,-2.4065762,0.121069334,4.9086185,-4.240613,152.0
17131,3.709259,-39.339134,-4.9037642,0.121069334,4.9086185,-4.240613,152.0
17132,3.709259,-39.339134,-4.9037642,-1.6333741,6.527124,-4.335132,152.0
17133,3.709259,-39.339134,-4.9037642,-1.5271729,5.80177,-4.4020386,152.0
17134,-1.0942631,-33.14598,-6.4843273,-1.5271729,5.80177,-4.4020386,152.0
17135,-1.0942631,-33.14598,-6.4843273,-3.5832276,5.2866945,-1.9339234,152.0
17136,-5.3998737,-18.439672,-5.5431504,-3.5832276,5.2866945,-1.9339234,152.0
17137,-5.3998737,-18.439672,-5.5431504,-4.2374268,5.2314696,-1.3328247,152.0
17138,-8.715126,-5.2964773,-3.5991201,-4.2374268,5.2314696,-1.3328247,152.0
17139,-8.715126,-5.2964773,-3.5991201,-3.7828858,5.3164306,-1.3784913,152.0
17140,-11.716217,3.3667126,-2.079638,-3.7828858,5.3164306,-1.3784913,152.0
17141,-11.716217,3.3667126,-2.079638,-3.5046387,5.055176,-1.2914063,152.0
17142,-14.169006,7.36837,-0.77370787,-3.5046387,5.055176,-1.2914063,152.0
17143,-14.169006,7.36837,-0.77370787,-3.2667482,4.3022094,-1.2053833,152.0
17144,-15.109411,8.797674,0.6717806,-3.2667482,4.3022094,-1.2053833,152.0
17145,-15.109411,8.797674,0.6717806,-2.7314942,3.544995,-0.88253176,152.0
17146,-15.0013485,9.4649105,2.6433938,-2.7314942,3.544995,-0.88253176,152.0
17147,-15.0013485,9.4649105,2.6433938,-2.0942872,2.608301,-0.3525879,152.0
17148,-14.706426,9.176957,4.8876762,-2.0942872,2.608301,-0.3525879,152.0
17149,-14.706426,9.176957,4.8876762,-1.3115845,2.0125122,0.30267334,152.0
17150,-13.371891,7.592042,5.9680395,-1.3115845,2.0125122,0.30267334,152.0
17151,-13.371891,7.592042,5.9680395,0.19328614,1.5579712,0.0053100586,152.0
17152,-10.831522,5.942628,5.0736012,0.19328614,1.5579712,0.0053100586,152.0
17153,-10.831522,5.942628,5.0736012,1.1172364,0.8071289,-0.34727785,152.0
17154,-7.995577,5.30763,3.151728,1.1172364,0.8071289,-0.34727785,152.0
17155,-7.995577,5.30763,3.151728,1.0630738,-0.03717041,-0.544812,152.0
17156,-5.325966,4.324168,1.6762528,1.0630738,-0.03717041,-0.544812,152.0
17157,-5.325966,4.324168,1.6762528,0.48109132,-0.94731444,-0.2824951,152.0
17158,-2.7725887,1.6685143,1.1487904,0.48109132,-0.94731444,-0.2824951,152.0
17159,-2.7725887,1.6685143,1.1487904,0.89421386,-1.8394043,0.48427734,152.0
17160,-2.7725887,1.6685143,1.1487904,2.2238526,-2.7314942,1.2914063,152.0
17161,-0.40024948,-2.1393464,0.3405044,2.2238526,-2.7314942,1.2914063,152.0
17162,1.7992706,-6.4143457,-2.4462245,2.2238526,-2.7314942,1.2914063,152.0
17163,1.7992706,-6.4143457,-2.4462245,3.4218018,-3.439856,1.634436,152.0
17164,4.5662603,-13.069757,-6.0599704,3.4218018,-3.439856,1.634436,152.0
17165,4.5662603,-13.069757,-6.0599704,4.442395,-3.7701416,2.0411866,152.0
17166,8.627154,-21.82867,-8.204311,4.442395,-3.7701416,2.0411866,152.0
17167,8.627154,-21.82867,-8.204311,5.4003296,-4.1599,3.711731,152.0
17168,14.1725,-26.43049,-8.526352,5.4003296,-4.1599,3.711731,152.0
17169,14.1725,-26.43049,-8.526352,4.889502,-5.397144,6.8149295,152.0
17170,20.177698,-21.002033,-7.9724493,4.889502,-5.397144,6.8149295,152.0
17171,20.177698,-21.002033,-7.9724493,1.9785279,-4.6441774,6.2032104,152.0
17172,22.024591,-8.000284,-5.7732353,1.9785279,-4.6441774,6.2032104,152.0
17173,22.024591,-8.000284,-5.7732353,-1.183081,-2.9194703,5.843189,152.0
17174,16.862118,3.0946465,-2.0808077,-1.183081,-2.9194703,5.843189,152.0
17175,16.862118,3.0946465,-2.0808077,-0.3695801,-3.8179321,6.1777225,152.0
17176,9.782846,9.140903,0.67204857,-0.3695801,-3.8179321,6.1777225,152.0
17177,9.782846,9.140903,0.67204857,0.27293703,-4.0420165,5.249524,152.0
17178,5.7683544,13.362088,2.3497481,0.27293703,-4.0420165,5.249524,152.0
17179,5.7683544,13.362088,2.3497481,-0.15080567,-4.0207763,4.9043703,152.0
17180,4.6163445,16.171421,4.1044564,-0.15080567,-4.0207763,4.9043703,152.0
17181,4.6163445,16.171421,4.1044564,-0.7519043,-3.7690797,4.3691163,152.0
17182,5.118124,17.490458,5.4983478,-0.7519043,-3.7690797,4.3691163,152.0
17183,5.118124,17.490458,5.4983478,-0.87191164,-3.2954223,3.5566773,152.0
17184,5.306987,20.249714,5.449777,-0.87191164,-3.2954223,3.5566773,152.0
17185,5.306987,20.249714,5.449777,-1.445398,-2.445813,1.7576294,152.0
17186,3.2670612,23.393473,4.565364,-1.445398,-2.445813,1.7576294,152.0
17187,3.2670612,23.393473,4.565364,-3.4940186,-1.621692,0.0010620117,152.0
17188,0.05438423,22.886007,4.4393396,-3.4940186,-1.621692,0.0010620117,152.0
17189,0.05438423,22.886007,4.4393396,-3.524817,-0.4725952,-3.7775757,152.0
17190,-1.2107048,16.850737,4.907197,-3.524817,-0.4725952,-3.7775757,152.0
17191,-1.2107048,16.850737,4.907197,-1.634436,1.085376,-5.8166385,152.0
17192,-0.78195477,7.7097645,4.1759653,-1.634436,1.085376,-5.8166385,152.0
17193,-0.78195477,7.7097645,4.1759653,0.85491943,2.1357057,-6.594031,152.0
17194,-0.7790432,1.0633068,1.6415045,0.85491943,2.1357057,-6.594031,152.0
17195,-0.7790432,1.0633068,1.6415045,1.9848999,2.4989135,-7.3066406,152.0
17196,-0.7790432,1.0633068,1.6415045,2.6327271,3.1382446,-5.6870728,152.0
17197,0.3946123,-4.9922132,-0.9214766,2.6327271,3.1382446,-5.6870728,152.0
17198,-0.14008331,-45.08027,-3.5183458,2.6327271,3.1382446,-5.6870728,152.0
17199,-0.14008331,-45.08027,-3.5183458,-0.045666505,4.882068,-2.151636,152.0
17200,-0.14008331,-45.08027,-3.5183458,-1.2871583,4.8406496,-5.2930665,152.0
17201,-0.14008331,-45.08027,-3.5183458,-3.9347534,5.324927,-2.6029909,152.0
17202,-3.7916317,-29.986044,-4.0849037,-3.9347534,5.324927,-2.6029909,152.0
17203,-3.7916317,-29.986044,-4.0849037,-4.8544555,5.228284,-0.8581055,152.0
17204,-6.9061575,-13.648747,-2.5846224,-4.8544555,5.228284,-0.8581055,152.0
17205,-6.9061575,-13.648747,-2.5846224,-4.7694945,5.539453,-1.0216553,152.0
17206,-9.0556755,-2.445695,-1.6749978,-4.7694945,5.539453,-1.0216553,152.0
17207,-9.0556755,-2.445695,-1.6749978,-4.0027223,5.6445923,-1.1193603,152.0
17208,-11.070871,2.7301874,-1.589217,-4.0027223,5.6445923,-1.1193603,152.0
17209,-11.070871,2.7301874,-1.589217,-2.9258423,5.3620973,-1.1267945,152.0
17210,-12.852473,4.3108954,-0.9859853,-2.9258423,5.3620973,-1.1267945,152.0
17211,-12.852473,4.3108954,-0.9859853,-1.9307374,4.6728516,-1.0110352,152.0
17212,-13.168209,5.66887,0.31215167,-1.9307374,4.6728516,-1.0110352,152.0
17213,-13.168209,5.66887,0.31215167,-1.1140503,3.6862428,-0.77739257,152.0
17214,-13.051243,7.677308,1.8054831,-1.1140503,3.6862428,-0.77739257,152.0
17215,-13.051243,7.677308,1.8054831,-0.8326172,2.461743,0.021240234,152.0
17216,-12.941946,8.585536,2.8710222,-0.8326172,2.461743,0.021240234,152.0
17217,-12.941946,8.585536,2.8710222,-0.8708496,1.7310791,-0.19753419,152.0
17218,-11.617413,7.622176,3.2419105,-0.8708496,1.7310791,-0.19753419,152.0
17219,-11.617413,7.622176,3.2419105,-0.25700685,0.8729736,-0.6754395,152.0
17220,-9.341574,5.800439,3.1404524,-0.25700685,0.8729736,-0.6754395,152.0
17221,-9.341574,5.800439,3.1404524,0.107263185,0.0031860352,-0.81031495,152.0
17222,-7.1895437,4.0764594,2.7139487,0.107263185,0.0031860352,-0.81031495,152.0
17223,-7.1895437,4.0764594,2.7139487,0.23364258,-0.87403566,-0.98236084,152.0
17224,-5.352954,2.5084577,1.9879926,0.23364258,-0.87403566,-0.98236084,152.0
17225,-5.352954,2.5084577,1.9879926,0.83474123,-1.806482,-0.71154785,152.0
17226,-3.4733782,0.48939562,1.0612559,0.83474123,-1.806482,-0.71154785,152.0
17227,-3.4733782,0.48939562,1.0612559,1.7671875,-2.6040528,0.06265869,152.0
17228,-1.1264439,-2.9971676,-0.8121159,1.7671875,-2.6040528,0.06265869,152.0
17229,-1.1264439,-2.9971676,-0.8121159,1.7671875,-2.6040528,0.06265869,157.0
17230,-1.1264439,-2.9971676,-0.8121159,3.0341675,-3.1223145,0.96430665,157.0
17231,1.9741011,-10.3561325,-3.7255473,3.0341675,-3.1223145,0.96430665,157.0
17232,1.9741011,-10.3561325,-3.7255473,4.0112185,-3.165857,0.8326172,157.0
17233,6.404501,-21.5393,-6.332391,4.0112185,-3.165857,0.8326172,157.0
17234,6.404501,-21.5393,-6.332391,5.9217772,-3.1276245,2.4882934,157.0
17235,12.258268,-29.635178,-7.245698,5.9217772,-3.1276245,2.4882934,157.0
17236,12.258268,-29.635178,-7.245698,6.1214356,-3.5407472,6.1161256,157.0
17237,18.651634,-27.235205,-6.167347,6.1214356,-3.5407472,6.1161256,157.0
17238,18.651634,-27.235205,-6.167347,3.0808961,-4.2735353,7.163269,157.0
17239,22.522602,-14.674614,-4.1812534,3.0808961,-4.2735353,7.163269,157.0
17240,22.522602,-14.674614,-4.1812534,-2.1091554,-2.4213867,6.4718995,157.0
17241,20.216312,-1.9645195,-1.5564651,-2.1091554,-2.4213867,6.4718995,157.0
17242,20.216312,-1.9645195,-1.5564651,-2.2026124,-2.7877808,6.954053,157.0
17243,13.905459,4.956459,0.3392763,-2.2026124,-2.7877808,6.954053,157.0
17244,13.905459,4.956459,0.3392763,0.17629395,-3.9570558,6.611023,157.0
17245,9.123782,10.027496,0.58254194,0.17629395,-3.9570558,6.611023,157.0
17246,9.123782,10.027496,0.58254194,0.43117675,-3.9092653,6.265869,157.0
17247,6.812661,14.826233,0.81519127,0.43117675,-3.9092653,6.265869,157.0
17248,6.812661,14.826233,0.81519127,-0.40993652,-3.8816528,5.872925,157.0
17249,5.955452,17.330822,2.0165448,-0.40993652,-3.8816528,5.872925,157.0
17250,5.955452,17.330822,2.0165448,-1.3296387,-3.7287233,5.4513063,157.0
17251,6.467304,17.911608,3.059928,-1.3296387,-3.7287233,5.4513063,157.0
17252,6.467304,17.911608,3.059928,-1.6567383,-3.4281738,4.3776126,157.0
17253,6.7116737,21.000477,3.0641289,-1.6567383,-3.4281738,4.3776126,157.0
17254,6.7116737,21.000477,3.0641289,-2.6996338,-2.4288208,2.2281005,157.0
17255,5.253433,21.320938,2.8070161,-2.6996338,-2.4288208,2.2281005,157.0
17256,5.253433,21.320938,2.8070161,-3.7913818,-1.9296753,1.085376,157.0
17257,0.23104286,27.619324,3.6638503,-3.7913818,-1.9296753,1.085376,157.0
17258,0.23104286,27.619324,3.6638503,-4.3276978,0.1901001,-5.171997,157.0
17259,-1.1865025,21.865173,3.8601208,-4.3276978,0.1901001,-5.171997,157.0
17260,-1.1865025,21.865173,3.8601208,-2.9332764,1.0428956,-6.5398684,157.0
17261,-0.34997177,6.1636353,2.78463,-2.9332764,1.0428956,-6.5398684,157.0
17262,-0.34997177,6.1636353,2.78463,1.4050416,2.085791,-8.577868,157.0
17263,-0.89188004,1.3612785,1.3034974,1.4050416,2.085791,-8.577868,157.0
17264,-0.89188004,1.3612785,1.3034974,1.6163819,2.1335816,-8.834876,157.0
17265,2.7607632,-15.984891,-1.2293456,1.6163819,2.1335816,-8.834876,157.0
17266,2.7607632,-15.984891,-1.2293456,1.3933594,3.4048097,-4.0367064,157.0
17267,3.361969,-23.522728,-0.92905754,1.3933594,3.4048097,-4.0367064,157.0
17268,3.361969,-23.522728,-0.92905754,0.1444336,4.5029297,-4.6335573,157.0
17269,1.3612309,-44.390377,0.32582134,0.1444336,4.5029297,-4.6335573,157.0
17270,1.3612309,-44.390377,0.32582134,-3.6310182,4.53479,-4.2607913,157.0
17271,-1.5056934,-36.089195,0.6391361,-3.6310182,4.53479,-4.2607913,157.0
17272,-1.5056934,-36.089195,0.6391361,-4.685596,4.5783324,-3.0150514,157.0
17273,-8.340956,-15.846111,-0.0495798,-4.685596,4.5783324,-3.0150514,157.0
17274,-8.340956,-15.846111,-0.0495798,-4.6378055,4.640991,-1.4050416,157.0
17275,-9.137754,-6.8540134,-0.18606281,-4.6378055,4.640991,-1.4050416,157.0
17276,-9.137754,-6.8540134,-0.18606281,-4.796045,5.0997806,-1.4114136,157.0
17277,-13.581835,7.9064007,-1.7346779,-4.796045,5.0997806,-1.4114136,157.0
17278,-13.581835,7.9064007,-1.7346779,-4.460449,5.5978637,-1.447522,157.0
17279,-13.396376,8.4375105,-1.6229475,-4.460449,5.5978637,-1.447522,157.0
17280,-13.396376,8.4375105,-1.6229475,-4.1949463,5.4056396,-1.3264526,157.0
17281,-17.000511,11.027194,-0.87597036,-4.1949463,5.4056396,-1.3264526,157.0
17282,-17.000511,11.027194,-0.87597036,-3.440918,4.5592165,-0.7476563,157.0
17283,-15.291816,10.103018,-0.15421867,-3.440918,4.5592165,-0.7476563,157.0
17284,-15.291816,10.103018,-0.15421867,-2.9396484,4.172644,-0.34833986,157.0
17285,-15.14439,11.348015,2.9202042,-2.9396484,4.172644,-0.34833986,157.0
17286,-15.14439,11.348015,2.9202042,-1.7831177,3.2529418,-0.14549561,157.0
17287,-12.682566,9.440021,3.234308,-1.7831177,3.2529418,-0.14549561,157.0
17288,-12.682566,9.440021,3.234308,-1.2510499,2.9194703,-0.1720459,157.0
17289,-10.688351,7.380447,3.4455397,-1.2510499,2.9194703,-0.1720459,157.0
17290,-10.688351,7.380447,3.4455397,0.1901001,2.175,-0.31329346,157.0
17291,-8.744357,5.117114,2.153734,0.1901001,2.175,-0.31329346,157.0
17292,-8.744357,5.117114,2.153734,1.1172364,1.2298096,-0.91757816,157.0
17293,-5.92908,3.2699852,-0.21315789,1.1172364,1.2298096,-0.91757816,157.0
17294,-5.92908,3.2699852,-0.21315789,0.8092529,-0.41312256,-1.0970582,157.0
17295,-5.92908,3.2699852,-0.21315789,0.7943848,-1.0418335,-0.84323734,157.0
17296,-4.1377707,2.3573213,-0.7290957,0.7943848,-1.0418335,-0.84323734,157.0
17297,-0.10281849,-3.0061474,-1.7679812,0.7943848,-1.0418335,-0.84323734,157.0
17298,-0.10281849,-3.0061474,-1.7679812,1.8776368,-2.356604,0.5278198,157.0
17299,-0.10281849,-3.0061474,-1.7679812,2.614673,-2.717688,1.0460815,157.0
17300,3.3864832,-11.832799,-5.071929,2.614673,-2.717688,1.0460815,157.0
17301,3.3864832,-11.832799,-5.071929,4.2830935,-3.2476318,1.5431031,157.0
17302,4.745185,-13.759769,-6.035656,4.2830935,-3.2476318,1.5431031,157.0
17303,4.745185,-13.759769,-6.035656,4.591077,-3.1063843,2.079419,157.0
17304,12.650896,-25.153934,-7.840146,4.591077,-3.1063843,2.079419,157.0
17305,12.650896,-25.153934,-7.840146,4.0855594,-4.7238283,6.15011,157.0
17306,14.9620495,-22.634977,-6.5253763,4.0855594,-4.7238283,6.15011,157.0
17307,14.9620495,-22.634977,-6.5253763,3.1828492,-5.2038574,6.6630616,157.0
17308,20.921337,-17.914768,-5.638319,3.1828492,-5.2038574,6.6630616,157.0
17309,20.921337,-17.914768,-5.638319,0.7168579,-4.787549,6.5058837,157.0
17310,21.861729,-6.877346,-4.1143904,0.7168579,-4.787549,6.5058837,157.0
17311,21.861729,-6.877346,-4.1143904,-1.622754,-3.6734986,6.9402466,157.0
17312,16.353434,3.7600498,-1.1984701,-1.622754,-3.6734986,6.9402466,157.0
17313,16.353434,3.7600498,-1.1984701,-1.2542359,-4.6431155,6.7374024,157.0
17314,9.71744,10.884724,1.523695,-1.2542359,-4.6431155,6.7374024,157.0
17315,9.71744,10.884724,1.523695,-0.72004396,-5.013757,5.9918704,157.0
17316,6.0140886,15.280155,3.464244,-0.72004396,-5.013757,5.9918704,157.0
17317,6.0140886,15.280155,3.464244,-0.45347902,-5.142261,5.347229,157.0
17318,5.213126,17.068474,4.9323816,-0.45347902,-5.142261,5.347229,157.0
17319,5.213126,17.068474,4.9323816,-0.4056885,-5.0158815,5.142261,157.0
17320,6.315484,17.546417,5.553925,-0.4056885,-5.0158815,5.142261,157.0
17321,6.315484,17.546417,5.553925,-0.25063476,-4.1928225,4.0398927,157.0
17322,6.611311,20.545738,5.0945315,-0.25063476,-4.1928225,4.0398927,157.0
17323,6.611311,20.545738,5.0945315,-1.085376,-3.0660279,2.3311157,157.0
17324,2.6160622,26.748335,4.8122706,-1.085376,-3.0660279,2.3311157,157.0
17325,2.6160622,26.748335,4.8122706,-4.1184816,-1.1076783,-2.1049073,157.0
17326,2.6160622,26.748335,4.8122706,-4.1184816,-1.1076783,-2.1049073,161.0
17327,0.5610008,22.98396,4.7037106,-4.1184816,-1.1076783,-2.1049073,161.0
17328,0.5610008,22.98396,4.7037106,-4.1269774,-0.24107666,-3.6766846,161.0
17329,-1.0299473,16.707016,4.951665,-4.1269774,-0.24107666,-3.6766846,161.0
17330,-1.0299473,16.707016,4.951665,-2.521216,1.6439942,-5.776282,161.0
17331,-1.142952,6.7938957,3.7632852,-2.521216,1.6439942,-5.776282,161.0
17332,-1.142952,6.7938957,3.7632852,0.24638672,2.788843,-6.8510375,161.0
17333,-1.64328,-0.3617096,1.4365923,0.24638672,2.788843,-6.8510375,161.0
17334,-1.64328,-0.3617096,1.4365923,1.4581422,3.1350586,-7.5838256,161.0
17335,-1.64328,-0.3617096,1.4365923,1.9392334,3.61615,-6.440039,161.0
17336,-1.348217,-5.6315184,-1.2524474,1.9392334,3.61615,-6.440039,161.0
17337,-0.62127304,-46.728813,-4.148479,1.9392334,3.61615,-6.440039,161.0
17338,-0.62127304,-46.728813,-4.148479,1.9041871,5.261206,-4.0144043,161.0
17339,-0.62127304,-46.728813,-4.148479,0.13062744,4.4986815,-6.15542,161.0
17340,-0.62127304,-46.728813,-4.148479,-4.246985,4.8756957,-2.715564,161.0
17341,-4.345969,-31.54406,-3.2213712,-4.246985,4.8756957,-2.715564,161.0
17342,-4.345969,-31.54406,-3.2213712,-5.0434937,4.886316,-1.4337158,161.0
17343,-8.362921,-14.748421,-2.3195286,-5.0434937,4.886316,-1.4337158,161.0
17344,-8.362921,-14.748421,-2.3195286,-5.082788,5.147571,-1.2383057,161.0
17345,-11.759196,-2.6312685,-1.7058914,-5.082788,5.147571,-1.2383057,161.0
17346,-11.759196,-2.6312685,-1.7058914,-4.5613403,5.1146483,-1.3753052,161.0
17347,-14.121713,3.2705345,-0.99979615,-4.5613403,5.1146483,-1.3753052,161.0
17348,-14.121713,3.2705345,-0.99979615,-4.1949463,4.6441774,-1.1522827,161.0
17349,-14.993,5.379477,0.1918379,-4.1949463,4.6441774,-1.1522827,161.0
17350,-14.993,5.379477,0.1918379,-3.4897707,4.078125,-0.74447024,161.0
17351,-14.634049,6.4124804,1.5955968,-3.4897707,4.078125,-0.74447024,161.0
17352,-14.634049,6.4124804,1.5955968,-2.2100465,3.1201904,-0.39613038,161.0
17353,-13.696412,7.2648115,3.0378544,-2.2100465,3.1201904,-0.39613038,161.0
17354,-13.696412,7.2648115,3.0378544,-1.3944215,2.6911378,-0.39294434,161.0
17355,-11.778542,7.403573,4.1535015,-1.3944215,2.6911378,-0.39294434,161.0
17356,-11.778542,7.403573,4.1535015,-0.3695801,2.3820922,-0.10513916,161.0
17357,-9.81126,6.38144,4.122472,-0.3695801,2.3820922,-0.10513916,161.0
17358,-9.81126,6.38144,4.122472,0.5564942,2.0401247,-0.21134034,161.0
17359,-8.41616,5.358094,2.5678382,0.5564942,2.0401247,-0.21134034,161.0
17360,-8.41616,5.358094,2.5678382,0.6977417,1.3498169,-0.630835,161.0
17361,-7.03211,5.0288095,0.8023174,0.6977417,1.3498169,-0.630835,161.0
17362,-7.03211,5.0288095,0.8023174,0.14549561,0.31966552,-0.81243896,161.0
17363,-5.237602,4.143116,0.4742148,0.14549561,0.31966552,-0.81243896,161.0
17364,-5.237602,4.143116,0.4742148,-0.94625247,-0.6446411,-0.59897465,161.0
17365,-5.237602,4.143116,0.4742148,-0.32391357,-1.2584839,0.06796875,161.0
17366,-3.0403376,1.1677275,0.94625425,-0.32391357,-1.2584839,0.06796875,161.0
17367,3.7194023,-17.275963,-9.730802,-0.32391357,-1.2584839,0.06796875,161.0
17368,3.7194023,-17.275963,-9.730802,2.526526,-2.2174804,0.5586182,161.0
17369,3.7194023,-17.275963,-9.730802,4.8640137,-3.0108032,0.53525394,161.0
17370,3.7194023,-17.275963,-9.730802,5.9929323,-3.3740113,1.6620483,161.0
17371,8.812876,-25.033,-11.928673,5.9929323,-3.3740113,1.6620483,161.0
17372,8.812876,-25.033,-11.928673,5.176245,-3.9326293,4.252295,161.0
17373,15.27463,-28.6098,-11.168634,5.176245,-3.9326293,4.252295,161.0
17374,15.27463,-28.6098,-11.168634,3.4026856,-4.8533936,6.7193484,161.0
17375,21.011513,-22.574755,-8.742061,3.4026856,-4.8533936,6.7193484,161.0
17376,21.011513,-22.574755,-8.742061,0.55968016,-4.2724733,6.7352786,161.0
17377,21.442327,-9.707546,-4.898837,0.55968016,-4.2724733,6.7352786,161.0
17378,21.442327,-9.707546,-4.898837,-2.1994264,-3.7478395,7.0347657,161.0
17379,16.387287,0.80708313,-0.72776127,-2.1994264,-3.7478395,7.0347657,161.0
17380,16.387287,0.80708313,-0.72776127,-1.0142212,-5.267578,7.0114017,161.0
17381,11.547781,7.0524178,1.6920586,-1.0142212,-5.267578,7.0114017,161.0
17382,11.547781,7.0524178,1.6920586,0.0180542,-5.510779,6.401807,161.0
17383,9.111443,12.181253,2.9470181,0.0180542,-5.510779,6.401807,161.0
17384,9.111443,12.181253,2.9470181,-0.11682129,-5.28457,5.7422976,161.0
17385,7.9334164,15.97585,4.3105564,-0.11682129,-5.28457,5.7422976,161.0
17386,7.9334164,15.97585,4.3105564,-0.72216797,-5.1348267,5.330237,161.0
17387,8.07476,16.879803,5.4221025,-0.72216797,-5.1348267,5.330237,161.0
17388,8.07476,16.879803,5.4221025,-1.2085694,-4.7365723,4.7227664,161.0
17389,8.764107,17.768063,5.7649035,-1.2085694,-4.7365723,4.7227664,161.0
17390,8.764107,17.768063,5.7649035,-1.3476928,-3.4419801,3.073462,161.0
17391,6.829279,21.655552,5.804074,-1.3476928,-3.4419801,3.073462,161.0
17392,6.829279,21.655552,5.804074,-2.8408813,-1.9817139,1.0184692,161.0
17393,1.6591148,24.88323,6.395908,-2.8408813,-1.9817139,1.0184692,161.0
17394,1.6591148,24.88323,6.395908,-4.151404,-0.34833986,-2.8865478,161.0
17395,-2.4320946,21.271965,6.5483913,-4.151404,-0.34833986,-2.8865478,161.0
17396,-2.4320946,21.271965,6.5483913,-3.2943604,1.6376221,-5.7624755,161.0
17397,-2.8668175,10.990631,4.5010056,-3.2943604,1.6376221,-5.7624755,161.0
17398,-2.8668175,10.990631,4.5010056,-0.083898924,2.9449584,-7.219556,161.0
17399,-2.1632175,1.737195,1.3656118,-0.083898924,2.9449584,-7.219556,161.0
17400,-2.1632175,1.737195,1.3656118,1.453894,3.5099487,-7.9003053,161.0
17401,-1.937458,-2.9668846,-1.1009309,1.453894,3.5099487,-7.9003053,161.0
17402,-1.937458,-2.9668846,-1.1009309,1.1374146,3.7510254,-7.677283,161.0
17403,0.20124245,-13.057638,-3.3340895,1.1374146,3.7510254,-7.677283,161.0
17404,0.20124245,-13.057638,-3.3340895,0.76358646,4.5825806,-4.352124,161.0
17405,2.0732002,-30.717377,-4.890111,0.76358646,4.5825806,-4.352124,161.0
17406,2.0732002,-30.717377,-4.890111,0.03186035,5.3907714,-7.060254,161.0
17407,0.58727074,-38.786476,-4.984391,0.03186035,5.3907714,-7.060254,161.0
17408,0.58727074,-38.786476,-4.984391,-4.0250244,5.4120116,-3.4610963,161.0
17409,-3.33387,-29.946062,-4.486121,-4.0250244,5.4120116,-3.4610963,161.0
17410,-3.33387,-29.946062,-4.486121,-5.003137,5.391834,-1.0535157,161.0
17411,-8.172846,-13.71039,-3.5200129,-5.003137,5.391834,-1.0535157,161.0
17412,-8.172846,-13.71039,-3.5200129,-4.969153,5.7231812,-0.8750977,161.0
17413,-12.3299885,0.12379074,-2.0123606,-4.969153,5.7231812,-0.8750977,161.0
17414,-12.3299885,0.12379074,-2.0123606,-4.2076907,5.4810424,-1.0163453,161.0
17415,-15.1920185,7.3606415,-0.37735653,-4.2076907,5.4810424,-1.0163453,161.0
17416,-15.1920185,7.3606415,-0.37735653,-3.7690797,5.0211916,-0.8857178,161.0
17417,-16.578602,9.665748,1.2192695,-3.7690797,5.0211916,-0.8857178,161.0
17418,-16.578602,9.665748,1.2192695,-3.180725,4.3903565,-0.32497558,161.0
17419,-16.822514,10.082403,2.7295537,-3.180725,4.3903565,-0.32497558,161.0
17420,-16.822514,10.082403,2.7295537,-1.8309082,3.3697631,0.13062744,161.0
17421,-16.822514,10.082403,2.7295537,-1.8309082,3.3697631,0.13062744,163.0
17422,-16.321465,10.635137,4.327039,-1.8309082,3.3697631,0.13062744,163.0
17423,-16.321465,10.635137,4.327039,-0.43861085,2.52865,-0.029736329,163.0
17424,-14.471416,11.184648,5.592796,-0.43861085,2.52865,-0.029736329,163.0
17425,-14.471416,11.184648,5.592796,0.39506838,2.0295045,0.22727051,163.0
17426,-11.839072,10.266114,5.3851132,0.39506838,2.0295045,0.22727051,163.0
17427,-11.839072,10.266114,5.3851132,1.0078491,1.5877075,-0.26975098,163.0
17428,-9.086126,8.439283,3.5743258,1.0078491,1.5877075,-0.26975098,163.0
17429,-9.086126,8.439283,3.5743258,1.0864381,1.09281,-0.95368654,163.0
17430,-6.2478695,6.830406,1.474756,1.0864381,1.09281,-0.95368654,163.0
17431,-6.2478695,6.830406,1.474756,0.58623046,0.25700685,-1.3933594,163.0
17432,-3.5874681,5.0272155,0.29850602,0.58623046,0.25700685,-1.3933594,163.0
17433,-3.5874681,5.0272155,0.29850602,-0.49277344,-0.51932377,-1.4156617,163.0
17434,-1.3624182,1.2076368,0.10547948,-0.49277344,-0.51932377,-1.4156617,163.0
17435,-1.3624182,1.2076368,0.10547948,-0.09770508,-0.95368654,-0.7062378,163.0
17436,0.36685276,-4.976005,-0.92471063,-0.09770508,-0.95368654,-0.7062378,163.0
17437,0.36685276,-4.976005,-0.92471063,2.9385865,-2.066675,0.26337892,163.0
17438,2.565857,-12.36065,-4.604295,2.9385865,-2.066675,0.26337892,163.0
17439,2.565857,-12.36065,-4.604295,5.696631,-3.0479736,1.0057251,163.0
17440,6.203271,-20.04144,-8.4985485,5.696631,-3.0479736,1.0057251,163.0
17441,6.203271,-20.04144,-8.4985485,6.039661,-3.451538,2.6051147,163.0
17442,11.314375,-24.327341,-8.959301,6.039661,-3.451538,2.6051147,163.0
17443,11.314375,-24.327341,-8.959301,3.8742187,-4.494434,5.8623047,163.0
17444,16.873352,-23.139803,-6.5965543,3.8742187,-4.494434,5.8623047,163.0
17445,16.873352,-23.139803,-6.5965543,1.983838,-4.4816895,6.4761477,163.0
17446,20.333202,-16.65004,-4.2374973,1.983838,-4.4816895,6.4761477,163.0
17447,20.333202,-16.65004,-4.2374973,1.0386475,-4.14928,6.429419,163.0
17448,19.51179,-6.4140377,-2.444673,1.0386475,-4.14928,6.429419,163.0
17449,19.51179,-6.4140377,-2.444673,-0.20709229,-3.8200562,7.07406,163.0
17450,15.40937,2.823822,-0.63877106,-0.20709229,-3.8200562,7.07406,163.0
17451,15.40937,2.823822,-0.63877106,-0.70198977,-4.100427,7.1091065,163.0
17452,15.40937,2.823822,-0.63877106,-0.92926025,-4.2437987,6.4772096,163.0
17453,10.969696,9.240404,0.9692321,-0.92926025,-4.2437987,6.4772096,163.0
17454,7.9738274,13.885403,2.5262527,-0.92926025,-4.2437987,6.4772096,163.0
17455,7.9738274,13.885403,2.5262527,-1.1352905,-4.3723025,6.0428467,163.0
17456,7.024338,16.496555,3.90838,-1.1352905,-4.3723025,6.0428467,163.0
17457,7.024338,16.496555,3.90838,-1.1968873,-4.4785037,5.878235,163.0
17458,8.090443,17.168156,4.581074,-1.1968873,-4.4785037,5.878235,163.0
17459,8.090443,17.168156,4.581074,-1.0598878,-4.082373,5.2314696,163.0
17460,8.745951,19.258877,4.6990757,-1.0598878,-4.082373,5.2314696,163.0
17461,8.745951,19.258877,4.6990757,-1.4018555,-2.721936,3.4579103,163.0
17462,5.9878864,23.93325,5.0583696,-1.4018555,-2.721936,3.4579103,163.0
17463,5.9878864,23.93325,5.0583696,-3.245508,-1.2468017,0.41312256,163.0
17464,0.96157455,26.814617,6.0693154,-3.245508,-1.2468017,0.41312256,163.0
17465,0.96157455,26.814617,6.0693154,-4.340442,0.45135498,-3.6586304,163.0
17466,-1.9331093,21.69741,6.238326,-4.340442,0.45135498,-3.6586304,163.0
17467,-1.9331093,21.69741,6.238326,-2.4203248,2.2089844,-6.3529544,163.0
17468,-1.6620388,10.013947,3.9673698,-2.4203248,2.2089844,-6.3529544,163.0
17469,-1.6620388,10.013947,3.9673698,0.8358032,3.1998413,-7.7495,163.0
17470,-0.93109703,-0.015136719,0.48910594,0.8358032,3.1998413,-7.7495,163.0
17471,-0.93109703,-0.015136719,0.48910594,2.078357,3.4281738,-8.265637,163.0
17472,-0.93109703,-0.015136719,0.48910594,2.975757,3.6650026,-5.3854613,163.0
17473,0.42247963,-10.396203,-2.4643183,2.975757,3.6650026,-5.3854613,163.0
17474,-5.416765,-44.20074,-5.295832,2.975757,3.6650026,-5.3854613,163.0
17475,-5.416765,-44.20074,-5.295832,1.6779785,4.8459597,-6.600403,163.0
17476,-5.416765,-44.20074,-5.295832,-2.253589,4.34469,-5.4852905,163.0
17477,-5.416765,-44.20074,-5.295832,-4.2767215,4.731262,-2.9428346,163.0
17478,-8.607094,-29.403782,-3.9658527,-4.2767215,4.731262,-2.9428346,163.0
17479,-8.607094,-29.403782,-3.9658527,-3.7499635,4.4753175,-1.8001099,163.0
17480,-10.399127,-14.795864,-2.9071794,-3.7499635,4.4753175,-1.8001099,163.0
17481,-10.399127,-14.795864,-2.9071794,-3.5439332,5.1008425,-1.6737305,163.0
17482,-12.0132475,-4.214426,-2.332787,-3.5439332,5.1008425,-1.6737305,163.0
17483,-12.0132475,-4.214426,-2.332787,-3.601282,5.2304077,-1.6185058,163.0
17484,-13.42239,1.4027634,-1.7436833,-3.601282,5.2304077,-1.6185058,163.0
17485,-13.42239,1.4027634,-1.7436833,-3.719165,5.1688113,-1.4592041,163.0
17486,-13.466574,3.6772766,-1.0373051,-3.719165,5.1688113,-1.4592041,163.0
17487,-13.466574,3.6772766,-1.0373051,-3.2901123,4.788611,-1.1958252,163.0
17488,-12.566741,4.707141,-0.05826211,-3.2901123,4.788611,-1.1958252,163.0
17489,-12.566741,4.707141,-0.05826211,-2.2950075,4.156714,-0.9260742,163.0
17490,-12.05166,5.7552147,1.6122403,-2.2950075,4.156714,-0.9260742,163.0
17491,-12.05166,5.7552147,1.6122403,-1.8351563,3.536499,-0.29099122,163.0
17492,-12.195918,6.994223,3.2183447,-1.8351563,3.536499,-0.29099122,163.0
17493,-12.195918,6.994223,3.2183447,-1.2085694,2.6741455,0.35046387,163.0
17494,-12.282553,7.0980034,3.403057,-1.2085694,2.6741455,0.35046387,163.0
17495,-12.282553,7.0980034,3.403057,-0.8294312,2.0146363,0.3090454,163.0
17496,-11.458294,5.8948336,2.3562102,-0.8294312,2.0146363,0.3090454,163.0
17497,-11.458294,5.8948336,2.3562102,-0.57242435,1.1331666,-0.083898924,163.0
17498,-9.669321,4.409629,1.2166822,-0.57242435,1.1331666,-0.083898924,163.0
17499,-9.669321,4.409629,1.2166822,-0.6000366,-0.033984374,-0.2984253,163.0
17500,-7.0313187,2.6335382,0.6240293,-0.6000366,-0.033984374,-0.2984253,163.0
17501,-7.0313187,2.6335382,0.6240293,0.05628662,-1.0917481,-0.22408448,163.0
17502,-3.917694,0.46421587,0.14855206,0.05628662,-1.0917481,-0.22408448,163.0
17503,-3.917694,0.46421587,0.14855206,1.6960328,-2.357666,0.3993164,163.0
17504,-0.9345341,-1.3618792,-1.3009582,1.6960328,-2.357666,0.3993164,163.0
17505,-0.9345341,-1.3618792,-1.3009582,2.8132691,-3.4302979,1.0397094,163.0
17506,1.9297276,-5.2485247,-4.253364,2.8132691,-3.4302979,1.0397094,163.0
17507,1.9297276,-5.2485247,-4.253364,3.4982667,-3.7945678,0.76464844,163.0
17508,5.9834547,-15.56901,-7.226056,3.4982667,-3.7945678,0.76464844,163.0
17509,5.9834547,-15.56901,-7.226056,5.340857,-3.7850099,1.6896607,163.0
17510,12.699215,-27.173544,-8.459726,5.340857,-3.7850099,1.6896607,163.0
17511,12.699215,-27.173544,-8.459726,6.694922,-5.612732,5.4672365,163.0
17512,21.31112,-29.79301,-8.231197,6.694922,-5.612732,5.4672365,163.0
17513,21.31112,-29.79301,-8.231197,4.5029297,-6.6375732,6.909448,163.0
17514,27.192034,-19.084654,-7.233383,4.5029297,-6.6375732,6.909448,163.0
17515,27.192034,-19.084654,-7.233383,-0.5055176,-3.797754,6.682178,163.0
17516,23.761868,-2.960167,-3.74646,-0.5055176,-3.797754,6.682178,163.0
17517,23.761868,-2.960167,-3.74646,-2.6635253,-3.7839477,7.399036,163.0
17518,14.414804,7.760784,0.937109,-2.6635253,-3.7839477,7.399036,163.0
17519,14.414804,7.760784,0.937109,-1.9222412,-4.9394164,6.8329835,163.0
17520,7.966036,13.144762,3.6849165,-1.9222412,-4.9394164,6.8329835,163.0
17521,7.966036,13.144762,3.6849165,-1.3986695,-4.9479127,5.59574,163.0
17522,5.4774914,16.38224,5.425009,-1.3986695,-4.9479127,5.59574,163.0
17523,5.4774914,16.38224,5.425009,-1.1554688,-4.986145,4.6643558,163.0
17524,4.962425,18.40671,7.183574,-1.1554688,-4.986145,4.6643558,163.0
17525,4.962425,18.40671,7.183574,-0.68712157,-4.618689,3.623584,163.0
17526,5.065094,21.02858,7.891452,-0.68712157,-4.618689,3.623584,163.0
17527,5.065094,21.02858,7.891452,-0.91120607,-3.8625367,1.6705445,163.0
17528,4.3137207,23.902782,7.2505884,-0.91120607,-3.8625367,1.6705445,163.0
17529,4.3137207,23.902782,7.2505884,-2.7591064,-2.6390991,0.32816163,163.0
17530,4.3137207,23.902782,7.2505884,-2.7591064,-2.6390991,0.32816163,165.0
17531,1.7461185,23.50681,6.501264,-2.7591064,-2.6390991,0.32816163,165.0
17532,1.7461185,23.50681,6.501264,-3.5906618,-1.1820191,-2.5743165,165.0
17533,-0.8993702,17.474636,6.0073223,-3.5906618,-1.1820191,-2.5743165,165.0
17534,-0.8993702,17.474636,6.0073223,-2.4043946,0.47896728,-4.6686034,165.0
17535,-1.7025414,7.9423428,4.761534,-2.4043946,0.47896728,-4.6686034,165.0
17536,-1.7025414,7.9423428,4.761534,-0.5320679,2.259961,-6.1161256,165.0
17537,-1.8183813,0.5281906,2.3498402,-0.5320679,2.259961,-6.1161256,165.0
17538,-1.8183813,0.5281906,2.3498402,1.1374146,3.085144,-6.249939,165.0
17539,-1.8183813,0.5281906,2.3498402,1.635498,3.4037476,-6.3136597,165.0
17540,-2.359026,-2.9382505,-0.3978014,1.635498,3.4037476,-6.3136597,165.0
17541,0.92928314,-40.512173,-5.8765054,1.635498,3.4037476,-6.3136597,165.0
17542,0.92928314,-40.512173,-5.8765054,1.803296,4.2257447,-3.8221803,165.0
17543,0.92928314,-40.512173,-5.8765054,0.62552494,5.808142,-4.2905273,165.0
17544,0.92928314,-40.512173,-5.8765054,-0.8666016,5.160315,-4.2979617,165.0
17545,-0.96167564,-34.77047,-6.354146,-0.8666016,5.160315,-4.2979617,165.0
17546,-0.96167564,-34.77047,-6.354146,-3.2763062,5.092346,-1.6046997,165.0
17547,-4.0227947,-20.331646,-4.6747966,-3.2763062,5.092346,-1.6046997,165.0
17548,-4.0227947,-20.331646,-4.6747966,-4.34469,4.969153,-0.8315552,165.0
17549,-8.090148,-6.234396,-2.6293025,-4.34469,4.969153,-0.8315552,165.0
17550,-8.090148,-6.234396,-2.6293025,-4.3627443,5.2420897,-0.7327881,165.0
17551,-11.43236,2.97513,-1.64176,-4.3627443,5.2420897,-0.7327881,165.0
17552,-11.43236,2.97513,-1.64176,-3.6023438,5.0052614,-0.9143921,165.0
17553,-13.444264,6.865614,-0.8899338,-3.6023438,5.0052614,-0.9143921,165.0
17554,-13.444264,6.865614,-0.8899338,-3.08833,4.4901857,-0.76358646,165.0
17555,-14.327213,8.136083,0.13287711,-3.08833,4.4901857,-0.76358646,165.0
17556,-14.327213,8.136083,0.13287711,-2.4171388,3.8189943,-0.5033936,165.0
17557,-14.671036,9.227946,1.3892362,-2.4171388,3.8189943,-0.5033936,165.0
17558,-14.671036,9.227946,1.3892362,-1.3296387,2.8599975,-0.09133301,165.0
17559,-14.913843,10.035202,2.98103,-1.3296387,2.8599975,-0.09133301,165.0
17560,-14.913843,10.035202,2.98103,-0.50870365,2.2057984,-0.010620117,165.0
17561,-14.098519,9.602697,4.183176,-0.50870365,2.2057984,-0.010620117,165.0
17562,-14.098519,9.602697,4.183176,0.08496094,1.5494751,-0.04248047,165.0
17563,-12.0181465,7.935417,4.046431,0.08496094,1.5494751,-0.04248047,165.0
17564,-12.0181465,7.935417,4.046431,0.4959595,0.86341554,-0.32603762,165.0
17565,-9.298746,5.8721743,2.8873403,0.4959595,0.86341554,-0.32603762,165.0
17566,-9.298746,5.8721743,2.8873403,0.6881836,-0.052038576,-0.76677245,165.0
17567,-6.0927935,3.7878518,1.6011076,0.6881836,-0.052038576,-0.76677245,165.0
17568,-6.0927935,3.7878518,1.6011076,0.7540283,-0.9515625,-0.7062378,165.0
17569,-2.6889448,1.0724444,0.55652094,0.7540283,-0.9515625,-0.7062378,165.0
17570,-2.6889448,1.0724444,0.55652094,1.1289185,-1.7756836,-0.06690674,165.0
17571,0.28357315,-2.8144321,-0.9503522,1.1289185,-1.7756836,-0.06690674,165.0
17572,0.28357315,-2.8144321,-0.9503522,2.0464966,-2.5711305,0.5628662,165.0
17573,2.8446083,-8.372884,-3.5582922,2.0464966,-2.5711305,0.5628662,165.0
17574,2.8446083,-8.372884,-3.5582922,3.003369,-3.0405395,1.1565307,165.0
17575,5.5342073,-15.784843,-6.3915434,3.003369,-3.0405395,1.1565307,165.0
17576,5.5342073,-15.784843,-6.3915434,4.1429076,-3.265686,2.4946656,165.0
17577,8.615623,-23.076374,-8.301382,4.1429076,-3.265686,2.4946656,165.0
17578,8.615623,-23.076374,-8.301382,5.076416,-3.2391357,3.7499635,165.0
17579,12.441791,-25.179348,-8.023808,5.076416,-3.2391357,3.7499635,165.0
17580,12.441791,-25.179348,-8.023808,4.0144043,-4.231055,6.6513796,165.0
17581,16.215664,-18.833933,-6.0809484,4.0144043,-4.231055,6.6513796,165.0
17582,16.215664,-18.833933,-6.0809484,1.0641358,-4.354248,6.5727906,165.0
17583,17.898142,-8.086153,-3.534522,1.0641358,-4.354248,6.5727906,165.0
17584,17.898142,-8.086153,-3.534522,-1.7809937,-3.80625,6.1278076,165.0
17585,15.98221,0.73431206,-0.8142872,-1.7809937,-3.80625,6.1278076,165.0
17586,15.98221,0.73431206,-0.8142872,-1.1310425,-4.5762086,5.977002,165.0
17587,12.293728,6.7259274,1.087987,-1.1310425,-4.5762086,5.977002,165.0
17588,12.293728,6.7259274,1.087987,-0.32285157,-4.9266725,5.493787,165.0
17589,9.387118,11.717985,2.0273232,-0.32285157,-4.9266725,5.493787,165.0
17590,9.387118,11.717985,2.0273232,-0.40993652,-4.711084,4.827905,165.0
17591,7.7828026,15.507848,3.0401082,-0.40993652,-4.711084,4.827905,165.0
17592,7.7828026,15.507848,3.0401082,-1.1586548,-4.341504,4.393543,165.0
17593,7.299032,16.69146,4.3337464,-1.1586548,-4.341504,4.393543,165.0
17594,7.299032,16.69146,4.3337464,-1.5781494,-3.7765138,3.9719238,165.0
17595,7.2553883,17.527899,5.213689,-1.5781494,-3.7765138,3.9719238,165.0
17596,7.2553883,17.527899,5.213689,-1.0174073,-2.7537963,2.2121704,165.0
17597,5.6807384,20.72509,5.2681313,-1.0174073,-2.7537963,2.2121704,165.0
17598,5.6807384,20.72509,5.2681313,-2.3820922,-1.4400879,0.7434082,165.0
17599,1.9512444,22.9019,5.2271643,-2.3820922,-1.4400879,0.7434082,165.0
17600,1.9512444,22.9019,5.2271643,-3.7393434,-0.11682129,-2.1325195,165.0
17601,-1.1385155,19.540073,5.1457453,-3.7393434,-0.11682129,-2.1325195,165.0
17602,-1.1385155,19.540073,5.1457453,-2.7984009,1.3869873,-4.8395877,165.0
17603,-1.5863247,10.9335,3.9579048,-2.7984009,1.3869873,-4.8395877,165.0
17604,-1.5863247,10.9335,3.9579048,-0.55755615,2.5392702,-6.158606,165.0
17605,-1.0871754,2.5963602,1.6068754,-0.55755615,2.5392702,-6.158606,165.0
17606,-1.0871754,2.5963602,1.6068754,0.7805786,3.0575318,-6.9519286,165.0
17607,-0.5905657,-3.5551872,-1.1139504,0.7805786,3.0575318,-6.9519286,165.0
17608,-0.5905657,-3.5551872,-1.1139504,1.3838013,3.4642823,-6.299854,165.0
17609,-0.5905657,-3.5551872,-1.1139504,0.9515625,4.801355,-3.341089,165.0
17610,1.5750446,-18.528452,-3.5535994,0.9515625,4.801355,-3.341089,165.0
17611,-0.8475456,-42.324898,-5.15129,0.9515625,4.801355,-3.341089,165.0
17612,-0.8475456,-42.324898,-5.15129,0.9515625,4.801355,-3.341089,167.0
17613,-0.8475456,-42.324898,-5.15129,0.47790527,4.3754883,-6.395435,167.0
17614,-0.8475456,-42.324898,-5.15129,-4.286279,4.8491454,-2.6539674,167.0
17615,-0.8475456,-42.324898,-5.15129,-4.1067996,4.33938,-1.3370727,167.0
17616,-4.58226,-29.545784,-3.5687983,-4.1067996,4.33938,-1.3370727,167.0
17617,-16.592274,1.0299864,-0.86766076,-4.1067996,4.33938,-1.3370727,167.0
17618,-16.592274,1.0299864,-0.86766076,-3.8561647,4.975525,-0.9526245,167.0
17619,-16.592274,1.0299864,-0.86766076,-3.259314,5.0902224,-0.9589966,167.0
17620,-16.592274,1.0299864,-0.86766076,-2.89292,4.9224243,-0.8294312,167.0
17621,-15.8973055,3.8361473,0.03641343,-2.89292,4.9224243,-0.8294312,167.0
17622,-15.8973055,3.8361473,0.03641343,-2.720874,4.890564,-0.5628662,167.0
17623,-14.370616,5.3905973,0.69880855,-2.720874,4.890564,-0.5628662,167.0
17624,-14.370616,5.3905973,0.69880855,-2.1303957,4.5772705,-0.2538208,167.0
17625,-13.355844,7.1777124,1.3781265,-2.1303957,4.5772705,-0.2538208,167.0
17626,-13.355844,7.1777124,1.3781265,-1.44115,3.8582885,0.23045655,167.0
17627,-13.373396,8.735456,2.1405385,-1.44115,3.8582885,0.23045655,167.0
17628,-13.373396,8.735456,2.1405385,-1.2542359,3.2359498,0.55543214,167.0
17629,-13.148485,9.158617,2.4588785,-1.2542359,3.2359498,0.55543214,167.0
17630,-13.148485,9.158617,2.4588785,-1.2542359,2.5095336,0.53737795,167.0
17631,-12.141749,7.7512097,2.3332772,-1.2542359,2.5095336,0.53737795,167.0
17632,-12.141749,7.7512097,2.3332772,-1.1182984,1.5940796,0.28461915,167.0
17633,-10.431307,4.921085,2.1584675,-1.1182984,1.5940796,0.28461915,167.0
17634,-10.431307,4.921085,2.1584675,-0.52888185,0.54906005,-0.20709229,167.0
17635,-7.955702,2.1868925,1.8012125,-0.52888185,0.54906005,-0.20709229,167.0
17636,-7.955702,2.1868925,1.8012125,0.5936646,-0.724292,-0.49277344,167.0
17637,-5.133116,0.5971823,1.0016513,0.5936646,-0.724292,-0.49277344,167.0
17638,-5.133116,0.5971823,1.0016513,1.5027466,-1.9073731,-0.31223145,167.0
17639,-5.133116,0.5971823,1.0016513,2.0592408,-3.1626709,0.37701416,167.0
17640,-2.6983376,-0.32587957,-0.716843,2.0592408,-3.1626709,0.37701416,167.0
17641,-0.63928604,-3.2356184,-4.0435185,2.0592408,-3.1626709,0.37701416,167.0
17642,-0.63928604,-3.2356184,-4.0435185,2.3141236,-3.8646607,0.8379273,167.0
17643,2.1664639,-12.4315,-7.9724126,2.3141236,-3.8646607,0.8379273,167.0
17644,2.1664639,-12.4315,-7.9724126,3.3272827,-3.8742187,0.7434082,167.0
17645,6.9141035,-25.307846,-10.603577,3.3272827,-3.8742187,0.7434082,167.0
17646,6.9141035,-25.307846,-10.603577,5.9876223,-4.7302003,3.3092287,167.0
17647,13.57446,-32.07084,-10.849415,5.9876223,-4.7302003,3.3092287,167.0
17648,13.57446,-32.07084,-10.849415,6.143738,-6.044971,6.7416506,167.0
