,accx,accy,accz,gyrox,gyroy,gyroz,heart rate
17180,run,run,run,run,run,run,run
17181,-1.1317339,0.5805054,-0.25190735,-0.0722168,0.2177124,0.118945315,113.0
17182,-1.1317339,0.5805054,-0.25190735,-0.23364258,0.045666505,0.013806152,113.0
17183,-0.9094639,0.46290588,-0.23995209,-0.23364258,0.045666505,0.013806152,113.0
17184,-0.9094639,0.46290588,-0.23995209,-0.25913087,0.050976563,0.012744141,113.0
17185,-0.7310257,0.36826324,-0.23533249,-0.25913087,0.050976563,0.012744141,113.0
17186,-0.7310257,0.36826324,-0.23533249,-0.29523927,0.0637207,0.004248047,113.0
17187,0.22653198,-2.907402,0.37618637,-0.29523927,0.0637207,0.004248047,113.0
17188,0.22653198,-2.907402,0.37618637,-0.29630128,0.06159668,-0.014868164,113.0
17189,0.20946026,-2.387436,0.33575058,-0.29630128,0.06159668,-0.014868164,113.0
17190,0.20946026,-2.387436,0.33575058,-0.26762697,0.07327881,-0.027612304,113.0
17191,0.18730736,-1.9153671,0.29568863,-0.26762697,0.07327881,-0.027612304,113.0
17192,0.18730736,-1.9153671,0.29568863,-0.271875,0.07965088,-0.058410645,113.0
17193,0.14155674,-1.4969177,0.14980698,-0.271875,0.07965088,-0.058410645,113.0
17194,0.14155674,-1.4969177,0.14980698,-0.28780517,0.08602295,-0.07434082,113.0
17195,0.111255646,-1.1748047,0.023166656,-0.28780517,0.08602295,-0.07434082,113.0
17196,0.111255646,-1.1748047,0.023166656,-0.30161133,0.093457036,-0.08920898,113.0
17197,0.09425354,-0.90522766,-0.0052337646,-0.30161133,0.093457036,-0.08920898,113.0
17198,0.09425354,-0.90522766,-0.0052337646,-0.32391357,0.10620117,-0.078588866,113.0
17199,0.06645584,-0.6648636,-0.0040664673,-0.32391357,0.10620117,-0.078588866,113.0
17200,0.06645584,-0.6648636,-0.0040664673,-0.33771974,0.1083252,-0.06159668,113.0
17201,0.034305573,-0.4824524,-0.015506744,-0.33771974,0.1083252,-0.06159668,113.0
17202,0.034305573,-0.4824524,-0.015506744,-0.33878174,0.115759276,-0.04141846,113.0
17203,-0.0061244965,-0.345932,-0.023651123,-0.33878174,0.115759276,-0.04141846,113.0
17204,-0.0061244965,-0.345932,-0.023651123,-0.36533204,0.12000733,-0.019116212,113.0
17205,-0.05452156,-0.22621155,-0.030944824,-0.36533204,0.12000733,-0.019116212,113.0
17206,-0.05452156,-0.22621155,-0.030944824,-0.39188233,0.12000733,0.022302246,113.0
17207,-0.05452156,-0.22621155,-0.030944824,-0.38551027,0.124255374,0.053100586,113.0
17208,-0.10162449,-0.1887207,-0.03294754,-0.38551027,0.124255374,0.053100586,113.0
17209,-0.09943962,-0.27186584,-0.029117584,-0.38551027,0.124255374,0.053100586,113.0
17210,-0.09943962,-0.27186584,-0.029117584,-0.33134767,0.13699952,0.06478272,113.0
17211,-0.09280872,-0.37298584,-0.046295166,-0.33134767,0.13699952,0.06478272,113.0
17212,-0.09280872,-0.37298584,-0.046295166,-0.29736328,0.18160401,0.053100586,113.0
17213,-0.18884659,-0.36627197,-0.101451874,-0.29736328,0.18160401,0.053100586,113.0
17214,-0.18884659,-0.36627197,-0.101451874,-0.38232422,0.2357666,0.04460449,113.0
17215,-0.4578762,-0.17710114,-0.16830826,-0.38232422,0.2357666,0.04460449,113.0
17216,-0.4578762,-0.17710114,-0.16830826,-0.5171997,0.29630128,0.0998291,113.0
17217,-0.8229656,0.05570221,-0.20510483,-0.5171997,0.29630128,0.0998291,113.0
17218,-0.8229656,0.05570221,-0.20510483,-0.6531372,0.32816163,0.1996582,113.0
17219,-1.0826521,0.17591095,-0.2598343,-0.6531372,0.32816163,0.1996582,113.0
17220,-1.0826521,0.17591095,-0.2598343,-0.7678345,0.34940186,0.3069214,113.0
17221,-1.1991787,0.2438736,-0.5085373,-0.7678345,0.34940186,0.3069214,113.0
17222,-1.1991787,0.2438736,-0.5085373,-0.94731444,0.40993652,0.44923097,113.0
17223,-1.3857346,0.45022583,-1.0284271,-0.94731444,0.40993652,0.44923097,113.0
17224,-1.3857346,0.45022583,-1.0284271,-1.3200806,0.48427734,0.6287109,113.0
17225,-1.8296814,0.86639404,-1.6496582,-1.3200806,0.48427734,0.6287109,113.0
17226,-1.8296814,0.86639404,-1.6496582,-2.005078,0.5501221,0.8772217,113.0
17227,-2.4264402,1.137001,-2.1000633,-2.005078,0.5501221,0.8772217,113.0
17228,-2.4264402,1.137001,-2.1000633,-3.076648,0.4630371,0.9897949,113.0
17229,-2.8207293,0.77812195,-2.5188446,-3.076648,0.4630371,0.9897949,113.0
17230,-2.8207293,0.77812195,-2.5188446,-3.8497925,0.30054933,1.0875,113.0
17231,-2.754301,-0.060935974,-3.2831192,-3.8497925,0.30054933,1.0875,113.0
17232,-2.754301,-0.060935974,-3.2831192,-4.0420165,0.16992188,1.1937011,113.0
17233,-2.754301,-0.060935974,-3.2831192,-4.725952,0.2782471,1.3455689,113.0
17234,-2.3358269,-0.6242981,-4.261467,-4.725952,0.2782471,1.3455689,113.0
17235,-1.8501072,-1.1696548,-4.9297295,-4.725952,0.2782471,1.3455689,113.0
17236,-1.8501072,-1.1696548,-4.9297295,-4.5613403,0.22408448,1.5038086,113.0
17237,-1.4481773,-1.6504593,-5.024288,-4.5613403,0.22408448,1.5038086,113.0
17238,-1.4481773,-1.6504593,-5.024288,-4.37124,0.43967286,1.8043579,113.0
17239,-1.4442482,-1.6831512,-4.5372505,-4.37124,0.43967286,1.8043579,113.0
17240,-1.4442482,-1.6831512,-4.5372505,-4.517798,0.40037844,2.0826051,113.0
17241,-1.8220615,-1.6953583,-3.3756142,-4.517798,0.40037844,2.0826051,113.0
17242,-1.8220615,-1.6953583,-3.3756142,-3.9273193,0.29630128,2.3204956,113.0
17243,-2.2243729,-1.4460297,-1.9048233,-3.9273193,0.29630128,2.3204956,113.0
17244,-2.2243729,-1.4460297,-1.9048233,-3.6448243,0.07752686,2.4288208,113.0
17245,-2.5042534,-1.5408249,-0.58102417,-3.6448243,0.07752686,2.4288208,113.0
17246,-2.5042534,-1.5408249,-0.58102417,-2.8217652,-0.20709229,2.4596193,113.0
17247,-2.7104225,-2.2741241,0.508152,-2.8217652,-0.20709229,2.4596193,113.0
17248,-2.7104225,-2.2741241,0.508152,-2.2960694,-0.5129517,2.4755495,113.0
17249,-2.9446564,-3.29496,1.4467926,-2.2960694,-0.5129517,2.4755495,113.0
17250,-2.9446564,-3.29496,1.4467926,-2.2854493,-0.7805786,2.524402,113.0
17251,-2.9969616,-4.2709274,2.100914,-2.2854493,-0.7805786,2.524402,113.0
17252,-2.9969616,-4.2709274,2.100914,-2.445813,-1.1087402,2.6465333,113.0
17253,-2.1238747,-4.988678,2.2587128,-2.445813,-1.1087402,2.6465333,113.0
17254,-2.1238747,-4.988678,2.2587128,-2.2334106,-1.4007934,2.6667116,113.0
17255,-0.038503647,-4.9809265,1.7916756,-2.2334106,-1.4007934,2.6667116,113.0
17256,-0.038503647,-4.9809265,1.7916756,-1.9806519,-1.628064,2.3852785,113.0
17257,2.5206738,-3.3299866,0.62322235,-1.9806519,-1.628064,2.3852785,113.0
17258,2.5206738,-3.3299866,0.62322235,-1.7873658,-1.722583,2.0199463,113.0
17259,4.6572113,-0.12239838,-0.92339706,-1.7873658,-1.722583,2.0199463,113.0
17260,4.6572113,-0.12239838,-0.92339706,-1.7045288,-1.7109009,1.6811646,113.0
17261,5.9748917,3.3298645,-2.164524,-1.7045288,-1.7109009,1.6811646,113.0
17262,5.9748917,3.3298645,-2.164524,-1.5707153,-1.5579712,1.3328247,113.0
17263,6.5398006,5.8389053,-2.7193909,-1.5707153,-1.5579712,1.3328247,113.0
17264,6.5398006,5.8389053,-2.7193909,-1.453894,-1.4337158,1.0301514,113.0
17265,6.5827684,7.046631,-2.7147827,-1.453894,-1.4337158,1.0301514,113.0
17266,6.5827684,7.046631,-2.7147827,-1.3445069,-1.183081,0.73703617,113.0
17267,6.0497847,7.1944733,-2.3165398,-1.3445069,-1.183081,0.73703617,113.0
17268,6.0497847,7.1944733,-2.3165398,-1.1852051,-0.8602295,0.4598511,113.0
17269,4.8433914,6.74868,-1.5763779,-1.1852051,-0.8602295,0.4598511,113.0
17270,4.8433914,6.74868,-1.5763779,-0.9674927,-0.6053467,0.13381349,113.0
17271,3.5554018,5.957016,-0.7780838,-0.9674927,-0.6053467,0.13381349,113.0
17272,3.5554018,5.957016,-0.7780838,-0.5787964,-0.271875,-0.3090454,113.0
17273,2.5521946,4.6224213,-0.23999405,-0.5787964,-0.271875,-0.3090454,113.0
17274,2.5521946,4.6224213,-0.23999405,-0.032922365,0.12850343,-1.0174073,113.0
17275,1.4548054,2.8177338,0.003414154,-0.032922365,0.12850343,-1.0174073,113.0
17276,1.4548054,2.8177338,0.003414154,0.54375,0.4885254,-1.7608155,113.0
17277,0.09292126,1.0093765,-0.007461548,0.54375,0.4885254,-1.7608155,113.0
17278,0.09292126,1.0093765,-0.007461548,1.1023682,0.7349121,-2.3311157,113.0
17279,-1.2147255,-0.6963577,-0.14060211,1.1023682,0.7349121,-2.3311157,113.0
17280,-1.2147255,-0.6963577,-0.14060211,1.3816773,0.87191164,-2.7336183,113.0
17281,-2.1266022,-2.7309723,-0.0694046,1.3816773,0.87191164,-2.7336183,113.0
17282,-2.1266022,-2.7309723,-0.0694046,1.2999023,0.9802368,-3.0118654,113.0
17283,-2.4766846,-5.9184723,0.39762497,1.2999023,0.9802368,-3.0118654,113.0
17284,-2.4766846,-5.9184723,0.39762497,1.2818482,1.1225464,-3.2773683,113.0
17285,-2.7589226,-10.463234,1.3757553,1.2818482,1.1225464,-3.2773683,113.0
17286,-2.7589226,-10.463234,1.3757553,1.901001,1.1565307,-3.803064,113.0
17287,-3.733078,-14.064468,2.4381294,1.901001,1.1565307,-3.803064,113.0
17288,-3.733078,-14.064468,2.4381294,2.262085,1.0195312,-4.1163573,113.0
17289,-4.7223635,-14.375816,2.721756,2.262085,1.0195312,-4.1163573,113.0
17290,-4.7223635,-14.375816,2.721756,1.8574585,0.6903076,-4.4466434,113.0
17291,-4.531687,-11.717621,2.152771,1.8574585,0.6903076,-4.4466434,113.0
17292,-4.531687,-11.717621,2.152771,1.3062744,0.50233155,-4.532666,113.0
17293,-3.8514366,-7.697632,1.3471794,1.3062744,0.50233155,-4.532666,113.0
17294,-3.8514366,-7.697632,1.3471794,0.9866089,0.39082032,-4.3861084,113.0
17295,-3.2837486,-3.423317,0.5832367,0.9866089,0.39082032,-4.3861084,113.0
17296,-3.2837486,-3.423317,0.5832367,0.7168579,0.25806886,-4.0972414,113.0
17297,-2.5322475,0.7724991,-0.39591217,0.7168579,0.25806886,-4.0972414,113.0
17298,-2.5322475,0.7724991,-0.39591217,0.14761963,0.22727051,-3.6554444,113.0
17299,-1.6087818,4.2034454,-1.6622467,0.14761963,0.22727051,-3.6554444,113.0
17300,-1.6087818,4.2034454,-1.6622467,-0.4609131,0.3058594,-3.0277956,113.0
17301,-0.6469364,6.217514,-2.7568245,-0.4609131,0.3058594,-3.0277956,113.0
17302,-0.6469364,6.217514,-2.7568245,-0.6956177,0.5320679,-2.3385499,113.0
17303,-0.02191925,7.071205,-3.095707,-0.6956177,0.5320679,-2.3385499,113.0
17304,-0.02191925,7.071205,-3.095707,-0.7168579,0.7051758,-1.6397461,113.0
17305,0.25354576,7.5105743,-2.8037033,-0.7168579,0.7051758,-1.6397461,113.0
17306,0.25354576,7.5105743,-2.8037033,-0.62127686,0.73809814,-0.84536135,113.0
17307,0.34866142,7.953232,-2.700737,-0.62127686,0.73809814,-0.84536135,113.0
17308,0.34866142,7.953232,-2.700737,-0.6881836,0.6966797,-0.04885254,113.0
17309,0.28487396,8.237305,-3.3209648,-0.6881836,0.6966797,-0.04885254,113.0
17310,0.28487396,8.237305,-3.3209648,-0.8071289,0.6775635,0.6064087,113.0
17311,0.133564,8.131683,-4.1494102,-0.8071289,0.6775635,0.6064087,113.0
17312,0.133564,8.131683,-4.1494102,-0.8326172,0.66269535,1.2075074,113.0
17313,0.04972267,7.5042343,-4.279743,-0.8326172,0.66269535,1.2075074,113.0
17314,0.04972267,7.5042343,-4.279743,-0.71579593,0.63826907,1.6046997,113.0
17315,0.02340889,6.541092,-3.5805702,-0.71579593,0.63826907,1.6046997,113.0
17316,0.02340889,6.541092,-3.5805702,-0.6754395,0.5140137,2.1580079,113.0
17317,0.03126335,5.598999,-2.774025,-0.6754395,0.5140137,2.1580079,113.0
17318,0.03126335,5.598999,-2.774025,-0.8092529,0.4885254,2.8515015,113.0
17319,-0.20177269,4.3930054,-2.3179626,-0.8092529,0.4885254,2.8515015,113.0
17320,-0.20177269,4.3930054,-2.3179626,-0.87403566,0.43861085,3.4557862,113.0
17321,-0.9887123,2.4073334,-1.5045052,-0.87403566,0.43861085,3.4557862,113.0
17322,-0.9887123,2.4073334,-1.5045052,-0.84111327,0.38869628,3.981482,113.0
17323,-2.3979397,-1.1119385,0.498703,-0.84111327,0.38869628,3.981482,113.0
17324,-2.3979397,-1.1119385,0.498703,-0.85704345,0.22302246,4.3075194,113.0
17325,-3.1102943,-3.4306488,1.7563705,-0.85704345,0.22302246,4.3075194,113.0
17326,-3.1102943,-3.4306488,1.7563705,-0.811377,0.1359375,4.3117676,113.0
17327,-6.1600113,-16.59977,6.559246,-0.811377,0.1359375,4.3117676,113.0
17328,-6.1600113,-16.59977,6.559246,-0.8230591,-0.61065674,3.9188232,113.0
17329,-5.788946,-17.815125,6.822727,-0.8230591,-0.61065674,3.9188232,113.0
17330,-5.788946,-17.815125,6.822727,-1.0036011,-0.98236084,3.712793,113.0
17331,-2.2581215,-20.490257,7.0938873,-1.0036011,-0.98236084,3.712793,113.0
17332,-2.2581215,-20.490257,7.0938873,-2.0284424,-1.9349854,2.5190918,113.0
17333,0.2016449,-14.469788,5.2082405,-2.0284424,-1.9349854,2.5190918,113.0
17334,0.2016449,-14.469788,5.2082405,-2.1176515,-2.0188844,2.2142944,113.0
17335,6.9556885,-1.3576355,0.793705,-2.1176515,-2.0188844,2.2142944,113.0
17336,6.9556885,-1.3576355,0.793705,-1.7724975,-2.0592408,1.6397461,113.0
17337,7.180397,2.6253204,-0.09529877,-1.7724975,-2.0592408,1.6397461,113.0
17338,7.180397,2.6253204,-0.09529877,-1.453894,-1.9848999,1.4071655,113.0
17339,8.629095,9.927147,-1.4709892,-1.453894,-1.9848999,1.4071655,113.0
17340,8.629095,9.927147,-1.4709892,-0.7657105,-1.7724975,0.8591675,113.0
17341,7.1260414,9.820755,-1.3376427,-0.7657105,-1.7724975,0.8591675,113.0
17342,7.1260414,9.820755,-1.3376427,-0.77739257,-1.7066529,0.7104859,113.0
17343,5.8784695,11.27224,-2.1364098,-0.77739257,-1.7066529,0.7104859,113.0
17344,5.8784695,11.27224,-2.1364098,-1.0620117,-1.5101807,0.5777344,113.0
17345,4.571575,9.777725,-1.68507,-1.0620117,-1.5101807,0.5777344,113.0
17346,4.571575,9.777725,-1.68507,-1.084314,-1.4730103,0.540564,113.0
17347,3.238083,8.641418,-0.7650223,-1.084314,-1.4730103,0.540564,113.0
17348,3.238083,8.641418,-0.7650223,-0.5140137,-1.3381348,0.0180542,113.0
17349,2.4541988,6.8653793,-0.2142868,-0.5140137,-1.3381348,0.0180542,113.0
17350,2.4541988,6.8653793,-0.2142868,-0.23364258,-1.26698,-0.35046387,113.0
17351,2.0612965,5.172226,-0.2596016,-0.23364258,-1.26698,-0.35046387,113.0
17352,2.0612965,5.172226,-0.2596016,0.16142578,-0.7784546,-1.4910644,113.0
17353,1.5960703,3.9394531,-0.42019272,0.16142578,-0.7784546,-1.4910644,113.0
17354,1.5960703,3.9394531,-0.42019272,0.19647217,-0.5894165,-1.7671875,113.0
17355,1.0245247,3.069603,-0.7087021,0.19647217,-0.5894165,-1.7671875,113.0
17356,1.0245247,3.069603,-0.7087021,0.17629395,-0.26019287,-2.175,113.0
17357,0.29289818,1.6404343,-0.3915596,0.17629395,-0.26019287,-2.175,113.0
17358,0.29289818,1.6404343,-0.3915596,0.15611573,0.04141846,-2.6040528,113.0
17359,-0.43805695,-1.6164627,0.5180626,0.15611573,0.04141846,-2.6040528,113.0
17360,-0.43805695,-1.6164627,0.5180626,0.2888672,0.33240968,-3.3283448,113.0
17361,-0.88516235,-7.207321,1.8331528,0.2888672,0.33240968,-3.3283448,113.0
17362,-0.88516235,-7.207321,1.8331528,1.1076783,0.63614506,-4.14397,113.0
17363,-0.85458946,-17.728676,4.6099777,1.1076783,0.63614506,-4.14397,113.0
17364,-0.85458946,-17.728676,4.6099777,3.0458496,0.8857178,-4.591077,113.0
17365,-1.0096235,-18.146759,4.6272507,3.0458496,0.8857178,-4.591077,113.0
17366,-1.0096235,-18.146759,4.6272507,3.3325927,0.9685547,-4.737634,113.0
17367,-5.1773033,-16.279167,4.6517754,3.3325927,0.9685547,-4.737634,113.0
17368,-5.1773033,-16.279167,4.6517754,0.9770508,0.33878174,-4.986145,113.0
17369,-4.9861298,-11.302277,3.5557594,0.9770508,0.33878174,-4.986145,113.0
17370,-4.9861298,-11.302277,3.5557594,-0.04248047,0.32178956,-4.7854247,113.0
17371,-4.1287107,-4.7529144,2.191227,-0.04248047,0.32178956,-4.7854247,113.0
17372,-4.1287107,-4.7529144,2.191227,-0.22939454,0.41949463,-4.1365356,113.0
17373,-2.711855,-0.39622498,1.1241837,-0.22939454,0.41949463,-4.1365356,113.0
17374,-2.711855,-0.39622498,1.1241837,0.22302246,0.3982544,-3.25188,113.0
17375,-1.7075939,2.6578827,-0.31367874,0.22302246,0.3982544,-3.25188,113.0
17376,-1.7075939,2.6578827,-0.31367874,0.1359375,0.48746338,-2.4861696,113.0
17377,-0.9588108,4.763504,-2.07864,0.1359375,0.48746338,-2.4861696,113.0
17378,-0.9588108,4.763504,-2.07864,0.009558106,0.635083,-1.8255981,113.0
17379,-0.9588108,4.763504,-2.07864,0.009558106,0.635083,-1.8255981,0.0
17380,-0.5159378,6.125778,-3.304634,0.009558106,0.635083,-1.8255981,0.0
17381,-0.5159378,6.125778,-3.304634,-0.04460449,0.8506714,-1.174585,0.0
17382,-0.35159302,7.1690674,-3.8714066,-0.04460449,0.8506714,-1.174585,0.0
17383,-0.35159302,7.1690674,-3.8714066,-0.16885987,0.99510497,-0.540564,0.0
17384,-0.4515381,8.056137,-4.23172,-0.16885987,0.99510497,-0.540564,0.0
17385,-0.4515381,8.056137,-4.23172,-0.21452637,0.9420044,0.0031860352,0.0
17386,-0.7950802,8.89286,-4.6431274,-0.21452637,0.9420044,0.0031860352,0.0
17387,-0.7950802,8.89286,-4.6431274,-0.47471926,0.7890747,0.37382814,0.0
17388,-1.145525,9.481819,-5.0263557,-0.47471926,0.7890747,0.37382814,0.0
17389,-1.145525,9.481819,-5.0263557,-0.94731444,0.59897465,0.7582764,0.0
17390,-1.3117809,9.463699,-5.131119,-0.94731444,0.59897465,0.7582764,0.0
17391,-1.3117809,9.463699,-5.131119,-1.2393677,0.48215333,1.449646,0.0
17392,-1.5060291,8.4713745,-4.482643,-1.2393677,0.48215333,1.449646,0.0
17393,-1.5060291,8.4713745,-4.482643,-1.1363525,0.33665773,2.3215578,0.0
17394,-1.9786034,6.791641,-3.2698784,-1.1363525,0.33665773,2.3215578,0.0
17395,-1.9786034,6.791641,-3.2698784,-0.83049315,0.21134034,3.180725,0.0
17396,-2.4669037,4.8167496,-2.4663162,-0.83049315,0.21134034,3.180725,0.0
17397,-2.4669037,4.8167496,-2.4663162,-0.38763428,0.28461915,3.9039552,0.0
17398,-3.1034546,2.7069855,-1.768364,-0.38763428,0.28461915,3.9039552,0.0
17399,-3.1034546,2.7069855,-1.768364,-0.21240234,0.44816896,4.4986815,0.0
17400,-4.088085,-0.64941406,0.2601242,-0.21240234,0.44816896,4.4986815,0.0
17401,-4.088085,-0.64941406,0.2601242,-0.4959595,0.38975832,4.827905,0.0
17402,-5.5512657,-8.220512,4.35511,-0.4959595,0.38975832,4.827905,0.0
17403,-5.5512657,-8.220512,4.35511,-0.87403566,-0.06690674,4.6484256,0.0
17404,-6.983322,-19.103752,8.812336,-0.87403566,-0.06690674,4.6484256,0.0
17405,-6.983322,-19.103752,8.812336,-1.2712281,-0.724292,4.5995727,0.0
17406,-6.330517,-25.681198,10.573673,-1.2712281,-0.724292,4.5995727,0.0
17407,-6.330517,-25.681198,10.573673,-2.5105958,-1.8744507,3.3771973,0.0
17408,-1.835434,-21.519829,8.102638,-2.5105958,-1.8744507,3.3771973,0.0
17409,-1.835434,-21.519829,8.102638,-3.622522,-2.7113159,2.342798,0.0
17410,4.3551025,-9.190727,3.4033127,-3.622522,-2.7113159,2.342798,0.0
17411,4.3551025,-9.190727,3.4033127,-3.2444458,-2.6465333,1.8213501,0.0
17412,8.393116,3.297554,-0.015361786,-3.2444458,-2.6465333,1.8213501,0.0
17413,8.393116,3.297554,-0.015361786,-2.080481,-2.6125488,1.6822265,0.0
17414,9.6174965,10.952911,-1.4970322,-2.080481,-2.6125488,1.6822265,0.0
17415,9.6174965,10.952911,-1.4970322,-0.9802368,-2.4521852,1.5940796,0.0
17416,9.164724,13.653702,-2.2931442,-0.9802368,-2.4521852,1.5940796,0.0
17417,9.164724,13.653702,-2.2931442,-0.6467652,-2.1548219,1.4730103,0.0
17418,7.779459,13.243256,-2.9607964,-0.6467652,-2.1548219,1.4730103,0.0
17419,7.779459,13.243256,-2.9607964,-0.9791748,-1.8702027,1.4007934,0.0
17420,5.953535,11.4590225,-3.0823593,-0.9791748,-1.8702027,1.4007934,0.0
17421,5.953535,11.4590225,-3.0823593,-1.1968873,-1.6365601,1.26167,0.0
17422,4.3081408,9.124992,-2.1064262,-1.1968873,-1.6365601,1.26167,0.0
17423,4.3081408,9.124992,-2.1064262,-0.8772217,-1.4177856,0.74447024,0.0
17424,3.3995523,6.7043915,-0.39867783,-0.8772217,-1.4177856,0.74447024,0.0
17425,3.3995523,6.7043915,-0.39867783,-0.24320069,-1.1905152,-0.10301514,0.0
17426,3.4435186,4.96434,0.5418472,-0.24320069,-1.1905152,-0.10301514,0.0
17427,3.4435186,4.96434,0.5418472,0.28568116,-0.8209351,-0.9505005,0.0
17428,3.6980648,4.0618896,0.28884888,0.28568116,-0.8209351,-0.9505005,0.0
17429,3.6980648,4.0618896,0.28884888,0.4959595,-0.41418457,-1.5908936,0.0
17430,3.1029959,3.5421524,0.13576889,0.4959595,-0.41418457,-1.5908936,0.0
17431,3.1029959,3.5421524,0.13576889,0.3802002,-0.06796875,-2.0199463,0.0
17432,1.3380852,2.4529724,1.0052834,0.3802002,-0.06796875,-2.0199463,0.0
17433,1.3380852,2.4529724,1.0052834,0.46728516,0.2166504,-2.461743,0.0
17434,-0.9598665,-1.2126465,2.2574234,0.46728516,0.2166504,-2.461743,0.0
17435,-0.9598665,-1.2126465,2.2574234,1.0184692,0.5246338,-3.1233766,0.0
17436,-2.4853125,-8.14183,3.3671722,1.0184692,0.5246338,-3.1233766,0.0
17437,-2.4853125,-8.14183,3.3671722,1.8383423,0.7763306,-3.7860718,0.0
17438,-3.0242844,-14.890465,4.49794,1.8383423,0.7763306,-3.7860718,0.0
17439,-3.0242844,-14.890465,4.49794,3.1159425,0.91120607,-3.7425294,0.0
17440,-5.1023254,-17.427689,4.5984,3.1159425,0.91120607,-3.7425294,0.0
17441,-5.1023254,-17.427689,4.5984,2.2907593,1.1501588,-4.234241,0.0
17442,-8.46211,-14.163887,3.2007294,2.2907593,1.1501588,-4.234241,0.0
17443,-8.46211,-14.163887,3.2007294,0.28355715,0.47684327,-3.989978,0.0
17444,-7.899168,-8.002167,1.4987793,0.28355715,0.47684327,-3.989978,0.0
17445,-7.899168,-8.002167,1.4987793,-0.68287355,0.51932377,-3.5003908,0.0
17446,-4.1572247,-3.294754,0.5615845,-0.68287355,0.51932377,-3.5003908,0.0
17447,-4.1572247,-3.294754,0.5615845,-0.38975832,0.7943848,-3.3134766,0.0
17448,-1.8030872,-0.35871124,0.17689133,-0.38975832,0.7943848,-3.3134766,0.0
17449,-1.8030872,-0.35871124,0.17689133,0.38975832,0.8814697,-2.6709595,0.0
17450,-1.3443127,2.0534058,-0.48779678,0.38975832,0.8814697,-2.6709595,0.0
17451,-1.3443127,2.0534058,-0.48779678,0.7306641,0.85598147,-2.1027832,0.0
17452,-1.4144878,4.47052,-1.8499908,0.7306641,0.85598147,-2.1027832,0.0
17453,-1.4144878,4.47052,-1.8499908,0.21452637,0.8400513,-1.5515991,0.0
17454,-1.04636,6.4519577,-3.447071,0.21452637,0.8400513,-1.5515991,0.0
17455,-1.04636,6.4519577,-3.447071,-0.025488282,0.8708496,-1.1682129,0.0
17456,-0.77036476,7.884384,-4.3968163,-0.025488282,0.8708496,-1.1682129,0.0
17457,-0.77036476,7.884384,-4.3968163,-0.27612305,0.71791995,-0.8007569,0.0
17458,-0.9679642,8.974747,-4.7579193,-0.27612305,0.71791995,-0.8007569,0.0
17459,-0.9679642,8.974747,-4.7579193,-0.8952759,0.41737062,-0.5076416,0.0
17460,-1.0741882,9.432541,-5.2289886,-0.8952759,0.41737062,-0.5076416,0.0
17461,-1.0741882,9.432541,-5.2289886,-1.2542359,0.16673584,-0.23682861,0.0
17462,-0.5124397,9.20491,-5.612831,-1.2542359,0.16673584,-0.23682861,0.0
17463,-0.5124397,9.20491,-5.612831,-1.1299804,0.029736329,0.2357666,0.0
17464,0.22289848,8.640762,-5.187481,-1.1299804,0.029736329,0.2357666,0.0
17465,0.22289848,8.640762,-5.187481,-1.1352905,-0.20284425,0.998291,0.0
17466,0.34290695,7.5664062,-4.134262,-1.1352905,-0.20284425,0.998291,0.0
17467,0.34290695,7.5664062,-4.134262,-1.2977784,-0.38869628,1.8192261,0.0
17468,-0.32583237,5.6500244,-3.0255241,-1.2977784,-0.38869628,1.8192261,0.0
17469,-0.32583237,5.6500244,-3.0255241,-1.2807862,-0.4725952,2.5573242,0.0
17470,-1.7634239,2.4741669,-1.6041107,-1.2807862,-0.4725952,2.5573242,0.0
17471,-1.7634239,2.4741669,-1.6041107,-1.09281,-0.6945557,3.1446168,0.0
17472,-3.6007652,-3.4127426,0.9590454,-1.09281,-0.6945557,3.1446168,0.0
17473,-3.6007652,-3.4127426,0.9590454,-1.2213135,-1.1575928,3.43667,0.0
17474,-5.0547695,-13.13195,4.5379143,-1.2213135,-1.1575928,3.43667,0.0
17475,-5.0547695,-13.13195,4.5379143,-1.3413209,-1.5940796,3.434546,0.0
17476,-5.8122597,-22.822708,7.751766,-1.3413209,-1.5940796,3.434546,0.0
17477,-5.8122597,-22.822708,7.751766,-1.5282348,-2.1484497,3.3973756,0.0
17478,-4.6719017,-24.648705,8.9318695,-1.5282348,-2.1484497,3.3973756,0.0
17479,-4.6719017,-24.648705,8.9318695,-3.2327638,-3.2338257,2.4150147,0.0
17480,-0.28395653,-16.936325,6.81028,-3.2327638,-3.2338257,2.4150147,0.0
17481,-0.28395653,-16.936325,6.81028,-3.08833,-3.3092287,1.8808228,0.0
17482,5.0321236,-5.1806335,3.042057,-3.08833,-3.3092287,1.8808228,0.0
17483,5.0321236,-5.1806335,3.042057,-1.9148072,-3.2093995,1.721521,0.0
17484,5.0321236,-5.1806335,3.042057,-1.9148072,-3.2093995,1.721521,0.0
17485,8.364553,5.1911926,0.3824234,-1.9148072,-3.2093995,1.721521,0.0
17486,8.364553,5.1911926,0.3824234,-1.2595459,-2.969385,1.4825684,0.0
17487,9.440372,11.439362,-0.93891144,-1.2595459,-2.969385,1.4825684,0.0
17488,9.440372,11.439362,-0.93891144,-1.178833,-2.7261841,1.442212,0.0
17489,8.711027,13.259186,-1.3569298,-1.178833,-2.7261841,1.442212,0.0
17490,8.711027,13.259186,-1.3569298,-1.5823975,-2.5944946,1.3455689,0.0
17491,6.7969837,11.801857,-0.95137787,-1.5823975,-2.5944946,1.3455689,0.0
17492,6.7969837,11.801857,-0.95137787,-1.7618774,-2.5116577,1.2425537,0.0
17493,4.6042376,9.07856,0.09435272,-1.7618774,-2.5116577,1.2425537,0.0
17494,4.6042376,9.07856,0.09435272,-1.3530029,-2.4574952,0.996167,0.0
17495,2.956253,6.6497116,1.5294876,-1.3530029,-2.4574952,0.996167,0.0
17496,2.956253,6.6497116,1.5294876,-0.6488892,-2.5498903,0.3440918,0.0
17497,2.3019524,5.203499,2.357708,-0.6488892,-2.5498903,0.3440918,0.0
17498,2.3019524,5.203499,2.357708,-0.05628662,-2.4596193,-0.5246338,0.0
17499,2.4088106,4.9723206,2.0968094,-0.05628662,-2.4596193,-0.5246338,0.0
17500,2.4088106,4.9723206,2.0968094,0.2357666,-2.3162477,-1.0545777,0.0
17501,2.345811,5.1190567,1.9090767,0.2357666,-2.3162477,-1.0545777,0.0
17502,2.345811,5.1190567,1.9090767,0.48640138,-2.272705,-1.3657471,0.0
17503,1.9621592,4.3059998,1.9559593,0.48640138,-2.272705,-1.3657471,0.0
17504,1.9621592,4.3059998,1.9559593,0.7455322,-2.1282716,-1.4953126,0.0
17505,1.7341318,1.9156036,1.3837852,0.7455322,-2.1282716,-1.4953126,0.0
17506,1.7341318,1.9156036,1.3837852,0.85598147,-1.7321411,-1.7565674,0.0
17507,1.0737314,-2.7776031,1.1203346,0.85598147,-1.7321411,-1.7565674,0.0
17508,1.0737314,-2.7776031,1.1203346,1.1214844,-1.3105224,-2.446875,0.0
17509,-0.6959219,-10.167213,2.7641754,1.1214844,-1.3105224,-2.446875,0.0
17510,-0.6959219,-10.167213,2.7641754,2.1590698,-1.0152832,-3.1265626,0.0
17511,-2.2724724,-17.046577,5.3756485,2.1590698,-1.0152832,-3.1265626,0.0
17512,-2.2724724,-17.046577,5.3756485,3.355957,-0.5915405,-3.2391357,0.0
17513,-3.8039646,-18.546173,6.29422,3.355957,-0.5915405,-3.2391357,0.0
17514,-3.8039646,-18.546173,6.29422,2.7644165,-0.06796875,-3.63208,0.0
17515,-5.2969074,-13.526199,4.7528687,2.7644165,-0.06796875,-3.63208,0.0
17516,-5.2969074,-13.526199,4.7528687,1.4910644,0.13699952,-3.6671264,0.0
17517,-4.3157845,-6.160202,2.0586548,1.4910644,0.13699952,-3.6671264,0.0
17518,-4.3157845,-6.160202,2.0586548,-0.1263794,0.50020754,-3.5619874,0.0
17519,-2.3651028,-0.57670593,-0.0053863525,-0.1263794,0.50020754,-3.5619874,0.0
17520,-2.3651028,-0.57670593,-0.0053863525,0.16461182,0.9420044,-3.5184448,0.0
17521,-1.7377739,2.9449234,-0.71904373,0.16461182,0.9420044,-3.5184448,0.0
17522,-1.7377739,2.9449234,-0.71904373,0.5363159,1.270166,-3.1000123,0.0
17523,-1.8951759,5.365776,-0.91786194,0.5363159,1.270166,-3.1000123,0.0
17524,-1.8951759,5.365776,-0.91786194,0.7104859,1.4623902,-2.3948364,0.0
17525,-2.2290192,6.950592,-1.6319313,0.7104859,1.4623902,-2.3948364,0.0
17526,-2.2290192,6.950592,-1.6319313,0.5968506,1.6333741,-1.7661256,0.0
17527,-2.4356575,7.7467194,-2.6810455,0.5968506,1.6333741,-1.7661256,0.0
17528,-2.4356575,7.7467194,-2.6810455,0.45029297,1.6864747,-1.2213135,0.0
17529,-2.700676,8.324219,-3.5395393,0.45029297,1.6864747,-1.2213135,0.0
17530,-2.700676,8.324219,-3.5395393,0.18903808,1.5271729,-0.632959,0.0
17531,-3.0514336,9.130905,-4.348587,0.18903808,1.5271729,-0.632959,0.0
17532,-3.0514336,9.130905,-4.348587,0.011682129,1.2510499,-0.06796875,0.0
17533,-3.278513,9.925362,-5.0656395,0.011682129,1.2510499,-0.06796875,0.0
17534,-3.278513,9.925362,-5.0656395,-0.20496826,0.8591675,0.45666504,0.0
17535,-3.1709785,10.2801285,-5.1989975,-0.20496826,0.8591675,0.45666504,0.0
17536,-3.1709785,10.2801285,-5.1989975,-0.32816163,0.31966552,1.1395386,0.0
17537,-2.5262604,10.119827,-4.937603,-0.32816163,0.31966552,1.1395386,0.0
17538,-2.5262604,10.119827,-4.937603,-0.57454836,-0.19647217,2.1962402,0.0
17539,-1.727026,9.159836,-4.7449646,-0.57454836,-0.19647217,2.1962402,0.0
17540,-1.727026,9.159836,-4.7449646,-0.93775636,-0.53950197,3.4504762,0.0
17541,-1.5882607,6.7982025,-4.1559715,-0.93775636,-0.53950197,3.4504762,0.0
17542,-1.5882607,6.7982025,-4.1559715,-1.1501588,-0.69349366,4.4678836,0.0
17543,-2.3691196,3.3880157,-2.2030754,-1.1501588,-0.69349366,4.4678836,0.0
17544,-2.3691196,3.3880157,-2.2030754,-1.4007934,-0.75721437,5.347229,0.0
17545,-3.8002644,-1.9756622,1.238636,-1.4007934,-0.75721437,5.347229,0.0
17546,-3.8002644,-1.9756622,1.238636,-1.8818848,-1.080066,5.993994,0.0
17547,-5.659046,-12.958702,4.858902,-1.8818848,-1.080066,5.993994,0.0
17548,-5.659046,-12.958702,4.858902,-2.0634887,-1.0577637,5.703003,0.0
17549,-7.2591343,-26.9114,8.279945,-2.0634887,-1.0577637,5.703003,0.0
17550,-7.2591343,-26.9114,8.279945,-2.076233,-1.3147706,5.150757,0.0
17551,-5.7085648,-32.98654,10.597126,-2.076233,-1.3147706,5.150757,0.0
17552,-5.7085648,-32.98654,10.597126,-3.3697631,-2.4245727,3.3294067,0.0
17553,0.75352097,-24.560509,8.77301,-3.3697631,-2.4245727,3.3294067,0.0
17554,0.75352097,-24.560509,8.77301,-2.9088502,-2.6560915,2.4298828,0.0
17555,8.192173,-7.693779,4.158531,-2.9088502,-2.6560915,2.4298828,0.0
17556,8.192173,-7.693779,4.158531,-2.1834962,-2.5488281,2.2865112,0.0
17557,12.322952,6.506111,0.56827927,-2.1834962,-2.5488281,2.2865112,0.0
17558,12.322952,6.506111,0.56827927,-1.7565674,-2.3417358,2.1495118,0.0
17559,12.984119,13.3385315,-1.1249771,-1.7565674,-2.3417358,2.1495118,0.0
17560,12.984119,13.3385315,-1.1249771,-1.6057618,-2.272705,2.167566,0.0
17561,11.860378,14.368195,-1.537899,-1.6057618,-2.272705,2.167566,0.0
17562,11.860378,14.368195,-1.537899,-1.725769,-2.1537597,2.0284424,0.0
17563,10.110739,12.37516,-1.2436485,-1.725769,-2.1537597,2.0284424,0.0
17564,10.110739,12.37516,-1.2436485,-1.7523193,-2.0072021,1.7268311,0.0
17565,8.053594,9.589806,-0.5421486,-1.7523193,-2.0072021,1.7268311,0.0
17566,8.053594,9.589806,-0.5421486,-1.3222046,-1.8914429,1.3668091,0.0
17567,6.083585,7.254059,0.36307144,-1.3222046,-1.8914429,1.3668091,0.0
17568,6.083585,7.254059,0.36307144,-0.7168579,-1.7863038,0.70092773,0.0
17569,4.717515,5.616333,1.2157135,-0.7168579,-1.7863038,0.70092773,0.0
17570,4.717515,5.616333,1.2157135,-0.020178223,-1.6142578,-0.24532472,0.0
17571,3.9822273,4.919945,1.5701408,-0.020178223,-1.6142578,-0.24532472,0.0
17572,3.9822273,4.919945,1.5701408,0.7880127,-1.2988404,-1.0152832,0.0
17573,3.3656893,4.9415207,1.0537453,0.7880127,-1.2988404,-1.0152832,0.0
17574,3.3656893,4.9415207,1.0537453,1.4103516,-0.8506714,-1.630188,0.0
17575,2.5980568,4.9548645,0.077064514,1.4103516,-0.8506714,-1.630188,0.0
17576,2.5980568,4.9548645,0.077064514,1.722583,-0.3802002,-2.081543,0.0
17577,1.5727205,4.41378,-0.60100937,1.722583,-0.3802002,-2.081543,0.0
17578,1.5727205,4.41378,-0.60100937,1.7640015,0.18266602,-2.5552003,0.0
17579,0.2421732,2.7445297,-0.7010956,1.7640015,0.18266602,-2.5552003,0.0
17580,0.2421732,2.7445297,-0.7010956,1.9902099,0.8071289,-3.070276,0.0
17581,-1.4275994,-0.5134735,0.6914673,1.9902099,0.8071289,-3.070276,0.0
17582,-1.4275994,-0.5134735,0.6914673,2.3735962,1.0651978,-3.4281738,0.0
17583,-3.1609516,-6.446129,3.4402237,2.3735962,1.0651978,-3.4281738,0.0
17584,-3.1609516,-6.446129,3.4402237,3.068152,1.1915772,-3.5375612,0.0
17585,-3.1609516,-6.446129,3.4402237,3.068152,1.1915772,-3.5375612,0.0
17586,-4.047987,-13.8285675,5.2681923,3.068152,1.1915772,-3.5375612,0.0
17587,-4.047987,-13.8285675,5.2681923,4.8406496,1.2298096,-3.5683594,0.0
17588,-4.982189,-18.498085,5.197891,4.8406496,1.2298096,-3.5683594,0.0
17589,-4.982189,-18.498085,5.197891,4.460449,0.6690674,-3.4823365,0.0
17590,-7.985141,-16.246094,4.019409,4.460449,0.6690674,-3.4823365,0.0
17591,-7.985141,-16.246094,4.019409,2.272705,-0.1985962,-3.9443116,0.0
17592,-9.041092,-8.227562,2.1564827,2.272705,-0.1985962,-3.9443116,0.0
17593,-9.041092,-8.227562,2.1564827,-0.23258057,-0.80819094,-3.8349245,0.0
17594,-5.940283,-0.7035675,-0.0074310303,-0.23258057,-0.80819094,-3.8349245,0.0
17595,-5.940283,-0.7035675,-0.0074310303,-0.81031495,-0.46834716,-3.6087158,0.0
17596,-3.1254082,3.9872437,-1.1763077,-0.81031495,-0.46834716,-3.6087158,0.0
17597,-3.1254082,3.9872437,-1.1763077,-0.5692383,-0.21240234,-3.0288575,0.0
17598,-2.2250576,6.794243,-1.523323,-0.5692383,-0.21240234,-3.0288575,0.0
17599,-2.2250576,6.794243,-1.523323,-0.53525394,0.0031860352,-2.3672242,0.0
17600,-1.9062424,8.488541,-2.3264465,-0.53525394,0.0031860352,-2.3672242,0.0
17601,-1.9062424,8.488541,-2.3264465,-0.6956177,0.24744873,-1.6641724,0.0
17602,-1.3791561,9.543861,-3.4825325,-0.6956177,0.24744873,-1.6641724,0.0
17603,-1.3791561,9.543861,-3.4825325,-1.0651978,0.49383545,-0.9122681,0.0
17604,-0.9186077,9.992607,-4.240982,-1.0651978,0.49383545,-0.9122681,0.0
17605,-0.9186077,9.992607,-4.240982,-1.4995606,0.6796875,-0.20603028,0.0
17606,-0.8693714,9.664642,-4.421936,-1.4995606,0.6796875,-0.20603028,0.0
17607,-0.8693714,9.664642,-4.421936,-1.5823975,0.71791995,0.4343628,0.0
17608,-1.2032986,8.687706,-4.26128,-1.5823975,0.71791995,0.4343628,0.0
17609,-1.2032986,8.687706,-4.26128,-1.4039795,0.72854006,0.90908206,0.0
17610,-1.7819748,7.4085007,-3.8744545,-1.4039795,0.72854006,0.90908206,0.0
17611,-1.7819748,7.4085007,-3.8744545,-1.1363525,0.5979126,1.2967163,0.0
17612,-2.2200146,6.3990555,-3.298977,-1.1363525,0.5979126,1.2967163,0.0
17613,-2.2200146,6.3990555,-3.298977,-0.8612915,0.2782471,1.7947998,0.0
17614,-2.181858,5.634308,-2.9329681,-0.8612915,0.2782471,1.7947998,0.0
17615,-2.181858,5.634308,-2.9329681,-0.72641605,0.029736329,2.444751,0.0
17616,-2.0060349,4.4534836,-3.2292023,-0.72641605,0.029736329,2.444751,0.0
17617,-2.0060349,4.4534836,-3.2292023,-0.74871826,-0.11469727,3.1424928,0.0
17618,-1.9910583,2.6420135,-3.4506454,-0.74871826,-0.11469727,3.1424928,0.0
17619,-1.9910583,2.6420135,-3.4506454,-0.71579593,-0.10301514,3.8614748,0.0
17620,-2.4935665,-0.35705566,-1.5569153,-0.71579593,-0.10301514,3.8614748,0.0
17621,-2.4935665,-0.35705566,-1.5569153,-0.8464233,-0.31116945,4.055823,0.0
17622,-3.3902874,-5.9711304,2.3962288,-0.8464233,-0.31116945,4.055823,0.0
17623,-3.3902874,-5.9711304,2.3962288,-0.6786255,-0.75721437,3.9517457,0.0
17624,-3.9323483,-13.6239395,5.6292267,-0.6786255,-0.75721437,3.9517457,0.0
17625,-3.9323483,-13.6239395,5.6292267,-0.45772704,-0.8581055,3.9804199,0.0
17626,-4.009197,-20.214523,6.8274765,-0.45772704,-0.8581055,3.9804199,0.0
17627,-4.009197,-20.214523,6.8274765,-0.9154541,-1.1660889,4.2087526,0.0
17628,-2.5828094,-21.604042,6.6519356,-0.9154541,-1.1660889,4.2087526,0.0
17629,-2.5828094,-21.604042,6.6519356,-2.0624268,-2.1728761,3.361267,0.0
17630,1.7881584,-16.241913,5.130581,-2.0624268,-2.1728761,3.361267,0.0
17631,1.7881584,-16.241913,5.130581,-2.3725343,-2.3927124,2.8238893,0.0
17632,7.0566025,-7.696495,2.7201881,-2.3725343,-2.3927124,2.8238893,0.0
17633,7.0566025,-7.696495,2.7201881,-1.7852417,-2.3300538,2.5785644,0.0
17634,10.111212,-0.013008118,0.6606369,-1.7852417,-2.3300538,2.5785644,0.0
17635,10.111212,-0.013008118,0.6606369,-1.171399,-2.1548219,2.182434,0.0
17636,10.698454,5.382538,-0.6144943,-1.171399,-2.1548219,2.182434,0.0
17637,10.698454,5.382538,-0.6144943,-0.8336792,-2.0486207,1.9456055,0.0
17638,9.904198,8.595596,-1.3220177,-0.8336792,-2.0486207,1.9456055,0.0
17639,9.904198,8.595596,-1.3220177,-0.813501,-1.9317993,1.7512573,0.0
17640,8.659393,9.692032,-1.6517296,-0.813501,-1.9317993,1.7512573,0.0
17641,8.659393,9.692032,-1.6517296,-0.8846558,-1.8139161,1.5802735,0.0
17642,7.3270636,9.297806,-1.3945274,-0.8846558,-1.8139161,1.5802735,0.0
17643,7.3270636,9.297806,-1.3945274,-0.6701294,-1.7013428,1.4007934,0.0
17644,6.1443787,8.494591,-0.62025833,-0.6701294,-1.7013428,1.4007934,0.0
17645,6.1443787,8.494591,-0.62025833,-0.21240234,-1.6641724,1.0014771,0.0
17646,5.5444098,7.787361,-0.025939941,-0.21240234,-1.6641724,1.0014771,0.0
17647,5.5444098,7.787361,-0.025939941,0.37382814,-1.5749635,0.35789797,0.0
17648,5.5237727,7.194626,-0.029846191,0.37382814,-1.5749635,0.35789797,0.0
17649,5.5237727,7.194626,-0.029846191,0.8623535,-1.364685,-0.35152587,0.0
17650,5.7045894,6.510826,-0.22956848,0.8623535,-1.364685,-0.35152587,0.0
17651,5.7045894,6.510826,-0.22956848,1.7406372,-1.081128,-0.96643066,0.0
17652,5.650244,5.7292633,-0.20172119,1.7406372,-1.081128,-0.96643066,0.0
17653,5.650244,5.7292633,-0.20172119,2.8345094,-0.8485474,-1.4921265,0.0
17654,4.656865,5.183243,-0.1467781,2.8345094,-0.8485474,-1.4921265,0.0
17655,4.656865,5.183243,-0.1467781,3.1308105,-0.5894165,-1.8744507,0.0
17656,2.301298,3.9940338,-0.07205963,3.1308105,-0.5894165,-1.8744507,0.0
17657,2.301298,3.9940338,-0.07205963,2.5721924,-0.3419678,-2.3916504,0.0
17658,-0.5635514,0.72657776,0.65532684,2.5721924,-0.3419678,-2.3916504,0.0
17659,-0.5635514,0.72657776,0.65532684,2.2514648,-0.4598511,-3.25188,0.0
17660,-2.2975698,-4.970787,2.504818,2.2514648,-0.4598511,-3.25188,0.0
17661,-2.2975698,-4.970787,2.504818,2.1272094,-0.11257324,-3.5025146,0.0
17662,-3.1009097,-11.267937,4.9069443,2.1272094,-0.11257324,-3.5025146,0.0
17663,-3.1009097,-11.267937,4.9069443,3.1255004,0.07646485,-3.812622,0.0
17664,-4.3174953,-15.367821,5.906929,3.1255004,0.07646485,-3.812622,0.0
17665,-4.3174953,-15.367821,5.906929,3.6108398,0.1539917,-4.1599,0.0
17666,-6.6961718,-14.440666,4.8855515,3.6108398,0.1539917,-4.1599,0.0
17667,-6.6961718,-14.440666,4.8855515,2.345984,-0.14230958,-4.6547976,0.0
17668,-8.02548,-9.199753,3.3347244,2.345984,-0.14230958,-4.6547976,0.0
17669,-8.02548,-9.199753,3.3347244,0.05628662,-0.3462158,-4.6048827,0.0
17670,-6.7679186,-4.1507645,1.7445755,0.05628662,-0.3462158,-4.6048827,0.0
17671,-6.7679186,-4.1507645,1.7445755,-0.6085327,0.05628662,-4.501868,0.0
17672,-5.5327063,-0.46404266,0.08054733,-0.6085327,0.05628662,-4.501868,0.0
17673,-5.5327063,-0.46404266,0.08054733,-0.724292,0.39294434,-4.2119384,0.0
17674,-5.36043,3.0897217,-1.5042992,-0.724292,0.39294434,-4.2119384,0.0
17675,-5.36043,3.0897217,-1.5042992,-1.2340577,0.61702883,-3.6915529,0.0
17676,-4.886635,6.0616684,-2.9698334,-1.2340577,0.61702883,-3.6915529,0.0
17677,-4.886635,6.0616684,-2.9698334,-1.6131958,0.95793456,-3.0044312,0.0
17678,-4.055073,7.624115,-4.099804,-1.6131958,0.95793456,-3.0044312,0.0
17679,-4.055073,7.624115,-4.099804,-1.7385132,1.2563599,-2.3820922,0.0
17680,-3.4816551,8.20076,-4.599457,-1.7385132,1.2563599,-2.3820922,0.0
17681,-3.4816551,8.20076,-4.599457,-1.9594116,1.4156617,-1.7289551,0.0
17682,-3.1785374,8.47422,-4.7649918,-1.9594116,1.4156617,-1.7289551,0.0
17683,-3.1785374,8.47422,-4.7649918,-1.8956909,1.4188477,-1.0917481,0.0
17684,-3.0426464,8.655441,-5.153923,-1.8956909,1.4188477,-1.0917481,0.0
17685,-3.0426464,8.655441,-5.153923,-1.8011719,1.3774292,-0.49277344,0.0
17686,-3.0679436,8.754089,-5.767441,-1.8011719,1.3774292,-0.49277344,0.0
17687,-3.0679436,8.754089,-5.767441,-1.8712647,1.3083985,0.08602295,0.0
17688,-3.1083717,8.349953,-5.928711,-1.8712647,1.3083985,0.08602295,0.0
17689,-3.1083717,8.349953,-5.928711,-1.9179932,1.2075074,0.77739257,0.0
17690,-2.9353294,7.120476,-5.2070312,-1.9179932,1.2075074,0.77739257,0.0
17691,-2.9353294,7.120476,-5.2070312,-1.6493043,0.96643066,1.635498,0.0
17692,-2.531124,5.3335724,-4.0423813,-1.6493043,0.96643066,1.635498,0.0
17693,-2.531124,5.3335724,-4.0423813,-1.538855,0.7338501,2.6507814,0.0
17694,-2.1042938,3.1801987,-2.8046417,-1.538855,0.7338501,2.6507814,0.0
17695,-2.1042938,3.1801987,-2.8046417,-1.2797241,0.5671143,3.62677,0.0
17696,-2.012928,0.35511017,-1.0424461,-1.2797241,0.5671143,3.62677,0.0
17697,-2.012928,0.35511017,-1.0424461,-0.6202149,0.3791382,4.3776126,0.0
17698,-2.4996357,-4.6732635,1.9750137,-0.6202149,0.3791382,4.3776126,0.0
17699,-2.4996357,-4.6732635,1.9750137,-0.36320803,0.16673584,4.4901857,0.0
17700,-3.427761,-13.433777,6.4441833,-0.36320803,0.16673584,4.4901857,0.0
17701,-3.427761,-13.433777,6.4441833,-0.6860596,-0.2177124,4.1832643,0.0
17702,-4.302084,-22.633972,10.816269,-0.6860596,-0.2177124,4.1832643,0.0
17703,-4.302084,-22.633972,10.816269,-1.3370727,-1.1023682,3.538623,0.0
17704,-2.9996376,-25.34407,11.655224,-1.3370727,-1.1023682,3.538623,0.0
17705,-2.9996376,-25.34407,11.655224,-1.8213501,-2.0995972,2.803711,0.0
17706,1.4544888,-18.707062,7.7181244,-1.8213501,-2.0995972,2.803711,0.0
17707,1.4544888,-18.707062,7.7181244,-2.0985353,-2.4776733,2.2981935,0.0
17708,6.43532,-7.008774,2.3755264,-2.0985353,-2.4776733,2.2981935,0.0
17709,6.43532,-7.008774,2.3755264,-2.0645509,-2.447937,2.1006591,0.0
17710,9.459108,3.1250992,-1.0663643,-2.0645509,-2.447937,2.1006591,0.0
17711,9.459108,3.1250992,-1.0663643,-1.6036377,-2.4139526,2.0603027,0.0
17712,10.505325,8.734871,-2.4413261,-1.6036377,-2.4139526,2.0603027,0.0
17713,10.505325,8.734871,-2.4413261,-1.0004151,-2.2121704,2.0167603,0.0
17714,10.240967,10.660889,-3.0318336,-1.0004151,-2.2121704,2.0167603,0.0
17715,10.240967,10.660889,-3.0318336,-0.7104859,-1.8648926,1.9764038,0.0
17716,8.8981695,10.349258,-3.383728,-0.7104859,-1.8648926,1.9764038,0.0
17717,8.8981695,10.349258,-3.383728,-0.7051758,-1.5664673,1.9084351,0.0
17718,7.1195974,9.0722275,-3.182312,-0.7051758,-1.5664673,1.9084351,0.0
17719,7.1195974,9.0722275,-3.182312,-0.4439209,-1.3774292,1.7661256,0.0
17720,5.7073727,7.8469315,-2.2028694,-0.4439209,-1.3774292,1.7661256,0.0
17721,5.7073727,7.8469315,-2.2028694,0.022302246,-1.26698,1.269104,0.0
17722,5.1348076,6.785431,-1.0539932,0.022302246,-1.26698,1.269104,0.0
17723,5.1348076,6.785431,-1.0539932,0.5363159,-1.0790039,0.44604492,0.0
17724,5.328061,5.946884,-0.57736206,0.5363159,-1.0790039,0.44604492,0.0
17725,5.328061,5.946884,-0.57736206,0.9420044,-0.77526855,-0.23789063,0.0
17726,5.837608,5.4123917,-0.684742,0.9420044,-0.77526855,-0.23789063,0.0
17727,5.837608,5.4123917,-0.684742,1.178833,-0.47578126,-0.88996583,0.0
17728,5.991107,4.8885193,-0.7639313,1.178833,-0.47578126,-0.88996583,0.0
17729,5.991107,4.8885193,-0.7639313,1.1374146,-0.08814698,-1.5038086,0.0
17730,4.906057,3.4835815,-0.7108269,1.1374146,-0.08814698,-1.5038086,0.0
17731,4.906057,3.4835815,-0.7108269,1.1597168,0.26125488,-2.2875733,0.0
17732,2.3939984,0.088027954,-0.41331482,1.1597168,0.26125488,-2.2875733,0.0
17733,2.3939984,0.088027954,-0.41331482,1.3168945,0.5703003,-3.449414,0.0
17734,-0.3661976,-4.710739,0.88114166,1.3168945,0.5703003,-3.449414,0.0
17735,-0.3661976,-4.710739,0.88114166,2.4957275,0.6903076,-4.2830935,0.0
17736,-1.4325457,-9.886017,3.4198418,2.4957275,0.6903076,-4.2830935,0.0
17737,-1.4325457,-9.886017,3.4198418,2.4489992,0.74659425,-4.460449,0.0
17738,-1.9834633,-15.448914,5.7286835,2.4489992,0.74659425,-4.460449,0.0
17739,-1.9834633,-15.448914,5.7286835,3.7701416,0.9409424,-5.0318117,0.0
17740,-5.610086,-17.963402,6.3883057,3.7701416,0.9409424,-5.0318117,0.0
17741,-5.610086,-17.963402,6.3883057,4.1195436,0.6287109,-5.5352054,0.0
17742,-9.159809,-13.124359,4.759594,4.1195436,0.6287109,-5.5352054,0.0
17743,-9.159809,-13.124359,4.759594,0.68499756,-0.07115479,-4.866138,0.0
17744,-9.159809,-13.124359,4.759594,0.68499756,-0.07115479,-4.866138,163.0
17745,-8.903824,-5.5871735,1.6523743,0.68499756,-0.07115479,-4.866138,163.0
17746,-8.903824,-5.5871735,1.6523743,-0.68924564,0.10938721,-4.702588,163.0
17747,-6.7526855,-0.7824707,-0.7704849,-0.68924564,0.10938721,-4.702588,163.0
17748,-6.7526855,-0.7824707,-0.7704849,-0.20390625,0.44710693,-4.12804,163.0
17749,-5.180835,2.3752213,-1.8697662,-0.20390625,0.44710693,-4.12804,163.0
17750,-5.180835,2.3752213,-1.8697662,-0.12000733,0.52250975,-3.3347168,163.0
17751,-4.649685,5.100769,-2.8277473,-0.12000733,0.52250975,-3.3347168,163.0
17752,-4.649685,5.100769,-2.8277473,-0.362146,0.6531372,-2.6688354,163.0
17753,-4.2717257,7.3621063,-4.3327065,-0.362146,0.6531372,-2.6688354,163.0
17754,-4.2717257,7.3621063,-4.3327065,-0.8336792,0.82730716,-1.9902099,163.0
17755,-3.9802094,9.047493,-5.6654053,-0.8336792,0.82730716,-1.9902099,163.0
17756,-3.9802094,9.047493,-5.6654053,-1.3986695,1.0237793,-1.2850342,163.0
17757,-3.9262333,9.760574,-6.08844,-1.3986695,1.0237793,-1.2850342,163.0
17758,-3.9262333,9.760574,-6.08844,-1.5781494,1.084314,-0.57454836,163.0
17759,-3.9959793,9.63826,-5.609192,-1.5781494,1.084314,-0.57454836,163.0
17760,-3.9959793,9.63826,-5.609192,-1.5239868,0.9568726,0.107263185,163.0
17761,-3.9407043,9.237427,-4.8230934,-1.5239868,0.9568726,0.107263185,163.0
17762,-3.9407043,9.237427,-4.8230934,-1.544165,0.81031495,0.6945557,163.0
17763,-3.8861446,8.732101,-4.0176315,-1.544165,0.81031495,0.6945557,163.0
17764,-3.8861446,8.732101,-4.0176315,-1.6652344,0.6637573,1.3795532,163.0
17765,-3.6495533,7.8692245,-3.340683,-1.6652344,0.6637573,1.3795532,163.0
17766,-3.6495533,7.8692245,-3.340683,-1.5908936,0.38444826,2.1930542,163.0
17767,-2.9276505,6.4423447,-2.9081535,-1.5908936,0.38444826,2.1930542,163.0
17768,-2.9276505,6.4423447,-2.9081535,-1.6493043,0.18585205,3.0331056,163.0
17769,-2.0985165,4.622246,-2.50914,-1.6493043,0.18585205,3.0331056,163.0
17770,-2.0985165,4.622246,-2.50914,-1.6981567,0.0021240234,3.8848388,163.0
17771,-1.6821709,2.0831833,-1.7118301,-1.6981567,0.0021240234,3.8848388,163.0
17772,-1.6821709,2.0831833,-1.7118301,-1.5919555,0.010620117,4.5666504,163.0
17773,-1.9456635,-2.5182343,0.648262,-1.5919555,0.010620117,4.5666504,163.0
17774,-1.9456635,-2.5182343,0.648262,-1.2436157,-0.26656494,4.6048827,163.0
17775,-2.3104477,-10.417236,4.634529,-1.2436157,-0.26656494,4.6048827,163.0
17776,-2.3104477,-10.417236,4.634529,-1.2000732,-0.7455322,4.2278686,163.0
17777,-1.6601257,-19.249344,7.8572426,-1.2000732,-0.7455322,4.2278686,163.0
17778,-1.6601257,-19.249344,7.8572426,-0.67331547,-1.0036011,4.2087526,163.0
17779,-0.043725967,-23.574623,9.041275,-0.67331547,-1.0036011,4.2087526,163.0
17780,-0.043725967,-23.574623,9.041275,-1.3784913,-1.358313,3.3697631,163.0
17781,2.4083176,-20.701622,8.150696,-1.3784913,-1.358313,3.3697631,163.0
17782,2.4083176,-20.701622,8.150696,-2.1102173,-1.9562256,2.3204956,163.0
17783,5.7357483,-12.669586,5.358433,-2.1102173,-1.9562256,2.3204956,163.0
17784,5.7357483,-12.669586,5.358433,-1.7077149,-2.0879152,1.8861328,163.0
17785,8.247925,-3.4190445,2.175724,-1.7077149,-2.0879152,1.8861328,163.0
17786,8.247925,-3.4190445,2.175724,-1.0280274,-2.0422485,1.4995606,163.0
17787,8.780066,4.2743454,-0.28212738,-1.0280274,-2.0422485,1.4995606,163.0
17788,8.780066,4.2743454,-0.28212738,-0.6839356,-1.9944581,1.2839721,163.0
17789,8.12431,9.129784,-1.7060852,-0.6839356,-1.9944581,1.2839721,163.0
17790,8.12431,9.129784,-1.7060852,-0.61278075,-1.9084351,1.178833,163.0
17791,7.1158056,10.981041,-2.2547607,-0.61278075,-1.9084351,1.178833,163.0
17792,7.1158056,10.981041,-2.2547607,-0.7720825,-1.7905518,1.1331666,163.0
17793,6.038788,10.5913315,-2.3337784,-0.7720825,-1.7905518,1.1331666,163.0
17794,6.038788,10.5913315,-2.3337784,-0.84111327,-1.6535523,1.0970582,163.0
17795,5.053858,9.327667,-2.1480026,-0.84111327,-1.6535523,1.0970582,163.0
17796,5.053858,9.327667,-2.1480026,-0.68712157,-1.5473511,0.96218264,163.0
17797,4.476362,8.310463,-1.6738243,-0.68712157,-1.5473511,0.96218264,163.0
17798,4.476362,8.310463,-1.6738243,-0.46728516,-1.4761963,0.5915405,163.0
17799,4.773058,7.5110016,-1.0522919,-0.46728516,-1.4761963,0.5915405,163.0
17800,4.773058,7.5110016,-1.0522919,-0.10407715,-1.2892822,-0.06584473,163.0
17801,5.821816,6.470436,-0.43089294,-0.10407715,-1.2892822,-0.06584473,163.0
17802,5.821816,6.470436,-0.43089294,0.43861085,-0.8358032,-0.71791995,163.0
17803,6.674384,5.4235916,0.03923416,0.43861085,-0.8358032,-0.71791995,163.0
17804,6.674384,5.4235916,0.03923416,0.9834229,-0.32922363,-1.3413209,163.0
17805,6.422247,4.6978836,-0.06928253,0.9834229,-0.32922363,-1.3413209,163.0
17806,6.422247,4.6978836,-0.06928253,1.1267945,0.2177124,-1.9116211,163.0
17807,4.5611253,3.5864563,-0.63048553,1.1267945,0.2177124,-1.9116211,163.0
17808,4.5611253,3.5864563,-0.63048553,1.0248413,0.7604004,-2.5477662,163.0
17809,1.4908924,0.46907043,-0.5970268,1.0248413,0.7604004,-2.5477662,163.0
17810,1.4908924,0.46907043,-0.5970268,1.364685,1.2117554,-3.341089,163.0
17811,-1.4487655,-5.3061295,0.76958084,1.364685,1.2117554,-3.341089,163.0
17812,-1.4487655,-5.3061295,0.76958084,2.1994264,1.3625611,-4.3287597,163.0
17813,-2.6904945,-11.175728,3.298584,2.1994264,1.3625611,-4.3287597,163.0
17814,-2.6904945,-11.175728,3.298584,3.1977174,1.1544068,-4.4700074,163.0
17815,-2.0654573,-15.819542,5.7034683,3.1977174,1.1544068,-4.4700074,163.0
17816,-2.0654573,-15.819542,5.7034683,3.2699342,0.96643066,-4.704712,163.0
17817,-3.7375708,-17.151932,6.0624313,3.2699342,0.96643066,-4.704712,163.0
17818,-3.7375708,-17.151932,6.0624313,1.717273,0.6265869,-5.500159,163.0
17819,-7.110564,-12.870743,3.9711494,1.717273,0.6265869,-5.500159,163.0
17820,-7.110564,-12.870743,3.9711494,0.31966552,0.2177124,-4.963843,163.0
17821,-7.4569693,-6.7970963,1.3032112,0.31966552,0.2177124,-4.963843,163.0
17822,-7.4569693,-6.7970963,1.3032112,0.1178833,0.34833986,-4.5708985,163.0
17823,-6.2934685,-1.5489426,-0.18565369,0.1178833,0.34833986,-4.5708985,163.0
17824,-6.2934685,-1.5489426,-0.18565369,0.3812622,0.40250245,-3.8296144,163.0
17825,-5.6756315,2.9074554,-0.9952736,0.3812622,0.40250245,-3.8296144,163.0
17826,-5.6756315,2.9074554,-0.9952736,0.20496826,0.3993164,-2.9672608,163.0
17827,-5.053958,6.154297,-2.300785,0.20496826,0.3993164,-2.9672608,163.0
17828,-5.053958,6.154297,-2.300785,-0.07752686,0.541626,-2.1495118,163.0
17829,-4.2291403,6.5160217,-2.9522858,-0.07752686,0.541626,-2.1495118,163.0
17830,-4.2291403,6.5160217,-2.9522858,-0.2347046,0.6616333,-1.7501954,163.0
17831,-3.8867178,9.967613,-6.101589,-0.2347046,0.6616333,-1.7501954,163.0
17832,-3.8867178,9.967613,-6.101589,-0.9133301,1.1087402,-0.5936646,163.0
17833,-3.675476,9.342842,-6.07143,-0.9133301,1.1087402,-0.5936646,163.0
17834,-3.675476,9.342842,-6.07143,-1.2404298,1.2436157,-0.26125488,163.0
17835,-5.0003414,10.905876,-6.8113556,-1.2404298,1.2436157,-0.26125488,163.0
17836,-5.0003414,10.905876,-6.8113556,-2.1282716,1.2818482,0.5851685,163.0
17837,-4.6166306,9.288834,-5.8475723,-2.1282716,1.2818482,0.5851685,163.0
17838,-4.6166306,9.288834,-5.8475723,-2.2482789,1.2977784,0.8931519,163.0
17839,-4.7701836,8.338219,-5.2859917,-2.2482789,1.2977784,0.8931519,163.0
17840,-4.7701836,8.338219,-5.2859917,-2.090039,1.3200806,1.9987061,163.0
17841,-4.7701836,8.338219,-5.2859917,-2.090039,1.3200806,1.9987061,162.0
17842,-4.0490093,6.9476013,-4.3997307,-2.090039,1.3200806,1.9987061,162.0
17843,-4.0490093,6.9476013,-4.3997307,-1.9424194,1.2829102,2.4766114,162.0
17844,-3.258482,5.692421,-3.3686752,-1.9424194,1.2829102,2.4766114,162.0
17845,-3.258482,5.692421,-3.3686752,-1.9509156,1.2160034,3.7531495,162.0
17846,-2.6320915,4.5065002,-2.6598053,-1.9509156,1.2160034,3.7531495,162.0
17847,-2.6320915,4.5065002,-2.6598053,-1.9519776,1.2106934,4.1237917,162.0
17848,-3.4038181,0.3375244,-1.1641006,-1.9519776,1.2106934,4.1237917,162.0
17849,-3.4038181,0.3375244,-1.1641006,-1.270166,1.2563599,4.8693237,162.0
17850,-3.5095787,-2.0093155,0.03744507,-1.270166,1.2563599,4.8693237,162.0
17851,-3.5095787,-2.0093155,0.03744507,-1.1607789,1.2064453,4.85658,162.0
17852,-6.054037,-16.73536,5.8503914,-1.1607789,1.2064453,4.85658,162.0
17853,-6.054037,-16.73536,5.8503914,-1.0174073,0.7317261,4.727014,162.0
17854,-5.614483,-19.591095,7.158329,-1.0174073,0.7317261,4.727014,162.0
17855,-5.614483,-19.591095,7.158329,-1.0280274,0.4959595,4.5740848,162.0
17856,-3.8219948,-26.206459,11.251759,-1.0280274,0.4959595,4.5740848,162.0
17857,-3.8219948,-26.206459,11.251759,-2.721936,-1.5919555,2.7686646,162.0
17858,-0.7990017,-19.635971,9.262665,-2.721936,-1.5919555,2.7686646,162.0
17859,-0.7990017,-19.635971,9.262665,-3.1191285,-1.9753418,2.4829834,162.0
17860,7.871773,-4.385948,2.9016838,-3.1191285,-1.9753418,2.4829834,162.0
17861,7.871773,-4.385948,2.9016838,-2.6210449,-2.1463258,2.270581,162.0
17862,8.848566,0.21011353,0.86867523,-2.6210449,-2.1463258,2.270581,162.0
17863,8.848566,0.21011353,0.86867523,-2.2875733,-2.1866822,2.2291627,162.0
17864,10.299019,5.934326,-1.583931,-2.2875733,-2.1866822,2.2291627,162.0
17865,10.299019,5.934326,-1.583931,-1.5728394,-2.1813722,1.989148,162.0
17866,10.366131,8.590111,-2.251667,-1.5728394,-2.1813722,1.989148,162.0
17867,10.366131,8.590111,-2.251667,-1.1629028,-2.0326905,1.6928467,162.0
17868,9.827108,9.375206,-2.1038857,-1.1629028,-2.0326905,1.6928467,162.0
17869,9.827108,9.375206,-2.1038857,-1.0036011,-1.8510865,1.3243287,162.0
17870,8.705656,9.053772,-1.7521896,-1.0036011,-1.8510865,1.3243287,162.0
17871,8.705656,9.053772,-1.7521896,-0.86978763,-1.7024049,1.1236085,162.0
17872,7.193528,8.4846115,-1.1893234,-0.86978763,-1.7024049,1.1236085,162.0
17873,7.193528,8.4846115,-1.1893234,-0.62764895,-1.6121339,0.5256958,162.0
17874,6.024708,6.982315,-0.5937195,-0.62764895,-1.6121339,0.5256958,162.0
17875,6.024708,6.982315,-0.5937195,-0.40037844,-1.629126,0.23682861,162.0
17876,5.6177645,6.0390854,0.16907883,-0.40037844,-1.629126,0.23682861,162.0
17877,5.6177645,6.0390854,0.16907883,0.10301514,-1.4868164,-0.33240968,162.0
17878,5.9582014,5.435898,0.116744995,0.10301514,-1.4868164,-0.33240968,162.0
17879,5.9582014,5.435898,0.116744995,0.46516114,-1.1480347,-0.8878418,162.0
17880,6.9986415,5.254616,-1.1744385,0.46516114,-1.1480347,-0.8878418,162.0
17881,6.9986415,5.254616,-1.1744385,1.0067872,-0.39506838,-1.7098389,162.0
17882,5.8249755,4.2777405,-1.2678108,1.0067872,-0.39506838,-1.7098389,162.0
17883,5.8249755,4.2777405,-1.2678108,1.0726318,-0.14549561,-2.0305665,162.0
17884,4.0827713,2.6863556,-0.8851013,1.0726318,-0.14549561,-2.0305665,162.0
17885,4.0827713,2.6863556,-0.8851013,1.0577637,0.23682861,-2.879114,162.0
17886,1.0435972,-0.033187866,0.14984131,1.0577637,0.23682861,-2.879114,162.0
17887,1.0435972,-0.033187866,0.14984131,1.1650269,0.49277344,-3.79563,162.0
17888,-1.8940406,-3.5691376,1.280407,1.1650269,0.49277344,-3.79563,162.0
17889,-1.8940406,-3.5691376,1.280407,1.5781494,0.60959476,-4.6558595,162.0
17890,-3.1930766,-8.382729,3.077633,1.5781494,0.60959476,-4.6558595,162.0
17891,-3.1930766,-8.382729,3.077633,2.2185426,0.58623046,-5.1358886,162.0
17892,-2.6168756,-14.484909,5.7658386,2.2185426,0.58623046,-5.1358886,162.0
17893,-2.6168756,-14.484909,5.7658386,3.361267,0.51188964,-5.1879272,162.0
17894,-3.5645332,-19.310135,7.7165527,3.361267,0.51188964,-5.1879272,162.0
17895,-3.5645332,-19.310135,7.7165527,2.819641,0.1731079,-6.0832033,162.0
17896,-6.865885,-18.516708,6.8274307,2.819641,0.1731079,-6.0832033,162.0
17897,-6.865885,-18.516708,6.8274307,1.1140503,-0.51082766,-6.1798463,162.0
17898,-8.446407,-12.074066,3.1076202,1.1140503,-0.51082766,-6.1798463,162.0
17899,-8.446407,-12.074066,3.1076202,-0.50233155,-0.31435546,-5.9865603,162.0
17900,-7.7863007,-0.8074341,-1.8973846,-0.50233155,-0.31435546,-5.9865603,162.0
17901,-7.7863007,-0.8074341,-1.8973846,-0.03717041,0.22089843,-4.6452394,162.0
17902,-6.428625,2.2370224,-2.4690933,-0.03717041,0.22089843,-4.6452394,162.0
17903,-6.428625,2.2370224,-2.4690933,0.047790527,0.38551027,-4.0855594,162.0
17904,-5.3887253,7.7003784,-3.627365,0.047790527,0.38551027,-4.0855594,162.0
17905,-5.3887253,7.7003784,-3.627365,0.039294433,0.6064087,-3.0012453,162.0
17906,-4.5159855,11.211403,-5.0000496,0.039294433,0.6064087,-3.0012453,162.0
17907,-4.5159855,11.211403,-5.0000496,-0.35046387,0.86553955,-1.8617066,162.0
17908,-3.7085285,12.899864,-6.3789215,-0.35046387,0.86553955,-1.8617066,162.0
17909,-3.7085285,12.899864,-6.3789215,-0.94412845,1.3020264,-0.8315552,162.0
17910,-3.2249413,12.7530365,-6.9310684,-0.94412845,1.3020264,-0.8315552,162.0
17911,-3.2249413,12.7530365,-6.9310684,-1.265918,1.5664673,0.20921631,162.0
17912,-3.2163906,11.245888,-6.243805,-1.265918,1.5664673,0.20921631,162.0
17913,-3.2163906,11.245888,-6.243805,-1.350879,1.6025757,1.083252,162.0
17914,-3.566204,9.238045,-4.878296,-1.350879,1.6025757,1.083252,162.0
17915,-3.566204,9.238045,-4.878296,-1.4262818,1.4708862,1.7969239,162.0
17916,-3.7339458,7.4290314,-3.7113647,-1.4262818,1.4708862,1.7969239,162.0
17917,-3.7339458,7.4290314,-3.7113647,-1.5101807,1.269104,2.444751,162.0
17918,-3.7339458,7.4290314,-3.7113647,-1.5919555,1.0726318,2.981067,162.0
17919,-3.2985077,5.7253265,-3.0307007,-1.5919555,1.0726318,2.981067,162.0
17920,-2.8800163,2.0827026,-2.0116959,-1.5919555,1.0726318,2.981067,162.0
17921,-2.8800163,2.0827026,-2.0116959,-1.4581422,0.99935305,3.516321,162.0
17922,-2.8800163,2.0827026,-2.0116959,-1.1480347,0.90270996,4.077063,162.0
17923,-2.8800163,2.0827026,-2.0116959,-0.8092529,0.814563,4.434961,162.0
17924,-2.3040123,1.6661606,-1.6093559,-0.8092529,0.814563,4.434961,162.0
17925,-6.476963,-16.473152,6.7815704,-0.8092529,0.814563,4.434961,162.0
17926,-6.476963,-16.473152,6.7815704,-0.6202149,0.53525394,4.450891,162.0
17927,-6.476963,-16.473152,6.7815704,-0.8772217,0.10620117,4.3234496,162.0
17928,-6.476963,-16.473152,6.7815704,-0.97492677,-0.4598511,4.354248,162.0
17929,-5.029007,-22.522392,8.0867195,-0.97492677,-0.4598511,4.354248,162.0
17930,-5.029007,-22.522392,8.0867195,-1.7724975,-1.0418335,3.7796998,162.0
17931,-1.4824333,-22.277435,7.9083405,-1.7724975,-1.0418335,3.7796998,162.0
17932,-1.4824333,-22.277435,7.9083405,-2.6497192,-2.1388917,2.988501,162.0
17933,3.7974396,-15.081657,5.486252,-2.6497192,-2.1388917,2.988501,162.0
17934,3.7974396,-15.081657,5.486252,-2.4288208,-2.2387207,2.347046,162.0
17935,8.366846,-5.404022,2.120716,-2.4288208,-2.2387207,2.347046,162.0
17936,8.366846,-5.404022,2.120716,-1.7278931,-2.2907593,2.095349,162.0
17937,10.438423,3.0123596,-0.33632278,-1.7278931,-2.2907593,2.095349,162.0
17938,10.438423,3.0123596,-0.33632278,-1.0906861,-2.1272094,1.6949707,162.0
17939,10.5320015,8.690857,-1.5572929,-1.0906861,-2.1272094,1.6949707,162.0
17940,10.5320015,8.690857,-1.5572929,-1.0906861,-2.1272094,1.6949707,162.0
17941,10.5320015,8.690857,-1.5572929,-1.0598878,-1.9615357,1.4740723,162.0
17942,9.765958,11.130608,-2.0640717,-1.0598878,-1.9615357,1.4740723,162.0
17943,9.765958,11.130608,-2.0640717,-1.2521118,-1.7278931,1.2181275,162.0
17944,8.590684,10.844284,-2.1381493,-1.2521118,-1.7278931,1.2181275,162.0
17945,8.590684,10.844284,-2.1381493,-1.264856,-1.4889405,1.0089111,162.0
17946,7.0383425,9.538528,-1.7363396,-1.264856,-1.4889405,1.0089111,162.0
17947,7.0383425,9.538528,-1.7363396,-0.9430664,-1.3391968,0.8007569,162.0
17948,5.55958,8.516418,-0.9268875,-0.9430664,-1.3391968,0.8007569,162.0
17949,5.55958,8.516418,-0.9268875,-0.51932377,-1.2797241,0.41206056,162.0
17950,4.837508,7.5773926,-0.046966553,-0.51932377,-1.2797241,0.41206056,162.0
17951,4.837508,7.5773926,-0.046966553,-0.33028564,-1.0991821,-0.11257324,162.0
17952,4.837508,7.5773926,-0.046966553,0.0637207,-0.86553955,-0.6786255,162.0
17953,4.9257317,6.3582,0.5883179,0.0637207,-0.86553955,-0.6786255,162.0
17954,5.4206395,4.956131,1.733242,0.0637207,-0.86553955,-0.6786255,162.0
17955,5.4206395,4.956131,1.733242,0.5384399,-0.5809204,-1.171399,162.0
17956,5.4206395,4.956131,1.733242,1.2319336,-0.16992188,-1.5632813,162.0
17957,5.4206395,4.956131,1.733242,0.9345703,0.19753419,-2.2397828,162.0
17958,4.336512,3.9649048,1.3865929,0.9345703,0.19753419,-2.2397828,162.0
17959,-1.1885414,-6.9697723,0.7302475,0.9345703,0.19753419,-2.2397828,162.0
17960,-1.1885414,-6.9697723,0.7302475,0.991919,0.57454836,-3.1594849,162.0
17961,-1.1885414,-6.9697723,0.7302475,1.6811646,0.9239502,-3.6766846,162.0
17962,-1.1885414,-6.9697723,0.7302475,2.4224489,1.2128174,-3.902893,162.0
17963,-1.2182279,-13.839081,2.4573517,2.4224489,1.2128174,-3.902893,162.0
17964,-1.2182279,-13.839081,2.4573517,3.4982667,1.5484132,-3.9283814,162.0
17965,-3.807517,-19.411827,4.580139,3.4982667,1.5484132,-3.9283814,162.0
17966,-3.807517,-19.411827,4.580139,3.1053224,1.6588624,-5.0434937,162.0
17967,-8.737701,-18.054916,4.414318,3.1053224,1.6588624,-5.0434937,162.0
17968,-8.737701,-18.054916,4.414318,1.906311,0.9494385,-5.070044,162.0
17969,-9.848938,-10.39296,2.0108871,1.906311,0.9494385,-5.070044,162.0
17970,-9.848938,-10.39296,2.0108871,0.631897,1.0662597,-4.9436646,162.0
17971,-7.3117924,-2.6711655,-0.29209518,0.631897,1.0662597,-4.9436646,162.0
17972,-7.3117924,-2.6711655,-0.29209518,0.43754885,1.1915772,-4.398853,162.0
17973,-5.6708937,2.203476,-1.3186607,0.43754885,1.1915772,-4.398853,162.0
17974,-5.6708937,2.203476,-1.3186607,1.083252,1.0089111,-3.6915529,162.0
17975,-5.08702,5.268036,-1.8371658,1.083252,1.0089111,-3.6915529,162.0
17976,-5.08702,5.268036,-1.8371658,0.9228882,0.72216797,-2.9715087,162.0
17977,-4.025097,7.4768906,-3.0064392,0.9228882,0.72216797,-2.9715087,162.0
17978,-4.025097,7.4768906,-3.0064392,0.4248047,0.5979126,-2.3725343,162.0
17979,-2.7588348,9.071617,-4.563965,0.4248047,0.5979126,-2.3725343,162.0
17980,-2.7588348,9.071617,-4.563965,-0.25594482,0.65632325,-1.7512573,162.0
17981,-2.2382698,10.160416,-5.610096,-0.25594482,0.65632325,-1.7512573,162.0
17982,-2.2382698,10.160416,-5.610096,-0.83686525,0.635083,-1.1299804,162.0
17983,-2.6073265,10.636375,-5.9246254,-0.83686525,0.635083,-1.1299804,162.0
17984,-2.6073265,10.636375,-5.9246254,-1.2510499,0.57561034,-0.55968016,162.0
17985,-3.3680992,10.424675,-5.795841,-1.2510499,0.57561034,-0.55968016,162.0
17986,-3.3680992,10.424675,-5.795841,-1.6811646,0.45560303,-0.059472658,162.0
17987,-3.848423,9.662651,-5.3442154,-1.6811646,0.45560303,-0.059472658,162.0
17988,-3.848423,9.662651,-5.3442154,-1.9774659,0.42692873,0.52888185,162.0
17989,-3.4711933,8.525833,-4.5067596,-1.9774659,0.42692873,0.52888185,162.0
17990,-3.4711933,8.525833,-4.5067596,-1.9307374,0.4694092,1.3381348,162.0
17991,-2.4688625,6.9821167,-3.4078522,-1.9307374,0.4694092,1.3381348,162.0
17992,-2.4688625,6.9821167,-3.4078522,-1.6036377,0.51188964,2.2769532,162.0
17993,-1.726677,5.1707764,-2.426529,-1.6036377,0.51188964,2.2769532,162.0
17994,-1.726677,5.1707764,-2.426529,-1.3731812,0.541626,3.243384,162.0
17995,-1.8262138,2.8619843,-1.5008087,-1.3731812,0.541626,3.243384,162.0
17996,-1.8262138,2.8619843,-1.5008087,-1.2075074,0.59047854,4.0122805,162.0
17997,-2.7949905,-1.3352127,0.29158783,-1.2075074,0.59047854,4.0122805,162.0
17998,-2.7949905,-1.3352127,0.29158783,-1.263794,0.452417,4.3574343,162.0
17999,-4.216095,-9.528923,3.5201454,-1.263794,0.452417,4.3574343,162.0
18000,-4.216095,-9.528923,3.5201454,-1.5537232,-0.0010620117,4.1917605,162.0
18001,-5.1343155,-20.393303,7.3834267,-1.5537232,-0.0010620117,4.1917605,162.0
18002,-5.1343155,-20.393303,7.3834267,-1.4156617,-0.5607422,4.420093,162.0
18003,-4.3743725,-27.161728,10.424591,-1.4156617,-0.5607422,4.420093,162.0
18004,-4.3743725,-27.161728,10.424591,-2.2291627,-1.6843506,3.4472902,162.0
18005,-0.37719536,-24.118027,9.833145,-2.2291627,-1.6843506,3.4472902,162.0
18006,-0.37719536,-24.118027,9.833145,-3.6745605,-2.7442384,2.5732543,162.0
18007,5.643898,-13.555191,5.29237,-3.6745605,-2.7442384,2.5732543,162.0
18008,5.643898,-13.555191,5.29237,-2.8769898,-2.5902467,2.0486207,162.0
18009,10.169292,-2.1276245,1.2109833,-2.8769898,-2.5902467,2.0486207,162.0
18010,10.169292,-2.1276245,1.2109833,-2.1049073,-2.5870607,1.9487915,162.0
18011,11.786789,6.1243668,-0.5378189,-2.1049073,-2.5870607,1.9487915,162.0
18012,11.786789,6.1243668,-0.5378189,-1.3848633,-2.3746583,1.6854126,162.0
18013,11.215881,10.488411,-1.1571579,-1.3848633,-2.3746583,1.6854126,162.0
18014,11.215881,10.488411,-1.1571579,-0.90058595,-2.2068603,1.5208008,162.0
18015,9.676196,11.9253235,-1.5217972,-0.90058595,-2.2068603,1.5208008,162.0
18016,9.676196,11.9253235,-1.5217972,-0.81881106,-2.0560548,1.4252198,162.0
18017,7.9973774,11.42421,-1.6668167,-0.81881106,-2.0560548,1.4252198,162.0
18018,7.9973774,11.42421,-1.6668167,-0.9759888,-1.8946289,1.2372437,162.0
18019,6.7467422,10.007645,-1.3638763,-0.9759888,-1.8946289,1.2372437,162.0
18020,6.7467422,10.007645,-1.3638763,-0.8729736,-1.7682495,0.905896,162.0
18021,6.148163,8.524345,-0.6135254,-0.8729736,-1.7682495,0.905896,162.0
18022,6.148163,8.524345,-0.6135254,-0.3982544,-1.5898316,0.4067505,162.0
18023,5.8817377,7.1112747,0.17453384,-0.3982544,-1.5898316,0.4067505,162.0
18024,5.8817377,7.1112747,0.17453384,0.39188233,-1.2393677,-0.16354981,162.0
18025,5.694685,5.919533,0.2942047,0.39188233,-1.2393677,-0.16354981,162.0
18026,5.694685,5.919533,0.2942047,1.0779419,-0.7954468,-0.63614506,162.0
18027,5.5981793,5.124748,-0.46887207,1.0779419,-0.7954468,-0.63614506,162.0
18028,5.5981793,5.124748,-0.46887207,1.447522,-0.21346436,-1.1310425,162.0
18029,5.5981793,5.124748,-0.46887207,1.357251,0.41206056,-1.7077149,162.0
18030,4.9975986,4.3633347,-1.352745,1.357251,0.41206056,-1.7077149,162.0
18031,1.0183916,0.063690186,-1.3291931,1.357251,0.41206056,-1.7077149,162.0
18032,1.0183916,0.063690186,-1.3291931,1.1342286,0.9781128,-2.3682861,162.0
18033,1.0183916,0.063690186,-1.3291931,1.4804443,1.3391968,-3.1562989,162.0
18034,-1.2955651,-4.8526154,0.40561676,1.4804443,1.3391968,-3.1562989,162.0
18035,-1.2955651,-4.8526154,0.40561676,2.356604,1.44646,-3.8391724,162.0
18036,-1.8655901,-10.3153,2.7012863,2.356604,1.44646,-3.8391724,162.0
18037,-1.8655901,-10.3153,2.7012863,3.1913452,1.356189,-3.9697998,162.0
18038,-1.8655901,-10.3153,2.7012863,3.1913452,1.356189,-3.9697998,161.0
18039,-1.9035807,-15.961075,4.210663,3.1913452,1.356189,-3.9697998,161.0
18040,-1.9035807,-15.961075,4.210663,3.63208,1.5239868,-4.167334,161.0
18041,-4.7561655,-18.343613,4.2344627,3.63208,1.5239868,-4.167334,161.0
18042,-4.7561655,-18.343613,4.2344627,2.5095336,1.2021973,-4.8310914,161.0
18043,-8.645534,-14.750534,3.1762657,2.5095336,1.2021973,-4.8310914,161.0
18044,-8.645534,-14.750534,3.1762657,1.1522827,0.7423462,-4.821533,161.0
18045,-8.97264,-8.44603,1.5560379,1.1522827,0.7423462,-4.821533,161.0
18046,-8.97264,-8.44603,1.5560379,0.53525394,0.7168579,-4.5804567,161.0
18047,-7.149316,-2.2329254,0.030036926,0.53525394,0.7168579,-4.5804567,161.0
18048,-7.149316,-2.2329254,0.030036926,0.47790527,0.7391602,-3.987854,161.0
18049,-5.968733,2.9819412,-1.2563057,0.47790527,0.7391602,-3.987854,161.0
18050,-5.968733,2.9819412,-1.2563057,0.14549561,0.6680054,-3.3102906,161.0
18051,-5.3583965,6.8283234,-2.879692,0.14549561,0.6680054,-3.3102906,161.0
18052,-5.3583965,6.8283234,-2.879692,-0.2177124,0.79332274,-2.633789,161.0
18053,-4.6887207,9.2885895,-4.6235924,-0.2177124,0.79332274,-2.633789,161.0
18054,-4.6887207,9.2885895,-4.6235924,-0.37595215,1.0163453,-1.9434814,161.0
18055,-4.1054573,10.453201,-5.478428,-0.37595215,1.0163453,-1.9434814,161.0
18056,-4.1054573,10.453201,-5.478428,-0.5543701,1.1575928,-1.3731812,161.0
18057,-4.0578766,10.736481,-5.243168,-0.5543701,1.1575928,-1.3731812,161.0
18058,-4.0578766,10.736481,-5.243168,-0.6265869,1.1076783,-0.7986328,161.0
18059,-4.3876705,10.746811,-4.81089,-0.6265869,1.1076783,-0.7986328,161.0
18060,-4.3876705,10.746811,-4.81089,-0.901648,0.8241211,-0.20178223,161.0
18061,-4.370159,10.554161,-4.8204765,-0.901648,0.8241211,-0.20178223,161.0
18062,-4.370159,10.554161,-4.8204765,-1.2754761,0.6414551,0.38763428,161.0
18063,-3.5973606,9.82122,-4.810238,-1.2754761,0.6414551,0.38763428,161.0
18064,-3.5973606,9.82122,-4.810238,-1.4103516,0.4959595,1.1575928,161.0
18065,-2.3203201,8.428864,-4.2801857,-1.4103516,0.4959595,1.1575928,161.0
18066,-2.3203201,8.428864,-4.2801857,-1.6843506,0.4067505,2.1080933,161.0
18067,-1.310894,6.407089,-3.4769173,-1.6843506,0.4067505,2.1080933,161.0
18068,-1.310894,6.407089,-3.4769173,-2.0061402,0.33984375,3.0299194,161.0
18069,-0.95274353,3.9449463,-2.6690445,-2.0061402,0.33984375,3.0299194,161.0
18070,-0.95274353,3.9449463,-2.6690445,-1.893567,0.36108398,3.8253663,161.0
18071,-1.3070679,0.8306503,-1.1321335,-1.893567,0.36108398,3.8253663,161.0
18072,-1.3070679,0.8306503,-1.1321335,-1.6333741,0.41206056,4.324512,161.0
18073,-2.300743,-4.7141876,1.9893265,-1.6333741,0.41206056,4.324512,161.0
18074,-2.300743,-4.7141876,1.9893265,-1.4613281,0.14974366,4.516736,161.0
18075,-3.119049,-13.328751,5.669964,-1.4613281,0.14974366,4.516736,161.0
18076,-3.119049,-13.328751,5.669964,-1.269104,-0.15611573,4.5379763,161.0
18077,-2.958973,-21.914108,9.011215,-1.269104,-0.15611573,4.5379763,161.0
18078,-2.958973,-21.914108,9.011215,-1.4857544,-0.65844727,4.077063,161.0
18079,-1.1147861,-25.060326,10.801731,-1.4857544,-0.65844727,4.077063,161.0
18080,-1.1147861,-25.060326,10.801731,-2.0826051,-1.7937378,2.803711,161.0
18081,2.8102837,-19.688019,8.786125,-2.0826051,-1.7937378,2.803711,161.0
18082,2.8102837,-19.688019,8.786125,-1.6386842,-2.3173096,2.3980224,161.0
18083,6.5249367,-9.138336,4.325836,-1.6386842,-2.3173096,2.3980224,161.0
18084,6.5249367,-9.138336,4.325836,-1.531421,-2.526526,1.9806519,161.0
18085,8.000114,1.037674,0.61938477,-1.531421,-2.526526,1.9806519,161.0
18086,8.000114,1.037674,0.61938477,-1.3009644,-2.6380372,1.718335,161.0
18087,8.13802,7.95726,-1.2890282,-1.3009644,-2.6380372,1.718335,161.0
18088,8.13802,7.95726,-1.2890282,-0.98129886,-2.712378,1.7289551,161.0
18089,8.1664715,11.184509,-2.111168,-0.98129886,-2.712378,1.7289551,161.0
18090,8.1664715,11.184509,-2.111168,-0.7805786,-2.6008668,1.6737305,161.0
18091,8.16909,11.630615,-2.6365662,-0.7805786,-2.6008668,1.6737305,161.0
18092,8.16909,11.630615,-2.6365662,-0.6966797,-2.3714721,1.7363892,161.0
18093,7.698016,10.776474,-2.7731323,-0.6966797,-2.3714721,1.7363892,161.0
18094,7.698016,10.776474,-2.7731323,-0.91120607,-2.1420777,1.7640015,161.0
18095,7.093252,9.540588,-2.309105,-0.91120607,-2.1420777,1.7640015,161.0
18096,7.093252,9.540588,-2.309105,-0.7168579,-1.9041871,1.539917,161.0
18097,7.5071945,8.061935,-1.4840012,-0.7168579,-1.9041871,1.539917,161.0
18098,7.5071945,8.061935,-1.4840012,-0.41949463,-1.5006226,0.905896,161.0
18099,9.01817,6.248543,-0.7779503,-0.41949463,-1.5006226,0.905896,161.0
18100,9.01817,6.248543,-0.7779503,0.16036378,-0.8251831,0.07115479,161.0
18101,9.01817,6.248543,-0.7779503,0.87615967,-0.14655761,-0.9451904,161.0
18102,9.640024,4.4234695,-0.30547714,0.87615967,-0.14655761,-0.9451904,161.0
18103,2.5181842,1.4680862,-0.2371788,0.87615967,-0.14655761,-0.9451904,161.0
18104,2.5181842,1.4680862,-0.2371788,1.6917847,0.51932377,-1.8606446,161.0
18105,2.5181842,1.4680862,-0.2371788,1.3360108,0.9897949,-2.704944,161.0
18106,2.5181842,1.4680862,-0.2371788,2.1888063,1.7703736,-3.7892578,161.0
18107,-1.3191442,-2.0473557,0.5360031,2.1888063,1.7703736,-3.7892578,161.0
18108,-1.3191442,-2.0473557,0.5360031,1.5101807,1.2584839,-4.2119384,161.0
18109,-3.0660458,-6.5593796,2.3173637,1.5101807,1.2584839,-4.2119384,161.0
18110,-3.0660458,-6.5593796,2.3173637,2.4723632,1.5537232,-4.715332,161.0
18111,-3.4009566,-12.835968,4.578308,2.4723632,1.5537232,-4.715332,161.0
18112,-3.4009566,-12.835968,4.578308,3.719165,1.5165528,-4.347876,161.0
18113,-4.731678,-17.336288,5.9818954,3.719165,1.5165528,-4.347876,161.0
18114,-4.731678,-17.336288,5.9818954,3.2816162,1.2117554,-5.515027,161.0
18115,-7.3042393,-15.663467,5.2936707,3.2816162,1.2117554,-5.515027,161.0
18116,-7.3042393,-15.663467,5.2936707,1.6822265,0.47578126,-5.4661746,161.0
18117,-7.7855062,-9.078041,2.8757172,1.6822265,0.47578126,-5.4661746,161.0
18118,-7.7855062,-9.078041,2.8757172,0.10407715,0.3154175,-5.2983766,161.0
18119,-6.593322,-2.4093933,0.40753174,0.10407715,0.3154175,-5.2983766,161.0
18120,-6.593322,-2.4093933,0.40753174,-0.33240968,0.22408448,-4.527356,161.0
18121,-5.6187124,2.6448822,-1.199379,-0.33240968,0.22408448,-4.527356,161.0
18122,-5.6187124,2.6448822,-1.199379,-0.51188964,0.18797608,-3.6363282,161.0
18123,-4.9787836,6.006218,-2.4731903,-0.51188964,0.18797608,-3.6363282,161.0
18124,-4.9787836,6.006218,-2.4731903,-0.9515625,0.20496826,-2.809021,161.0
18125,-4.184601,8.02877,-3.8911362,-0.9515625,0.20496826,-2.809021,161.0
18126,-4.184601,8.02877,-3.8911362,-1.2064453,0.43861085,-2.081543,161.0
18127,-3.3699837,9.324799,-5.106758,-1.2064453,0.43861085,-2.081543,161.0
18128,-3.3699837,9.324799,-5.106758,-1.5133667,0.7476563,-1.363623,161.0
18129,-3.3699837,9.324799,-5.106758,-1.5133667,0.7476563,-1.363623,160.0
18130,-3.0913124,10.014389,-5.596245,-1.5133667,0.7476563,-1.363623,160.0
18131,-3.0913124,10.014389,-5.596245,-1.6917847,0.90270996,-0.7041138,160.0
18132,-3.2846718,9.959328,-5.2863693,-1.6917847,0.90270996,-0.7041138,160.0
18133,-3.2846718,9.959328,-5.2863693,-1.4984986,0.8878418,-0.1083252,160.0
18134,-3.4436073,9.452568,-4.756878,-1.4984986,0.8878418,-0.1083252,160.0
18135,-3.4436073,9.452568,-4.756878,-1.4528321,0.8251831,0.39506838,160.0
18136,-3.1370506,8.809494,-4.406307,-1.4528321,0.8251831,0.39506838,160.0
18137,-3.1370506,8.809494,-4.406307,-1.6089478,0.76358646,1.0821899,160.0
18138,-2.3861408,7.8284683,-3.9448586,-1.6089478,0.76358646,1.0821899,160.0
18139,-2.3861408,7.8284683,-3.9448586,-1.6100098,0.632959,1.9625977,160.0
18140,-1.7565575,6.116951,-3.1396904,-1.6100098,0.632959,1.9625977,160.0
18141,-1.7565575,6.116951,-3.1396904,-1.3243287,0.5278198,2.8631837,160.0
18142,-1.704586,3.8805847,-2.2111435,-1.3243287,0.5278198,2.8631837,160.0
18143,-1.704586,3.8805847,-2.2111435,-0.8931519,0.49489745,3.541809,160.0
18144,-2.2902927,1.1741333,-0.9621773,-0.8931519,0.49489745,3.541809,160.0
18145,-2.2902927,1.1741333,-0.9621773,-0.31435546,0.5246338,3.9347534,160.0
18146,-3.3197212,-3.305458,1.4152336,-0.31435546,0.5246338,3.9347534,160.0
18147,-3.3197212,-3.305458,1.4152336,-0.058410645,0.2177124,3.9804199,160.0
18148,-4.1907387,-10.940033,4.6693573,-0.058410645,0.2177124,3.9804199,160.0
18149,-4.1907387,-10.940033,4.6693573,-0.06690674,-0.2824951,4.1142335,160.0
18150,-4.0263824,-19.927979,7.585739,-0.06690674,-0.2824951,4.1142335,160.0
18151,-4.0263824,-19.927979,7.585739,-0.1529297,-0.53100586,4.3733644,160.0
18152,-2.50807,-24.19011,9.235081,-0.1529297,-0.53100586,4.3733644,160.0
18153,-2.50807,-24.19011,9.235081,-1.8181641,-1.7406372,3.4271119,160.0
18154,1.4364147,-19.825226,7.570709,-1.8181641,-1.7406372,3.4271119,160.0
18155,1.4364147,-19.825226,7.570709,-2.8249512,-2.345984,2.618921,160.0
18156,6.8148804,-10.112427,3.057495,-2.8249512,-2.345984,2.618921,160.0
18157,6.8148804,-10.112427,3.057495,-2.2302246,-2.269519,2.3651001,160.0
18158,10.157312,-0.466774,-0.60754395,-2.2302246,-2.269519,2.3651001,160.0
18159,10.157312,-0.466774,-0.60754395,-1.8585205,-1.9179932,1.9519776,160.0
18160,10.696016,6.259796,-1.9421768,-1.8585205,-1.9179932,1.9519776,160.0
18161,10.696016,6.259796,-1.9421768,-1.270166,-1.8351563,1.9392334,160.0
18162,9.561026,9.665482,-1.8867989,-1.270166,-1.8351563,1.9392334,160.0
18163,9.561026,9.665482,-1.8867989,-1.260608,-1.63125,1.6609863,160.0
18164,7.8667526,10.417824,-1.6978455,-1.260608,-1.63125,1.6609863,160.0
18165,7.8667526,10.417824,-1.6978455,-1.2128174,-1.532483,1.4921265,160.0
18166,6.2704163,9.956406,-1.46941,-1.2128174,-1.532483,1.4921265,160.0
18167,6.2704163,9.956406,-1.46941,-0.90802,-1.447522,1.3466309,160.0
18168,5.029895,9.55835,-0.95825195,-0.90802,-1.447522,1.3466309,160.0
18169,5.029895,9.55835,-0.95825195,-0.4258667,-1.4857544,1.1522827,160.0
18170,4.4523954,9.22673,-0.63427734,-0.4258667,-1.4857544,1.1522827,160.0
18171,4.4523954,9.22673,-0.63427734,-0.0541626,-1.3774292,0.77739257,160.0
18172,4.4967422,8.430038,-0.6470566,-0.0541626,-1.3774292,0.77739257,160.0
18173,4.4967422,8.430038,-0.6470566,0.36533204,-1.0715698,0.3462158,160.0
18174,4.7375307,7.244583,-0.3351593,0.36533204,-1.0715698,0.3462158,160.0
18175,4.7375307,7.244583,-0.3351593,1.171399,-0.72641605,-0.07434082,160.0
18176,4.7375307,7.244583,-0.3351593,2.1388917,-0.37807617,-0.49277344,160.0
18177,5.246177,5.9705734,0.4199562,2.1388917,-0.37807617,-0.49277344,160.0
18178,3.5255184,2.0723572,-0.5310631,2.1388917,-0.37807617,-0.49277344,160.0
18179,3.5255184,2.0723572,-0.5310631,2.7824707,0.06265869,-1.080066,160.0
18180,3.5255184,2.0723572,-0.5310631,2.18031,0.4428589,-1.9636596,160.0
18181,3.5255184,2.0723572,-0.5310631,1.6885986,0.8591675,-2.4946656,160.0
18182,1.1376996,-4.518173,0.43020248,1.6885986,0.8591675,-2.4946656,160.0
18183,1.1376996,-4.518173,0.43020248,2.3396118,0.87615967,-3.2826784,160.0
18184,-0.022128105,-13.538963,4.307308,2.3396118,0.87615967,-3.2826784,160.0
18185,-0.022128105,-13.538963,4.307308,3.43136,0.67331547,-3.7425294,160.0
18186,-2.1299095,-19.75135,8.210556,3.43136,0.67331547,-3.7425294,160.0
18187,-2.1299095,-19.75135,8.210556,3.5088868,0.33028564,-4.5740848,160.0
18188,-6.2254972,-19.002487,7.8928947,3.5088868,0.33028564,-4.5740848,160.0
18189,-6.2254972,-19.002487,7.8928947,1.7969239,-0.44498292,-5.3780274,160.0
18190,-8.30242,-12.452103,3.900814,1.7969239,-0.44498292,-5.3780274,160.0
18191,-8.30242,-12.452103,3.900814,0.53737795,-0.5883545,-5.4831667,160.0
18192,-7.4061575,-5.1017075,0.27906036,0.53737795,-0.5883545,-5.4831667,160.0
18193,-7.4061575,-5.1017075,0.27906036,0.032922365,-0.48215333,-5.1985474,160.0
18194,-6.453698,0.78466034,-1.5199127,0.032922365,-0.48215333,-5.1985474,160.0
18195,-6.453698,0.78466034,-1.5199127,-0.13912354,-0.36639404,-4.629309,160.0
18196,-6.1509466,5.3804398,-2.4627304,-0.13912354,-0.36639404,-4.629309,160.0
18197,-6.1509466,5.3804398,-2.4627304,-0.4991455,-0.26656494,-3.8328004,160.0
18198,-5.512066,8.623886,-3.6192322,-0.4991455,-0.26656494,-3.8328004,160.0
18199,-5.512066,8.623886,-3.6192322,-0.98236084,-0.1083252,-3.0660279,160.0
18200,-4.375204,10.333298,-5.190941,-0.98236084,-0.1083252,-3.0660279,160.0
18201,-4.375204,10.333298,-5.190941,-1.2234375,0.2357666,-2.3300538,160.0
18202,-3.4753456,11.147186,-6.3903275,-1.2234375,0.2357666,-2.3300538,160.0
18203,-3.4753456,11.147186,-6.3903275,-1.5760254,0.62340087,-1.5431031,160.0
18204,-3.2807655,11.258369,-6.447441,-1.5760254,0.62340087,-1.5431031,160.0
18205,-3.2807655,11.258369,-6.447441,-1.6376221,0.85385746,-0.71154785,160.0
18206,-3.4566193,10.713264,-5.7779617,-1.6376221,0.85385746,-0.71154785,160.0
18207,-3.4566193,10.713264,-5.7779617,-1.7395753,0.93350834,0.24213867,160.0
18208,-3.3896713,9.770866,-5.3422203,-1.7395753,0.93350834,0.24213867,160.0
18209,-3.3896713,9.770866,-5.3422203,-1.8712647,1.1512207,1.1968873,160.0
18210,-3.1694279,8.42823,-5.1788177,-1.8712647,1.1512207,1.1968873,160.0
18211,-3.1694279,8.42823,-5.1788177,-1.8648926,1.2478638,2.2408447,160.0
18212,-3.0544987,6.4879227,-4.762928,-1.8648926,1.2478638,2.2408447,160.0
18213,-3.0544987,6.4879227,-4.762928,-1.7077149,1.3253907,3.1520507,160.0
18214,-3.067194,4.2422943,-3.848526,-1.7077149,1.3253907,3.1520507,160.0
18215,-3.067194,4.2422943,-3.848526,-1.5176147,1.3901733,3.9092653,160.0
18216,-3.2655468,1.9661636,-2.3756104,-1.5176147,1.3901733,3.9092653,160.0
18217,-3.2655468,1.9661636,-2.3756104,-1.2977784,1.3848633,4.5496583,160.0
18218,-3.8145618,-1.5118484,-0.004299164,-1.2977784,1.3848633,4.5496583,160.0
18219,-3.8145618,-1.5118484,-0.004299164,-0.9834229,1.2372437,4.8385253,160.0
18220,-4.8466454,-8.528915,3.088745,-0.9834229,1.2372437,4.8385253,160.0
18221,-4.8466454,-8.528915,3.088745,-0.98129886,0.93138427,4.827905,160.0
18222,-5.6295395,-18.386475,6.5786133,-0.98129886,0.93138427,4.827905,160.0
18223,-5.6295395,-18.386475,6.5786133,-1.178833,0.38232422,4.8353395,160.0
18224,-5.0083313,-25.808815,9.712559,-1.178833,0.38232422,4.8353395,160.0
18225,-5.0083313,-25.808815,9.712559,-2.2812011,-0.48427734,3.796692,160.0
18226,-1.2364864,-24.608047,9.8137245,-2.2812011,-0.48427734,3.796692,160.0
18227,-1.2364864,-24.608047,9.8137245,-3.0437257,-1.8956909,3.0384157,160.0
18228,5.1965523,-14.894791,6.2797127,-3.0437257,-1.8956909,3.0384157,160.0
18229,5.1965523,-14.894791,6.2797127,-2.985315,-2.1091554,2.6475952,160.0
18230,10.359404,-3.5794983,2.3620872,-2.985315,-2.1091554,2.6475952,160.0
18231,10.359404,-3.5794983,2.3620872,-2.3789062,-2.2036743,2.34917,160.0
18232,12.174999,4.688202,0.113422394,-2.3789062,-2.2036743,2.34917,160.0
18233,12.174999,4.688202,0.113422394,-1.3678712,-2.261023,2.0549927,160.0
18234,11.745565,9.586746,-0.8717766,-1.3678712,-2.261023,2.0549927,160.0
18235,11.745565,9.586746,-0.8717766,-0.8241211,-2.2684572,1.7459472,160.0
18236,10.429913,11.83551,-1.6936493,-0.8241211,-2.2684572,1.7459472,160.0
18237,10.429913,11.83551,-1.6936493,-0.9218262,-2.2100465,1.5431031,160.0
18238,8.977414,12.054855,-2.4849854,-0.9218262,-2.2100465,1.5431031,160.0
18239,8.977414,12.054855,-2.4849854,-1.0906861,-2.092163,1.3891114,160.0
18240,8.977414,12.054855,-2.4849854,-1.0906861,-2.092163,1.3891114,158.0
18241,7.753892,10.9121475,-2.715683,-1.0906861,-2.092163,1.3891114,158.0
18242,7.753892,10.9121475,-2.715683,-1.1565307,-1.898877,1.0365235,158.0
18243,6.953882,9.119766,-2.18639,-1.1565307,-1.898877,1.0365235,158.0
18244,6.953882,9.119766,-2.18639,-0.63933104,-1.6025757,0.5363159,158.0
18245,6.3518267,7.291588,-0.9565697,-0.63933104,-1.6025757,0.5363159,158.0
18246,6.3518267,7.291588,-0.9565697,0.3462158,-1.3105224,-0.083898924,158.0
18247,5.680033,6.037628,0.23790741,0.3462158,-1.3105224,-0.083898924,158.0
18248,5.680033,6.037628,0.23790741,1.0630738,-0.9674927,-0.66269535,158.0
18249,5.3129478,5.301506,0.3053131,1.0630738,-0.9674927,-0.66269535,158.0
18250,5.3129478,5.301506,0.3053131,1.2436157,-0.5150757,-1.089624,158.0
18251,5.08062,4.401314,-0.7076912,1.2436157,-0.5150757,-1.089624,158.0
18252,5.08062,4.401314,-0.7076912,1.0651978,0.026550293,-1.717273,158.0
18253,3.7456117,2.4561462,-1.5035934,1.0651978,0.026550293,-1.717273,158.0
18254,3.7456117,2.4561462,-1.5035934,0.8400513,0.52038574,-2.4702394,158.0
18255,0.85603523,-1.1431885,-0.97872925,0.8400513,0.52038574,-2.4702394,158.0
18256,0.85603523,-1.1431885,-0.97872925,1.2053833,0.84111327,-3.4164917,158.0
18257,-2.145824,-5.5790024,0.5588722,1.2053833,0.84111327,-3.4164917,158.0
18258,-2.145824,-5.5790024,0.5588722,1.9625977,0.95793456,-4.3457522,158.0
18259,-3.6320157,-9.952995,2.4520683,1.9625977,0.95793456,-4.3457522,158.0
18260,-3.6320157,-9.952995,2.4520683,2.5530763,0.8708496,-4.9330444,158.0
18261,-3.4454193,-14.066071,4.068733,2.5530763,0.8708496,-4.9330444,158.0
18262,-3.4454193,-14.066071,4.068733,3.359143,0.91014403,-4.781177,158.0
18263,-4.6580687,-16.898827,4.987629,3.359143,0.91014403,-4.781177,158.0
18264,-4.6580687,-16.898827,4.987629,3.0437257,0.8315552,-5.3737793,158.0
18265,-8.543105,-15.400215,5.055435,3.0437257,0.8315552,-5.3737793,158.0
18266,-8.543105,-15.400215,5.055435,1.5165528,0.2824951,-5.256958,158.0
18267,-10.754016,-9.526688,3.5119743,1.5165528,0.2824951,-5.256958,158.0
18268,-10.754016,-9.526688,3.5119743,0.033984374,0.06903076,-4.967029,158.0
18269,-8.804763,-2.9583359,0.857666,0.033984374,0.06903076,-4.967029,158.0
18270,-8.804763,-2.9583359,0.857666,-0.20284425,0.29523927,-4.440271,158.0
18271,-5.4073715,2.259529,-0.95975494,-0.20284425,0.29523927,-4.440271,158.0
18272,-5.4073715,2.259529,-0.95975494,-0.2442627,0.5214478,-3.6947389,158.0
18273,-3.4122753,5.9366913,-1.7952957,-0.2442627,0.5214478,-3.6947389,158.0
18274,-3.4122753,5.9366913,-1.7952957,-0.4364868,0.6117188,-2.88761,158.0
18275,-2.7218246,8.572998,-2.8627014,-0.4364868,0.6117188,-2.88761,158.0
18276,-2.7218246,8.572998,-2.8627014,-0.70092773,0.68712157,-2.0348146,158.0
18277,-2.363287,10.311707,-4.441494,-0.70092773,0.68712157,-2.0348146,158.0
18278,-2.363287,10.311707,-4.441494,-1.1979493,0.8878418,-1.2414917,158.0
18279,-2.2646656,10.895988,-5.838352,-1.1979493,0.8878418,-1.2414917,158.0
18280,-2.2646656,10.895988,-5.838352,-1.5887696,1.1246704,-0.55543214,158.0
18281,-2.4896374,10.541008,-6.0686073,-1.5887696,1.1246704,-0.55543214,158.0
18282,-2.4896374,10.541008,-6.0686073,-1.6928467,1.1629028,0.0637207,158.0
18283,-2.671753,9.691231,-5.0353165,-1.6928467,1.1629028,0.0637207,158.0
18284,-2.671753,9.691231,-5.0353165,-1.8850708,1.0418335,0.49171144,158.0
18285,-2.5329342,8.474411,-3.7450638,-1.8850708,1.0418335,0.49171144,158.0
18286,-2.5329342,8.474411,-3.7450638,-1.899939,0.89846194,0.9239502,158.0
18287,-2.0449867,7.124771,-3.2299004,-1.899939,0.89846194,0.9239502,158.0
18288,-2.0449867,7.124771,-3.2299004,-1.453894,0.7338501,1.6153198,158.0
18289,-1.4202785,5.850807,-3.4495697,-1.453894,0.7338501,1.6153198,158.0
18290,-1.4202785,5.850807,-3.4495697,-1.0174073,0.7625244,2.4691772,158.0
18291,-1.2486382,4.452629,-3.4299774,-1.0174073,0.7625244,2.4691772,158.0
18292,-1.2486382,4.452629,-3.4299774,-0.817749,0.72960204,3.1945312,158.0
18293,-1.6829681,2.5665436,-2.6649666,-0.817749,0.72960204,3.1945312,158.0
18294,-1.6829681,2.5665436,-2.6649666,-0.71791995,0.7168579,3.7319093,158.0
18295,-2.6140385,-0.73812103,-0.7219391,-0.71791995,0.7168579,3.7319093,158.0
18296,-2.6140385,-0.73812103,-0.7219391,-0.35789797,0.70198977,3.9050171,158.0
18297,-4.0862617,-7.331169,2.774475,-0.35789797,0.70198977,3.9050171,158.0
18298,-4.0862617,-7.331169,2.774475,-0.16461182,0.2824951,3.6511962,158.0
18299,-5.1553116,-16.483467,6.5063095,-0.16461182,0.2824951,3.6511962,158.0
18300,-5.1553116,-16.483467,6.5063095,-0.21134034,-0.40037844,3.6936767,158.0
18301,-4.6443176,-23.576096,8.661442,-0.21134034,-0.40037844,3.6936767,158.0
18302,-4.6443176,-23.576096,8.661442,-1.3710572,-1.0779419,3.4759643,158.0
18303,-1.6326294,-23.595238,8.356266,-1.3710572,-1.0779419,3.4759643,158.0
18304,-1.6326294,-23.595238,8.356266,-2.6964478,-2.1898682,2.536084,158.0
18305,3.581421,-16.35611,5.6436806,-2.6964478,-2.1898682,2.536084,158.0
18306,3.581421,-16.35611,5.6436806,-2.3969605,-2.3969605,2.0358765,158.0
18307,8.125586,-6.4054565,2.1971817,-2.3969605,-2.3969605,2.0358765,158.0
18308,8.125586,-6.4054565,2.1971817,-1.7714356,-2.3757203,1.7459472,158.0
18309,10.011261,2.5528488,-0.29519653,-1.7714356,-2.3757203,1.7459472,158.0
18310,10.011261,2.5528488,-0.29519653,-1.4018555,-2.1951783,1.447522,158.0
18311,9.816822,8.607933,-1.3520012,-1.4018555,-2.1951783,1.447522,158.0
18312,9.816822,8.607933,-1.3520012,-1.2712281,-2.1049073,1.2149414,158.0
18313,8.692057,11.522995,-1.4969788,-1.2712281,-2.1049073,1.2149414,158.0
18314,8.692057,11.522995,-1.4969788,-1.179895,-2.0210083,1.1416626,158.0
18315,7.2418776,12.1076355,-1.3365364,-1.179895,-2.0210083,1.1416626,158.0
18316,7.2418776,12.1076355,-1.3365364,-1.1140503,-2.0358765,1.1490967,158.0
18317,5.9725056,11.512955,-1.0095139,-1.1140503,-2.0358765,1.1490967,158.0
18318,5.9725056,11.512955,-1.0095139,-0.991919,-2.0964112,1.0715698,158.0
18319,5.4060326,10.343323,-0.4799385,-0.991919,-2.0964112,1.0715698,158.0
18320,5.4060326,10.343323,-0.4799385,-0.77739257,-2.0942872,0.7827026,158.0
18321,5.480526,8.636436,-0.0057754517,-0.77739257,-2.0942872,0.7827026,158.0
18322,5.480526,8.636436,-0.0057754517,-0.1539917,-1.8457764,0.2824951,158.0
18323,5.175791,6.9173126,0.11185837,-0.1539917,-1.8457764,0.2824951,158.0
18324,5.175791,6.9173126,0.11185837,0.3419678,-1.6206299,0.10513916,158.0
18325,5.9989824,5.632683,-0.25998688,0.3419678,-1.6206299,0.10513916,158.0
18326,5.9989824,5.632683,-0.25998688,1.4528321,-0.7858887,-0.4885254,158.0
18327,5.298783,4.7512665,-0.5058899,1.4528321,-0.7858887,-0.4885254,158.0
18328,5.298783,4.7512665,-0.5058899,1.5685914,-0.4980835,-0.7423462,158.0
18329,4.347461,3.3010483,-1.3317413,1.5685914,-0.4980835,-0.7423462,158.0
18330,4.347461,3.3010483,-1.3317413,1.173523,0.3058594,-1.8224121,158.0
18331,2.8487945,1.6493683,-1.2349129,1.173523,0.3058594,-1.8224121,158.0
18332,2.8487945,1.6493683,-1.2349129,1.1990112,0.5501221,-2.2408447,158.0
18333,-0.27009773,-5.583946,0.31993103,1.1990112,0.5501221,-2.2408447,158.0
18334,-0.27009773,-5.583946,0.31993103,2.162256,0.9260742,-3.6490724,158.0
18335,-1.0499406,-7.8626175,1.1573486,2.162256,0.9260742,-3.6490724,158.0
18336,-1.0499406,-7.8626175,1.1573486,2.5626342,0.8814697,-3.8901489,158.0
18337,-1.5120716,-18.084663,4.930847,2.5626342,0.8814697,-3.8901489,158.0
18338,-1.5120716,-18.084663,4.930847,3.706421,0.82730716,-4.196008,158.0
18339,-2.394301,-17.701645,4.7386627,3.706421,0.82730716,-4.196008,158.0
18340,-2.394301,-17.701645,4.7386627,3.1913452,0.6966797,-4.7588744,158.0
18341,-7.9494867,-14.868675,4.114647,3.1913452,0.6966797,-4.7588744,158.0
18342,-7.9494867,-14.868675,4.114647,0.3440918,0.12319336,-4.87251,158.0
18343,-8.030707,-10.077301,2.6581612,0.3440918,0.12319336,-4.87251,158.0
18344,-8.030707,-10.077301,2.6581612,-0.30267334,0.13699952,-4.7503786,158.0
18345,-7.1427546,-0.64780426,0.19482803,-0.30267334,0.13699952,-4.7503786,158.0
18346,-7.1427546,-0.64780426,0.19482803,-0.18479005,0.29205322,-3.8848388,158.0
18347,-5.5702343,1.5664978,-0.3130226,-0.18479005,0.29205322,-3.8848388,158.0
18348,-5.5702343,1.5664978,-0.3130226,-0.16567384,0.3451538,-3.531189,158.0
18349,-4.3069687,7.3786774,-1.8812294,-0.16567384,0.3451538,-3.531189,158.0
18350,-4.3069687,7.3786774,-1.8812294,-0.67650145,0.45135498,-2.3831544,158.0
18351,-3.6274233,7.3077393,-2.4499893,-0.67650145,0.45135498,-2.3831544,158.0
18352,-3.6274233,7.3077393,-2.4499893,-0.77739257,0.54587406,-2.0241945,158.0
18353,-3.2784405,10.140381,-5.490509,-0.77739257,0.54587406,-2.0241945,158.0
18354,-3.2784405,10.140381,-5.490509,-0.77739257,0.54587406,-2.0241945,158.0
18355,-3.2784405,10.140381,-5.490509,-1.2117554,0.9834229,-1.0120972,158.0
18356,-2.9922829,9.239845,-5.493004,-1.2117554,0.9834229,-1.0120972,158.0
18357,-2.9922829,9.239845,-5.493004,-1.3710572,1.089624,-0.69986576,158.0
18358,-3.3447418,9.503487,-5.6009216,-1.3710572,1.089624,-0.69986576,158.0
18359,-3.3447418,9.503487,-5.6009216,-1.4963745,1.1501588,-0.10938721,158.0
18360,-3.7133675,9.205513,-4.7248535,-1.4963745,1.1501588,-0.10938721,158.0
18361,-3.7133675,9.205513,-4.7248535,-1.7416992,1.1352905,0.5543701,158.0
18362,-3.783535,8.461563,-3.984436,-1.7416992,1.1352905,0.5543701,158.0
18363,-3.783535,8.461563,-3.984436,-1.8287842,1.2160034,1.2425537,158.0
18364,-3.783535,8.461563,-3.984436,-1.6503662,1.2595459,2.0433106,158.0
18365,-3.714779,7.2615356,-3.7328987,-1.6503662,1.2595459,2.0433106,158.0
18366,-5.732565,3.077896,-2.3895683,-1.6503662,1.2595459,2.0433106,158.0
18367,-5.732565,3.077896,-2.3895683,-1.2319336,1.2393677,3.1562989,158.0
18368,-5.732565,3.077896,-2.3895683,-1.1937011,1.2117554,3.522693,158.0
18369,-5.732565,3.077896,-2.3895683,-0.7869507,1.1289185,4.428589,158.0
18370,-5.397087,0.77996826,-1.0733604,-0.7869507,1.1289185,4.428589,158.0
18371,-5.397087,0.77996826,-1.0733604,-0.6064087,0.98873293,4.5815187,158.0
18372,-7.6742,-12.687599,4.2261505,-0.6064087,0.98873293,4.5815187,158.0
18373,-7.6742,-12.687599,4.2261505,-1.3147706,-0.07540283,4.370178,158.0
18374,-6.6172047,-16.14946,5.6582756,-1.3147706,-0.07540283,4.370178,158.0
18375,-6.6172047,-16.14946,5.6582756,-1.5558472,-0.5703003,4.5708985,158.0
18376,-4.5973053,-23.999893,8.244831,-1.5558472,-0.5703003,4.5708985,158.0
18377,-4.5973053,-23.999893,8.244831,-2.4797974,-1.2085694,3.710669,158.0
18378,0.12906456,-23.104568,7.254265,-2.4797974,-1.2085694,3.710669,158.0
18379,0.12906456,-23.104568,7.254265,-2.5775025,-2.0964112,2.9619508,158.0
18380,5.722208,-13.73452,3.3233185,-2.5775025,-2.0964112,2.9619508,158.0
18381,5.722208,-13.73452,3.3233185,-2.3767822,-2.2100465,2.4266968,158.0
18382,9.803926,-2.2567139,-0.09328461,-2.3767822,-2.2100465,2.4266968,158.0
18383,9.803926,-2.2567139,-0.09328461,-2.0072021,-2.2026124,1.9647217,158.0
18384,11.266579,6.734726,-1.4840622,-2.0072021,-2.2026124,1.9647217,158.0
18385,11.266579,6.734726,-1.4840622,-1.627002,-2.1962402,1.6747925,158.0
18386,10.952068,11.49131,-1.7277145,-1.627002,-2.1962402,1.6747925,158.0
18387,10.952068,11.49131,-1.7277145,-1.4061035,-2.095349,1.3891114,158.0
18388,9.989853,12.627731,-1.5288658,-1.4061035,-2.095349,1.3891114,158.0
18389,9.989853,12.627731,-1.5288658,-1.3168945,-1.9583496,1.2106934,158.0
18390,8.70348,11.858627,-0.90626144,-1.3168945,-1.9583496,1.2106934,158.0
18391,8.70348,11.858627,-0.90626144,-1.2181275,-1.896753,1.0195312,158.0
18392,7.899417,10.81665,-0.3386078,-1.2181275,-1.896753,1.0195312,158.0
18393,7.899417,10.81665,-0.3386078,-1.2542359,-1.6854126,0.4333008,158.0
18394,7.0486107,8.856033,-0.13394928,-1.2542359,-1.6854126,0.4333008,158.0
18395,7.0486107,8.856033,-0.13394928,-1.0588257,-1.5303589,0.20284425,158.0
18396,6.9868984,7.403549,0.18762589,-1.0588257,-1.5303589,0.20284425,158.0
18397,6.9868984,7.403549,0.18762589,-0.13275146,-1.1098022,-0.2824951,158.0
18398,6.9868984,7.403549,0.18762589,0.89421386,-0.62127686,-0.78164065,158.0
18399,6.3842335,6.0174026,0.61701965,0.89421386,-0.62127686,-0.78164065,158.0
18400,4.032509,5.4564667,0.03284836,0.89421386,-0.62127686,-0.78164065,158.0
18401,4.032509,5.4564667,0.03284836,1.3976074,-0.17629395,-1.178833,158.0
18402,4.032509,5.4564667,0.03284836,1.355127,0.25594482,-1.5282348,158.0
18403,4.032509,5.4564667,0.03284836,1.268042,0.6775635,-2.0443726,158.0
18404,1.7068911,3.7718964,-0.94166565,1.268042,0.6775635,-2.0443726,158.0
18405,-2.1540918,-5.789589,-0.16342926,1.268042,0.6775635,-2.0443726,158.0
18406,-2.1540918,-5.789589,-0.16342926,1.7406372,1.1066163,-2.72406,158.0
18407,-2.1540918,-5.789589,-0.16342926,1.991272,1.26698,-3.3856933,158.0
18408,-2.1540918,-5.789589,-0.16342926,2.5806885,1.44646,-3.5779176,158.0
18409,-2.3488226,-13.227585,2.7918015,2.5806885,1.44646,-3.5779176,158.0
18410,-9.80667,-22.177933,5.892769,2.5806885,1.44646,-3.5779176,158.0
18411,-9.80667,-22.177933,5.892769,3.889087,1.6408081,-4.2172484,158.0
18412,-9.80667,-22.177933,5.892769,2.8833618,1.1724609,-5.2038574,158.0
18413,-9.80667,-22.177933,5.892769,1.2914063,0.46728516,-4.866138,158.0
18414,-7.4130116,-8.828285,2.4453278,1.2914063,0.46728516,-4.866138,158.0
18415,-7.4130116,-8.828285,2.4453278,-0.107263185,0.89421386,-4.4880614,158.0
18416,-3.3858166,-1.058342,1.0888901,-0.107263185,0.89421386,-4.4880614,158.0
18417,-3.3858166,-1.058342,1.0888901,0.5140137,0.996167,-3.7552736,158.0
18418,-1.8043556,2.3507767,1.0577202,0.5140137,0.996167,-3.7552736,158.0
18419,-1.8043556,2.3507767,1.0577202,0.79969484,0.815625,-2.980005,158.0
18420,-1.4998446,4.478668,0.21977234,0.79969484,0.815625,-2.980005,158.0
18421,-1.4998446,4.478668,0.21977234,0.3993164,0.6680054,-2.357666,158.0
18422,-1.0706034,6.322281,-1.6690903,0.3993164,0.6680054,-2.357666,158.0
18423,-1.0706034,6.322281,-1.6690903,-0.33028564,0.6754395,-1.7416992,158.0
18424,-0.56970215,7.669594,-3.4786682,-0.33028564,0.6754395,-1.7416992,158.0
18425,-0.56970215,7.669594,-3.4786682,-0.90908206,0.7497803,-1.1512207,158.0
18426,-0.6561279,8.244743,-4.2950554,-0.90908206,0.7497803,-1.1512207,158.0
18427,-0.6561279,8.244743,-4.2950554,-1.1820191,0.7508423,-0.6085327,158.0
18428,-0.6561279,8.244743,-4.2950554,-1.1820191,0.7508423,-0.6085327,157.0
18429,-1.3914185,8.11203,-3.9246902,-1.1820191,0.7508423,-0.6085327,157.0
18430,-1.3914185,8.11203,-3.9246902,-1.363623,0.6180908,-0.18160401,157.0
18431,-2.2328615,7.3744125,-3.169197,-1.363623,0.6180908,-0.18160401,157.0
18432,-2.2328615,7.3744125,-3.169197,-1.5579712,0.38657227,0.17629395,157.0
18433,-2.4949436,6.468071,-2.968769,-1.5579712,0.38657227,0.17629395,157.0
18434,-2.4949436,6.468071,-2.968769,-1.632312,0.3058594,0.67225343,157.0
18435,-2.1253014,5.7210236,-3.2075577,-1.632312,0.3058594,0.67225343,157.0
18436,-2.1253014,5.7210236,-3.2075577,-1.5537232,0.3462158,1.3774292,157.0
18437,-1.7450657,4.715782,-3.0470047,-1.5537232,0.3462158,1.3774292,157.0
18438,-1.7450657,4.715782,-3.0470047,-1.5558472,0.41418457,2.168628,157.0
18439,-1.769661,3.0710754,-2.0987968,-1.5558472,0.41418457,2.168628,157.0
18440,-1.769661,3.0710754,-2.0987968,-1.3710572,0.4885254,2.9385865,157.0
18441,-2.3103085,0.6911011,-0.53775406,-1.3710572,0.4885254,2.9385865,157.0
18442,-2.3103085,0.6911011,-0.53775406,-0.98236084,0.54693604,3.5152588,157.0
18443,-3.2965012,-2.9463272,1.4727745,-0.98236084,0.54693604,3.5152588,157.0
18444,-3.2965012,-2.9463272,1.4727745,-0.6446411,0.37382814,3.7945678,157.0
18445,-4.4477234,-9.528801,3.731636,-0.6446411,0.37382814,3.7945678,157.0
18446,-4.4477234,-9.528801,3.731636,-0.994043,0.058410645,3.5141969,157.0
18447,-5.2154922,-18.208015,6.2360992,-0.994043,0.058410645,3.5141969,157.0
18448,-5.2154922,-18.208015,6.2360992,-1.3349488,-0.6425171,3.7340333,157.0
18449,-4.711273,-24.989998,8.553684,-1.3349488,-0.6425171,3.7340333,157.0
18450,-4.711273,-24.989998,8.553684,-2.090039,-1.3317627,3.2136476,157.0
18451,-1.8010731,-25.296158,8.405739,-2.090039,-1.3317627,3.2136476,157.0
18452,-1.8010731,-25.296158,8.405739,-2.3109376,-2.4075806,2.5987427,157.0
18453,3.0868645,-18.106422,4.9307404,-2.3109376,-2.4075806,2.5987427,157.0
18454,3.0868645,-18.106422,4.9307404,-1.8574585,-2.7198122,2.2461548,157.0
18455,7.460703,-7.544426,0.8861847,-1.8574585,-2.7198122,2.2461548,157.0
18456,7.460703,-7.544426,0.8861847,-1.5590333,-2.6783936,1.814978,157.0
18457,9.5736885,1.9017181,-1.6850586,-1.5590333,-2.6783936,1.814978,157.0
18458,9.5736885,1.9017181,-1.6850586,-1.4071655,-2.709192,1.5579712,157.0
18459,10.175272,7.8090973,-2.9015274,-1.4071655,-2.709192,1.5579712,157.0
18460,10.175272,7.8090973,-2.9015274,-1.2510499,-2.5498903,1.4677002,157.0
18461,10.020625,10.119919,-3.2790947,-1.2510499,-2.5498903,1.4677002,157.0
18462,10.020625,10.119919,-3.2790947,-1.2351197,-2.3268678,1.3179566,157.0
18463,8.8249235,10.052002,-3.130684,-1.2351197,-2.3268678,1.3179566,157.0
18464,8.8249235,10.052002,-3.130684,-1.2128174,-2.1866822,1.2351197,157.0
18465,7.110305,9.008606,-2.5661812,-1.2128174,-2.1866822,1.2351197,157.0
18466,7.110305,9.008606,-2.5661812,-1.1236085,-2.1123414,0.97386473,157.0
18467,6.0369377,7.8657455,-1.724308,-1.1236085,-2.1123414,0.97386473,157.0
18468,6.0369377,7.8657455,-1.724308,-0.8092529,-2.0252564,0.48215333,157.0
18469,6.0254,6.655243,-0.8629532,-0.8092529,-2.0252564,0.48215333,157.0
18470,6.0254,6.655243,-0.8629532,-0.08814698,-1.7268311,-0.14655761,157.0
18471,6.621455,5.37175,-0.037467957,-0.08814698,-1.7268311,-0.14655761,157.0
18472,6.621455,5.37175,-0.037467957,0.6818115,-1.3338867,-0.721106,157.0
18473,6.973446,4.3429337,0.6290474,0.6818115,-1.3338867,-0.721106,157.0
18474,6.973446,4.3429337,0.6290474,1.3976074,-0.91757816,-1.265918,157.0
18475,6.3166475,3.5154495,0.5610008,1.3976074,-0.91757816,-1.265918,157.0
18476,6.3166475,3.5154495,0.5610008,1.4188477,-0.46834716,-1.8255981,157.0
18477,4.072654,2.2861252,-0.5315933,1.4188477,-0.46834716,-1.8255981,157.0
18478,4.072654,2.2861252,-0.5315933,1.1437867,0.07646485,-2.6051147,157.0
18479,0.93993473,-0.20713806,-1.627327,1.1437867,0.07646485,-2.6051147,157.0
18480,0.93993473,-0.20713806,-1.627327,1.1299804,0.55755615,-3.5747316,157.0
18481,-1.1027886,-4.1865234,-0.9531174,1.1299804,0.55755615,-3.5747316,157.0
18482,-1.1027886,-4.1865234,-0.9531174,1.5569092,0.79969484,-4.4923096,157.0
18483,-1.1672529,-9.279701,1.9518852,1.5569092,0.79969484,-4.4923096,157.0
18484,-1.1672529,-9.279701,1.9518852,2.4829834,0.9781128,-4.5624022,157.0
18485,-1.1199596,-14.438492,4.8453827,2.4829834,0.9781128,-4.5624022,157.0
18486,-1.1199596,-14.438492,4.8453827,3.4770265,1.2329956,-4.6675415,157.0
18487,-3.4715781,-15.860199,5.0980453,3.4770265,1.2329956,-4.6675415,157.0
18488,-3.4715781,-15.860199,5.0980453,1.7289551,1.173523,-5.4736085,157.0
18489,-6.7123213,-11.679298,3.2940483,1.7289551,1.173523,-5.4736085,157.0
18490,-6.7123213,-11.679298,3.2940483,0.14868164,1.1947632,-5.3164306,157.0
18491,-7.84443,-5.15049,1.600277,0.14868164,1.1947632,-5.3164306,157.0
18492,-7.84443,-5.15049,1.600277,-0.5256958,1.3381348,-4.817285,157.0
18493,-7.1357126,1.409317,0.6040611,-0.5256958,1.3381348,-4.817285,157.0
18494,-7.1357126,1.409317,0.6040611,-0.54587406,1.3859253,-3.9294434,157.0
18495,-6.0640388,6.93898,-0.36444473,-0.54587406,1.3859253,-3.9294434,157.0
18496,-6.0640388,6.93898,-0.36444473,-0.6616333,1.3944215,-3.0617797,157.0
18497,-5.0862164,10.764679,-1.6269798,-0.6616333,1.3944215,-3.0617797,157.0
18498,-5.0862164,10.764679,-1.6269798,-0.817749,1.44646,-2.1898682,157.0
18499,-4.320487,12.755508,-2.9686127,-0.817749,1.44646,-2.1898682,157.0
18500,-4.320487,12.755508,-2.9686127,-1.0237793,1.5611572,-1.358313,157.0
18501,-3.9383717,13.218109,-4.0931015,-1.0237793,1.5611572,-1.358313,157.0
18502,-3.9383717,13.218109,-4.0931015,-1.1618408,1.6503662,-0.5915405,157.0
18503,-4.0006237,12.676109,-4.6476135,-1.1618408,1.6503662,-0.5915405,157.0
18504,-4.0006237,12.676109,-4.6476135,-1.2000732,1.5887696,0.18160401,157.0
18505,-4.257824,11.585541,-4.4374275,-1.2000732,1.5887696,0.18160401,157.0
18506,-4.257824,11.585541,-4.4374275,-1.3115845,1.4666382,0.9388184,157.0
18507,-4.1825533,10.012917,-3.7616348,-1.3115845,1.4666382,0.9388184,157.0
18508,-4.1825533,10.012917,-3.7616348,-1.5239868,1.3487549,1.7119629,157.0
18509,-3.7168798,7.7991486,-3.0714302,-1.5239868,1.3487549,1.7119629,157.0
18510,-3.7168798,7.7991486,-3.0714302,-1.4613281,1.2414917,2.5509522,157.0
18511,-3.7168798,7.7991486,-3.0714302,-1.3179566,1.1342286,3.3198488,157.0
18512,-3.262701,5.202408,-2.4373055,-1.3179566,1.1342286,3.3198488,157.0
18513,-5.452421,-0.7965851,-1.0658264,-1.3179566,1.1342286,3.3198488,157.0
18514,-5.452421,-0.7965851,-1.0658264,-1.1575928,1.0365235,3.9528077,157.0
18515,-5.452421,-0.7965851,-1.0658264,-1.0290893,1.0312134,4.525232,157.0
18516,-5.452421,-0.7965851,-1.0658264,-0.7858887,1.0471436,4.766309,157.0
18517,-4.1469345,-0.63726807,-0.85266113,-0.7858887,1.0471436,4.766309,157.0
18518,-10.063702,-30.24617,9.74934,-0.7858887,1.0471436,4.766309,157.0
18519,-10.063702,-30.24617,9.74934,-0.904834,0.69136965,4.527356,157.0
18520,-10.063702,-30.24617,9.74934,-1.2234375,0.16567384,4.489124,157.0
18521,-10.063702,-30.24617,9.74934,-2.0316284,-0.57242435,3.7382812,157.0
18522,-7.6524506,-31.841858,9.816719,-2.0316284,-0.57242435,3.7382812,157.0
18523,-7.6524506,-31.841858,9.816719,-2.8536255,-2.0995972,2.5498903,157.0
18524,-1.4258537,-23.105865,6.252838,-2.8536255,-2.0995972,2.5498903,157.0
18525,-1.4258537,-23.105865,6.252838,-2.8291993,-2.536084,1.9254273,157.0
18526,5.4890785,-9.664993,2.265625,-2.8291993,-2.536084,1.9254273,157.0
18527,5.4890785,-9.664993,2.265625,-2.2387207,-2.450061,1.63125,157.0
18528,9.55065,1.4752502,-0.087818146,-2.2387207,-2.450061,1.63125,157.0
18529,9.55065,1.4752502,-0.087818146,-1.6737305,-2.3364258,1.3922974,157.0
18530,10.814788,7.589882,-1.4860611,-1.6737305,-2.3364258,1.3922974,157.0
18531,10.814788,7.589882,-1.4860611,-1.174585,-2.1526978,1.1289185,157.0
18532,10.595934,9.960007,-2.3927917,-1.174585,-2.1526978,1.1289185,157.0
18533,10.595934,9.960007,-2.3927917,-1.1416626,-2.0103881,0.99510497,157.0
18534,10.595934,9.960007,-2.3927917,-1.1416626,-2.0103881,0.99510497,158.0
18535,9.587721,10.194725,-2.7249756,-1.1416626,-2.0103881,0.99510497,158.0
18536,9.587721,10.194725,-2.7249756,-1.4857544,-1.9381714,0.905896,158.0
18537,8.128197,9.120796,-2.3775024,-1.4857544,-1.9381714,0.905896,158.0
18538,8.128197,9.120796,-2.3775024,-1.5420411,-1.9551636,0.72004396,158.0
18539,6.831317,7.550255,-1.4160042,-1.5420411,-1.9551636,0.72004396,158.0
18540,6.831317,7.550255,-1.4160042,-0.98873293,-2.0156982,0.3175415,158.0
18541,6.324807,5.936348,-0.39416885,-0.98873293,-2.0156982,0.3175415,158.0
18542,6.324807,5.936348,-0.39416885,-0.19541016,-1.8362182,-0.22089843,158.0
18543,6.373152,4.679756,-0.076538086,-0.19541016,-1.8362182,-0.22089843,158.0
18544,6.373152,4.679756,-0.076538086,0.5522461,-1.4815063,-0.81243896,158.0
18545,6.373152,4.679756,-0.076538086,1.1926392,-1.0248413,-1.3402588,158.0
18546,6.2012067,4.17083,-0.5791168,1.1926392,-1.0248413,-1.3402588,158.0
18547,3.1280918,1.9901199,-2.356762,1.1926392,-1.0248413,-1.3402588,158.0
18548,3.1280918,1.9901199,-2.356762,1.3976074,-0.51932377,-1.7905518,158.0
18549,3.1280918,1.9901199,-2.356762,1.1724609,0.033984374,-2.5679443,158.0
18550,3.1280918,1.9901199,-2.356762,0.84111327,0.45772704,-3.3708253,158.0
18551,0.4113481,-2.8007507,-0.7402458,0.84111327,0.45772704,-3.3708253,158.0
18552,0.4113481,-2.8007507,-0.7402458,1.3901733,0.86766356,-4.410535,158.0
18553,-0.6784167,-9.248695,2.4190826,1.3901733,0.86766356,-4.410535,158.0
18554,-0.6784167,-9.248695,2.4190826,2.0284424,0.9632446,-4.894812,158.0
18555,-0.046371102,-15.5660095,5.961193,2.0284424,0.9632446,-4.894812,158.0
18556,-0.046371102,-15.5660095,5.961193,2.885486,1.177771,-4.796045,158.0
18557,-2.031323,-17.981766,7.7357254,2.885486,1.177771,-4.796045,158.0
18558,-2.031323,-17.981766,7.7357254,2.6019287,0.96430665,-5.787964,158.0
18559,-6.2814183,-13.124069,6.608917,2.6019287,0.96430665,-5.787964,158.0
18560,-6.2814183,-13.124069,6.608917,1.3859253,0.39613038,-5.243152,158.0
18561,-7.619849,-4.336525,3.1806145,1.3859253,0.39613038,-5.243152,158.0
18562,-7.619849,-4.336525,3.1806145,0.29948732,0.3695801,-4.7801147,158.0
18563,-6.302349,2.949234,-0.2117691,0.29948732,0.3695801,-4.7801147,158.0
18564,-6.302349,2.949234,-0.2117691,0.19647217,0.5543701,-4.084497,158.0
18565,-4.856516,7.4786377,-1.9671707,0.19647217,0.5543701,-4.084497,158.0
18566,-4.856516,7.4786377,-1.9671707,0.19222413,0.62552494,-3.2476318,158.0
18567,-3.974434,10.08017,-2.710907,0.19222413,0.62552494,-3.2476318,158.0
18568,-3.974434,10.08017,-2.710907,0.07965088,0.71367186,-2.4989135,158.0
18569,-3.2890692,11.697144,-3.583912,0.07965088,0.71367186,-2.4989135,158.0
18570,-3.2890692,11.697144,-3.583912,-0.26868898,0.8517334,-1.7608155,158.0
18571,-2.8330746,12.6438675,-4.775955,-0.26868898,0.8517334,-1.7608155,158.0
18572,-2.8330746,12.6438675,-4.775955,-0.7742066,0.98129886,-1.0004151,158.0
18573,-2.7835255,12.648727,-5.747608,-0.7742066,0.98129886,-1.0004151,158.0
18574,-2.7835255,12.648727,-5.747608,-0.9770508,1.1055542,-0.29736328,158.0
18575,-3.069044,11.744728,-5.8720627,-0.9770508,1.1055542,-0.29736328,158.0
18576,-3.069044,11.744728,-5.8720627,-1.1979493,1.170337,0.36851808,158.0
18577,-3.4106922,10.294327,-5.229744,-1.1979493,1.170337,0.36851808,158.0
18578,-3.4106922,10.294327,-5.229744,-1.2818482,1.1034302,1.0131592,158.0
18579,-3.307106,8.5959015,-4.392109,-1.2818482,1.1034302,1.0131592,158.0
18580,-3.307106,8.5959015,-4.392109,-1.357251,1.0365235,1.7353271,158.0
18581,-2.7581844,6.7241592,-3.699051,-1.357251,1.0365235,1.7353271,158.0
18582,-2.7581844,6.7241592,-3.699051,-1.2892822,1.0450195,2.5605104,158.0
18583,-2.3606977,4.580475,-3.1524162,-1.2892822,1.0450195,2.5605104,158.0
18584,-2.3606977,4.580475,-3.1524162,-1.2404298,1.084314,3.3166625,158.0
18585,-2.396103,2.3563004,-2.7043915,-1.2404298,1.084314,3.3166625,158.0
18586,-2.396103,2.3563004,-2.7043915,-1.2032593,1.1990112,3.9655519,158.0
18587,-2.6962528,0.07045746,-1.8473892,-1.2032593,1.1990112,3.9655519,158.0
18588,-2.6962528,0.07045746,-1.8473892,-1.0174073,1.3784913,4.499744,158.0
18589,-3.472458,-3.6437225,0.5907135,-1.0174073,1.3784913,4.499744,158.0
18590,-3.472458,-3.6437225,0.5907135,-0.68499756,1.3976074,4.541162,158.0
18591,-4.8880367,-11.259048,4.967003,-0.68499756,1.3976074,4.541162,158.0
18592,-4.8880367,-11.259048,4.967003,-0.7317261,1.1416626,4.12273,158.0
18593,-6.366558,-21.704422,9.874897,-0.7317261,1.1416626,4.12273,158.0
18594,-6.366558,-21.704422,9.874897,-0.62764895,0.5713623,4.2013183,158.0
18595,-6.783127,-28.1566,12.204166,-0.62764895,0.5713623,4.2013183,158.0
18596,-6.783127,-28.1566,12.204166,-1.7905518,-0.91757816,3.0246093,158.0
18597,-3.217638,-24.576782,9.40564,-1.7905518,-0.91757816,3.0246093,158.0
18598,-3.217638,-24.576782,9.40564,-3.1212525,-2.2854493,2.3279297,158.0
18599,3.624546,-13.755257,3.9862556,-3.1212525,-2.2854493,2.3279297,158.0
18600,3.624546,-13.755257,3.9862556,-3.0554078,-2.34386,1.9307374,158.0
18601,8.84584,-2.815628,0.38066864,-3.0554078,-2.34386,1.9307374,158.0
18602,8.84584,-2.815628,0.38066864,-2.3449218,-2.443689,1.713025,158.0
18603,10.790844,4.8431396,-1.0510788,-2.3449218,-2.443689,1.713025,158.0
18604,10.790844,4.8431396,-1.0510788,-1.6195679,-2.3980224,1.4846925,158.0
18605,10.761972,9.104187,-1.8082733,-1.6195679,-2.3980224,1.4846925,158.0
18606,10.761972,9.104187,-1.8082733,-1.26167,-2.263147,1.2595459,158.0
18607,9.903023,10.803848,-2.4890747,-1.26167,-2.263147,1.2595459,158.0
18608,9.903023,10.803848,-2.4890747,-1.2722901,-2.167566,1.2000732,158.0
18609,8.764923,10.611877,-3.0874176,-1.2722901,-2.167566,1.2000732,158.0
18610,8.764923,10.611877,-3.0874176,-1.3423828,-2.0358765,1.0673218,158.0
18611,7.9216795,9.447441,-3.4166489,-1.3423828,-2.0358765,1.0673218,158.0
18612,7.9216795,9.447441,-3.4166489,-1.3391968,-1.809668,0.8857178,158.0
18613,7.744387,7.9687424,-2.954853,-1.3391968,-1.809668,0.8857178,158.0
18614,7.744387,7.9687424,-2.954853,-0.84536135,-1.5027466,0.5777344,158.0
18615,7.581582,6.313057,-1.2937164,-0.84536135,-1.5027466,0.5777344,158.0
18616,7.581582,6.313057,-1.2937164,0.08071289,-1.1214844,0.016992187,158.0
18617,6.6173162,4.7762604,0.5333977,0.08071289,-1.1214844,0.016992187,158.0
18618,6.6173162,4.7762604,0.5333977,1.0906861,-0.5607422,-0.68074954,158.0
18619,6.6173162,4.7762604,0.5333977,1.8181641,0.21134034,-1.3360108,158.0
18620,5.073065,3.8999176,0.89104843,1.8181641,0.21134034,-1.3360108,158.0
18621,1.6704879,4.4656982,-3.1574478,1.8181641,0.21134034,-1.3360108,158.0
18622,1.6704879,4.4656982,-3.1574478,2.357666,1.1236085,-2.175,158.0
18623,1.6704879,4.4656982,-3.1574478,1.6822265,1.9339234,-2.9184082,158.0
18624,0.17009394,2.747696,-3.5805817,1.6822265,1.9339234,-2.9184082,158.0
18625,0.17009394,2.747696,-3.5805817,1.5112427,2.6210449,-3.3973756,158.0
18626,0.17009394,2.747696,-3.5805817,1.5112427,2.6210449,-3.3973756,157.0
18627,-0.95246243,-2.642807,-0.40418625,1.5112427,2.6210449,-3.3973756,157.0
18628,-0.95246243,-2.642807,-0.40418625,1.9073731,2.8759277,-4.037769,157.0
18629,-1.157197,-11.385361,4.9461594,1.9073731,2.8759277,-4.037769,157.0
18630,-1.157197,-11.385361,4.9461594,3.5694215,2.7654786,-3.344275,157.0
18631,-2.788526,-20.203857,8.683136,3.5694215,2.7654786,-3.344275,157.0
18632,-2.788526,-20.203857,8.683136,5.074292,2.2843874,-4.320264,157.0
18633,-7.9419417,-21.807213,8.998302,5.074292,2.2843874,-4.320264,157.0
18634,-7.9419417,-21.807213,8.998302,4.004846,0.87191164,-4.5708985,157.0
18635,-11.472242,-14.076195,6.649582,4.004846,0.87191164,-4.5708985,157.0
18636,-11.472242,-14.076195,6.649582,1.9827759,-0.35683593,-4.6654177,157.0
18637,-9.974095,-3.7156906,3.1058578,1.9827759,-0.35683593,-4.6654177,157.0
18638,-9.974095,-3.7156906,3.1058578,0.70198977,-0.9165161,-4.224683,157.0
18639,-6.5087442,4.0697327,-0.026473999,0.70198977,-0.9165161,-4.224683,157.0
18640,-6.5087442,4.0697327,-0.026473999,0.6924316,-1.1618408,-3.7350953,157.0
18641,-4.1341324,8.708908,-2.3494263,0.6924316,-1.1618408,-3.7350953,157.0
18642,-4.1341324,8.708908,-2.3494263,0.36851808,-1.2298096,-3.0808961,157.0
18643,-3.0770082,11.304382,-4.3216667,0.36851808,-1.2298096,-3.0808961,157.0
18644,-3.0770082,11.304382,-4.3216667,-0.07965088,-1.1575928,-2.4904175,157.0
18645,-2.2921848,12.467751,-5.984421,-0.07965088,-1.1575928,-2.4904175,157.0
18646,-2.2921848,12.467751,-5.984421,-0.42268068,-0.86978763,-1.9371094,157.0
18647,-1.4682808,12.897827,-6.9608383,-0.42268068,-0.86978763,-1.9371094,157.0
18648,-1.4682808,12.897827,-6.9608383,-0.8294312,-0.45666504,-1.4145997,157.0
18649,-1.0652132,12.767075,-7.0238724,-0.8294312,-0.45666504,-1.4145997,157.0
18650,-1.0652132,12.767075,-7.0238724,-1.0970582,-0.07965088,-0.8846558,157.0
18651,-1.316392,12.024986,-6.4325867,-1.0970582,-0.07965088,-0.8846558,157.0
18652,-1.316392,12.024986,-6.4325867,-1.176709,0.21877442,-0.26975098,157.0
18653,-1.9359989,10.932846,-5.686245,-1.176709,0.21877442,-0.26975098,157.0
18654,-1.9359989,10.932846,-5.686245,-1.2882203,0.44923097,0.4333008,157.0
18655,-2.2784014,9.695236,-5.0237885,-1.2882203,0.44923097,0.4333008,157.0
18656,-2.2784014,9.695236,-5.0237885,-1.4124756,0.7126099,1.3423828,157.0
18657,-2.1815338,8.146484,-4.415638,-1.4124756,0.7126099,1.3423828,157.0
18658,-2.1815338,8.146484,-4.415638,-1.5569092,0.9866089,2.3247437,157.0
18659,-2.2319832,5.9528656,-3.8061447,-1.5569092,0.9866089,2.3247437,157.0
18660,-2.2319832,5.9528656,-3.8061447,-1.6864747,1.1682129,3.3708253,157.0
18661,-2.9318638,3.1228523,-2.9110756,-1.6864747,1.1682129,3.3708253,157.0
18662,-2.9318638,3.1228523,-2.9110756,-1.5261109,1.354065,4.439209,157.0
18663,-4.384493,-0.57819366,-0.8013115,-1.5261109,1.354065,4.439209,157.0
18664,-4.384493,-0.57819366,-0.8013115,-0.99935305,1.5303589,5.328113,157.0
18665,-6.4734516,-7.4862595,2.8391533,-0.99935305,1.5303589,5.328113,157.0
18666,-6.4734516,-7.4862595,2.8391533,-0.6637573,1.453894,5.357849,157.0
18667,-8.60956,-19.163849,7.343773,-0.6637573,1.453894,5.357849,157.0
18668,-8.60956,-19.163849,7.343773,-0.5065796,1.2149414,5.3270507,157.0
18669,-9.78334,-30.728348,11.437691,-0.5065796,1.2149414,5.3270507,157.0
18670,-9.78334,-30.728348,11.437691,-1.7778076,-0.0361084,4.5422244,157.0
18671,-6.752941,-32.94065,12.636639,-1.7778076,-0.0361084,4.5422244,157.0
18672,-6.752941,-32.94065,12.636639,-4.0133424,-1.9519776,3.2731202,157.0
18673,1.5524826,-23.142883,8.993126,-4.0133424,-1.9519776,3.2731202,157.0
18674,1.5524826,-23.142883,8.993126,-3.7669556,-2.1006591,2.441565,157.0
18675,9.557989,-8.085358,3.2289734,-3.7669556,-2.1006591,2.441565,157.0
18676,9.557989,-8.085358,3.2289734,-2.7368042,-2.2206666,2.259961,157.0
18677,13.268877,4.3269653,-0.77937317,-2.7368042,-2.2206666,2.259961,157.0
18678,13.268877,4.3269653,-0.77937317,-1.9477295,-2.3289917,2.3226197,157.0
18679,13.85674,10.710976,-2.7722054,-1.9477295,-2.3289917,2.3226197,157.0
18680,13.85674,10.710976,-2.7722054,-1.5144287,-2.1548219,2.0879152,157.0
18681,12.865299,12.232986,-3.633915,-1.5144287,-2.1548219,2.0879152,157.0
18682,12.865299,12.232986,-3.633915,-1.5431031,-2.0295045,2.0125122,157.0
18683,10.964419,11.146439,-3.6340485,-1.5431031,-2.0295045,2.0125122,157.0
18684,10.964419,11.146439,-3.6340485,-1.4326538,-1.9466676,1.7512573,157.0
18685,8.8812275,9.3845825,-2.8313217,-1.4326538,-1.9466676,1.7512573,157.0
18686,8.8812275,9.3845825,-2.8313217,-0.98873293,-1.9094971,1.2818482,157.0
18687,7.592751,7.9020615,-1.7425957,-0.98873293,-1.9094971,1.2818482,157.0
18688,7.592751,7.9020615,-1.7425957,-0.3430298,-1.7236451,0.70942384,157.0
18689,7.206293,6.5554123,-1.1555786,-0.3430298,-1.7236451,0.70942384,157.0
18690,7.206293,6.5554123,-1.1555786,0.28355715,-1.3763672,0.032922365,157.0
18691,6.9711747,5.347954,-1.1713142,0.28355715,-1.3763672,0.032922365,157.0
18692,6.9711747,5.347954,-1.1713142,0.8581055,-0.9409424,-0.72960204,157.0
18693,6.367821,4.494705,-1.218605,0.8581055,-0.9409424,-0.72960204,157.0
18694,6.367821,4.494705,-1.218605,1.3296387,-0.4885254,-1.4347779,157.0
18695,5.116889,3.7543945,-0.9771309,1.3296387,-0.4885254,-1.4347779,157.0
18696,5.116889,3.7543945,-0.9771309,1.2085694,-0.09770508,-2.1994264,157.0
18697,2.728118,2.0386963,-0.6849747,1.2085694,-0.09770508,-2.1994264,157.0
18698,2.728118,2.0386963,-0.6849747,1.1066163,0.38551027,-3.1265626,157.0
18699,0.15977716,-0.9465332,-0.42658234,1.1066163,0.38551027,-3.1265626,157.0
18700,0.15977716,-0.9465332,-0.42658234,1.7353271,0.70198977,-3.7680175,157.0
18701,-1.2590435,-5.320633,0.49031067,1.7353271,0.70198977,-3.7680175,157.0
18702,-1.2590435,-5.320633,0.49031067,2.6932619,1.0036011,-4.2321167,157.0
18703,-1.7161093,-11.479637,2.8504639,2.6932619,1.0036011,-4.2321167,157.0
18704,-1.7161093,-11.479637,2.8504639,3.5832276,1.1692749,-4.1163573,157.0
18705,-3.8704216,-17.06746,5.678894,3.5832276,1.1692749,-4.1163573,157.0
18706,-3.8704216,-17.06746,5.678894,3.1860352,1.2499878,-4.894812,157.0
18707,-9.057946,-17.456299,6.8778687,3.1860352,1.2499878,-4.894812,157.0
18708,-9.057946,-17.456299,6.8778687,1.9541016,0.62340087,-5.3674073,157.0
18709,-11.806282,-11.269165,5.5595093,1.9541016,0.62340087,-5.3674073,157.0
18710,-11.806282,-11.269165,5.5595093,0.72004396,-0.057348635,-5.088098,157.0
18711,-9.360052,-2.4240875,2.7173576,0.72004396,-0.057348635,-5.088098,157.0
18712,-9.360052,-2.4240875,2.7173576,0.24001466,-0.07646485,-4.6569214,157.0
18713,-5.836113,4.771805,0.19778442,0.24001466,-0.07646485,-4.6569214,157.0
18714,-5.836113,4.771805,0.19778442,0.07327881,0.03717041,-4.0197144,157.0
18715,-4.1292543,8.963524,-1.5314941,0.07327881,0.03717041,-4.0197144,157.0
18716,-4.1292543,8.963524,-1.5314941,-0.02442627,0.0998291,-3.2242677,157.0
18717,-3.5641575,11.011032,-3.037674,-0.02442627,0.0998291,-3.2242677,157.0
18718,-3.5641575,11.011032,-3.037674,-0.16673584,0.19753419,-2.444751,157.0
18719,-2.8328447,12.208282,-4.389782,-0.16673584,0.19753419,-2.444751,157.0
18720,-2.8328447,12.208282,-4.389782,-0.45347902,0.31435546,-1.6917847,157.0
18721,-1.9419107,12.839066,-5.558079,-0.45347902,0.31435546,-1.6917847,157.0
18722,-1.9419107,12.839066,-5.558079,-0.89208984,0.4800293,-1.0322754,157.0
18723,-1.5165663,12.466408,-6.3021393,-0.89208984,0.4800293,-1.0322754,157.0
18724,-1.5165663,12.466408,-6.3021393,-1.1193603,0.67437744,-0.4704712,157.0
18725,-1.8500938,11.260323,-6.2063713,-1.1193603,0.67437744,-0.4704712,157.0
18726,-1.8500938,11.260323,-6.2063713,-1.1363525,0.85385746,0.16354981,157.0
18727,-2.3640833,9.808731,-5.3531837,-1.1363525,0.85385746,0.16354981,157.0
18728,-2.3640833,9.808731,-5.3531837,-1.0046631,0.8931519,0.8857178,157.0
18729,-2.2655344,8.403343,-4.359108,-1.0046631,0.8931519,0.8857178,157.0
18730,-2.2655344,8.403343,-4.359108,-1.088562,1.0067872,1.7618774,157.0
18731,-2.2655344,8.403343,-4.359108,-1.088562,1.0067872,1.7618774,156.0
18732,-1.8234873,6.6773834,-3.646099,-1.088562,1.0067872,1.7618774,156.0
18733,-1.8234873,6.6773834,-3.646099,-1.1979493,1.0864381,2.5711305,156.0
18734,-1.9080944,4.462059,-3.0555496,-1.1979493,1.0864381,2.5711305,156.0
18735,-1.9080944,4.462059,-3.0555496,-1.2999023,1.1607789,3.3230348,156.0
18736,-2.817894,1.9107895,-2.1093826,-1.2999023,1.1607789,3.3230348,156.0
18737,-2.817894,1.9107895,-2.1093826,-1.1618408,1.2383057,4.0122805,156.0
18738,-4.350422,-1.4675217,0.110126495,-1.1618408,1.2383057,4.0122805,156.0
18739,-4.350422,-1.4675217,0.110126495,-0.78164065,1.2404298,4.5634646,156.0
18740,-6.2973423,-7.476898,3.410122,-0.78164065,1.2404298,4.5634646,156.0
18741,-6.2973423,-7.476898,3.410122,-0.8857178,1.0736939,4.7365723,156.0
18742,-7.984785,-17.007248,6.824276,-0.8857178,1.0736939,4.7365723,156.0
18743,-7.984785,-17.007248,6.824276,-1.1968873,0.63826907,4.6834717,156.0
18744,-8.38126,-26.432304,10.251072,-1.1968873,0.63826907,4.6834717,156.0
18745,-8.38126,-26.432304,10.251072,-2.1473877,-0.6637573,4.173706,156.0
18746,-4.7823887,-28.424896,11.089172,-2.1473877,-0.6637573,4.173706,156.0
18747,-4.7823887,-28.424896,11.089172,-3.000183,-2.090039,3.2890503,156.0
18748,2.5837574,-20.34082,7.3838654,-3.000183,-2.090039,3.2890503,156.0
18749,2.5837574,-20.34082,7.3838654,-2.617859,-2.3279297,2.8164551,156.0
18750,8.818924,-7.851181,2.1889496,-2.617859,-2.3279297,2.8164551,156.0
18751,8.818924,-7.851181,2.1889496,-2.0061402,-2.3215578,2.536084,156.0
18752,11.661427,2.492569,-1.4455833,-2.0061402,-2.3215578,2.536084,156.0
18753,11.661427,2.492569,-1.4455833,-1.6015137,-2.2440307,2.3778443,156.0
18754,12.08273,8.069977,-3.1014252,-1.6015137,-2.2440307,2.3778443,156.0
18755,12.08273,8.069977,-3.1014252,-1.3678712,-1.9466676,2.0178223,156.0
18756,11.271727,9.996109,-3.5403671,-1.3678712,-1.9466676,2.0178223,156.0
18757,11.271727,9.996109,-3.5403671,-1.2138795,-1.7597535,1.8171021,156.0
18758,9.900048,10.091309,-3.456253,-1.2138795,-1.7597535,1.8171021,156.0
18759,9.900048,10.091309,-3.456253,-1.1448487,-1.5420411,1.531421,156.0
18760,8.158454,9.366638,-3.1084328,-1.1448487,-1.5420411,1.531421,156.0
18761,8.158454,9.366638,-3.1084328,-0.9154541,-1.3816773,1.1979493,156.0
18762,6.7281914,8.249496,-2.5835114,-0.9154541,-1.3816773,1.1979493,156.0
18763,6.7281914,8.249496,-2.5835114,-0.47790527,-1.2298096,0.6988037,156.0
18764,6.466391,6.987755,-1.97295,-0.47790527,-1.2298096,0.6988037,156.0
18765,6.466391,6.987755,-1.97295,-0.07540283,-0.96643066,0.19222413,156.0
18766,6.9219046,5.7947464,-1.3029594,-0.07540283,-0.96643066,0.19222413,156.0
18767,6.9219046,5.7947464,-1.3029594,0.30054933,-0.6446411,-0.3419678,156.0
18768,6.8993278,4.547615,-0.47415543,0.30054933,-0.6446411,-0.3419678,156.0
18769,6.8993278,4.547615,-0.47415543,0.63614506,-0.36533204,-0.9420044,156.0
18770,5.998149,3.012947,0.11387634,0.63614506,-0.36533204,-0.9420044,156.0
18771,5.998149,3.012947,0.11387634,0.91120607,-0.070092775,-1.5632813,156.0
18772,4.109286,0.8840637,-0.08925629,0.91120607,-0.070092775,-1.5632813,156.0
18773,4.109286,0.8840637,-0.08925629,0.8209351,0.2888672,-2.6582153,156.0
18774,1.4003925,-1.7495728,-0.37149048,0.8209351,0.2888672,-2.6582153,156.0
18775,1.4003925,-1.7495728,-0.37149048,1.3073364,0.4895874,-3.6055298,156.0
18776,-0.83287203,-5.460678,0.6848259,1.3073364,0.4895874,-3.6055298,156.0
18777,-0.83287203,-5.460678,0.6848259,1.6917847,0.51932377,-4.603821,156.0
18778,-1.6096326,-11.195534,3.7706146,1.6917847,0.51932377,-4.603821,156.0
18779,-1.6096326,-11.195534,3.7706146,2.5063477,0.4322388,-5.070044,156.0
18780,-2.0617294,-17.77684,6.6296387,2.5063477,0.4322388,-5.070044,156.0
18781,-2.0617294,-17.77684,6.6296387,3.1998413,0.46728516,-5.4576783,156.0
18782,-6.4009094,-19.317612,6.4019547,3.1998413,0.46728516,-5.4576783,156.0
18783,-6.4009094,-19.317612,6.4019547,1.5133667,0.20603028,-6.506946,156.0
18784,-11.234913,-12.827423,3.8105316,1.5133667,0.20603028,-6.506946,156.0
18785,-11.234913,-12.827423,3.8105316,-0.18691407,-0.362146,-6.146924,156.0
18786,-9.880923,-3.9491577,1.4439697,-0.18691407,-0.362146,-6.146924,156.0
18787,-9.880923,-3.9491577,1.4439697,-0.1359375,-0.14868164,-5.717871,156.0
18788,-5.7064357,2.9433594,0.330822,-0.1359375,-0.14868164,-5.717871,156.0
18789,-5.7064357,2.9433594,0.330822,0.43011475,0.24107666,-4.9139285,156.0
18790,-3.875061,7.459755,-0.67972565,0.43011475,0.24107666,-4.9139285,156.0
18791,-3.875061,7.459755,-0.67972565,0.48427734,0.46728516,-4.0473266,156.0
18792,-4.242981,10.769485,-2.4293404,0.48427734,0.46728516,-4.0473266,156.0
