,accx,accy,accz,gyrox,gyroy,gyroz,heart rate
17993,run,run,run,run,run,run,run
17994,-0.29577303,0.0061941147,0.091525316,0.04885254,-0.10301514,-0.033984374,94.0
17995,-0.23990202,0.0047478676,0.07336664,0.04885254,-0.10301514,-0.033984374,94.0
17996,-0.23990202,0.0047478676,0.07336664,-0.007434082,-0.013806152,-0.028674318,94.0
17997,-0.23990202,0.0047478676,0.07336664,0.0031860352,-0.03186035,-0.057348635,94.0
17998,-0.19895267,0.002418995,0.058351517,0.0031860352,-0.03186035,-0.057348635,94.0
17999,-0.58460164,-2.0088196,-0.261168,0.0031860352,-0.03186035,-0.057348635,94.0
18000,-0.58460164,-2.0088196,-0.261168,0.015930176,-0.06265869,-0.06478272,94.0
18001,-0.5147152,-1.689075,-0.28057742,0.015930176,-0.06265869,-0.06478272,94.0
18002,-0.5147152,-1.689075,-0.28057742,0.029736329,-0.06796875,-0.047790527,94.0
18003,-0.35553432,-1.4447536,-0.2006582,0.029736329,-0.06796875,-0.047790527,94.0
18004,-0.35553432,-1.4447536,-0.2006582,0.032922365,-0.060534667,-0.015930176,94.0
18005,-0.19790411,-1.1817307,-0.072916746,0.032922365,-0.060534667,-0.015930176,94.0
18006,-0.19790411,-1.1817307,-0.072916746,0.04460449,-0.039294433,-0.016992187,94.0
18007,-0.10864067,-0.9341788,0.032145143,0.04460449,-0.039294433,-0.016992187,94.0
18008,-0.10864067,-0.9341788,0.032145143,0.052038576,-0.02442627,-0.02442627,94.0
18009,-2.1220322,-3.888017,-0.845341,0.052038576,-0.02442627,-0.02442627,94.0
18010,-2.1220322,-3.888017,-0.845341,0.052038576,-0.022302246,-0.045666505,94.0
18011,-1.7608582,-3.0651133,-0.7102084,0.052038576,-0.022302246,-0.045666505,94.0
18012,-1.7608582,-3.0651133,-0.7102084,0.0180542,-0.03717041,-0.05522461,94.0
18013,-1.4447949,-2.4402986,-0.6051418,0.0180542,-0.03717041,-0.05522461,94.0
18014,-1.4447949,-2.4402986,-0.6051418,0.0010620117,-0.03717041,-0.032922365,94.0
18015,-1.1571909,-1.982439,-0.50199676,0.0010620117,-0.03717041,-0.032922365,94.0
18016,-1.1571909,-1.982439,-0.50199676,0.0063720704,-0.04141846,-0.015930176,94.0
18017,-0.9377401,-1.5556656,-0.40632153,0.0063720704,-0.04141846,-0.015930176,94.0
18018,-0.9377401,-1.5556656,-0.40632153,-0.0010620117,-0.06796875,-0.013806152,94.0
18019,-0.8040007,-1.2000257,-0.35237655,-0.0010620117,-0.06796875,-0.013806152,94.0
18020,-0.8040007,-1.2000257,-0.35237655,0.03717041,-0.093457036,-0.0063720704,94.0
18021,-0.7516234,-1.0114244,-0.34547547,0.03717041,-0.093457036,-0.0063720704,94.0
18022,-0.7516234,-1.0114244,-0.34547547,0.121069334,-0.1083252,0.0,94.0
18023,-0.7516234,-1.0114244,-0.34547547,0.27293703,-0.11257324,0.04248047,94.0
18024,-0.7078295,-1.0180874,-0.43156835,0.27293703,-0.11257324,0.04248047,94.0
18025,-0.4792641,-1.0530562,-0.4509554,0.27293703,-0.11257324,0.04248047,94.0
18026,-0.4792641,-1.0530562,-0.4509554,0.29417726,-0.11044922,0.18160401,94.0
18027,-0.238111,-0.8935559,-0.2800026,0.29417726,-0.11044922,0.18160401,94.0
18028,-0.238111,-0.8935559,-0.2800026,0.44498292,-0.04248047,0.29417726,94.0
18029,-0.23528862,-0.59126073,-0.12461243,0.44498292,-0.04248047,0.29417726,94.0
18030,-0.23528862,-0.59126073,-0.12461243,0.3982544,-0.04885254,0.30161133,94.0
18031,-0.32999116,-0.16872393,-0.099055186,0.3982544,-0.04885254,0.30161133,94.0
18032,-0.32999116,-0.16872393,-0.099055186,0.2899292,-0.09664307,0.2166504,94.0
18033,-0.38871217,0.17656872,-0.08195411,0.2899292,-0.09664307,0.2166504,94.0
18034,-0.38871217,0.17656872,-0.08195411,0.06796875,-0.15717773,0.12000733,94.0
18035,-0.33594534,0.1958204,-0.054772273,0.06796875,-0.15717773,0.12000733,94.0
18036,-0.33594534,0.1958204,-0.054772273,0.09133301,-0.16779785,0.107263185,94.0
18037,-0.22394425,0.02668807,-0.037213817,0.09133301,-0.16779785,0.107263185,94.0
18038,-0.22394425,0.02668807,-0.037213817,0.07646485,-0.15505372,0.11469727,94.0
18039,-0.12354016,-0.14764369,-0.001719296,0.07646485,-0.15505372,0.11469727,94.0
18040,-0.12354016,-0.14764369,-0.001719296,0.033984374,-0.14655761,0.15080567,94.0
18041,-0.11882725,-0.2895261,0.0669229,0.033984374,-0.14655761,0.15080567,94.0
18042,-0.11882725,-0.2895261,0.0669229,0.027612304,-0.14549561,0.18797608,94.0
18043,-0.1835506,-0.34265605,0.15811595,0.027612304,-0.14549561,0.18797608,94.0
18044,-0.1835506,-0.34265605,0.15811595,0.025488282,-0.18054199,0.22833252,94.0
18045,-0.2078268,-0.32383186,0.26748398,0.025488282,-0.18054199,0.22833252,94.0
18046,-0.2078268,-0.32383186,0.26748398,0.015930176,-0.20921631,0.2793091,94.0
18047,-0.21761644,-0.31508356,0.3145365,0.015930176,-0.20921631,0.2793091,94.0
18048,-0.21761644,-0.31508356,0.3145365,0.0053100586,-0.22833252,0.3462158,94.0
18049,-0.21761644,-0.31508356,0.3145365,-0.035046387,-0.23364258,0.41843262,94.0
18050,-0.3053676,-0.29172748,0.2271175,-0.035046387,-0.23364258,0.41843262,94.0
18051,-0.42658168,-0.21026188,0.03627163,-0.035046387,-0.23364258,0.41843262,94.0
18052,-0.42658168,-0.21026188,0.03627163,-0.107263185,-0.20603028,0.5256958,94.0
18053,-0.61043036,-0.22412992,-0.10486942,-0.107263185,-0.20603028,0.5256958,94.0
18054,-0.61043036,-0.22412992,-0.10486942,-0.17416993,-0.20603028,0.6690674,94.0
18055,-0.8545308,-0.37863255,-0.115267605,-0.17416993,-0.20603028,0.6690674,94.0
18056,-0.8545308,-0.37863255,-0.115267605,-0.1731079,-0.2527588,0.7965088,94.0
18057,-1.0788517,-0.45609206,-0.057509497,-0.1731079,-0.2527588,0.7965088,94.0
18058,-1.0788517,-0.45609206,-0.057509497,-0.25063476,-0.3079834,0.9451904,94.0
18059,-1.1528763,-0.22459042,-0.044237576,-0.25063476,-0.3079834,0.9451904,94.0
18060,-1.1528763,-0.22459042,-0.044237576,-0.5076416,-0.33878174,1.1490967,94.0
18061,-1.0291492,0.2790923,0.0054180436,-0.5076416,-0.33878174,1.1490967,94.0
18062,-1.0291492,0.2790923,0.0054180436,-1.1182984,-0.36002198,1.4570801,94.0
18063,-0.7889688,0.76118886,0.14657077,-1.1182984,-0.36002198,1.4570801,94.0
18064,-0.7889688,0.76118886,0.14657077,-1.9785279,-0.4088745,1.7512573,94.0
18065,-0.553746,0.7859897,0.2411946,-1.9785279,-0.4088745,1.7512573,94.0
18066,-0.553746,0.7859897,0.2411946,-2.6529052,-0.5140137,1.9371094,94.0
18067,-0.3527379,0.27609402,0.24395667,-2.6529052,-0.5140137,1.9371094,94.0
18068,-0.3527379,0.27609402,0.24395667,-2.9449584,-0.6467652,2.0188844,94.0
18069,-0.11207318,-0.2767322,0.31232843,-2.9449584,-0.6467652,2.0188844,94.0
18070,-0.11207318,-0.2767322,0.31232843,-2.9120362,-0.77739257,2.0178223,94.0
18071,0.1137228,-0.46699125,0.46794134,-2.9120362,-0.77739257,2.0178223,94.0
18072,0.1137228,-0.46699125,0.46794134,-2.6858277,-0.93350834,1.9859619,94.0
18073,0.23775554,-0.3076018,0.5871216,-2.6858277,-0.93350834,1.9859619,94.0
18074,0.23775554,-0.3076018,0.5871216,-2.4734254,-1.0460815,1.993396,94.0
18075,0.2898872,-0.1635009,0.562544,-2.4734254,-1.0460815,1.993396,94.0
18076,0.2898872,-0.1635009,0.562544,-2.2344728,-1.0981201,1.9519776,94.0
18077,0.35778856,-0.18272942,0.5062486,-2.2344728,-1.0981201,1.9519776,94.0
18078,0.35778856,-0.18272942,0.5062486,-1.7831177,-1.083252,1.8553345,94.0
18079,0.43604767,-0.06392035,0.58706677,-1.7831177,-1.083252,1.8553345,94.0
18080,0.43604767,-0.06392035,0.58706677,-1.1926392,-1.0397094,1.6896607,94.0
18081,0.44174588,0.37162983,0.7360475,-1.1926392,-1.0397094,1.6896607,94.0
18082,0.44174588,0.37162983,0.7360475,-0.8379273,-1.0174073,1.5770874,94.0
18083,0.4003694,0.9869523,0.711421,-0.8379273,-1.0174073,1.5770874,94.0
18084,0.4003694,0.9869523,0.711421,-0.5777344,-0.9802368,1.4390259,94.0
18085,0.4003694,0.9869523,0.711421,-0.38763428,-0.9494385,1.3094605,94.0
18086,0.34955585,1.5380849,0.40633166,-0.38763428,-0.9494385,1.3094605,94.0
18087,0.3410704,1.823339,-0.084846735,-0.38763428,-0.9494385,1.3094605,94.0
18088,0.3410704,1.823339,-0.084846735,-0.18479005,-0.9154541,1.1055542,94.0
18089,0.4020921,1.866264,-0.57979155,-0.18479005,-0.9154541,1.1055542,94.0
18090,0.4020921,1.866264,-0.57979155,-0.025488282,-0.90908206,0.8612915,94.0
18091,0.49368298,1.7994443,-1.005032,-0.025488282,-0.90908206,0.8612915,94.0
18092,0.49368298,1.7994443,-1.005032,0.08920898,-0.91757816,0.5533081,94.0
18093,0.5854006,1.7352343,-1.3597872,0.08920898,-0.91757816,0.5533081,94.0
18094,0.5854006,1.7352343,-1.3597872,0.14018555,-0.9515625,0.19434814,94.0
18095,0.67198265,1.7475381,-1.6614016,0.14018555,-0.9515625,0.19434814,94.0
18096,0.67198265,1.7475381,-1.6614016,0.16885987,-1.0407715,-0.19647217,94.0
18097,0.8188361,1.7870197,-1.9178176,0.16885987,-1.0407715,-0.19647217,94.0
18098,0.8188361,1.7870197,-1.9178176,0.18054199,-1.2021973,-0.6510132,94.0
18099,1.1299956,1.7246721,-2.0952406,0.18054199,-1.2021973,-0.6510132,94.0
18100,1.1299956,1.7246721,-2.0952406,0.17841797,-1.4145997,-1.1597168,94.0
18101,1.4937915,1.4493177,-2.1389122,0.17841797,-1.4145997,-1.1597168,94.0
18102,1.4937915,1.4493177,-2.1389122,0.14018555,-1.6694825,-1.6641724,94.0
18103,1.7329605,1.0237241,-2.2909517,0.14018555,-1.6694825,-1.6641724,94.0
18104,1.7329605,1.0237241,-2.2909517,0.0053100586,-1.9041871,-2.1091554,94.0
18105,1.8616736,0.90069294,-2.7898047,0.0053100586,-1.9041871,-2.1091554,94.0
18106,1.8616736,0.90069294,-2.7898047,-0.4364868,-1.987024,-2.5700684,94.0
18107,2.010811,1.2620826,-3.081746,-0.4364868,-1.987024,-2.5700684,94.0
18108,2.010811,1.2620826,-3.081746,-1.1310425,-2.1367676,-3.073462,94.0
18109,2.3582215,1.7258525,-2.586027,-1.1310425,-2.1367676,-3.073462,94.0
18110,2.3582215,1.7258525,-2.586027,-2.080481,-2.3119996,-3.5959718,94.0
18111,3.0249195,1.7926817,-1.550035,-2.080481,-2.3119996,-3.5959718,94.0
18112,3.0249195,1.7926817,-1.550035,-3.2964845,-2.4872315,-4.2034426,94.0
18113,3.9181046,1.2534204,-0.5652113,-3.2964845,-2.4872315,-4.2034426,94.0
18114,3.9181046,1.2534204,-0.5652113,-4.5740848,-2.552014,-4.9309206,94.0
18115,5.1241198,0.32459927,-0.07089472,-4.5740848,-2.552014,-4.9309206,94.0
18116,5.1241198,0.32459927,-0.07089472,-5.6658325,-2.3651001,-5.768848,94.0
18117,6.659684,-0.9658823,0.06906557,-5.6658325,-2.3651001,-5.768848,94.0
18118,6.659684,-0.9658823,0.06906557,-6.2796755,-1.9647217,-6.446411,94.0
18119,7.658057,-3.0522103,0.54255724,-6.2796755,-1.9647217,-6.446411,94.0
18120,7.658057,-3.0522103,0.54255724,-5.9292116,-1.5112427,-6.7533326,94.0
18121,7.515545,-5.742342,1.9775517,-5.9292116,-1.5112427,-6.7533326,94.0
18122,7.515545,-5.742342,1.9775517,-4.239551,-1.2266235,-6.7395263,94.0
18123,7.7264977,-7.6275287,3.4650736,-4.239551,-1.2266235,-6.7395263,94.0
18124,7.7264977,-7.6275287,3.4650736,-1.7661256,-1.0195312,-6.697046,94.0
18125,9.043869,-7.6763883,4.410206,-1.7661256,-1.0195312,-6.697046,94.0
18126,9.043869,-7.6763883,4.410206,0.92713624,-1.3360108,-5.7380495,94.0
18127,8.562353,-6.332187,6.066202,0.92713624,-1.3360108,-5.7380495,94.0
18128,8.562353,-6.332187,6.066202,1.905249,-1.6641724,-4.1938844,94.0
18129,5.1861,-4.8854156,6.911433,1.905249,-1.6641724,-4.1938844,94.0
18130,5.1861,-4.8854156,6.911433,0.26019287,-1.3466309,-2.2843874,94.0
18131,1.5213661,-4.780415,4.279928,0.26019287,-1.3466309,-2.2843874,94.0
18132,1.5213661,-4.780415,4.279928,-2.3311157,-0.013806152,-0.60109866,94.0
18133,-1.8299522,-6.6229405,0.29252148,-2.3311157,-0.013806152,-0.60109866,94.0
18134,-1.8299522,-6.6229405,0.29252148,-4.0207763,1.3423828,0.68924564,94.0
18135,-6.3073215,-9.783142,-1.3252234,-4.0207763,1.3423828,0.68924564,94.0
18136,-6.3073215,-9.783142,-1.3252234,-3.1902833,1.7278931,1.26167,94.0
18137,-11.917195,-11.382751,-0.8617413,-3.1902833,1.7278931,1.26167,94.0
18138,-11.917195,-11.382751,-0.8617413,-1.9742798,1.9328613,1.7693115,94.0
18139,-17.324955,-8.535461,-0.46119487,-1.9742798,1.9328613,1.7693115,94.0
18140,-17.324955,-8.535461,-0.46119487,-1.621692,2.0411866,2.2259767,94.0
18141,-21.485025,-3.0566769,-0.17634118,-1.621692,2.0411866,2.2259767,94.0
18142,-21.485025,-3.0566769,-0.17634118,-1.1002442,1.807544,2.2886353,94.0
18143,-22.999435,1.4588089,0.44419324,-1.1002442,1.807544,2.2886353,94.0
18144,-22.999435,1.4588089,0.44419324,-0.52038574,1.4252198,2.4936035,94.0
18145,-22.999435,1.4588089,0.44419324,-0.72960204,0.8973999,2.9789429,94.0
18146,-20.132496,4.0159855,0.75694156,-0.72960204,0.8973999,2.9789429,94.0
18147,-13.728372,5.118843,0.67830706,-0.72960204,0.8973999,2.9789429,94.0
18148,-13.728372,5.118843,0.67830706,-1.1044922,0.5501221,3.3039186,94.0
18149,-7.2039986,5.591998,0.5938909,-1.1044922,0.5501221,3.3039186,94.0
18150,-7.2039986,5.591998,0.5938909,-1.2850342,0.32816163,3.445166,94.0
18151,-2.8520784,5.5362206,0.3252349,-1.2850342,0.32816163,3.445166,94.0
18152,-2.8520784,5.5362206,0.3252349,-0.79119873,0.012744141,3.2423217,94.0
18153,-0.43130875,4.7794285,-0.1932056,-0.79119873,0.012744141,3.2423217,94.0
18154,-0.43130875,4.7794285,-0.1932056,0.3419678,-0.16142578,2.8546875,94.0
18155,1.027194,4.0919514,-0.54846096,0.3419678,-0.16142578,2.8546875,94.0
18156,1.027194,4.0919514,-0.54846096,1.2213135,-0.2899292,2.4543092,94.0
18157,2.2692165,3.2967057,-0.7504997,1.2213135,-0.2899292,2.4543092,94.0
18158,2.2692165,3.2967057,-0.7504997,1.5484132,-0.4991455,2.2142944,94.0
18159,4.5315228,0.6709094,-1.3837982,1.5484132,-0.4991455,2.2142944,94.0
18160,4.5315228,0.6709094,-1.3837982,1.7640015,-0.38657227,2.0656128,94.0
18161,10.309276,-5.0802402,-1.5406812,1.7640015,-0.38657227,2.0656128,94.0
18162,10.309276,-5.0802402,-1.5406812,2.538208,1.0694458,1.7034668,94.0
18163,19.385275,-13.478975,0.8856069,2.538208,1.0694458,1.7034668,94.0
18164,19.385275,-13.478975,0.8856069,4.432837,0.84323734,3.08302,94.0
18165,26.895536,-18.797499,4.0445204,4.432837,0.84323734,3.08302,94.0
18166,26.895536,-18.797499,4.0445204,5.4449344,0.5894165,5.2697024,94.0
18167,27.80016,-13.687437,3.9893398,5.4449344,0.5894165,5.2697024,94.0
18168,27.80016,-13.687437,3.9893398,3.9528077,0.9239502,7.505237,94.0
18169,22.12073,-2.0900383,0.12971663,3.9528077,0.9239502,7.505237,94.0
18170,22.12073,-2.0900383,0.12971663,1.905249,1.2075074,8.200854,94.0
18171,13.607069,7.6428375,-5.398961,1.905249,1.2075074,8.200854,94.0
18172,13.607069,7.6428375,-5.398961,1.2446778,1.4135376,7.77605,94.0
18173,5.0851784,13.727697,-9.45789,1.2446778,1.4135376,7.77605,94.0
18174,5.0851784,13.727697,-9.45789,0.9759888,1.4252198,6.6418214,94.0
18175,-1.6593361,16.036028,-9.771683,0.9759888,1.4252198,6.6418214,94.0
18176,-1.6593361,16.036028,-9.771683,0.8230591,1.2308716,5.3323607,94.0
18177,-5.7486477,14.905165,-7.071253,0.8230591,1.2308716,5.3323607,94.0
18178,-5.7486477,14.905165,-7.071253,0.8336792,0.62552494,4.213001,94.0
18179,-7.420439,12.699986,-4.1636186,0.8336792,0.62552494,4.213001,94.0
18180,-7.420439,12.699986,-4.1636186,0.4991455,-0.26762697,3.2975464,94.0
18181,-7.764147,12.180485,-3.057787,0.4991455,-0.26762697,3.2975464,94.0
18182,-7.764147,12.180485,-3.057787,-0.14868164,-0.9197022,2.5148437,94.0
18183,-7.60674,13.207486,-3.0996232,-0.14868164,-0.9197022,2.5148437,94.0
18184,-7.60674,13.207486,-3.0996232,-0.85385746,-1.445398,1.8893188,94.0
18185,-6.929631,13.06085,-2.3340807,-0.85385746,-1.445398,1.8893188,94.0
18186,-6.929631,13.06085,-2.3340807,-1.4199097,-2.2227905,1.2542359,94.0
18187,-5.7987957,10.399157,-0.35676622,-1.4199097,-2.2227905,1.2542359,94.0
18188,-5.7987957,10.399157,-0.35676622,-1.3126465,-3.0564697,0.14974366,94.0
18189,-4.6920643,7.331691,1.6661377,-1.3126465,-3.0564697,0.14974366,94.0
18190,-4.6920643,7.331691,1.6661377,-1.0078491,-3.7478395,-1.1002442,94.0
18191,-3.9297132,5.9179897,2.8307862,-1.0078491,-3.7478395,-1.1002442,94.0
18192,-3.9297132,5.9179897,2.8307862,-1.0078491,-3.7478395,-1.1002442,0.0
18193,-3.9297132,5.9179897,2.8307862,-1.3307008,-3.9538696,-2.0677369,0.0
18194,-3.4331746,5.3192797,2.9200735,-1.3307008,-3.9538696,-2.0677369,0.0
18195,-3.4331746,5.3192797,2.9200735,-1.6705445,-3.3963134,-2.9502685,0.0
18196,-2.8219914,4.1002235,2.3769646,-1.6705445,-3.3963134,-2.9502685,0.0
18197,-2.8219914,4.1002235,2.3769646,-2.5743165,-2.3141236,-3.5811036,0.0
18198,-2.0974245,2.3962803,2.6411839,-2.5743165,-2.3141236,-3.5811036,0.0
18199,-2.0974245,2.3962803,2.6411839,-3.9262574,-1.1257324,-4.1885743,0.0
18200,-0.727427,-1.1615772,4.046846,-3.9262574,-1.1257324,-4.1885743,0.0
18201,-0.727427,-1.1615772,4.046846,-12.167468,-1.3073364,-4.8512697,0.0
18202,1.431889,-4.685255,0.8185682,-12.167468,-1.3073364,-4.8512697,0.0
18203,1.431889,-4.685255,0.8185682,-4.705774,2.989563,-4.1142335,0.0
18204,7.5810585,-6.3766584,-4.3609414,-4.705774,2.989563,-4.1142335,0.0
18205,7.5810585,-6.3766584,-4.3609414,-8.447242,5.2017336,-4.5093017,0.0
18206,19.217129,-20.39122,-8.344234,-8.447242,5.2017336,-4.5093017,0.0
18207,19.217129,-20.39122,-8.344234,-5.885669,8.857178,-5.758228,0.0
18208,19.217129,-20.39122,-8.344234,-0.18903808,6.603589,-4.35531,0.0
18209,23.122166,-38.173462,-6.1240206,-0.18903808,6.603589,-4.35531,0.0
18210,-6.5236053,-10.175598,7.6094995,-0.18903808,6.603589,-4.35531,0.0
18211,-6.5236053,-10.175598,7.6094995,1.2468017,3.4855225,-0.5851685,0.0
18212,-6.5236053,-10.175598,7.6094995,-0.5076416,1.4953126,0.60216063,0.0
18213,-6.5236053,-10.175598,7.6094995,-2.3672242,1.1544068,1.358313,0.0
18214,-14.355225,-4.828101,-0.44908237,-2.3672242,1.1544068,1.358313,0.0
18215,-14.355225,-4.828101,-0.44908237,-3.5959718,1.179895,1.1692749,0.0
18216,-19.56416,-1.6147761,-3.8089247,-3.5959718,1.179895,1.1692749,0.0
18217,-19.56416,-1.6147761,-3.8089247,-2.902478,0.8814697,0.87615967,0.0
18218,-21.462597,1.6401248,-0.7161217,-2.902478,0.8814697,0.87615967,0.0
18219,-21.462597,1.6401248,-0.7161217,-1.6131958,0.46834716,0.6956177,0.0
18220,-19.964731,4.471353,4.026492,-1.6131958,0.46834716,0.6956177,0.0
18221,-19.964731,4.471353,4.026492,-0.46409914,-0.04248047,0.51932377,0.0
18222,-16.005917,6.031538,6.61,-0.46409914,-0.04248047,0.51932377,0.0
18223,-16.005917,6.031538,6.61,0.22196046,-0.59047854,0.67225343,0.0
18224,-11.355856,6.175548,6.8931637,0.22196046,-0.59047854,0.67225343,0.0
18225,-11.355856,6.175548,6.8931637,0.8028809,-0.74022216,0.9759888,0.0
18226,-7.767827,5.8905725,6.39384,0.8028809,-0.74022216,0.9759888,0.0
18227,-7.767827,5.8905725,6.39384,0.9770508,-0.7986328,1.085376,0.0
18228,-5.7632484,5.7814646,5.9092736,0.9770508,-0.7986328,1.085376,0.0
18229,-5.7632484,5.7814646,5.9092736,0.814563,-1.0938721,1.3859253,0.0
18230,-4.7091217,5.4186535,5.2039204,0.814563,-1.0938721,1.3859253,0.0
18231,-4.7091217,5.4186535,5.2039204,1.0439576,-1.4751343,1.6376221,0.0
18232,-3.487341,4.652196,4.1080217,1.0439576,-1.4751343,1.6376221,0.0
18233,-3.487341,4.652196,4.1080217,1.4995606,-1.8224121,1.6461182,0.0
18234,-1.6323166,3.4078283,2.6397986,1.4995606,-1.8224121,1.6461182,0.0
18235,-1.6323166,3.4078283,2.6397986,2.0518067,-2.1165893,1.4284058,0.0
18236,0.5310116,1.1707449,0.68899965,2.0518067,-2.1165893,1.4284058,0.0
18237,0.5310116,1.1707449,0.68899965,2.9141603,-2.5817506,1.0641358,0.0
18238,2.5512743,-2.3513803,-1.9493375,2.9141603,-2.5817506,1.0641358,0.0
18239,2.5512743,-2.3513803,-1.9493375,4.0260863,-3.0840821,0.50020754,0.0
18240,4.758915,-9.047266,-4.7282324,4.0260863,-3.0840821,0.50020754,0.0
18241,4.758915,-9.047266,-4.7282324,5.500159,-3.3124146,-0.82730716,0.0
18242,11.665457,-21.973238,-5.613311,5.500159,-3.3124146,-0.82730716,0.0
18243,11.665457,-21.973238,-5.613311,7.822778,-1.4092896,-1.7650635,0.0
18244,23.972904,-34.390797,-2.4449334,7.822778,-1.4092896,-1.7650635,0.0
18245,23.972904,-34.390797,-2.4449334,7.619934,-1.4039795,2.162256,0.0
18246,23.972904,-34.390797,-2.4449334,6.698108,-1.3200806,4.003784,0.0
18247,26.406254,-31.387955,-0.39111525,6.698108,-1.3200806,4.003784,0.0
18248,11.785172,14.735437,-11.095351,6.698108,-1.3200806,4.003784,0.0
18249,11.785172,14.735437,-11.095351,0.6085327,0.37701416,6.5685425,0.0
18250,11.785172,14.735437,-11.095351,-0.45772704,0.5809204,6.666248,0.0
18251,11.785172,14.735437,-11.095351,-1.3678712,0.09770508,5.689197,0.0
18252,6.4748545,15.293343,-9.198815,-1.3678712,0.09770508,5.689197,0.0
18253,6.4748545,15.293343,-9.198815,-0.8814697,-0.2177124,5.0180054,0.0
18254,-0.8461056,16.243525,-2.6554508,-0.8814697,-0.2177124,5.0180054,0.0
18255,-0.8461056,16.243525,-2.6554508,0.89208984,-1.3795532,3.2497559,0.0
18256,-1.2612963,13.581966,-0.52878,0.89208984,-1.3795532,3.2497559,0.0
18257,-1.2612963,13.581966,-0.52878,0.8878418,-1.6174439,2.8504395,0.0
18258,-1.9972935,13.194369,1.0416121,0.8878418,-1.6174439,2.8504395,0.0
18259,-1.9972935,13.194369,1.0416121,0.3069214,-1.7363892,1.7586914,0.0
18260,-1.5597243,11.520791,0.6203623,0.3069214,-1.7363892,1.7586914,0.0
18261,-1.5597243,11.520791,0.6203623,-0.0010620117,-1.6439942,1.5229248,0.0
18262,-0.82028913,12.181574,0.18597507,-0.0010620117,-1.6439942,1.5229248,0.0
18263,-0.82028913,12.181574,0.18597507,-1.171399,-1.1427246,1.0906861,0.0
18264,-0.38269615,10.844551,0.47426844,-1.171399,-1.1427246,1.0906861,0.0
18265,-0.38269615,10.844551,0.47426844,-1.7140869,-0.90058595,1.0036011,0.0
18266,-0.52406454,10.765461,1.7157183,-1.7140869,-0.90058595,1.0036011,0.0
18267,-0.52406454,10.765461,1.7157183,-2.4840455,-0.3345337,0.51826173,0.0
18268,-0.63040876,8.662735,2.3918004,-2.4840455,-0.3345337,0.51826173,0.0
18269,-0.63040876,8.662735,2.3918004,-2.4489992,-0.18585205,0.30161133,0.0
18270,-0.28939772,4.576721,4.1535406,-2.4489992,-0.18585205,0.30161133,0.0
18271,-0.28939772,4.576721,4.1535406,-1.7703736,0.5915405,-0.70305175,0.0
18272,0.10091591,2.556055,3.8970635,-1.7703736,0.5915405,-0.70305175,0.0
18273,0.10091591,2.556055,3.8970635,-1.4687623,0.90058595,-1.1533448,0.0
18274,1.5529737,-0.21598339,3.376379,-1.4687623,0.90058595,-1.1533448,0.0
18275,1.5529737,-0.21598339,3.376379,-0.68499756,2.090039,-2.340674,0.0
18276,1.4430261,-0.56065273,2.508928,-0.68499756,2.090039,-2.340674,0.0
18277,1.4430261,-0.56065273,2.508928,-0.5968506,2.6730835,-2.8759277,0.0
18278,4.9354024,-5.0532465,-3.4463,-0.5968506,2.6730835,-2.8759277,0.0
18279,4.9354024,-5.0532465,-3.4463,-0.89102787,5.5808716,-4.4976196,0.0
18280,6.808405,-9.92845,-6.8588104,-0.89102787,5.5808716,-4.4976196,0.0
18281,6.808405,-9.92845,-6.8588104,0.004248047,8.2167845,-4.1949463,0.0
18282,14.154976,-34.488415,-5.8468137,0.004248047,8.2167845,-4.1949463,0.0
18283,14.154976,-34.488415,-5.8468137,-2.3141236,7.450012,-4.100427,0.0
18284,10.979657,-33.68946,1.513174,-2.3141236,7.450012,-4.100427,0.0
18285,10.979657,-33.68946,1.513174,-5.3620973,5.5298953,-2.8706176,0.0
18286,3.7260475,-27.901289,11.388273,-5.3620973,5.5298953,-2.8706176,0.0
18287,3.7260475,-27.901289,11.388273,-4.1599,2.8238893,-0.23789063,0.0
18288,-9.162839,-7.544079,4.176256,-4.1599,2.8238893,-0.23789063,0.0
18289,-9.162839,-7.544079,4.176256,0.6074707,2.4808595,-0.07115479,0.0
18290,-10.836277,-1.559555,-1.531517,0.6074707,2.4808595,-0.07115479,0.0
18291,-10.836277,-1.559555,-1.531517,0.8612915,2.7283082,-0.41737062,0.0
18292,-14.8281765,6.067004,-9.291779,0.8612915,2.7283082,-0.41737062,0.0
18293,-14.8281765,6.067004,-9.291779,0.6074707,2.9290283,-1.0269654,0.0
18294,-16.588066,11.098049,-9.981079,0.6074707,2.9290283,-1.0269654,0.0
18295,-16.588066,11.098049,-9.981079,-1.0768799,2.3757203,-0.88996583,0.0
18296,-15.773848,13.525729,-5.029724,-1.0768799,2.3757203,-0.88996583,0.0
18297,-15.773848,13.525729,-5.029724,-2.7431762,1.7300171,-0.74659425,0.0
18298,-13.030101,12.583291,0.8143921,-2.7431762,1.7300171,-0.74659425,0.0
18299,-13.030101,12.583291,0.8143921,-2.6656494,0.7519043,-0.74022216,0.0
18300,-9.4818325,9.872358,4.892554,-2.6656494,0.7519043,-0.74022216,0.0
18301,-9.4818325,9.872358,4.892554,-1.2722901,-0.24213867,-0.76358646,0.0
18302,-5.735771,8.476731,7.76375,-1.2722901,-0.24213867,-0.76358646,0.0
18303,-5.735771,8.476731,7.76375,0.38551027,-1.0471436,-0.50020754,0.0
18304,-4.2820377,7.491566,6.981349,0.38551027,-1.0471436,-0.50020754,0.0
18305,-4.2820377,7.491566,6.981349,0.74022216,-1.2340577,-0.4163086,0.0
18306,-3.3690262,7.6055455,6.6766686,0.74022216,-1.2340577,-0.4163086,0.0
18307,-3.3690262,7.6055455,6.6766686,1.1374146,-1.4007934,-0.12956543,0.0
18308,-3.3969421,7.5487556,6.0650535,1.1374146,-1.4007934,-0.12956543,0.0
18309,-3.3969421,7.5487556,6.0650535,0.7306641,-1.4517701,0.26444092,0.0
18310,-3.7252922,7.2235994,5.0904584,0.7306641,-1.4517701,0.26444092,0.0
18311,-3.7252922,7.2235994,5.0904584,0.17416993,-1.4783204,0.49064943,0.0
18312,-3.910532,5.902855,3.5218296,0.17416993,-1.4783204,0.49064943,0.0
18313,-3.910532,5.902855,3.5218296,0.48640138,-1.8011719,0.55543214,0.0
18314,-3.910532,5.902855,3.5218296,0.48640138,-1.8011719,0.55543214,0.0
18315,-3.3495188,3.2680483,1.3343093,0.48640138,-1.8011719,0.55543214,0.0
18316,-3.3495188,3.2680483,1.3343093,1.3954834,-2.437317,0.4725952,0.0
18317,-1.2833023,-0.095498085,-1.4527307,1.3954834,-2.437317,0.4725952,0.0
18318,-1.2833023,-0.095498085,-1.4527307,2.4043946,-2.6603394,0.18054199,0.0
18319,1.0142021,-5.5539746,-4.5731587,2.4043946,-2.6603394,0.18054199,0.0
18320,1.0142021,-5.5539746,-4.5731587,4.242737,-2.732556,-0.043542482,0.0
18321,3.1504002,-17.819717,-6.616535,4.242737,-2.732556,-0.043542482,0.0
18322,3.1504002,-17.819717,-6.616535,6.1129394,-2.7877808,0.06265869,0.0
18323,13.2446,-47.56852,-4.5301666,6.1129394,-2.7877808,0.06265869,0.0
18324,13.2446,-47.56852,-4.5301666,6.059839,-2.3279297,4.1768923,0.0
18325,13.2446,-47.56852,-4.5301666,4.976587,-2.8525636,6.2701173,0.0
18326,15.443435,-44.737324,-2.045215,4.976587,-2.8525636,6.2701173,0.0
18327,23.527807,3.2019634,-6.7941923,4.976587,-2.8525636,6.2701173,0.0
18328,23.527807,3.2019634,-6.7941923,3.076648,-2.3332398,7.98739,0.0
18329,23.527807,3.2019634,-6.7941923,2.0528686,-1.5027466,7.579578,0.0
18330,23.527807,3.2019634,-6.7941923,0.3430298,-1.075818,6.5908446,0.0
18331,16.936588,16.422031,-7.8905907,0.3430298,-1.075818,6.5908446,0.0
18332,16.936588,16.422031,-7.8905907,-0.6531372,-1.084314,5.0233154,0.0
18333,9.168999,19.528069,-5.6155243,-0.6531372,-1.084314,5.0233154,0.0
18334,9.168999,19.528069,-5.6155243,-1.3721192,-1.5038086,3.2986085,0.0
18335,3.5504694,17.215082,-2.4702272,-1.3721192,-1.5038086,3.2986085,0.0
18336,3.5504694,17.215082,-2.4702272,-1.2776002,-2.1197755,1.8606446,0.0
18337,1.1285715,14.178341,-0.28604507,-1.2776002,-2.1197755,1.8606446,0.0
18338,1.1285715,14.178341,-0.28604507,-1.0747559,-2.445813,0.69349366,0.0
18339,0.75507927,12.619675,0.6044769,-1.0747559,-2.445813,0.69349366,0.0
18340,0.75507927,12.619675,0.6044769,-1.4677002,-2.35979,-0.22408448,0.0
18341,0.7172222,11.994726,1.0770874,-1.4677002,-2.35979,-0.22408448,0.0
18342,0.7172222,11.994726,1.0770874,-2.005078,-2.071985,-0.8857178,0.0
18343,0.029405594,11.35656,1.8420897,-2.005078,-2.071985,-0.8857178,0.0
18344,0.029405594,11.35656,1.8420897,-2.4001465,-1.621692,-1.4252198,0.0
18345,-1.1273546,10.189155,2.975381,-2.4001465,-1.621692,-1.4252198,0.0
18346,-1.1273546,10.189155,2.975381,-2.4160767,-1.1225464,-1.9339234,0.0
18347,-2.1774578,8.035126,4.1592965,-2.4160767,-1.1225464,-1.9339234,0.0
18348,-2.1774578,8.035126,4.1592965,-2.2684572,-0.74447024,-2.4989135,0.0
18349,-2.2487411,5.3737307,4.297237,-2.2684572,-0.74447024,-2.4989135,0.0
18350,-2.2487411,5.3737307,4.297237,-1.8277222,0.053100586,-2.9598267,0.0
18351,-1.546454,3.2394638,3.1974087,-1.8277222,0.053100586,-2.9598267,0.0
18352,-1.546454,3.2394638,3.1974087,-1.5877075,1.1639649,-3.170105,0.0
18353,-0.6821213,0.99613667,1.9652512,-1.5877075,1.1639649,-3.170105,0.0
18354,-0.6821213,0.99613667,1.9652512,-0.2538208,2.461743,-3.80625,0.0
18355,-0.1592102,-1.8737812,1.047616,-0.2538208,2.461743,-3.80625,0.0
18356,-0.1592102,-1.8737812,1.047616,0.80181885,3.5152588,-4.231055,0.0
18357,-0.34855986,-4.6038465,-0.9302299,0.80181885,3.5152588,-4.231055,0.0
18358,-0.34855986,-4.6038465,-0.9302299,-0.118945315,5.0233154,-4.3107057,0.0
18359,-0.16789818,-11.477609,-4.0503974,-0.118945315,5.0233154,-4.3107057,0.0
18360,-0.16789818,-11.477609,-4.0503974,1.7523193,6.2786136,-4.782239,0.0
18361,2.601448,-22.766523,-3.4393778,1.7523193,6.2786136,-4.782239,0.0
18362,2.601448,-22.766523,-3.4393778,6.5653567,6.255249,-5.0615478,0.0
18363,6.4858093,-31.941929,3.068554,6.5653567,6.255249,-5.0615478,0.0
18364,6.4858093,-31.941929,3.068554,-2.0316284,2.5966187,-2.6529052,0.0
18365,6.4410524,-31.20905,6.6525364,-2.0316284,2.5966187,-2.6529052,0.0
18366,6.4410524,-31.20905,6.6525364,-1.718335,1.2170655,0.25700685,0.0
18367,1.0379858,-17.816948,3.985591,-1.718335,1.2170655,0.25700685,0.0
18368,1.0379858,-17.816948,3.985591,-0.69349366,0.038232423,0.65419924,0.0
18369,-5.175556,-1.8811817,-0.3228919,-0.69349366,0.038232423,0.65419924,0.0
18370,-5.175556,-1.8811817,-0.3228919,-0.98236084,-0.2793091,0.55968016,0.0
18371,-8.590372,8.393077,-2.6396978,-0.98236084,-0.2793091,0.55968016,0.0
18372,-8.590372,8.393077,-2.6396978,-1.3699951,-0.2442627,0.34727785,0.0
18373,-9.969209,12.232637,-2.4910307,-1.3699951,-0.2442627,0.34727785,0.0
18374,-9.969209,12.232637,-2.4910307,-1.4942505,-0.22089843,0.070092775,0.0
18375,-10.410877,12.237599,-1.0356469,-1.4942505,-0.22089843,0.070092775,0.0
18376,-10.410877,12.237599,-1.0356469,-1.9509156,-0.44923097,-0.14974366,0.0
18377,-9.931535,11.007524,0.32621884,-1.9509156,-0.44923097,-0.14974366,0.0
18378,-9.931535,11.007524,0.32621884,-2.2217286,-0.81243896,-0.31329346,0.0
18379,-8.72151,9.696608,1.2977183,-2.2217286,-0.81243896,-0.31329346,0.0
18380,-8.72151,9.696608,1.2977183,-2.2684572,-1.1937011,-0.41949463,0.0
18381,-7.097203,8.433263,2.6605868,-2.2684572,-1.1937011,-0.41949463,0.0
18382,-7.097203,8.433263,2.6605868,-2.1282716,-1.4029175,-0.33771974,0.0
18383,-5.2970123,7.1917276,4.880166,-2.1282716,-1.4029175,-0.33771974,0.0
18384,-5.2970123,7.1917276,4.880166,-2.3279297,-0.99935305,0.046728518,0.0
18385,-3.8014526,5.969837,7.4289865,-2.3279297,-0.99935305,0.046728518,0.0
18386,-3.8014526,5.969837,7.4289865,-1.3891114,-0.35577393,0.18054199,0.0
18387,-3.4161987,5.3645906,8.491541,-1.3891114,-0.35577393,0.18054199,0.0
18388,-3.4161987,5.3645906,8.491541,0.37807617,-0.8814697,0.23045655,0.0
18389,-4.458227,5.459885,6.1918783,0.37807617,-0.8814697,0.23045655,0.0
18390,-4.458227,5.459885,6.1918783,1.4294678,-1.7799317,0.5150757,0.0
18391,-5.7011766,5.1312137,1.3233023,1.4294678,-1.7799317,0.5150757,0.0
18392,-5.7011766,5.1312137,1.3233023,1.5144287,-2.7580445,0.7349121,0.0
18393,-5.556424,3.3620386,-3.5379767,1.5144287,-2.7580445,0.7349121,0.0
18394,-5.556424,3.3620386,-3.5379767,1.5728394,-3.6819947,0.7327881,0.0
18395,-4.185508,-0.2685113,-6.9883404,1.5728394,-3.6819947,0.7327881,0.0
18396,-4.185508,-0.2685113,-6.9883404,1.9551636,-4.4084105,0.76677245,0.0
18397,-2.0391045,-7.753176,-8.371239,1.9551636,-4.4084105,0.76677245,0.0
18398,-2.0391045,-7.753176,-8.371239,2.2812011,-5.1964235,0.15080567,0.0
18399,1.9047031,-21.364052,-8.119952,2.2812011,-5.1964235,0.15080567,0.0
18400,1.9047031,-21.364052,-8.119952,4.4721313,-5.5298953,0.047790527,0.0
18401,10.124751,-34.34919,-8.178323,4.4721313,-5.5298953,0.047790527,0.0
18402,10.124751,-34.34919,-8.178323,7.4797487,-4.827905,1.448584,0.0
18403,18.322506,-33.520588,-6.9917183,7.4797487,-4.827905,1.448584,0.0
18404,18.322506,-33.520588,-6.9917183,6.1957765,-3.071338,5.237842,0.0
18405,19.776146,-16.404398,-5.118045,6.1957765,-3.071338,5.237842,0.0
18406,19.776146,-16.404398,-5.118045,3.0288575,-3.2370117,4.4062867,0.0
18407,15.238812,4.569084,-5.709048,3.0288575,-3.2370117,4.4062867,0.0
18408,15.238812,4.569084,-5.709048,1.532483,-2.2249146,3.4610963,0.0
18409,7.742747,17.362103,-5.691848,1.532483,-2.2249146,3.4610963,0.0
18410,7.742747,17.362103,-5.691848,0.6796875,-1.8457764,2.0581787,0.0
18411,1.6508136,20.18928,-2.9301996,0.6796875,-1.8457764,2.0581787,0.0
18412,1.6508136,20.18928,-2.9301996,0.9430664,-1.6822265,0.72641605,0.0
18413,-1.399735,17.978853,0.26492214,0.9430664,-1.6822265,0.72641605,0.0
18414,-1.399735,17.978853,0.26492214,1.1448487,-1.5696534,-0.26550293,0.0
18415,-2.53335,15.62892,1.6210079,1.1448487,-1.5696534,-0.26550293,0.0
18416,-2.53335,15.62892,1.6210079,0.6149048,-1.2945923,-0.90270996,0.0
18417,-2.53335,15.62892,1.6210079,0.6149048,-1.2945923,-0.90270996,0.0
18418,-3.2124102,14.001928,1.1201582,0.6149048,-1.2945923,-0.90270996,0.0
18419,-3.2124102,14.001928,1.1201582,-0.1263794,-0.9165161,-1.3487549,0.0
18420,-3.7596867,11.995671,0.42909813,-0.1263794,-0.9165161,-1.3487549,0.0
18421,-3.7596867,11.995671,0.42909813,-0.7147339,-0.6552612,-1.6960328,0.0
18422,-3.8698466,8.939005,0.8107958,-0.7147339,-0.6552612,-1.6960328,0.0
18423,-3.8698466,8.939005,0.8107958,-0.8442993,-0.5033936,-1.8425903,0.0
18424,-3.6636264,5.63315,1.7739544,-0.8442993,-0.5033936,-1.8425903,0.0
18425,-3.6636264,5.63315,1.7739544,-0.40356445,-0.31435546,-1.7448853,0.0
18426,-3.3354788,3.292592,2.351366,-0.40356445,-0.31435546,-1.7448853,0.0
18427,-3.3354788,3.292592,2.351366,-0.5235718,-0.16779785,-1.4528321,0.0
18428,-3.3354788,3.292592,2.351366,-0.94625247,-0.016992187,-1.075818,0.0
18429,-2.718139,1.6890783,2.3707047,-0.94625247,-0.016992187,-1.075818,0.0
18430,-0.09025824,-5.0052686,2.2840514,-0.94625247,-0.016992187,-1.075818,0.0
18431,-0.09025824,-5.0052686,2.2840514,-0.7083618,0.3164795,-0.9897949,0.0
18432,-0.09025824,-5.0052686,2.2840514,-1.1618408,0.9420044,-0.7519043,0.0
18433,-0.09025824,-5.0052686,2.2840514,-1.5006226,1.6004517,0.083898924,0.0
18434,1.2293315,-7.6803136,2.6670852,-1.5006226,1.6004517,0.083898924,0.0
18435,1.2293315,-7.6803136,2.6670852,-2.3151855,2.1643798,0.12213135,0.0
18436,4.1084895,-14.48296,3.2061782,-2.3151855,2.1643798,0.12213135,0.0
18437,4.1084895,-14.48296,3.2061782,-2.1208375,2.2790773,-0.45772704,0.0
18438,9.1456785,-21.604008,3.2166517,-2.1208375,2.2790773,-0.45772704,0.0
18439,9.1456785,-21.604008,3.2166517,-0.55968016,2.265271,-0.023364259,0.0
18440,12.755692,-20.988028,4.6167665,-0.55968016,2.265271,-0.023364259,0.0
18441,12.755692,-20.988028,4.6167665,1.7820557,0.90802,1.0259033,0.0
18442,10.277783,-11.369793,6.650176,1.7820557,0.90802,1.0259033,0.0
18443,10.277783,-11.369793,6.650176,0.9122681,-0.6446411,1.1682129,0.0
18444,3.4175272,-0.6533661,5.0415764,0.9122681,-0.6446411,1.1682129,0.0
18445,3.4175272,-0.6533661,5.0415764,0.16354981,-0.35683593,0.8687256,0.0
18446,-3.6457024,5.736389,0.19759221,0.16354981,-0.35683593,0.8687256,0.0
18447,-3.6457024,5.736389,0.19759221,-1.179895,0.38551027,-0.027612304,0.0
18448,-8.406809,8.161218,-3.545454,-1.179895,0.38551027,-0.027612304,0.0
18449,-8.406809,8.161218,-3.545454,-1.9360474,0.8666016,-0.52038574,0.0
18450,-10.3882885,8.621773,-3.491832,-1.9360474,0.8666016,-0.52038574,0.0
18451,-10.3882885,8.621773,-3.491832,-2.2036743,0.901648,-0.81987303,0.0
18452,-10.759422,8.842951,-0.8576746,-2.2036743,0.901648,-0.81987303,0.0
18453,-10.759422,8.842951,-0.8576746,-2.3757203,0.5320679,-1.0343994,0.0
18454,-10.657307,9.089729,1.8917046,-2.3757203,0.5320679,-1.0343994,0.0
18455,-10.657307,9.089729,1.8917046,-2.5700684,0.2803711,-1.0322754,0.0
18456,-10.224955,8.770831,4.18082,-2.5700684,0.2803711,-1.0322754,0.0
18457,-10.224955,8.770831,4.18082,-2.89823,0.09133301,-0.8591675,0.0
18458,-9.032612,7.009646,6.0107203,-2.89823,0.09133301,-0.8591675,0.0
18459,-9.032612,7.009646,6.0107203,-2.7760987,-0.23789063,-0.4991455,0.0
18460,-7.153653,4.3068867,6.0961375,-2.7760987,-0.23789063,-0.4991455,0.0
18461,-7.153653,4.3068867,6.0961375,-0.4056885,-0.3695801,-0.12000733,0.0
18462,-5.52324,3.2299452,4.135992,-0.4056885,-0.3695801,-0.12000733,0.0
18463,-5.52324,3.2299452,4.135992,1.4878784,-0.7338501,0.3791382,0.0
18464,-4.282362,4.038424,1.1871142,1.4878784,-0.7338501,0.3791382,0.0
18465,-4.282362,4.038424,1.1871142,1.5494751,-1.5866455,0.66481936,0.0
18466,-3.0792341,3.928493,-1.3115025,1.5494751,-1.5866455,0.66481936,0.0
18467,-3.0792341,3.928493,-1.3115025,1.2542359,-2.441565,0.7678345,0.0
18468,-1.6262903,1.671176,-2.7520096,1.2542359,-2.441565,0.7678345,0.0
18469,-1.6262903,1.671176,-2.7520096,1.183081,-3.5322511,0.85598147,0.0
18470,0.13568687,-1.8475809,-4.3158045,1.183081,-3.5322511,0.85598147,0.0
18471,0.13568687,-1.8475809,-4.3158045,2.0273805,-4.0908694,1.2914063,0.0
18472,1.4124069,-7.089381,-6.133625,2.0273805,-4.0908694,1.2914063,0.0
18473,1.4124069,-7.089381,-6.133625,2.347046,-4.618689,1.2106934,0.0
18474,3.214593,-16.146029,-6.937332,2.347046,-4.618689,1.2106934,0.0
18475,3.214593,-16.146029,-6.937332,3.4600341,-5.0286255,0.5543701,0.0
18476,7.589473,-25.420914,-6.875867,3.4600341,-5.0286255,0.5543701,0.0
18477,7.589473,-25.420914,-6.875867,5.973816,-5.27926,0.38551027,0.0
18478,11.46744,-25.969776,-5.3686256,5.973816,-5.27926,0.38551027,0.0
18479,11.46744,-25.969776,-5.3686256,7.7378173,-4.342566,3.1924074,0.0
18480,13.662783,-14.543472,-3.3393345,7.7378173,-4.342566,3.1924074,0.0
18481,13.662783,-14.543472,-3.3393345,1.3360108,-4.2884035,3.1743531,0.0
18482,12.790578,0.12934494,-3.6775713,1.3360108,-4.2884035,3.1743531,0.0
18483,12.790578,0.12934494,-3.6775713,1.0683838,-3.5003908,2.799463,0.0
18484,7.889372,9.903855,-3.7870522,1.0683838,-3.5003908,2.799463,0.0
18485,7.889372,9.903855,-3.7870522,0.039294433,-2.9088502,1.8340943,0.0
18486,3.217198,14.447133,-2.3744907,0.039294433,-2.9088502,1.8340943,0.0
18487,3.217198,14.447133,-2.3744907,-0.19328614,-2.52865,0.7604004,0.0
18488,0.2941563,15.359196,-0.18897247,-0.19328614,-2.52865,0.7604004,0.0
18489,0.2941563,15.359196,-0.18897247,-0.40250245,-2.2546508,-0.23895264,0.0
18490,-1.1623435,14.486173,1.3933535,-0.40250245,-2.2546508,-0.23895264,0.0
18491,-1.1623435,14.486173,1.3933535,-0.75615233,-2.0401247,-1.0014771,0.0
18492,-2.0888226,13.210484,1.656138,-0.75615233,-2.0401247,-1.0014771,0.0
18493,-2.0888226,13.210484,1.656138,-1.170337,-1.6970948,-1.4836304,0.0
18494,-2.879652,11.574112,1.1505327,-1.170337,-1.6970948,-1.4836304,0.0
18495,-2.879652,11.574112,1.1505327,-1.4124756,-1.2839721,-1.7438233,0.0
18496,-3.3840072,9.145362,0.9139929,-1.4124756,-1.2839721,-1.7438233,0.0
18497,-3.3840072,9.145362,0.9139929,-1.3434448,-0.87403566,-1.8563966,0.0
18498,-3.7633827,6.2826104,1.320672,-1.3434448,-0.87403566,-1.8563966,0.0
18499,-3.7633827,6.2826104,1.320672,-0.6881836,-0.3451538,-1.9764038,0.0
18500,-3.8962286,3.7435932,2.0150337,-0.6881836,-0.3451538,-1.9764038,0.0
18501,-3.8962286,3.7435932,2.0150337,-0.06796875,-0.06690674,-2.1027832,0.0
18502,-2.980252,1.8635273,2.4304962,-0.06796875,-0.06690674,-2.1027832,0.0
18503,-2.980252,1.8635273,2.4304962,0.32497558,0.33984375,-2.2068603,0.0
18504,-1.0528173,0.64356804,2.3660765,0.32497558,0.33984375,-2.2068603,0.0
18505,-1.0528173,0.64356804,2.3660765,0.032922365,0.99935305,-2.1123414,0.0
18506,1.2991891,-0.6661024,2.8501732,0.032922365,0.99935305,-2.1123414,0.0
18507,1.2991891,-0.6661024,2.8501732,-1.4910644,1.635498,-1.7034668,0.0
18508,3.6352377,-3.3806968,3.121496,-1.4910644,1.635498,-1.7034668,0.0
18509,3.6352377,-3.3806968,3.121496,-2.5095336,2.6805177,-1.4039795,0.0
18510,5.712072,-7.7345624,1.8038619,-2.5095336,2.6805177,-1.4039795,0.0
18511,5.712072,-7.7345624,1.8038619,-1.3912354,3.4504762,-1.7353271,0.0
18512,8.713994,-13.015018,1.7026598,-1.3912354,3.4504762,-1.7353271,0.0
18513,8.713994,-13.015018,1.7026598,-2.2227905,2.9545166,-2.151636,0.0
18514,13.0175085,-18.310318,3.2601748,-2.2227905,2.9545166,-2.151636,0.0
18515,13.0175085,-18.310318,3.2601748,-1.0768799,2.2450929,-1.3922974,0.0
18516,13.416314,-18.546753,2.9975808,-1.0768799,2.2450929,-1.3922974,0.0
18517,13.416314,-18.546753,2.9975808,-0.5065796,1.8224121,-0.18585205,0.0
18518,6.7424145,-11.183741,0.75664616,-0.5065796,1.8224121,-0.18585205,0.0
18519,6.7424145,-11.183741,0.75664616,-1.9615357,1.5505371,0.6510132,0.0
18520,-2.4836683,-2.5309038,-1.374871,-1.9615357,1.5505371,0.6510132,0.0
18521,-2.4836683,-2.5309038,-1.374871,-3.1924074,1.4687623,0.6202149,0.0
18522,-9.350582,2.1816244,-2.6185005,-3.1924074,1.4687623,0.6202149,0.0
18523,-9.350582,2.1816244,-2.6185005,-3.0309815,1.3976074,0.42799073,0.0
18524,-9.350582,2.1816244,-2.6185005,-3.0309815,1.3976074,0.42799073,0.0
18525,-12.703122,3.7121944,-2.8925176,-3.0309815,1.3976074,0.42799073,0.0
18526,-12.703122,3.7121944,-2.8925176,-2.1388917,1.2361816,0.32497558,0.0
18527,-13.3239975,5.539299,-2.116895,-2.1388917,1.2361816,0.32497558,0.0
18528,-13.3239975,5.539299,-2.116895,-1.8213501,0.84748536,0.31223145,0.0
18529,-12.569916,8.176618,-0.14745879,-1.8213501,0.84748536,0.31223145,0.0
18530,-12.569916,8.176618,-0.14745879,-2.0326905,0.6000366,0.40356445,0.0
18531,-11.0464115,9.762498,3.9812274,-2.0326905,0.6000366,0.40356445,0.0
18532,-11.0464115,9.762498,3.9812274,-3.4122436,0.9674927,0.5936646,0.0
18533,-8.565852,8.52704,8.955709,-3.4122436,0.9674927,0.5936646,0.0
18534,-8.565852,8.52704,8.955709,-3.7319093,1.3370727,0.8602295,0.0
18535,-5.9619346,5.3565803,10.235344,-3.7319093,1.3370727,0.8602295,0.0
18536,-5.9619346,5.3565803,10.235344,-1.3997315,1.1034302,0.84111327,0.0
18537,-4.640422,3.9504132,6.7970157,-1.3997315,1.1034302,0.84111327,0.0
18538,-4.640422,3.9504132,6.7970157,0.67225343,0.59047854,0.9345703,0.0
18539,-4.640422,3.9504132,6.7970157,1.540979,-0.21134034,1.1299804,0.0
18540,-4.3706627,5.0066686,2.1518826,1.540979,-0.21134034,1.1299804,0.0
18541,1.1119661,5.939869,0.10340309,1.540979,-0.21134034,1.1299804,0.0
18542,1.1119661,5.939869,0.10340309,1.6365601,-1.2372437,1.1140503,0.0
18543,1.1119661,5.939869,0.10340309,1.5908936,-2.0464966,1.442212,0.0
18544,2.986289,2.3533235,-1.5964522,1.5908936,-2.0464966,1.442212,0.0
18545,2.986289,2.3533235,-1.5964522,1.4358399,-2.9258423,1.2191895,0.0
18546,4.7845144,-2.8892894,-3.4117079,1.4358399,-2.9258423,1.2191895,0.0
18547,4.7845144,-2.8892894,-3.4117079,1.9317993,-3.344275,1.3222046,0.0
18548,6.018627,-9.69267,-4.5704675,1.9317993,-3.344275,1.3222046,0.0
18549,6.018627,-9.69267,-4.5704675,2.6826417,-3.6044679,1.0917481,0.0
18550,8.1887665,-16.768797,-4.461635,2.6826417,-3.6044679,1.0917481,0.0
18551,8.1887665,-16.768797,-4.461635,4.262915,-4.070691,0.40993652,0.0
18552,12.055262,-22.137096,-4.571469,4.262915,-4.070691,0.40993652,0.0
18553,12.055262,-22.137096,-4.571469,5.843189,-3.4281738,0.41737062,0.0
18554,14.883382,-20.217148,-3.894541,5.843189,-3.4281738,0.41737062,0.0
18555,14.883382,-20.217148,-3.894541,5.4502444,-2.7654786,3.1053224,0.0
18556,14.298405,-9.468921,-2.8101764,5.4502444,-2.7654786,3.1053224,0.0
18557,14.298405,-9.468921,-2.8101764,3.2837403,-2.9003541,3.1339967,0.0
18558,10.133768,2.4987278,-4.0211515,3.2837403,-2.9003541,3.1339967,0.0
18559,10.133768,2.4987278,-4.0211515,2.1643798,-2.262085,2.7028198,0.0
18560,4.6131554,9.983589,-5.6401877,2.1643798,-2.262085,2.7028198,0.0
18561,4.6131554,9.983589,-5.6401877,0.74659425,-1.9137452,2.0178223,0.0
18562,0.8014374,12.205035,-5.4812055,0.74659425,-1.9137452,2.0178223,0.0
18563,0.8014374,12.205035,-5.4812055,0.039294433,-1.8457764,1.2223755,0.0
18564,-0.881897,11.443252,-3.494608,0.039294433,-1.8457764,1.2223755,0.0
18565,-0.881897,11.443252,-3.494608,0.081774905,-1.8638306,0.5235718,0.0
18566,-1.2024536,10.378625,-1.241353,0.081774905,-1.8638306,0.5235718,0.0
18567,-1.2024536,10.378625,-1.241353,0.04248047,-1.8404664,0.05628662,0.0
18568,-1.053894,10.345796,0.15154648,0.04248047,-1.8404664,0.05628662,0.0
18569,-1.053894,10.345796,0.15154648,-0.2814331,-1.6928467,-0.2984253,0.0
18570,-0.89555645,10.889662,0.5605564,-0.2814331,-1.6928467,-0.2984253,0.0
18571,-0.89555645,10.889662,0.5605564,-0.8612915,-1.2829102,-0.5214478,0.0
18572,-0.8647604,10.715062,0.22924328,-0.8612915,-1.2829102,-0.5214478,0.0
18573,-0.8647604,10.715062,0.22924328,-1.173523,-0.6159668,-0.65844727,0.0
18574,-1.110363,9.245329,-0.20383692,-1.173523,-0.6159668,-0.65844727,0.0
18575,-1.110363,9.245329,-0.20383692,-1.2096313,0.09133301,-0.80819094,0.0
18576,-1.3955784,7.113659,-0.029304981,-1.2096313,0.09133301,-0.80819094,0.0
18577,-1.3955784,7.113659,-0.029304981,-1.0216553,0.8028809,-1.1119263,0.0
18578,-1.1987505,5.208359,0.5898862,-1.0216553,0.8028809,-1.1119263,0.0
18579,-1.1987505,5.208359,0.5898862,-0.94731444,1.5823975,-1.5016845,0.0
18580,-0.74281406,3.8109865,1.1208105,-0.94731444,1.5823975,-1.5016845,0.0
18581,-0.74281406,3.8109865,1.1208105,-1.1055542,2.3651001,-1.8404664,0.0
18582,-0.42691755,2.0960798,2.1911674,-1.1055542,2.3651001,-1.8404664,0.0
18583,-0.42691755,2.0960798,2.1911674,-1.6599244,2.72937,-1.9084351,0.0
18584,-0.10861158,-0.26006317,2.2672772,-1.6599244,2.72937,-1.9084351,0.0
18585,-0.10861158,-0.26006317,2.2672772,-1.5579712,3.979358,-2.6104248,0.0
18586,1.244214,-4.6361265,0.43183923,-1.5579712,3.979358,-2.6104248,0.0
18587,1.244214,-4.6361265,0.43183923,-1.812854,4.4806275,-3.1488647,0.0
18588,6.057579,-14.35906,0.38728046,-1.812854,4.4806275,-3.1488647,0.0
18589,6.057579,-14.35906,0.38728046,-1.6004517,5.074292,-4.043079,0.0
18590,12.871747,-26.08704,4.223826,-1.6004517,5.074292,-4.043079,0.0
18591,12.871747,-26.08704,4.223826,-2.5626342,3.1074464,-3.0426636,0.0
18592,14.033982,-27.658379,7.4929523,-2.5626342,3.1074464,-3.0426636,0.0
18593,14.033982,-27.658379,7.4929523,-1.0269654,1.5728394,-0.18797608,0.0
18594,6.603176,-16.316107,6.113454,-1.0269654,1.5728394,-0.18797608,0.0
18595,6.603176,-16.316107,6.113454,-1.5176147,0.50020754,0.81668705,0.0
18596,-3.564663,-2.8401413,1.5274575,-1.5176147,0.50020754,0.81668705,0.0
18597,-3.564663,-2.8401413,1.5274575,-2.1218994,0.16461182,0.37701416,0.0
18598,-10.954648,5.485224,-2.2616765,-2.1218994,0.16461182,0.37701416,0.0
18599,-10.954648,5.485224,-2.2616765,-2.6019287,0.57242435,0.043542482,0.0
18600,-14.530552,8.967952,-2.1136503,-2.6019287,0.57242435,0.043542482,0.0
18601,-14.530552,8.967952,-2.1136503,-2.8153932,0.6956177,-0.15080567,0.0
18602,-15.196573,9.788118,1.1461279,-2.8153932,0.6956177,-0.15080567,0.0
18603,-15.196573,9.788118,1.1461279,-2.433069,0.6711914,-0.32816163,0.0
18604,-14.147921,9.234133,4.331905,-2.433069,0.6711914,-0.32816163,0.0
18605,-14.147921,9.234133,4.331905,-2.4075806,0.724292,-0.1359375,0.0
18606,-12.056178,7.9987564,6.6299896,-2.4075806,0.724292,-0.1359375,0.0
18607,-12.056178,7.9987564,6.6299896,-2.9215944,1.2478638,0.5140137,0.0
18608,-8.937142,6.5942326,8.111987,-2.9215944,1.2478638,0.5140137,0.0
18609,-8.937142,6.5942326,8.111987,-2.5552003,1.2935303,0.8952759,0.0
18610,-5.8087473,5.521016,7.6064234,-2.5552003,1.2935303,0.8952759,0.0
18611,-5.8087473,5.521016,7.6064234,-0.52888185,0.84748536,1.0715698,0.0
18612,-4.0421762,5.4537635,5.3337717,-0.52888185,0.84748536,1.0715698,0.0
18613,-4.0421762,5.4537635,5.3337717,0.88040775,0.4322388,1.2021973,0.0
18614,-3.326551,5.804893,2.543458,0.88040775,0.4322388,1.2021973,0.0
18615,-3.326551,5.804893,2.543458,1.5091187,-0.013806152,1.2234375,0.0
18616,-2.8808575,5.2908382,-0.05842209,1.5091187,-0.013806152,1.2234375,0.0
18617,-2.8808575,5.2908382,-0.05842209,1.536731,-0.5246338,1.4007934,0.0
18618,-2.2190537,3.6397753,-2.197421,1.536731,-0.5246338,1.4007934,0.0
18619,-2.2190537,3.6397753,-2.197421,1.1937011,-1.2595459,1.539917,0.0
18620,-0.5117302,0.54938126,-3.819436,1.1937011,-1.2595459,1.539917,0.0
18621,-0.5117302,0.54938126,-3.819436,1.4103516,-1.807544,1.9392334,0.0
18622,2.060648,-4.8685637,-4.7252264,1.4103516,-1.807544,1.9392334,0.0
18623,2.060648,-4.8685637,-4.7252264,2.2089844,-1.9944581,2.2960694,0.0
18624,2.959578,-13.117922,-4.7918878,2.2089844,-1.9944581,2.2960694,0.0
18625,2.959578,-13.117922,-4.7918878,3.7690797,-0.9154541,0.32497558,0.0
18626,6.7498035,-22.646866,-4.708852,3.7690797,-0.9154541,0.32497558,0.0
18627,6.7498035,-22.646866,-4.708852,4.7631226,-2.5222778,2.2408447,0.0
18628,12.7896385,-25.972143,-4.27111,4.7631226,-2.5222778,2.2408447,0.0
18629,12.7896385,-25.972143,-4.27111,1.6599244,-3.3570192,3.6734986,0.0
18630,13.986911,-19.633196,-3.8756528,1.6599244,-3.3570192,3.6734986,0.0
18631,13.986911,-19.633196,-3.8756528,2.2270386,-3.6989868,4.2671633,0.0
18632,11.831594,-8.709791,-4.6552095,2.2270386,-3.6989868,4.2671633,0.0
18633,11.831594,-8.709791,-4.6552095,2.356604,-3.7234132,3.8466065,0.0
18634,9.103435,2.292799,-6.1403913,2.356604,-3.7234132,3.8466065,0.0
18635,9.103435,2.292799,-6.1403913,1.8871949,-3.4600341,3.0161133,0.0
18636,6.218405,10.009728,-7.0378866,1.8871949,-3.4600341,3.0161133,0.0
18637,6.218405,10.009728,-7.0378866,0.73597413,-3.1817873,2.0072021,0.0
18638,3.4714766,13.249482,-6.4448605,0.73597413,-3.1817873,2.0072021,0.0
18639,3.4714766,13.249482,-6.4448605,-0.36108398,-3.2285156,1.1119263,0.0
18640,1.5727863,13.682277,-4.707329,-0.36108398,-3.2285156,1.1119263,0.0
18641,1.5727863,13.682277,-4.707329,-0.8379273,-3.5057008,0.38551027,0.0
18642,0.7127209,13.514156,-3.2542787,-0.8379273,-3.5057008,0.38551027,0.0
18643,0.7127209,13.514156,-3.2542787,-1.0503296,-3.531189,-0.15186767,0.0
18644,0.38925648,13.734092,-2.4741263,-1.0503296,-3.531189,-0.15186767,0.0
18645,0.38925648,13.734092,-2.4741263,-1.4358399,-3.1509888,-0.5671143,0.0
18646,-0.10098553,13.984344,-1.2292886,-1.4358399,-3.1509888,-0.5671143,0.0
18647,-0.10098553,13.984344,-1.2292886,-2.0942872,-2.5445802,-1.0450195,0.0
18648,-0.95320034,13.055944,0.8956709,-2.0942872,-2.5445802,-1.0450195,0.0
18649,-0.95320034,13.055944,0.8956709,-2.6688354,-1.7427613,-1.5696534,0.0
18650,-1.7977648,10.265373,3.3391929,-2.6688354,-1.7427613,-1.5696534,0.0
18651,-1.7977648,10.265373,3.3391929,-2.9088502,-0.51082766,-1.9530395,0.0
18652,-1.8232584,5.6378727,6.1309004,-2.9088502,-0.51082766,-1.9530395,0.0
18653,-1.8232584,5.6378727,6.1309004,-2.6794555,1.3487549,-2.1484497,0.0
18654,-1.2478895,0.34907913,7.891842,-2.6794555,1.3487549,-2.1484497,0.0
18655,-1.2478895,0.34907913,7.891842,-1.0386475,2.7601686,-2.0433106,0.0
18656,-0.78534794,-3.505002,6.7191133,-1.0386475,2.7601686,-2.0433106,0.0
18657,-0.78534794,-3.505002,6.7191133,-1.993396,2.8185792,-2.1930542,0.0
18658,0.23046207,-4.8877296,2.2619972,-1.993396,2.8185792,-2.1930542,0.0
18659,0.23046207,-4.8877296,2.2619972,-0.06903076,4.9287963,-1.3784913,0.0
18660,1.4183788,-6.084244,-2.661972,-0.06903076,4.9287963,-1.3784913,0.0
18661,1.4183788,-6.084244,-2.661972,-0.5055176,5.7667236,-1.5983276,0.0
18662,2.7723503,-12.547668,-4.367542,-0.5055176,5.7667236,-1.5983276,0.0
18663,2.7723503,-12.547668,-4.367542,-0.69349366,6.4676514,-1.4241577,0.0
18664,5.336838,-24.50885,-2.5481105,-0.69349366,6.4676514,-1.4241577,0.0
18665,5.336838,-24.50885,-2.5481105,0.35789797,5.5670657,-1.1937011,0.0
18666,7.4356813,-28.932655,0.90177035,0.35789797,5.5670657,-1.1937011,0.0
18667,7.4356813,-28.932655,0.90177035,1.630188,4.0961795,0.21983643,0.0
18668,5.370652,-17.222893,4.0128593,1.630188,4.0961795,0.21983643,0.0
18669,5.370652,-17.222893,4.0128593,-1.3391968,1.8829468,1.8457764,0.0
18670,-0.4119377,-0.4641304,4.366464,-1.3391968,1.8829468,1.8457764,0.0
18671,-0.4119377,-0.4641304,4.366464,-1.6514282,1.6631104,1.9413575,0.0
18672,-0.4119377,-0.4641304,4.366464,-1.6514282,1.6631104,1.9413575,150.0
18673,-6.2672462,10.059092,2.0726635,-1.6514282,1.6631104,1.9413575,150.0
18674,-6.2672462,10.059092,2.0726635,-1.3041505,2.0295045,1.1140503,150.0
18675,-10.194401,14.073153,-0.42679352,-1.3041505,2.0295045,1.1140503,150.0
18676,-10.194401,14.073153,-0.42679352,-1.4167236,2.4097047,0.21558838,150.0
18677,-11.558243,14.791273,-0.79689133,-1.4167236,2.4097047,0.21558838,150.0
18678,-11.558243,14.791273,-0.79689133,-2.4182007,2.4797974,-0.44816896,150.0
18679,-10.869703,13.701317,1.1749015,-2.4182007,2.4797974,-0.44816896,150.0
18680,-10.869703,13.701317,1.1749015,-3.1764772,2.3003175,-0.96430665,150.0
18681,-9.253466,10.931342,4.100932,-3.1764772,2.3003175,-0.96430665,150.0
18682,-9.253466,10.931342,4.100932,-2.7654786,1.7608155,-1.3487549,150.0
18683,-7.477565,7.56856,5.9148397,-2.7654786,1.7608155,-1.3487549,150.0
18684,-7.477565,7.56856,5.9148397,-1.4199097,1.3168945,-1.4369019,150.0
18685,-6.1226892,5.159609,5.586987,-1.4199097,1.3168945,-1.4369019,150.0
18686,-6.1226892,5.159609,5.586987,-0.21452637,1.0630738,-1.2999023,150.0
18687,-5.7124457,3.8385882,4.2083225,-0.21452637,1.0630738,-1.2999023,150.0
18688,-5.7124457,3.8385882,4.2083225,0.41418457,0.6988037,-0.95581055,150.0
18689,-5.6262555,2.50422,3.2525344,0.41418457,0.6988037,-0.95581055,150.0
18690,-5.6262555,2.50422,3.2525344,0.77526855,0.08602295,-0.5320679,150.0
18691,-4.831766,0.6063423,2.8554697,0.77526855,0.08602295,-0.5320679,150.0
18692,-4.831766,0.6063423,2.8554697,1.4273437,-0.48215333,-0.04460449,150.0
18693,-3.7584062,-1.8171477,2.0686045,1.4273437,-0.48215333,-0.04460449,150.0
18694,-3.7584062,-1.8171477,2.0686045,1.8011719,-0.7763306,0.8092529,150.0
18695,-2.5679436,-5.0868607,0.3280406,1.8011719,-0.7763306,0.8092529,150.0
18696,-2.5679436,-5.0868607,0.3280406,2.3183715,-1.2170655,1.8542725,150.0
18697,-0.6490693,-9.193975,-1.6302309,2.3183715,-1.2170655,1.8542725,150.0
18698,-0.6490693,-9.193975,-1.6302309,2.4351928,-1.3243287,2.9332764,150.0
18699,0.77071047,-13.538799,-3.236167,2.4351928,-1.3243287,2.9332764,150.0
18700,0.77071047,-13.538799,-3.236167,2.250403,-1.5080566,3.0097413,150.0
18701,1.5950475,-18.468954,-5.388311,2.250403,-1.5080566,3.0097413,150.0
18702,1.5950475,-18.468954,-5.388311,3.5651734,-2.3321779,3.081958,150.0
18703,4.852027,-20.602007,-7.5428267,3.5651734,-2.3321779,3.081958,150.0
18704,4.852027,-20.602007,-7.5428267,2.972571,-2.8536255,4.2607913,150.0
18705,10.140362,-15.683437,-7.9004116,2.972571,-2.8536255,4.2607913,150.0
18706,10.140362,-15.683437,-7.9004116,2.893982,-3.0968263,4.721704,150.0
18707,13.215122,-6.709896,-6.787822,2.893982,-3.0968263,4.721704,150.0
18708,13.215122,-6.709896,-6.787822,2.427759,-3.330469,4.788611,150.0
18709,12.236477,1.8226833,-5.6829796,2.427759,-3.330469,4.788611,150.0
18710,12.236477,1.8226833,-5.6829796,1.8202881,-3.4876466,4.071753,150.0
18711,9.1106415,7.656743,-4.9184904,1.8202881,-3.4876466,4.071753,150.0
18712,9.1106415,7.656743,-4.9184904,0.66588134,-3.617212,2.9821289,150.0
18713,6.2929935,10.455692,-4.419729,0.66588134,-3.617212,2.9821289,150.0
18714,6.2929935,10.455692,-4.419729,-0.4725952,-3.5842896,1.8617066,150.0
18715,4.719795,11.523929,-3.369121,-0.4725952,-3.5842896,1.8617066,150.0
18716,4.719795,11.523929,-3.369121,-1.3922974,-3.5025146,0.8007569,150.0
18717,4.1134214,12.037539,-1.5604944,-1.3922974,-3.5025146,0.8007569,150.0
18718,4.1134214,12.037539,-1.5604944,-1.9317993,-3.2816162,-0.14337158,150.0
18719,3.60812,12.491274,0.023931026,-1.9317993,-3.2816162,-0.14337158,150.0
18720,3.60812,12.491274,0.023931026,-2.5010376,-2.884424,-0.93138427,150.0
18721,2.6858244,12.64319,0.85149384,-2.5010376,-2.884424,-0.93138427,150.0
18722,2.6858244,12.64319,0.85149384,-2.8398194,-2.362976,-1.6142578,150.0
18723,1.5005398,11.556496,1.6962953,-2.8398194,-2.362976,-1.6142578,150.0
18724,1.5005398,11.556496,1.6962953,-3.081958,-1.8542725,-2.2981935,150.0
18725,0.06992626,8.877619,2.920012,-3.081958,-1.8542725,-2.2981935,150.0
18726,0.06992626,8.877619,2.920012,-2.6975098,-1.085376,-2.985315,150.0
18727,-1.3295937,5.372493,3.5968008,-2.6975098,-1.085376,-2.985315,150.0
18728,-1.3295937,5.372493,3.5968008,-1.8192261,0.06265869,-3.5513673,150.0
18729,-2.1190338,2.4424276,2.7036247,-1.8192261,0.06265869,-3.5513673,150.0
18730,-2.1190338,2.4424276,2.7036247,-1.0322754,1.6716064,-3.533313,150.0
18731,-2.3395138,1.0754757,0.55345154,-1.0322754,1.6716064,-3.533313,150.0
18732,-2.3395138,1.0754757,0.55345154,-1.8351563,2.9683228,-2.8599975,150.0
18733,-2.0617476,-1.2055373,-0.8522949,-1.8351563,2.9683228,-2.8599975,150.0
18734,-2.0617476,-1.2055373,-0.8522949,-3.3633912,3.7319093,-1.7618774,150.0
18735,-0.9650841,-6.336415,-0.76508784,-3.3633912,3.7319093,-1.7618774,150.0
18736,-0.9650841,-6.336415,-0.76508784,-1.634436,5.0785403,-2.0443726,150.0
18737,0.8443022,-13.219889,0.81828856,-1.634436,5.0785403,-2.0443726,150.0
18738,0.8443022,-13.219889,0.81828856,-2.362976,5.2367797,-1.5505371,150.0
18739,4.249136,-21.573483,2.365239,-2.362976,5.2367797,-1.5505371,150.0
18740,4.249136,-21.573483,2.365239,-1.2160034,5.318555,-1.7671875,150.0
18741,7.9320126,-24.795261,3.8095253,-1.2160034,5.318555,-1.7671875,150.0
18742,7.9320126,-24.795261,3.8095253,1.989148,4.160962,-0.5012695,150.0
18743,7.455387,-15.147597,5.882471,1.989148,4.160962,-0.5012695,150.0
18744,7.455387,-15.147597,5.882471,0.7434082,1.9679078,0.64995116,150.0
18745,1.7983665,-0.3832636,4.9827595,0.7434082,1.9679078,0.64995116,150.0
18746,1.7983665,-0.3832636,4.9827595,-1.5197388,1.8340943,1.1023682,150.0
18747,-6.231827,7.5361996,0.42524552,-1.5197388,1.8340943,1.1023682,150.0
18748,-6.231827,7.5361996,0.42524552,-2.5955567,2.0114503,0.6903076,150.0
18749,-12.349915,8.498076,-3.1574721,-2.5955567,2.0114503,0.6903076,150.0
18750,-12.349915,8.498076,-3.1574721,-2.0284424,2.1102173,0.078588866,150.0
18751,-14.342518,8.314135,-3.6616101,-2.0284424,2.1102173,0.078588866,150.0
18752,-14.342518,8.314135,-3.6616101,-1.0312134,2.1303957,-0.49489745,150.0
18753,-12.9737215,9.907643,-2.448844,-1.0312134,2.1303957,-0.49489745,150.0
18754,-12.9737215,9.907643,-2.448844,-1.6185058,1.8956909,-0.72323,150.0
18755,-10.288316,11.387919,-0.21874309,-1.6185058,1.8956909,-0.72323,150.0
18756,-10.288316,11.387919,-0.21874309,-2.9173462,1.5558472,-0.7742066,150.0
18757,-7.9551764,10.171127,3.1152399,-2.9173462,1.5558472,-0.7742066,150.0
18758,-7.9551764,10.171127,3.1152399,-3.2104614,1.0014771,-0.73597413,150.0
18759,-6.394781,7.6121335,4.70092,-3.2104614,1.0014771,-0.73597413,150.0
18760,-6.394781,7.6121335,4.70092,-2.879114,0.68712157,-0.6956177,150.0
18761,-5.422099,3.86052,8.40097,-2.879114,0.68712157,-0.6956177,150.0
18762,-5.422099,3.86052,8.40097,-1.1968873,0.039294433,-0.22302246,150.0
18763,-5.422099,3.86052,8.40097,-1.0471436,-0.07965088,0.12956543,150.0
18764,-4.6419888,2.749024,7.5736694,-1.0471436,-0.07965088,0.12956543,150.0
18765,-1.333745,1.686646,3.8974977,-1.0471436,-0.07965088,0.12956543,150.0
18766,-1.333745,1.686646,3.8974977,-0.3802002,-0.41949463,0.84323734,150.0
18767,-1.333745,1.686646,3.8974977,-0.6180908,-0.77951664,1.1172364,150.0
18768,-1.333745,1.686646,3.8974977,0.08071289,-1.2829102,0.8644776,150.0
18769,-0.037662506,1.4228396,1.7339649,0.08071289,-1.2829102,0.8644776,150.0
18770,-0.037662506,1.4228396,1.7339649,1.3285767,-1.1660889,0.631897,150.0
18771,0.9028411,-1.518662,-0.3649397,1.3285767,-1.1660889,0.631897,150.0
18772,0.9028411,-1.518662,-0.3649397,3.0500977,-1.8139161,-0.23682861,150.0
18773,0.9028411,-1.518662,-0.3649397,3.0500977,-1.8139161,-0.23682861,146.0
18774,0.86250734,-2.0687747,-1.2087488,3.0500977,-1.8139161,-0.23682861,146.0
18775,0.86250734,-2.0687747,-1.2087488,2.7421143,-1.6503662,-0.4991455,146.0
18776,1.791007,-16.115469,-4.7770333,2.7421143,-1.6503662,-0.4991455,146.0
18777,1.791007,-16.115469,-4.7770333,3.911389,-2.913098,-0.5979126,146.0
18778,4.259698,-22.133257,-5.9345784,3.911389,-2.913098,-0.5979126,146.0
18779,4.259698,-22.133257,-5.9345784,4.4785037,-2.8100832,-0.004248047,146.0
18780,16.514717,-39.29882,-5.607685,4.4785037,-2.8100832,-0.004248047,146.0
18781,16.514717,-39.29882,-5.607685,2.8557496,-3.0554078,4.6664796,146.0
18782,16.164825,-30.455303,-4.002176,2.8557496,-3.0554078,4.6664796,146.0
18783,16.164825,-30.455303,-4.002176,1.7916138,-3.1467407,5.60636,146.0
18784,12.04369,-2.711422,-3.4206128,1.7916138,-3.1467407,5.60636,146.0
18785,12.04369,-2.711422,-3.4206128,-0.1539917,-3.2975464,5.865491,146.0
18786,8.740555,5.534086,-3.7460606,-0.1539917,-3.2975464,5.865491,146.0
18787,8.740555,5.534086,-3.7460606,-0.29630128,-3.4186158,5.544763,146.0
18788,3.608862,20.087656,-3.997752,-0.29630128,-3.4186158,5.544763,146.0
18789,3.608862,20.087656,-3.997752,-0.4619751,-3.3134766,3.792444,146.0
18790,2.486308,18.493172,-3.0716634,-0.4619751,-3.3134766,3.792444,146.0
18791,2.486308,18.493172,-3.0716634,-0.59897465,-3.2423217,3.0989501,146.0
18792,1.4203329,18.132074,-1.7598944,-0.59897465,-3.2423217,3.0989501,146.0
18793,1.4203329,18.132074,-1.7598944,-0.8007569,-3.0479736,1.7841797,146.0
18794,1.1672115,17.24017,-0.975054,-0.8007569,-3.0479736,1.7841797,146.0
18795,1.1672115,17.24017,-0.975054,-1.2170655,-2.613611,0.59047854,146.0
18796,1.3399458,16.607784,-0.51357603,-1.2170655,-2.613611,0.59047854,146.0
18797,1.3399458,16.607784,-0.51357603,-1.8054199,-1.9477295,-0.34727785,146.0
18798,1.5679035,15.277855,0.09098244,-1.8054199,-1.9477295,-0.34727785,146.0
18799,1.5679035,15.277855,0.09098244,-2.0390625,-1.0959961,-1.1650269,146.0
18800,1.8944836,12.604803,1.6267045,-2.0390625,-1.0959961,-1.1650269,146.0
18801,1.8944836,12.604803,1.6267045,-1.8510865,0.6202149,-2.166504,146.0
18802,1.8944836,12.604803,1.6267045,-1.6769165,1.3232666,-2.3980224,146.0
18803,1.2060041,9.796843,2.158053,-1.6769165,1.3232666,-2.3980224,146.0
18804,-1.3175697,4.2197742,2.5942647,-1.6769165,1.3232666,-2.3980224,146.0
18805,-1.3175697,4.2197742,2.5942647,-1.0673218,3.526941,-3.085144,146.0
18806,-1.3175697,4.2197742,2.5942647,-2.9417725,3.6766846,-2.8684938,146.0
18807,-1.3175697,4.2197742,2.5942647,-5.076416,5.609546,-3.2115235,146.0
18808,-2.8644686,-0.09451771,0.43313885,-5.076416,5.609546,-3.2115235,146.0
18809,4.0708637,-27.899174,-1.2834694,-5.076416,5.609546,-3.2115235,146.0
18810,4.0708637,-27.899174,-1.2834694,-1.4995606,5.768848,-3.0692139,146.0
18811,4.0708637,-27.899174,-1.2834694,2.241907,6.332776,-2.6518433,146.0
18812,4.0708637,-27.899174,-1.2834694,0.46409914,6.271179,-1.9275513,146.0
18813,6.262661,-35.80645,-0.1288507,0.46409914,6.271179,-1.9275513,146.0
18814,6.262661,-35.80645,-0.1288507,1.9710938,3.0458496,-0.5766724,146.0
18815,3.8125458,-26.911663,1.4086626,1.9710938,3.0458496,-0.5766724,146.0
18816,3.8125458,-26.911663,1.4086626,1.5813354,2.179248,0.36108398,146.0
18817,-5.8077393,-4.6464205,2.4605727,1.5813354,2.179248,0.36108398,146.0
18818,-5.8077393,-4.6464205,2.4605727,0.16248779,1.897815,0.7614624,146.0
18819,-8.207886,1.0817528,1.116627,0.16248779,1.897815,0.7614624,146.0
18820,-8.207886,1.0817528,1.116627,-1.2552979,1.906311,0.47578126,146.0
18821,-13.167103,7.886508,-1.3540007,-1.2552979,1.906311,0.47578126,146.0
18822,-13.167103,7.886508,-1.3540007,-2.4914796,1.902063,0.4800293,146.0
18823,-14.988871,9.252895,-0.82771957,-2.4914796,1.902063,0.4800293,146.0
18824,-14.988871,9.252895,-0.82771957,-2.7060058,1.6854126,0.38551027,146.0
18825,-13.530782,9.137497,2.3458443,-2.7060058,1.6854126,0.38551027,146.0
18826,-13.530782,9.137497,2.3458443,-2.3077514,1.2818482,0.32709962,146.0
18827,-10.496952,9.455824,5.506998,-2.3077514,1.2818482,0.32709962,146.0
18828,-10.496952,9.455824,5.506998,-2.0008302,0.79332274,0.14230958,146.0
18829,-7.50369,9.57224,7.429756,-2.0008302,0.79332274,0.14230958,146.0
18830,-7.50369,9.57224,7.429756,-2.0422485,0.2166504,0.019116212,146.0
18831,-5.2592387,8.747171,8.275751,-2.0422485,0.2166504,0.019116212,146.0
18832,-5.2592387,8.747171,8.275751,-2.0741088,-0.24638672,0.16248779,146.0
18833,-3.3950863,7.205013,7.9861526,-2.0741088,-0.24638672,0.16248779,146.0
18834,-3.3950863,7.205013,7.9861526,-1.8394043,-0.3451538,0.1359375,146.0
18835,-3.3950863,7.205013,7.9861526,-1.2797241,-0.5671143,0.40250245,146.0
18836,-1.67343,4.93132,6.507037,-1.2797241,-0.5671143,0.40250245,146.0
18837,0.37120485,1.0859132,-0.025058746,-1.2797241,-0.5671143,0.40250245,146.0
18838,0.37120485,1.0859132,-0.025058746,0.18903808,-1.1342286,0.42268068,146.0
18839,0.37120485,1.0859132,-0.025058746,0.31435546,-1.5855836,0.16461182,146.0
18840,0.37120485,1.0859132,-0.025058746,1.3795532,-2.2312868,-0.08920898,146.0
18841,1.3660433,0.22783709,-3.0753083,1.3795532,-2.2312868,-0.08920898,146.0
18842,1.3660433,0.22783709,-3.0753083,2.6688354,-2.5913086,-0.4895874,146.0
18843,1.6811283,-3.453216,-4.6590014,2.6688354,-2.5913086,-0.4895874,146.0
18844,1.6811283,-3.453216,-4.6590014,5.0997806,-2.075171,0.18160401,146.0
18845,1.5570488,-11.6026125,-4.4253335,5.0997806,-2.075171,0.18160401,146.0
18846,1.5570488,-11.6026125,-4.4253335,3.792444,-3.2412598,-0.47896728,146.0
18847,3.9011931,-22.485533,-5.193465,3.792444,-3.2412598,-0.47896728,146.0
18848,3.9011931,-22.485533,-5.193465,4.8024173,-3.803064,0.17523193,146.0
18849,9.434212,-28.637707,-5.7157583,4.8024173,-3.803064,0.17523193,146.0
18850,9.434212,-28.637707,-5.7157583,4.796045,-3.5757935,1.8351563,146.0
18851,13.140203,-20.2509,-4.9244747,4.796045,-3.5757935,1.8351563,146.0
18852,13.140203,-20.2509,-4.9244747,2.9460206,-3.1159425,3.270996,146.0
18853,11.922064,-3.8136597,-4.638542,2.9460206,-3.1159425,3.270996,146.0
18854,11.922064,-3.8136597,-4.638542,1.3413209,-2.3704102,3.3368409,146.0
18855,7.9996376,8.953503,-5.261542,1.3413209,-2.3704102,3.3368409,146.0
18856,7.9996376,8.953503,-5.261542,0.3525879,-1.6992188,2.625293,146.0
18857,3.1063385,14.355331,-5.184734,0.3525879,-1.6992188,2.625293,146.0
18858,3.1063385,14.355331,-5.184734,-0.43754885,-1.4878784,1.5208008,146.0
18859,-0.27868652,14.05127,-3.4615445,-0.43754885,-1.4878784,1.5208008,146.0
18860,-0.27868652,14.05127,-3.4615445,-0.4619751,-1.6737305,0.35471192,146.0
18861,-1.0833988,12.036718,-0.9437475,-0.4619751,-1.6737305,0.35471192,146.0
18862,-1.0833988,12.036718,-0.9437475,-0.31966552,-1.8871949,-0.5968506,146.0
18863,-0.5410843,10.937822,0.8404,-0.31966552,-1.8871949,-0.5968506,146.0
18864,-0.5410843,10.937822,0.8404,-0.5543701,-2.0188844,-1.175647,146.0
18865,-0.051617622,10.448268,1.5888729,-0.5543701,-2.0188844,-1.175647,146.0
18866,-0.051617622,10.448268,1.5888729,-0.63826907,-1.9307374,-1.4815063,146.0
18867,-0.3116312,9.573215,1.6067672,-0.63826907,-1.9307374,-1.4815063,146.0
18868,-0.3116312,9.573215,1.6067672,-0.7784546,-1.6450561,-1.5069946,146.0
18869,-1.0544682,8.08102,1.3089733,-0.7784546,-1.6450561,-1.5069946,146.0
18870,-1.0544682,8.08102,1.3089733,-0.44179687,-1.1459106,-1.3445069,146.0
18871,-1.7418051,6.3687105,1.1864977,-0.44179687,-1.1459106,-1.3445069,146.0
18872,-1.7418051,6.3687105,1.1864977,-0.081774905,-0.53950197,-1.3689331,146.0
18873,-1.7418051,6.3687105,1.1864977,0.16461182,0.26444092,-1.4581422,146.0
18874,-2.0977898,5.0386944,1.1545815,0.16461182,0.26444092,-1.4581422,146.0
18875,-1.3328218,0.4420519,-7.9774857E-4,0.16461182,0.26444092,-1.4581422,146.0
18876,-1.3328218,0.4420519,-7.9774857E-4,-0.6786255,1.0492676,-1.4432739,146.0
18877,-1.3328218,0.4420519,-7.9774857E-4,-0.905896,1.9498535,-1.6652344,146.0
18878,-1.3328218,0.4420519,-7.9774857E-4,-0.82730716,3.5471191,-1.5728394,146.0
18879,-0.83566666,-1.024044,-0.059586048,-0.82730716,3.5471191,-1.5728394,146.0
18880,-0.83566666,-1.024044,-0.059586048,-1.0460815,4.803479,-1.7416992,146.0
18881,0.0337739,-6.1995697,1.8819942,-1.0460815,4.803479,-1.7416992,146.0
18882,0.0337739,-6.1995697,1.8819942,-1.9700317,4.970215,-2.2716432,146.0
18883,3.6935964,-17.434118,3.372551,-1.9700317,4.970215,-2.2716432,146.0
18884,3.6935964,-17.434118,3.372551,1.6885986,5.177307,-3.0989501,146.0
18885,9.105696,-24.100042,5.6729674,1.6885986,5.177307,-3.0989501,146.0
18886,9.105696,-24.100042,5.6729674,4.539038,4.5740848,-1.5887696,146.0
18887,9.105696,-24.100042,5.6729674,4.539038,4.5740848,-1.5887696,148.0
18888,11.579502,-18.064068,9.107442,4.539038,4.5740848,-1.5887696,148.0
18889,11.579502,-18.064068,9.107442,1.4517701,2.34386,0.2442627,148.0
18890,7.1467934,-4.7700768,7.9278603,1.4517701,2.34386,0.2442627,148.0
18891,7.1467934,-4.7700768,7.9278603,2.0125122,2.18031,0.5097656,148.0
18892,-1.4025974,5.768326,2.0988555,2.0125122,2.18031,0.5097656,148.0
18893,-1.4025974,5.768326,2.0988555,-2.451123,1.808606,-0.67650145,148.0
18894,-8.628682,8.878565,-3.8229785,-2.451123,1.808606,-0.67650145,148.0
18895,-8.628682,8.878565,-3.8229785,-4.8576417,1.716211,-0.6775635,148.0
18896,-12.340092,7.1121044,-5.438522,-4.8576417,1.716211,-0.6775635,148.0
18897,-12.340092,7.1121044,-5.438522,-4.732324,1.6832886,-0.7327881,148.0
18898,-12.772465,4.806102,-2.9961789,-4.732324,1.6832886,-0.7327881,148.0
18899,-12.772465,4.806102,-2.9961789,-2.8642457,1.3360108,-0.86341554,148.0
18900,-11.279971,4.6167936,0.22488308,-2.8642457,1.3360108,-0.86341554,148.0
18901,-11.279971,4.6167936,0.22488308,-1.7661256,0.6616333,-0.81031495,148.0
18902,-9.312588,6.136367,2.1612787,-1.7661256,0.6616333,-0.81031495,148.0
18903,-9.312588,6.136367,2.1612787,-1.3498169,-0.14868164,-0.5787964,148.0
18904,-7.665659,7.5188103,3.19914,-1.3498169,-0.14868164,-0.5787964,148.0
18905,-7.665659,7.5188103,3.19914,-1.3275146,-0.6414551,-0.17629395,148.0
18906,-6.4813185,7.765671,3.793272,-1.3275146,-0.6414551,-0.17629395,148.0
18907,-6.4813185,7.765671,3.793272,-1.2383057,-0.903772,0.13912354,148.0
18908,-6.4813185,7.765671,3.793272,-0.6796875,-1.1416626,0.41099855,148.0
18909,-5.4378014,6.9525394,3.603465,-0.6796875,-1.1416626,0.41099855,148.0
18910,-1.6091404,3.965169,0.43937588,-0.6796875,-1.1416626,0.41099855,148.0
18911,-1.6091404,3.965169,0.43937588,0.11682129,-1.4942505,0.6053467,148.0
18912,-1.6091404,3.965169,0.43937588,0.7986328,-2.0624268,1.0290893,148.0
18913,-1.6091404,3.965169,0.43937588,1.5335449,-1.8903809,1.0609497,148.0
18914,-0.19762707,2.2300453,-1.3432751,1.5335449,-1.8903809,1.0609497,148.0
18915,-0.19762707,2.2300453,-1.3432751,1.8436524,-2.4521852,1.0779419,148.0
18916,0.52508926,-0.9540496,-2.9689927,1.8436524,-2.4521852,1.0779419,148.0
18917,0.52508926,-0.9540496,-2.9689927,2.625293,-2.617859,0.7763306,148.0
18918,0.69167805,-9.501472,-3.4351919,2.625293,-2.617859,0.7763306,148.0
18919,0.69167805,-9.501472,-3.4351919,4.072815,-3.2858644,-0.24213867,148.0
18920,4.108433,-22.39162,-2.5982268,4.072815,-3.2858644,-0.24213867,148.0
18921,4.108433,-22.39162,-2.5982268,5.7231812,-3.0277956,-0.32072756,148.0
18922,12.00507,-28.952677,-1.3428268,5.7231812,-3.0277956,-0.32072756,148.0
18923,12.00507,-28.952677,-1.3428268,4.336194,-2.3088136,1.716211,148.0
18924,16.732986,-21.324776,-1.0623474,4.336194,-2.3088136,1.716211,148.0
18925,16.732986,-21.324776,-1.0623474,1.1862671,-1.4528321,3.7042968,148.0
18926,13.682678,-5.5140934,-2.7858276,1.1862671,-1.4528321,3.7042968,148.0
18927,13.682678,-5.5140934,-2.7858276,-1.2372437,-1.0216553,3.8253663,148.0
18928,6.8346195,6.8244915,-4.9585204,-1.2372437,-1.0216553,3.8253663,148.0
18929,6.8346195,6.8244915,-4.9585204,-1.8903809,-1.3285767,3.0129273,148.0
18930,1.2700396,11.446544,-5.1701856,-1.8903809,-1.3285767,3.0129273,148.0
18931,1.2700396,11.446544,-5.1701856,-1.6089478,-1.6896607,1.7799317,148.0
18932,-0.60669804,11.819833,-3.472965,-1.6089478,-1.6896607,1.7799317,148.0
18933,-0.60669804,11.819833,-3.472965,-1.0184692,-2.1165893,0.7391602,148.0
18934,-0.30246067,12.031025,-1.6710967,-1.0184692,-2.1165893,0.7391602,148.0
18935,-0.30246067,12.031025,-1.6710967,-0.77739257,-2.34386,-0.10195313,148.0
18936,0.14051437,12.729898,-0.6730833,-0.77739257,-2.34386,-0.10195313,148.0
18937,0.14051437,12.729898,-0.6730833,-0.89102787,-2.2312868,-0.70092773,148.0
18938,0.095602036,12.94825,-0.4145286,-0.89102787,-2.2312868,-0.70092773,148.0
18939,0.095602036,12.94825,-0.4145286,-1.3445069,-1.8585205,-1.0747559,148.0
18940,-0.43301582,11.961628,-0.53274584,-1.3445069,-1.8585205,-1.0747559,148.0
18941,-0.43301582,11.961628,-0.53274584,-1.5154908,-1.26698,-1.1586548,148.0
18942,-1.2292738,9.751369,-0.21572304,-1.5154908,-1.26698,-1.1586548,148.0
18943,-1.2292738,9.751369,-0.21572304,-1.3710572,-0.5511841,-1.3391968,148.0
18944,-1.9221888,7.028391,0.661052,-1.3710572,-0.5511841,-1.3391968,148.0
18945,-1.9221888,7.028391,0.661052,-0.89421386,0.23151855,-1.5919555,148.0
18946,-1.9221888,7.028391,0.661052,-0.49277344,1.1246704,-1.9402955,148.0
18947,-2.060029,4.312068,1.4049646,-0.49277344,1.1246704,-1.9402955,148.0
18948,-1.3693976,-1.7453651,1.0437348,-0.49277344,1.1246704,-1.9402955,148.0
18949,-1.3693976,-1.7453651,1.0437348,-0.90695804,1.8755127,-2.0348146,148.0
18950,-1.3693976,-1.7453651,1.0437348,-1.3349488,2.8345094,-1.7098389,148.0
18951,-1.3693976,-1.7453651,1.0437348,-2.642285,3.9305055,-1.5292969,148.0
18952,-1.880516,-4.8898835,-0.2584325,-2.642285,3.9305055,-1.5292969,148.0
18953,-1.880516,-4.8898835,-0.2584325,-2.9704468,4.4572635,-0.8209351,148.0
18954,-1.4213929,-12.11364,0.6038985,-2.9704468,4.4572635,-0.8209351,148.0
18955,-1.4213929,-12.11364,0.6038985,-2.3990846,4.3223877,-1.0906861,148.0
18956,3.600422,-23.034992,2.625697,-2.3990846,4.3223877,-1.0906861,148.0
18957,3.600422,-23.034992,2.625697,0.3430298,3.7860718,-1.7555054,148.0
18958,9.653238,-27.702969,3.806307,0.3430298,3.7860718,-1.7555054,148.0
18959,9.653238,-27.702969,3.806307,4.630371,3.4090576,-0.014868164,148.0
18960,9.961385,-15.952562,5.0042377,4.630371,3.4090576,-0.014868164,148.0
18961,9.961385,-15.952562,5.0042377,4.618689,2.2164185,1.0397094,148.0
18962,3.6830845,1.8398666,5.4300747,4.618689,2.2164185,1.0397094,148.0
18963,3.6830845,1.8398666,5.4300747,-0.72323,1.7863038,0.91014403,148.0
18964,-4.5865164,10.26756,1.8707442,-0.72323,1.7863038,0.91014403,148.0
18965,-4.5865164,10.26756,1.8707442,-2.3640382,2.075171,0.50020754,148.0
18966,-10.439233,9.823874,-2.222704,-2.3640382,2.075171,0.50020754,148.0
18967,-10.439233,9.823874,-2.222704,-3.059656,1.8648926,0.38338622,148.0
18968,-12.166193,7.604949,-2.7038713,-3.059656,1.8648926,0.38338622,148.0
18969,-12.166193,7.604949,-2.7038713,-2.1781862,1.5261109,0.21452637,148.0
18970,-10.814681,7.5614986,-0.26871216,-2.1781862,1.5261109,0.21452637,148.0
18971,-10.814681,7.5614986,-0.26871216,-1.5696534,1.0503296,-0.053100586,148.0
18972,-8.689757,8.826469,2.0937583,-1.5696534,1.0503296,-0.053100586,148.0
18973,-8.689757,8.826469,2.0937583,-1.7746216,0.2824951,-0.11044922,148.0
18974,-6.825781,9.103216,3.4753609,-1.7746216,0.2824951,-0.11044922,148.0
18975,-6.825781,9.103216,3.4753609,-1.3986695,-0.41737062,-0.16992188,148.0
18976,-5.3727584,8.119585,4.1833405,-1.3986695,-0.41737062,-0.16992188,148.0
18977,-5.3727584,8.119585,4.1833405,-0.59047854,-0.7604004,-0.025488282,148.0
18978,-4.6170425,6.9383316,3.9814506,-0.59047854,-0.7604004,-0.025488282,148.0
18979,-4.6170425,6.9383316,3.9814506,0.14230958,-0.901648,0.08496094,148.0
18980,-4.4367857,5.820868,2.6816936,0.14230958,-0.901648,0.08496094,148.0
18981,-4.4367857,5.820868,2.6816936,0.5671143,-1.088562,0.27506104,148.0
18982,-3.837551,4.362713,0.8838434,0.5671143,-1.088562,0.27506104,148.0
18983,-3.837551,4.362713,0.8838434,0.5798584,-1.5887696,0.5777344,148.0
18984,-2.18497,2.465805,-0.5322685,0.5798584,-1.5887696,0.5777344,148.0
18985,-2.18497,2.465805,-0.5322685,0.6573853,-1.9976441,0.63826907,148.0
18986,-0.13884544,0.21536827,-1.3203831,0.6573853,-1.9976441,0.63826907,148.0
18987,-0.13884544,0.21536827,-1.3203831,0.96218264,-2.4649293,0.15505372,148.0
18988,1.6068435,-3.1057081,-2.1157913,0.96218264,-2.4649293,0.15505372,148.0
18989,1.6068435,-3.1057081,-2.1157913,2.170752,-2.5084717,0.2548828,148.0
18990,2.6402843,-8.373934,-2.9428039,2.170752,-2.5084717,0.2548828,148.0
18991,2.6402843,-8.373934,-2.9428039,2.170752,-2.5084717,0.2548828,151.0
18992,2.6402843,-8.373934,-2.9428039,2.9492066,-2.4659913,0.16992188,151.0
18993,3.498519,-17.194984,-2.7526562,2.9492066,-2.4659913,0.16992188,151.0
18994,3.498519,-17.194984,-2.7526562,5.2081056,-2.4596193,0.7497803,151.0
18995,7.1583858,-25.411701,-2.112452,5.2081056,-2.4596193,0.7497803,151.0
18996,7.1583858,-25.411701,-2.112452,4.1206055,-2.1208375,0.8857178,151.0
18997,12.083984,-23.744865,-1.7469442,4.1206055,-2.1208375,0.8857178,151.0
18998,12.083984,-23.744865,-1.7469442,1.9987061,-2.1314576,2.9332764,151.0
18999,12.718371,-12.285455,-1.9910855,1.9987061,-2.1314576,2.9332764,151.0
19000,12.718371,-12.285455,-1.9910855,0.29630128,-1.5144287,3.3750732,151.0
19001,9.466836,0.44799042,-3.7004733,0.29630128,-1.5144287,3.3750732,151.0
19002,9.466836,0.44799042,-3.7004733,-0.73809814,-1.2935303,2.7474244,151.0
19003,4.976057,8.210566,-5.6929836,-0.73809814,-1.2935303,2.7474244,151.0
19004,4.976057,8.210566,-5.6929836,-1.364685,-1.3094605,1.8171021,151.0
19005,1.3137436,10.634041,-5.897087,-1.364685,-1.3094605,1.8171021,151.0
19006,1.3137436,10.634041,-5.897087,-1.8808228,-1.4326538,0.7412842,151.0
19007,0.3002987,10.307074,-3.7828064,-1.8808228,-1.4326538,0.7412842,151.0
19008,0.3002987,10.307074,-3.7828064,-1.7119629,-1.7926759,-0.04885254,151.0
19009,0.82466316,10.046966,-1.17312,-1.7119629,-1.7926759,-0.04885254,151.0
19010,0.82466316,10.046966,-1.17312,-1.3997315,-1.8606446,-0.5915405,151.0
19011,0.8487816,10.655102,0.03234124,-1.3997315,-1.8606446,-0.5915405,151.0
19012,0.8487816,10.655102,0.03234124,-1.7024049,-1.6609863,-0.9324463,151.0
19013,0.1862154,10.768527,0.044171333,-1.7024049,-1.6609863,-0.9324463,151.0
19014,0.1862154,10.768527,0.044171333,-1.8457764,-1.447522,-1.0790039,151.0
19015,-0.69301987,9.878555,0.3711524,-1.8457764,-1.447522,-1.0790039,151.0
19016,-0.69301987,9.878555,0.3711524,-2.1526978,-1.2319336,-1.2255615,151.0
19017,-1.4404507,8.143824,1.5072613,-2.1526978,-1.2319336,-1.2255615,151.0
19018,-1.4404507,8.143824,1.5072613,-2.71344,-1.0184692,-1.1161743,151.0
19019,-1.8262615,5.74792,2.7093124,-2.71344,-1.0184692,-1.1161743,151.0
19020,-1.8262615,5.74792,2.7093124,-2.5020998,-0.42905274,-1.0343994,151.0
19021,-1.8262615,5.74792,2.7093124,-2.4139526,0.53737795,-0.7126099,151.0
19022,-1.5917587,3.3851528,3.5375917,-2.4139526,0.53737795,-0.7126099,151.0
19023,1.3656673,-3.0776196,3.0473707,-2.4139526,0.53737795,-0.7126099,151.0
19024,1.3656673,-3.0776196,3.0473707,-2.89292,1.5484132,-0.40144044,151.0
19025,1.3656673,-3.0776196,3.0473707,-2.7113159,2.9035401,-0.14018555,151.0
19026,1.3656673,-3.0776196,3.0473707,-2.7506104,4.1184816,0.4885254,151.0
19027,1.0695114,-6.899754,0.012151957,-2.7506104,4.1184816,0.4885254,151.0
19028,1.0695114,-6.899754,0.012151957,-3.167981,4.88313,0.7455322,151.0
19029,1.7104921,-13.580423,-2.9651685,-3.167981,4.88313,0.7455322,151.0
19030,1.7104921,-13.580423,-2.9651685,-1.9753418,4.860828,0.52675784,151.0
19031,4.2214336,-21.463533,-3.3270667,-1.9753418,4.860828,0.52675784,151.0
19032,4.2214336,-21.463533,-3.3270667,0.95581055,3.7892578,0.34940186,151.0
19033,5.63933,-21.90635,-0.81328917,0.95581055,3.7892578,0.34940186,151.0
19034,5.63933,-21.90635,-0.81328917,5.127393,2.7060058,1.1841431,151.0
19035,3.662794,-11.08637,1.7445347,5.127393,2.7060058,1.1841431,151.0
19036,3.662794,-11.08637,1.7445347,2.8578737,2.4107666,1.2308716,151.0
19037,-1.0914078,1.2738228,1.1762186,2.8578737,2.4107666,1.2308716,151.0
19038,-1.0914078,1.2738228,1.1762186,0.13806152,2.8461914,0.9388184,151.0
19039,-6.151532,6.9822664,-0.74022627,0.13806152,2.8461914,0.9388184,151.0
19040,-6.151532,6.9822664,-0.74022627,-0.7678345,2.9428346,0.69986576,151.0
19041,-9.150364,7.60117,-0.8097713,-0.7678345,2.9428346,0.69986576,151.0
19042,-9.150364,7.60117,-0.8097713,-0.8581055,2.624231,0.54375,151.0
19043,-10.262931,7.6238317,1.1495341,-0.8581055,2.624231,0.54375,151.0
19044,-10.262931,7.6238317,1.1495341,-0.26656494,2.0390625,0.2803711,151.0
19045,-10.323284,8.874334,3.3561752,-0.26656494,2.0390625,0.2803711,151.0
19046,-10.323284,8.874334,3.3561752,-0.5703003,1.1958252,-0.0637207,151.0
19047,-9.440353,10.015263,4.8200355,-0.5703003,1.1958252,-0.0637207,151.0
19048,-9.440353,10.015263,4.8200355,-0.96643066,0.28355715,-0.3058594,151.0
19049,-7.306336,9.451736,5.5585794,-0.96643066,0.28355715,-0.3058594,151.0
19050,-7.306336,9.451736,5.5585794,-0.11682129,-0.44923097,-0.5692383,151.0
19051,-4.5417485,7.755457,5.633778,-0.11682129,-0.44923097,-0.5692383,151.0
19052,-4.5417485,7.755457,5.633778,0.7072998,-0.7604004,-0.57561034,151.0
19053,-2.5025272,6.066939,4.9410925,0.7072998,-0.7604004,-0.57561034,151.0
19054,-2.5025272,6.066939,4.9410925,1.0078491,-0.84748536,-0.634021,151.0
19055,-1.5142777,4.7883043,3.8515801,1.0078491,-0.84748536,-0.634021,151.0
19056,-1.5142777,4.7883043,3.8515801,0.73597413,-0.9388184,-0.52038574,151.0
19057,-0.8574915,3.4340248,2.888051,0.73597413,-0.9388184,-0.52038574,151.0
19058,-0.8574915,3.4340248,2.888051,0.23364258,-0.8889038,-0.40250245,151.0
19059,-0.11203098,1.4492826,2.0823889,0.23364258,-0.8889038,-0.40250245,151.0
19060,-0.11203098,1.4492826,2.0823889,-0.6903076,-0.86766356,-0.37382814,151.0
19061,0.46552658,-1.4628029,0.85077477,-0.6903076,-0.86766356,-0.37382814,151.0
19062,0.46552658,-1.4628029,0.85077477,-0.5649902,-0.7391602,-0.04991455,151.0
19063,0.3945892,-5.8360257,-0.93019533,-0.5649902,-0.7391602,-0.04991455,151.0
19064,0.3945892,-5.8360257,-0.93019533,1.2021973,-0.5809204,0.35683593,151.0
19065,0.08779049,-11.679245,-2.6978188,1.2021973,-0.5809204,0.35683593,151.0
19066,0.08779049,-11.679245,-2.6978188,0.4078125,-1.1873292,0.452417,151.0
19067,1.0364921,-18.738611,-5.592105,0.4078125,-1.1873292,0.452417,151.0
19068,1.0364921,-18.738611,-5.592105,1.5749635,-1.9795898,0.6223389,151.0
19069,4.264753,-23.143051,-9.284707,1.5749635,-1.9795898,0.6223389,151.0
19070,4.264753,-23.143051,-9.284707,2.340674,-2.1643798,1.4560181,151.0
19071,7.5552716,-18.736622,-10.480146,2.340674,-2.1643798,1.4560181,151.0
19072,7.5552716,-18.736622,-10.480146,1.2903442,-2.9407105,2.4489992,151.0
19073,8.222488,-7.647684,-8.794798,1.2903442,-2.9407105,2.4489992,151.0
19074,8.222488,-7.647684,-8.794798,0.5936646,-3.4685304,2.624231,151.0
19075,6.951624,2.7728195,-6.8757067,0.5936646,-3.4685304,2.624231,151.0
19076,6.951624,2.7728195,-6.8757067,0.4067505,-3.7690797,2.1643798,151.0
19077,5.3211503,8.728704,-5.3456826,0.4067505,-3.7690797,2.1643798,151.0
19078,5.3211503,8.728704,-5.3456826,0.5703003,-3.8497925,1.4199097,151.0
19079,4.3623037,10.816985,-3.607283,0.5703003,-3.8497925,1.4199097,151.0
19080,4.3623037,10.816985,-3.607283,0.3727661,-3.719165,0.73597413,151.0
19081,3.989953,11.166088,-1.5611687,0.3727661,-3.719165,0.73597413,151.0
19082,3.989953,11.166088,-1.5611687,-0.06796875,-3.544995,0.21452637,151.0
19083,3.6952581,10.789951,0.5454011,-0.06796875,-3.544995,0.21452637,151.0
19084,3.6952581,10.789951,0.5454011,-0.36639404,-3.4196777,-0.22514649,151.0
19085,3.2644587,10.159366,2.2957935,-0.36639404,-3.4196777,-0.22514649,151.0
19086,3.2644587,10.159366,2.2957935,-0.33240968,-3.2083375,-0.5713623,151.0
19087,2.7717352,9.83135,3.247023,-0.33240968,-3.2083375,-0.5713623,151.0
19088,2.7717352,9.83135,3.247023,-0.5033936,-2.8451295,-0.67437744,151.0
19089,2.1859064,9.75092,3.5739613,-0.5033936,-2.8451295,-0.67437744,151.0
19090,2.1859064,9.75092,3.5739613,-0.80394286,-2.2079225,-0.51826173,151.0
19091,1.3678904,9.457353,4.10602,-0.80394286,-2.2079225,-0.51826173,151.0
19092,1.3678904,9.457353,4.10602,-1.9689697,-1.357251,-0.6637573,151.0
19093,0.6445446,8.536353,5.0748672,-1.9689697,-1.357251,-0.6637573,151.0
19094,0.6445446,8.536353,5.0748672,-1.9413575,-0.13912354,-0.83049315,151.0
19095,0.6445446,8.536353,5.0748672,-3.516321,1.2829102,-0.9515625,151.0
19096,0.2877426,7.719989,6.096319,-3.516321,1.2829102,-0.9515625,151.0
19097,0.9659357,0.31755638,0.7646044,-3.516321,1.2829102,-0.9515625,151.0
19098,0.9659357,0.31755638,0.7646044,-5.3759036,2.985315,-0.5076416,151.0
19099,0.9659357,0.31755638,0.7646044,-5.3907714,5.423694,0.3355957,151.0
19100,0.9659357,0.31755638,0.7646044,-8.861426,7.339563,0.7306641,151.0
19101,0.62235737,-7.9105787,-4.2921495,-8.861426,7.339563,0.7306641,151.0
19102,0.62235737,-7.9105787,-4.2921495,-3.897583,7.6624146,0.5331299,151.0
19103,3.9460793,-22.057028,-7.867228,-3.897583,7.6624146,0.5331299,151.0
19104,3.9460793,-22.057028,-7.867228,-1.1182984,7.1430907,0.5872925,151.0
19105,7.398014,-33.780838,-9.417879,-1.1182984,7.1430907,0.5872925,151.0
19106,7.398014,-33.780838,-9.417879,5.5734377,3.9687378,-0.27293703,151.0
19107,5.170353,-27.542166,-7.289699,5.5734377,3.9687378,-0.27293703,151.0
19108,5.170353,-27.542166,-7.289699,4.081311,1.1214844,1.359375,151.0
19109,-1.6005583,-8.944878,-3.3071985,4.081311,1.1214844,1.359375,151.0
19110,-1.6005583,-8.944878,-3.3071985,0.9494385,1.2765381,1.9084351,151.0
19111,-8.452346,5.204938,0.51630163,0.9494385,1.2765381,1.9084351,151.0
19112,-8.452346,5.204938,0.51630163,0.2527588,1.6110718,1.5048707,151.0
19113,-12.115551,10.801537,3.589384,0.2527588,1.6110718,1.5048707,151.0
19114,-12.115551,10.801537,3.589384,-0.17416993,1.6758546,1.3455689,151.0
19115,-12.115551,10.801537,3.589384,-0.17416993,1.6758546,1.3455689,153.0
19116,-12.214573,11.495624,5.875902,-0.17416993,1.6758546,1.3455689,153.0
19117,-12.214573,11.495624,5.875902,0.32603762,1.5144287,0.97386473,153.0
19118,-10.389517,11.255203,7.459474,0.32603762,1.5144287,0.97386473,153.0
19119,-10.389517,11.255203,7.459474,0.53950197,1.2744141,0.36320803,153.0
19120,-8.471941,11.397839,7.827272,0.53950197,1.2744141,0.36320803,153.0
19121,-8.471941,11.397839,7.827272,-0.6839356,0.77102053,-0.09664307,153.0
19122,-7.0281143,10.195713,7.5901136,-0.6839356,0.77102053,-0.09664307,153.0
19123,-7.0281143,10.195713,7.5901136,-1.6939087,0.15930176,-0.4248047,153.0
19124,-5.726825,7.042569,7.4800744,-1.6939087,0.15930176,-0.4248047,153.0
19125,-5.726825,7.042569,7.4800744,-1.1066163,-0.29630128,-0.45878908,153.0
19126,-4.6404076,3.933909,7.2223897,-1.1066163,-0.29630128,-0.45878908,153.0
19127,-4.6404076,3.933909,7.2223897,-0.16248779,-0.40993652,-0.25063476,153.0
19128,-4.2661595,2.4382892,6.277924,-0.16248779,-0.40993652,-0.25063476,153.0
19129,-4.2661595,2.4382892,6.277924,0.7476563,-0.58623046,-0.13699952,153.0
19130,-4.441907,2.1037564,4.6681767,0.7476563,-0.58623046,-0.13699952,153.0
19131,-4.441907,2.1037564,4.6681767,1.713025,-1.0439576,0.21027832,153.0
19132,-3.9946756,1.5669165,2.816133,1.713025,-1.0439576,0.21027832,153.0
19133,-3.9946756,1.5669165,2.816133,1.8001099,-1.6418701,0.14974366,153.0
19134,-1.9651375,0.27395535,0.77533054,1.8001099,-1.6418701,0.14974366,153.0
19135,-1.9651375,0.27395535,0.77533054,1.8266602,-2.177124,0.33984375,153.0
19136,0.3231659,-2.459217,-1.4182487,1.8266602,-2.177124,0.33984375,153.0
19137,0.3231659,-2.459217,-1.4182487,2.0464966,-2.4022706,0.6605713,153.0
19138,1.6495237,-7.7001987,-4.140251,2.0464966,-2.4022706,0.6605713,153.0
19139,1.6495237,-7.7001987,-4.140251,2.5095336,-2.3226197,0.9632446,153.0
19140,2.6819482,-15.747073,-6.94588,2.5095336,-2.3226197,0.9632446,153.0
19141,2.6819482,-15.747073,-6.94588,2.3916504,-2.537146,1.4305298,153.0
19142,4.7377462,-23.882853,-9.130288,2.3916504,-2.537146,1.4305298,153.0
19143,4.7377462,-23.882853,-9.130288,2.360852,-2.7399902,2.4553711,153.0
19144,8.744018,-25.736238,-9.377692,2.360852,-2.7399902,2.4553711,153.0
19145,8.744018,-25.736238,-9.377692,2.092163,-3.2359498,3.6448243,153.0
19146,12.332703,-17.71858,-7.4140196,2.092163,-3.2359498,3.6448243,153.0
19147,12.332703,-17.71858,-7.4140196,1.9562256,-3.3814454,4.235303,153.0
19148,12.969348,-3.5214577,-5.4735126,1.9562256,-3.3814454,4.235303,153.0
19149,12.969348,-3.5214577,-5.4735126,1.2414917,-3.0607178,4.1046753,153.0
19150,10.879471,9.578318,-4.123671,1.2414917,-3.0607178,4.1046753,153.0
19151,10.879471,9.578318,-4.123671,-0.22514649,-2.8589356,3.3124146,153.0
19152,7.5301514,16.25041,-2.4827137,-0.22514649,-2.8589356,3.3124146,153.0
19153,7.5301514,16.25041,-2.4827137,-0.7476563,-2.7431762,2.1176515,153.0
19154,4.6093388,16.777245,-0.45558023,-0.7476563,-2.7431762,2.1176515,153.0
19155,4.6093388,16.777245,-0.45558023,-0.8931519,-2.704944,0.8092529,153.0
19156,2.968196,14.880804,1.3975596,-0.8931519,-2.704944,0.8092529,153.0
19157,2.968196,14.880804,1.3975596,-0.8973999,-2.626355,-0.23151855,153.0
19158,2.2189407,13.1023,2.4133968,-0.8973999,-2.626355,-0.23151855,153.0
19159,2.2189407,13.1023,2.4133968,-0.8867798,-2.347046,-1.1246704,153.0
19160,1.7611141,11.7908,2.738225,-0.8867798,-2.347046,-1.1246704,153.0
19161,1.7611141,11.7908,2.738225,-0.8050049,-1.9902099,-1.7852417,153.0
19162,1.2142382,10.651561,3.035148,-0.8050049,-1.9902099,-1.7852417,153.0
19163,1.2142382,10.651561,3.035148,-0.66588134,-1.3869873,-2.1335816,153.0
19164,0.5755043,9.41047,3.392657,-0.66588134,-1.3869873,-2.1335816,153.0
19165,0.5755043,9.41047,3.392657,-0.6053467,-0.634021,-2.4893556,153.0
19166,-0.05254841,7.676154,3.580422,-0.6053467,-0.634021,-2.4893556,153.0
19167,-0.05254841,7.676154,3.580422,-0.4088745,0.33134767,-2.721936,153.0
19168,-0.36878395,5.575775,3.775434,-0.4088745,0.33134767,-2.721936,153.0
19169,-0.36878395,5.575775,3.775434,0.38657227,1.4560181,-3.1297486,153.0
19170,-0.36878395,5.575775,3.775434,-0.79013675,2.5743165,-3.2200196,153.0
19171,0.28118134,4.1040773,4.0902815,-0.79013675,2.5743165,-3.2200196,153.0
19172,1.0588198,2.0055761,0.43434656,-0.79013675,2.5743165,-3.2200196,153.0
19173,1.0588198,2.0055761,0.43434656,-0.50870365,4.602759,-2.9513307,153.0
19174,1.0588198,2.0055761,0.43434656,-2.6327271,5.8463745,-2.451123,153.0
19175,-0.6238909,-4.9890814,-5.3660603,-2.6327271,5.8463745,-2.451123,153.0
19176,-0.6238909,-4.9890814,-5.3660603,-2.8918579,8.020312,-2.0273805,153.0
19177,-1.5370026,-21.08991,-8.20331,-2.8918579,8.020312,-2.0273805,153.0
19178,-1.5370026,-21.08991,-8.20331,-1.2393677,7.1218505,-1.5643433,153.0
19179,0.14296818,-38.366386,-6.2480726,-1.2393677,7.1218505,-1.5643433,153.0
19180,0.14296818,-38.366386,-6.2480726,2.7453003,4.9436646,-1.540979,153.0
19181,1.3079538,-34.678547,-2.2671714,2.7453003,4.9436646,-1.540979,153.0
19182,1.3079538,-34.678547,-2.2671714,1.8447144,2.9959352,1.6907227,153.0
19183,-1.7598991,-11.881157,1.4937215,1.8447144,2.9959352,1.6907227,153.0
19184,-1.7598991,-11.881157,1.4937215,-0.9239502,1.537793,2.1526978,153.0
19185,-6.7570524,6.7657776,2.6211736,-0.9239502,1.537793,2.1526978,153.0
19186,-6.7570524,6.7657776,2.6211736,-1.6631104,0.8315552,1.720459,153.0
19187,-10.520998,13.658081,2.6538117,-1.6631104,0.8315552,1.720459,153.0
19188,-10.520998,13.658081,2.6538117,-0.88996583,0.4800293,0.7720825,153.0
19189,-10.804836,13.186621,2.8683984,-0.88996583,0.4800293,0.7720825,153.0
19190,-10.804836,13.186621,2.8683984,-0.7688965,0.36427003,0.07434082,153.0
19191,-8.8116665,11.659307,4.0034466,-0.7688965,0.36427003,0.07434082,153.0
19192,-8.8116665,11.659307,4.0034466,-1.0991821,0.2888672,-0.20496826,153.0
19193,-6.7585983,11.035917,5.3475695,-1.0991821,0.2888672,-0.20496826,153.0
19194,-6.7585983,11.035917,5.3475695,-2.1176515,0.24001466,-0.20921631,153.0
19195,-5.658527,9.885216,5.709306,-2.1176515,0.24001466,-0.20921631,153.0
19196,-5.658527,9.885216,5.709306,-2.6040528,0.20921631,-0.31860352,153.0
19197,-4.8608913,7.48736,5.2461433,-2.6040528,0.20921631,-0.31860352,153.0
19198,-4.8608913,7.48736,5.2461433,-2.1898682,-0.021240234,-0.4258667,153.0
19199,-3.4907517,4.8177443,5.0390534,-2.1898682,-0.021240234,-0.4258667,153.0
19200,-3.4907517,4.8177443,5.0390534,-1.5685914,-0.1359375,-0.39613038,153.0
19201,-3.4907517,4.8177443,5.0390534,-0.76358646,-0.14124756,-0.2442627,153.0
19202,-2.7565053,2.968185,4.744805,-0.76358646,-0.14124756,-0.2442627,153.0
19203,-3.419157,0.5217037,2.455573,-0.76358646,-0.14124756,-0.2442627,153.0
19204,-3.419157,0.5217037,2.455573,-0.76358646,-0.14124756,-0.2442627,158.0
19205,-3.419157,0.5217037,2.455573,-0.92713624,-0.635083,0.11044922,158.0
19206,-3.419157,0.5217037,2.455573,-0.73597413,-1.3030884,0.4598511,158.0
19207,-3.419157,0.5217037,2.455573,0.13912354,-2.163318,0.6966797,158.0
19208,-1.190465,-1.7432816,0.79564714,0.13912354,-2.163318,0.6966797,158.0
19209,-1.190465,-1.7432816,0.79564714,1.3402588,-2.8684938,0.87191164,158.0
19210,0.7360437,-3.5125208,-1.4035583,1.3402588,-2.8684938,0.87191164,158.0
19211,0.7360437,-3.5125208,-1.4035583,2.0326905,-3.4228637,0.996167,158.0
19212,1.6317306,-5.709101,-4.177888,2.0326905,-3.4228637,0.996167,158.0
19213,1.6317306,-5.709101,-4.177888,1.996582,-3.9634278,0.724292,158.0
19214,2.413136,-11.538253,-6.6252327,1.996582,-3.9634278,0.724292,158.0
19215,2.413136,-11.538253,-6.6252327,2.456433,-4.968091,0.13381349,158.0
19216,5.181156,-20.39309,-8.286978,2.456433,-4.968091,0.13381349,158.0
19217,5.181156,-20.39309,-8.286978,4.3797364,-5.886731,0.16885987,158.0
19218,9.31116,-23.175093,-8.072112,4.3797364,-5.886731,0.16885987,158.0
19219,9.31116,-23.175093,-8.072112,4.8385253,-6.5908446,1.3285767,158.0
19220,10.82676,-15.052757,-5.9205074,4.8385253,-6.5908446,1.3285767,158.0
19221,10.82676,-15.052757,-5.9205074,3.9124513,-5.93877,2.1834962,158.0
19222,9.047895,-2.6089668,-4.1071944,3.9124513,-5.93877,2.1834962,158.0
19223,9.047895,-2.6089668,-4.1071944,2.4670532,-4.9309206,2.1537597,158.0
19224,6.3453846,7.4100676,-3.6205454,2.4670532,-4.9309206,2.1537597,158.0
19225,6.3453846,7.4100676,-3.6205454,1.1990112,-3.5524292,1.8808228,158.0
19226,3.8962421,13.191214,-3.458033,1.1990112,-3.5524292,1.8808228,158.0
19227,3.8962421,13.191214,-3.458033,-0.10407715,-2.2981935,1.5112427,158.0
19228,2.218813,15.205778,-2.0733724,-0.10407715,-2.2981935,1.5112427,158.0
19229,2.218813,15.205778,-2.0733724,-0.998291,-1.5292969,0.9759888,158.0
19230,1.3478899,14.88148,0.37627554,-0.998291,-1.5292969,0.9759888,158.0
19231,1.3478899,14.88148,0.37627554,-1.1151123,-0.74871826,0.4088745,158.0
19232,0.8564253,13.892916,2.139143,-1.1151123,-0.74871826,0.4088745,158.0
19233,0.8564253,13.892916,2.139143,-1.3137085,-0.050976563,-0.0180542,158.0
19234,0.2673912,12.663931,2.1355696,-1.3137085,-0.050976563,-0.0180542,158.0
19235,0.2673912,12.663931,2.1355696,-1.6121339,0.78164065,-0.35895997,158.0
19236,-0.46820354,10.478655,1.1842856,-1.6121339,0.78164065,-0.35895997,158.0
19237,-0.46820354,10.478655,1.1842856,-1.4145997,1.5781494,-0.7604004,158.0
19238,-1.0722189,7.137294,1.0495162,-1.4145997,1.5781494,-0.7604004,158.0
19239,-1.0722189,7.137294,1.0495162,-0.76677245,2.1505737,-1.177771,158.0
19240,-1.0722189,7.137294,1.0495162,0.10938721,2.5647583,-1.537793,158.0
19241,-1.1551752,3.5602865,1.9121351,0.10938721,2.5647583,-1.537793,158.0
19242,-0.77949905,-1.1785898,0.7083945,0.10938721,2.5647583,-1.537793,158.0
19243,-0.77949905,-1.1785898,0.7083945,0.5501221,2.8918579,-1.7852417,158.0
19244,-0.77949905,-1.1785898,0.7083945,0.38763428,3.434546,-1.7374512,158.0
19245,-0.77949905,-1.1785898,0.7083945,0.362146,4.1418457,-1.5165528,158.0
19246,-0.44217777,-3.0321422,0.70203066,0.362146,4.1418457,-1.5165528,158.0
19247,-0.44217777,-3.0321422,0.70203066,0.4067505,4.434961,-1.6588624,158.0
19248,0.3270073,-8.074444,1.4919224,0.4067505,4.434961,-1.6588624,158.0
19249,0.3270073,-8.074444,1.4919224,-0.98448485,4.145032,-1.2797241,158.0
19250,1.5994968,-16.224205,0.49044967,-0.98448485,4.145032,-1.2797241,158.0
19251,1.5994968,-16.224205,0.49044967,0.34833986,4.2947755,-1.3933594,158.0
19252,3.2963943,-21.093903,0.20820427,0.34833986,4.2947755,-1.3933594,158.0
19253,3.2963943,-21.093903,0.20820427,2.3003175,3.9283814,-1.6652344,158.0
19254,3.389886,-15.369177,3.6163926,2.3003175,3.9283814,-1.6652344,158.0
19255,3.389886,-15.369177,3.6163926,-0.04248047,2.1580079,-0.48746338,158.0
19256,0.1078186,-3.8223677,6.565831,-0.04248047,2.1580079,-0.48746338,158.0
19257,0.1078186,-3.8223677,6.565831,-1.7714356,1.6471802,-0.1709839,158.0
19258,-4.7352905,2.821659,7.5225263,-1.7714356,1.6471802,-0.1709839,158.0
19259,-4.7352905,2.821659,7.5225263,-1.7332032,1.6493043,-0.58198243,158.0
19260,-6.052966,5.395218,5.9449863,-1.7332032,1.6493043,-0.58198243,158.0
19261,-6.052966,5.395218,5.9449863,0.8464233,1.1692749,-1.5165528,158.0
19262,-5.766079,5.8414187,3.673067,0.8464233,1.1692749,-1.5165528,158.0
19263,-5.766079,5.8414187,3.673067,-1.8139161,2.1495118,-2.1834962,158.0
19264,-9.909518,9.041922,-4.942149,-1.8139161,2.1495118,-2.1834962,158.0
19265,-9.909518,9.041922,-4.942149,-2.8302612,2.0114503,-1.5176147,158.0
19266,-9.582388,7.4648976,-4.3922086,-2.8302612,2.0114503,-1.5176147,158.0
19267,-9.582388,7.4648976,-4.3922086,-2.6390991,1.8171021,-1.3360108,158.0
19268,-7.893681,6.457404,1.1186674,-2.6390991,1.8171021,-1.3360108,158.0
19269,-7.893681,6.457404,1.1186674,-2.079419,1.2892822,-1.179895,158.0
19270,-6.1322913,5.4287167,3.1147704,-2.079419,1.2892822,-1.179895,158.0
19271,-6.1322913,5.4287167,3.1147704,-1.6461182,0.9366943,-0.991919,158.0
19272,-6.207481,5.638176,4.801167,-1.6461182,0.9366943,-0.991919,158.0
19273,-6.207481,5.638176,4.801167,-0.31010744,0.0053100586,-0.5129517,158.0
19274,-5.697491,4.859381,3.5689,-0.31010744,0.0053100586,-0.5129517,158.0
19275,-5.697491,4.859381,3.5689,0.009558106,-0.5214478,-0.35577393,158.0
19276,-4.3868628,3.7522144,1.7523861,0.009558106,-0.5214478,-0.35577393,158.0
19277,-4.3868628,3.7522144,1.7523861,0.8857178,-2.1548219,0.0637207,158.0
19278,-2.414544,2.7082167,1.141057,0.8857178,-2.1548219,0.0637207,158.0
19279,-2.414544,2.7082167,1.141057,1.0662597,-2.3842163,0.54587406,158.0
19280,1.167388,0.6324668,0.60077286,1.0662597,-2.3842163,0.54587406,158.0
19281,1.167388,0.6324668,0.60077286,1.5749635,-2.7559204,1.2329956,158.0
19282,1.6849971,-0.62318945,-0.28349304,1.5749635,-2.7559204,1.2329956,158.0
19283,1.6849971,-0.62318945,-0.28349304,2.34386,-2.8419435,1.1682129,158.0
19284,2.0941892,-6.9683027,-2.0400028,2.34386,-2.8419435,1.1682129,158.0
19285,2.0941892,-6.9683027,-2.0400028,3.2295778,-2.5966187,0.8326172,158.0
19286,2.6543064,-9.580807,-2.754292,3.2295778,-2.5966187,0.8326172,158.0
19287,2.6543064,-9.580807,-2.754292,3.3272827,-2.4914796,0.7678345,158.0
19288,7.735164,-24.000254,-4.237113,3.3272827,-2.4914796,0.7678345,158.0
19289,7.735164,-24.000254,-4.237113,3.8296144,-2.1134033,1.9307374,158.0
19290,9.274191,-23.176033,-4.0609307,3.8296144,-2.1134033,1.9307374,158.0
19291,9.274191,-23.176033,-4.0609307,3.4717164,-2.0709229,2.6815796,158.0
19292,12.832793,-15.771882,-2.6037374,3.4717164,-2.0709229,2.6815796,158.0
19293,12.832793,-15.771882,-2.6037374,2.1080933,-1.983838,4.167334,158.0
19294,10.761498,-9.0170555,-2.51131,2.1080933,-1.983838,4.167334,158.0
19295,10.761498,-9.0170555,-2.51131,2.2482789,-1.9530395,4.151404,158.0
19296,7.942951,-0.14011002,-3.6646633,2.2482789,-1.9530395,4.151404,158.0
19297,7.942951,-0.14011002,-3.6646633,3.1021364,-1.9615357,3.5726075,158.0
19298,5.1321316,5.515403,-5.2753587,3.1021364,-1.9615357,3.5726075,158.0
19299,5.1321316,5.515403,-5.2753587,3.9198854,-1.719397,2.7495484,158.0
19300,2.2166548,13.014227,-5.848583,3.9198854,-1.719397,2.7495484,158.0
19301,2.2166548,13.014227,-5.848583,2.3757203,-1.363623,2.0422485,158.0
19302,1.3868246,13.140179,-4.659482,2.3757203,-1.363623,2.0422485,158.0
19303,1.3868246,13.140179,-4.659482,1.3168945,-1.3190186,1.8394043,158.0
19304,1.3868246,13.140179,-4.659482,1.3168945,-1.3190186,1.8394043,161.0
19305,0.5440054,17.111826,-2.1445045,1.3168945,-1.3190186,1.8394043,161.0
19306,0.5440054,17.111826,-2.1445045,-1.7820557,-1.3381348,1.1618408,161.0
19307,0.48526478,14.842513,-1.405118,-1.7820557,-1.3381348,1.1618408,161.0
19308,0.48526478,14.842513,-1.405118,-2.4351928,-1.2935303,0.8750977,161.0
19309,0.6841221,12.729613,-1.5251689,-2.4351928,-1.2935303,0.8750977,161.0
19310,0.6841221,12.729613,-1.5251689,-3.2412598,-0.81031495,0.33665773,161.0
19311,0.57434845,10.293871,-1.8859553,-3.2412598,-0.81031495,0.33665773,161.0
19312,0.57434845,10.293871,-1.8859553,-3.617212,-0.22514649,-0.21346436,161.0
19313,-0.16243362,8.09164,-1.1470699,-3.617212,-0.22514649,-0.21346436,161.0
19314,-0.16243362,8.09164,-1.1470699,-3.1074464,0.37595215,-0.9802368,161.0
19315,-0.16243362,8.09164,-1.1470699,-2.3895264,0.92076415,-1.7501954,161.0
19316,-0.9386511,5.844907,0.6836014,-2.3895264,0.92076415,-1.7501954,161.0
19317,-0.7231865,1.5449562,4.0367002,-2.3895264,0.92076415,-1.7501954,161.0
19318,-0.7231865,1.5449562,4.0367002,-1.7098389,1.4645141,-2.4192626,161.0
19319,-0.7231865,1.5449562,4.0367002,-1.7045288,1.9753418,-2.7644165,161.0
19320,-0.7231865,1.5449562,4.0367002,-1.6004517,2.3035035,-2.8504395,161.0
19321,-0.18677711,-4.4094696,2.6142478,-1.6004517,2.3035035,-2.8504395,161.0
19322,-0.18677711,-4.4094696,2.6142478,-0.99085695,2.7346802,-2.9661987,161.0
19323,1.3343182,-22.975183,2.7220502,-0.99085695,2.7346802,-2.9661987,161.0
19324,1.3343182,-22.975183,2.7220502,0.9802368,3.1998413,-2.8249512,161.0
19325,2.1154652,-24.692122,3.2227695,0.9802368,3.1998413,-2.8249512,161.0
19326,2.1154652,-24.692122,3.2227695,1.6046997,2.969385,-2.5052857,161.0
19327,4.5035534,-25.937866,5.027068,1.6046997,2.969385,-2.5052857,161.0
19328,4.5035534,-25.937866,5.027068,2.2164185,2.3151855,-1.1629028,161.0
19329,4.0723495,-15.240967,6.3202753,2.2164185,2.3151855,-1.1629028,161.0
19330,4.0723495,-15.240967,6.3202753,1.4740723,1.3965454,-0.19753419,161.0
19331,0.117925644,-1.2325077,5.664216,1.4740723,1.3965454,-0.19753419,161.0
19332,0.117925644,-1.2325077,5.664216,1.0089111,1.2765381,-0.16673584,161.0
19333,-4.0285234,8.651225,3.352857,1.0089111,1.2765381,-0.16673584,161.0
19334,-4.0285234,8.651225,3.352857,3.1116943,1.6004517,-0.8007569,161.0
19335,-7.9622965,14.5703335,-0.7746234,3.1116943,1.6004517,-0.8007569,161.0
19336,-7.9622965,14.5703335,-0.7746234,-1.6832886,1.9094971,-2.2748291,161.0
19337,-11.050331,15.391716,-4.414401,-1.6832886,1.9094971,-2.2748291,161.0
19338,-11.050331,15.391716,-4.414401,-4.613379,2.8430054,-1.5261109,161.0
19339,-10.709686,11.895136,-2.64645,-4.613379,2.8430054,-1.5261109,161.0
19340,-10.709686,11.895136,-2.64645,-6.428357,2.7569826,-0.97492677,161.0
19341,-8.758289,7.266756,2.7205353,-6.428357,2.7569826,-0.97492677,161.0
19342,-8.758289,7.266756,2.7205353,-5.6276,1.8893188,-0.65419924,161.0
19343,-6.67825,2.7759416,7.041907,-5.6276,1.8893188,-0.65419924,161.0
19344,-6.67825,2.7759416,7.041907,-2.3003175,1.1267945,-0.14549561,161.0
19345,-5.305637,2.3210585,5.900408,-2.3003175,1.1267945,-0.14549561,161.0
19346,-5.305637,2.3210585,5.900408,-1.4698242,1.0875,0.13168946,161.0
19347,-4.3438873,4.0551867,3.69944,-1.4698242,1.0875,0.13168946,161.0
19348,-4.3438873,4.0551867,3.69944,-0.3727661,0.97492677,0.59260255,161.0
19349,-3.8660643,6.230172,1.8919983,-0.3727661,0.97492677,0.59260255,161.0
19350,-3.8660643,6.230172,1.8919983,0.44604492,0.6860596,1.0397094,161.0
19351,-3.696892,6.8424873,0.783154,0.44604492,0.6860596,1.0397094,161.0
19352,-3.696892,6.8424873,0.783154,0.901648,0.07752686,1.4018555,161.0
19353,-3.121869,5.7574368,-0.41839886,0.901648,0.07752686,1.4018555,161.0
19354,-3.121869,5.7574368,-0.41839886,1.4103516,-0.6000366,1.814978,161.0
19355,-1.9521341,3.9639206,-1.8102927,1.4103516,-0.6000366,1.814978,161.0
19356,-1.9521341,3.9639206,-1.8102927,1.3614991,-1.0513916,1.5611572,161.0
19357,0.36390305,1.9928651,-2.9865766,1.3614991,-1.0513916,1.5611572,161.0
19358,0.36390305,1.9928651,-2.9865766,1.0715698,-1.5292969,1.8309082,161.0
19359,2.1494231,-0.82689905,-3.7097692,1.0715698,-1.5292969,1.8309082,161.0
19360,2.1494231,-0.82689905,-3.7097692,0.7742066,-1.621692,1.7958618,161.0
19361,0.9636059,-6.9813433,-3.342962,0.7742066,-1.621692,1.7958618,161.0
19362,0.9636059,-6.9813433,-3.342962,1.1469727,-2.4851074,1.0715698,161.0
19363,0.36490345,-18.310673,-2.5592697,1.1469727,-2.4851074,1.0715698,161.0
19364,0.36490345,-18.310673,-2.5592697,3.2901123,-3.42605,0.4725952,161.0
19365,4.577689,-27.27299,-3.2243934,3.2901123,-3.42605,0.4725952,161.0
19366,4.577689,-27.27299,-3.2243934,4.6887817,-3.805188,1.6843506,161.0
19367,10.562408,-24.83757,-3.5000713,4.6887817,-3.805188,1.6843506,161.0
19368,10.562408,-24.83757,-3.5000713,3.2773683,-3.9528077,3.43136,161.0
19369,13.096996,-13.259449,-2.5697227,3.2773683,-3.9528077,3.43136,161.0
19370,13.096996,-13.259449,-2.5697227,0.71579593,-3.967676,4.0282106,161.0
19371,11.201901,-0.47833633,-2.4031048,0.71579593,-3.967676,4.0282106,161.0
19372,11.201901,-0.47833633,-2.4031048,-1.0004151,-3.5970337,3.4632204,161.0
19373,7.270078,7.8740454,-2.9089217,-1.0004151,-3.5970337,3.4632204,161.0
19374,7.270078,7.8740454,-2.9089217,-2.0199463,-3.2720582,2.6061769,161.0
19375,3.3523903,11.32376,-2.7713513,-2.0199463,-3.2720582,2.6061769,161.0
19376,3.3523903,11.32376,-2.7713513,-2.445813,-2.9502685,1.6036377,161.0
19377,0.9143095,12.014843,-1.277811,-2.445813,-2.9502685,1.6036377,161.0
19378,0.9143095,12.014843,-1.277811,-2.7028198,-2.704944,0.65632325,161.0
19379,0.24435043,12.010739,0.787236,-2.7028198,-2.704944,0.65632325,161.0
19380,0.24435043,12.010739,0.787236,-3.0076172,-2.3236816,-0.29205322,161.0
19381,0.6323576,12.05405,1.9930823,-3.0076172,-2.3236816,-0.29205322,161.0
19382,0.6323576,12.05405,1.9930823,-3.7414672,-1.2521118,-0.8750977,161.0
19383,1.3745022,11.13505,2.9930253,-3.7414672,-1.2521118,-0.8750977,161.0
19384,1.3745022,11.13505,2.9930253,-5.166687,0.90270996,-0.6265869,161.0
19385,1.4800949,7.5974684,4.065331,-5.166687,0.90270996,-0.6265869,161.0
19386,1.4800949,7.5974684,4.065331,-2.9375246,1.8829468,-0.97492677,161.0
19387,0.57886314,3.532833,3.2987003,-2.9375246,1.8829468,-0.97492677,161.0
19388,0.57886314,3.532833,3.2987003,0.49171144,2.173938,-1.453894,161.0
19389,0.57886314,3.532833,3.2987003,2.0273805,2.2291627,-1.9424194,161.0
19390,-0.7756672,2.7328339,0.78606725,2.0273805,2.2291627,-1.9424194,161.0
19391,-0.9356947,4.1487913,-3.945194,2.0273805,2.2291627,-1.9424194,161.0
19392,-0.9356947,4.1487913,-3.945194,1.2510499,2.3343017,-2.170752,161.0
19393,-0.9356947,4.1487913,-3.945194,-0.10301514,2.616797,-1.9594116,161.0
19394,-0.9356947,4.1487913,-3.945194,-0.24001466,3.609778,-1.6418701,161.0
19395,-1.3350182,-0.10342789,-3.775003,-0.24001466,3.609778,-1.6418701,161.0
19396,-1.3350182,-0.10342789,-3.775003,1.5038086,4.280969,-2.5084717,161.0
19397,-0.5970068,-9.273099,-2.1682081,1.5038086,4.280969,-2.5084717,161.0
19398,-0.5970068,-9.273099,-2.1682081,0.70305175,3.9613037,-2.5976808,161.0
19399,3.7133007,-22.778124,-0.8084067,0.70305175,3.9613037,-2.5976808,161.0
19400,3.7133007,-22.778124,-0.8084067,3.1233766,3.1998413,-3.5524292,161.0
19401,8.058825,-26.82256,0.96925366,3.1233766,3.1998413,-3.5524292,161.0
19402,8.058825,-26.82256,0.96925366,3.7690797,2.5392702,-1.3434448,161.0
19403,6.836916,-14.257597,4.2493534,3.7690797,2.5392702,-1.3434448,161.0
19404,6.836916,-14.257597,4.2493534,1.5547851,1.4358399,0.32497558,161.0
19405,0.5352802,3.0225363,6.5865917,1.5547851,1.4358399,0.32497558,161.0
19406,0.5352802,3.0225363,6.5865917,-0.20496826,1.3657471,0.44710693,161.0
19407,-5.8963366,12.529943,4.6562243,-0.20496826,1.3657471,0.44710693,161.0
19408,-5.8963366,12.529943,4.6562243,-2.625293,1.4963745,-0.4439209,161.0
19409,-10.541312,12.328618,-0.7807822,-2.625293,1.4963745,-0.4439209,161.0
19410,-10.541312,12.328618,-0.7807822,-4.337256,1.4273437,-0.7434082,161.0
19411,-12.733318,7.762138,-4.4198895,-4.337256,1.4273437,-0.7434082,161.0
19412,-12.733318,7.762138,-4.4198895,-3.4016235,1.1607789,-0.8952759,161.0
19413,-11.393027,4.6347957,-3.1605577,-3.4016235,1.1607789,-0.8952759,161.0
19414,-11.393027,4.6347957,-3.1605577,-2.4723632,1.0630738,-0.9547486,161.0
19415,-11.393027,4.6347957,-3.1605577,-2.4723632,1.0630738,-0.9547486,164.0
19416,-8.144183,4.250305,0.7607751,-2.4723632,1.0630738,-0.9547486,164.0
19417,-8.144183,4.250305,0.7607751,-2.1473877,0.84748536,-0.87191164,164.0
19418,-5.768557,5.0345945,3.8550313,-2.1473877,0.84748536,-0.87191164,164.0
19419,-5.768557,5.0345945,3.8550313,-1.7002808,0.38338622,-0.6818115,164.0
19420,-4.812441,5.6601586,4.9399943,-1.7002808,0.38338622,-0.6818115,164.0
19421,-4.812441,5.6601586,4.9399943,-1.1979493,0.060534667,-0.35046387,164.0
19422,-4.7122574,5.6713033,4.5090876,-1.1979493,0.060534667,-0.35046387,164.0
19423,-4.7122574,5.6713033,4.5090876,-0.6956177,-0.16673584,0.11469727,164.0
19424,-4.7122574,5.6713033,4.5090876,-0.10513916,-0.5501221,0.5501221,164.0
19425,-4.714447,5.0830264,3.3988962,-0.10513916,-0.5501221,0.5501221,164.0
19426,-1.2187257,2.3929105,0.4148569,-0.10513916,-0.5501221,0.5501221,164.0
19427,-1.2187257,2.3929105,0.4148569,0.39294434,-0.8591675,0.9526245,164.0
19428,-1.2187257,2.3929105,0.4148569,0.9781128,-1.4007934,1.4294678,164.0
19429,-1.2187257,2.3929105,0.4148569,1.2860962,-1.5749635,1.44115,164.0
19430,0.49885988,-0.36145306,-0.7060294,1.2860962,-1.5749635,1.44115,164.0
19431,0.49885988,-0.36145306,-0.7060294,2.1187134,-1.9392334,1.5877075,164.0
19432,1.2136142,-4.7104025,-1.6254683,2.1187134,-1.9392334,1.5877075,164.0
19433,1.2136142,-4.7104025,-1.6254683,2.618921,-1.9551636,1.3190186,164.0
19434,1.2653008,-12.10155,-1.2910972,2.618921,-1.9551636,1.3190186,164.0
19435,1.2653008,-12.10155,-1.2910972,2.913098,-2.4022706,0.85385746,164.0
19436,3.7935271,-21.184097,-1.0908613,2.913098,-2.4022706,0.85385746,164.0
19437,3.7935271,-21.184097,-1.0908613,3.7754517,-2.3449218,1.5038086,164.0
19438,9.455867,-24.611547,-1.5987635,3.7754517,-2.3449218,1.5038086,164.0
19439,9.455867,-24.611547,-1.5987635,3.178601,-1.8181641,3.2285156,164.0
19440,12.771114,-17.39069,-2.1034129,3.178601,-1.8181641,3.2285156,164.0
19441,12.771114,-17.39069,-2.1034129,1.1395386,-1.5208008,4.2437987,164.0
19442,11.471335,-4.681389,-3.3633945,1.1395386,-1.5208008,4.2437987,164.0
19443,11.471335,-4.681389,-3.3633945,-0.23151855,-1.5537232,4.1301637,164.0
19444,8.021318,5.511054,-5.1332083,-0.23151855,-1.5537232,4.1301637,164.0
19445,8.021318,5.511054,-5.1332083,-0.7943848,-1.8234742,3.4685304,164.0
19446,4.0836563,10.507489,-5.686242,-0.7943848,-1.8234742,3.4685304,164.0
19447,4.0836563,10.507489,-5.686242,-0.74447024,-2.1378295,2.447937,164.0
19448,1.1060123,11.828061,-4.5435247,-0.74447024,-2.1378295,2.447937,164.0
19449,1.1060123,11.828061,-4.5435247,-0.9218262,-2.4957275,1.4209718,164.0
19450,-0.16190624,11.768553,-2.7587824,-0.9218262,-2.4957275,1.4209718,164.0
19451,-0.16190624,11.768553,-2.7587824,-1.1512207,-2.7283082,0.5734863,164.0
19452,-0.0050258636,11.710583,-1.5461984,-1.1512207,-2.7283082,0.5734863,164.0
19453,-0.0050258636,11.710583,-1.5461984,-1.3296387,-2.7113159,-0.033984374,164.0
19454,0.41922188,11.58801,-1.1275959,-1.3296387,-2.7113159,-0.033984374,164.0
19455,0.41922188,11.58801,-1.1275959,-1.8829468,-2.4097047,-0.541626,164.0
19456,0.442873,10.855015,-0.58326554,-1.8829468,-2.4097047,-0.541626,164.0
19457,0.442873,10.855015,-0.58326554,-1.8765748,-2.0252564,-0.8952759,164.0
19458,0.27451324,9.598318,0.6665542,-1.8765748,-2.0252564,-0.8952759,164.0
19459,0.27451324,9.598318,0.6665542,-1.5558472,-1.3168945,-1.1852051,164.0
19460,-0.1109066,8.2731495,2.0157995,-1.5558472,-1.3168945,-1.1852051,164.0
19461,-0.1109066,8.2731495,2.0157995,-1.6408081,-0.22302246,-1.447522,164.0
19462,-0.42587185,6.6237326,2.8163872,-1.6408081,-0.22302246,-1.447522,164.0
19463,-0.42587185,6.6237326,2.8163872,-1.5197388,1.5271729,-1.6811646,164.0
19464,-0.54393196,4.324938,2.3797088,-1.5197388,1.5271729,-1.6811646,164.0
19465,-0.54393196,4.324938,2.3797088,-0.6818115,2.9269044,-1.8436524,164.0
19466,-1.0140152,1.7688494,0.28279543,-0.6818115,2.9269044,-1.8436524,164.0
19467,-1.0140152,1.7688494,0.28279543,-0.9143921,3.444104,-1.8946289,164.0
19468,-0.998456,-0.5429287,-2.1203334,-0.9143921,3.444104,-1.8946289,164.0
19469,-0.998456,-0.5429287,-2.1203334,-0.5214478,4.2905273,-2.170752,164.0
19470,0.15458012,-4.368925,-2.815615,-0.5214478,4.2905273,-2.170752,164.0
19471,0.15458012,-4.368925,-2.815615,-0.81987303,4.6611695,-2.3746583,164.0
19472,1.8665838,-13.104271,-2.9513688,-0.81987303,4.6611695,-2.3746583,164.0
19473,1.8665838,-13.104271,-2.9513688,-3.535437,4.5889525,-0.8092529,164.0
19474,3.091155,-24.538166,-3.2598014,-3.535437,4.5889525,-0.8092529,164.0
19475,3.091155,-24.538166,-3.2598014,-0.2782471,4.676038,-1.3328247,164.0
19476,3.421362,-27.807962,-0.10334873,-0.2782471,4.676038,-1.3328247,164.0
19477,3.421362,-27.807962,-0.10334873,-0.020178223,2.7760987,-0.3791382,164.0
19478,1.2967329,-18.199154,5.360424,-0.020178223,2.7760987,-0.3791382,164.0
19479,1.2967329,-18.199154,5.360424,-0.3706421,1.1278565,0.4364868,164.0
19480,-2.2321692,-5.137143,9.576986,-0.3706421,1.1278565,0.4364868,164.0
19481,-2.2321692,-5.137143,9.576986,3.170105,0.6754395,0.16779785,164.0
19482,-4.686639,5.64147,7.0469165,3.170105,0.6754395,0.16779785,164.0
19483,-4.686639,5.64147,7.0469165,-0.4078125,1.6949707,0.02442627,164.0
19484,-8.55168,11.01093,-0.44315517,-0.4078125,1.6949707,0.02442627,164.0
19485,-8.55168,11.01093,-0.44315517,-3.2986085,2.0433106,0.5787964,164.0
19486,-11.986767,10.073917,-3.2295241,-3.2986085,2.0433106,0.5787964,164.0
19487,-11.986767,10.073917,-3.2295241,-2.8886719,1.807544,0.7327881,164.0
19488,-10.855673,8.433707,-0.3433606,-2.8886719,1.807544,0.7327881,164.0
19489,-10.855673,8.433707,-0.3433606,-2.3704102,1.6694825,0.66588134,164.0
19490,-7.1536665,8.397589,3.4651186,-2.3704102,1.6694825,0.66588134,164.0
19491,-7.1536665,8.397589,3.4651186,-1.893567,1.3721192,0.65632325,164.0
19492,-4.0839076,8.790129,5.5438232,-1.893567,1.3721192,0.65632325,164.0
19493,-4.0839076,8.790129,5.5438232,-1.4730103,0.83049315,0.6042847,164.0
19494,-2.1469846,8.020409,5.848096,-1.4730103,0.83049315,0.6042847,164.0
19495,-2.1469846,8.020409,5.848096,-0.8379273,0.4630371,0.46409914,164.0
19496,-1.1070652,6.451337,5.220286,-0.8379273,0.4630371,0.46409914,164.0
19497,-1.1070652,6.451337,5.220286,0.3079834,0.32922363,0.4630371,164.0
19498,-1.1070652,6.451337,5.220286,1.1660889,0.04248047,0.4428589,164.0
19499,-0.87018585,5.1651716,3.9888878,1.1660889,0.04248047,0.4428589,164.0
19500,-0.64078987,3.8003016,-0.98507404,1.1660889,0.04248047,0.4428589,164.0
19501,-0.64078987,3.8003016,-0.98507404,1.1257324,-0.32709962,0.63720703,164.0
19502,-0.64078987,3.8003016,-0.98507404,0.7742066,-0.5734863,0.7338501,164.0
19503,-0.64078987,3.8003016,-0.98507404,0.79119873,-0.88996583,1.1055542,164.0
19504,-0.06293702,0.62949896,-1.8080788,0.79119873,-0.88996583,1.1055542,164.0
19505,-0.06293702,0.62949896,-1.8080788,1.1692749,-1.0237793,1.2308716,164.0
19506,-0.34927535,-4.124099,-2.382193,1.1692749,-1.0237793,1.2308716,164.0
19507,-0.34927535,-4.124099,-2.382193,1.5271729,-1.2850342,1.085376,164.0
19508,-1.7057877,-11.051085,-3.3328176,1.5271729,-1.2850342,1.085376,164.0
19509,-1.7057877,-11.051085,-3.3328176,2.1091554,-1.7979859,0.6531372,164.0
19510,-1.6661928,-19.003479,-5.2945867,2.1091554,-1.7979859,0.6531372,164.0
19511,-1.6661928,-19.003479,-5.2945867,2.7580445,-2.3396118,1.1406006,164.0
19512,1.8095386,-23.09115,-6.5393195,2.7580445,-2.3396118,1.1406006,164.0
19513,1.8095386,-23.09115,-6.5393195,1.6620483,-2.70813,2.427759,164.0
19514,6.5240717,-19.682808,-5.4483624,1.6620483,-2.70813,2.427759,164.0
19515,6.5240717,-19.682808,-5.4483624,1.3742431,-3.2338257,3.263562,164.0
19516,9.244135,-9.704157,-3.8123276,1.3742431,-3.2338257,3.263562,164.0
19517,9.244135,-9.704157,-3.8123276,1.2298096,-3.1308105,3.454724,164.0
19518,9.244135,-9.704157,-3.8123276,1.2298096,-3.1308105,3.454724,167.0
19519,9.56241,1.9273119,-3.0158656,1.2298096,-3.1308105,3.454724,167.0
19520,9.56241,1.9273119,-3.0158656,0.13487549,-2.803711,2.9789429,167.0
19521,7.908022,9.761967,-2.3522432,0.13487549,-2.803711,2.9789429,167.0
19522,7.908022,9.761967,-2.3522432,-0.6796875,-2.537146,2.0401247,167.0
19523,5.430519,12.819974,-1.263838,-0.6796875,-2.537146,2.0401247,167.0
19524,5.430519,12.819974,-1.263838,-1.0078491,-2.2960694,1.1182984,167.0
19525,3.722906,13.262352,0.3466444,-1.0078491,-2.2960694,1.1182984,167.0
19526,3.722906,13.262352,0.3466444,-1.6046997,-2.0995972,0.2888672,167.0
19527,3.0850754,12.996979,1.8658898,-1.6046997,-2.0995972,0.2888672,167.0
19528,3.0850754,12.996979,1.8658898,-1.8553345,-1.7533814,-0.37701416,167.0
19529,2.6998844,12.612927,2.5374873,-1.8553345,-1.7533814,-0.37701416,167.0
19530,2.6998844,12.612927,2.5374873,-2.1420777,-1.4379638,-1.1044922,167.0
19531,2.1622639,11.404551,2.5650606,-2.1420777,-1.4379638,-1.1044922,167.0
19532,2.1622639,11.404551,2.5650606,-1.7363892,-1.2552979,-1.9148072,167.0
19533,1.5041399,9.324337,2.03021,-1.7363892,-1.2552979,-1.9148072,167.0
19534,1.5041399,9.324337,2.03021,-0.75615233,-0.7805786,-2.727246,167.0
19535,0.57536983,7.7174406,1.134715,-0.75615233,-0.7805786,-2.727246,167.0
19536,0.57536983,7.7174406,1.134715,0.08602295,-0.22514649,-3.3910034,167.0
19537,0.57536983,7.7174406,1.134715,0.34940186,0.42055663,-3.8391724,167.0
19538,0.007048607,6.718874,0.33998638,0.34940186,0.42055663,-3.8391724,167.0
19539,0.22659874,3.2737932,-2.546578,0.34940186,0.42055663,-3.8391724,167.0
19540,0.22659874,3.2737932,-2.546578,0.08602295,1.1310425,-4.1758304,167.0
19541,0.22659874,3.2737932,-2.546578,-1.4018555,2.2100465,-3.1913452,167.0
19542,0.3972454,0.013223648,-3.936884,-1.4018555,2.2100465,-3.1913452,167.0
19543,0.3972454,0.013223648,-3.936884,0.19434814,3.8614748,-3.5970337,167.0
19544,1.1045637,-7.648552,-3.5177321,0.19434814,3.8614748,-3.5970337,167.0
19545,1.1045637,-7.648552,-3.5177321,-1.7034668,4.2554812,-2.9184082,167.0
19546,1.6854334,-20.195148,-1.7224133,-1.7034668,4.2554812,-2.9184082,167.0
19547,1.6854334,-20.195148,-1.7224133,-1.0726318,3.6023438,-2.5934327,167.0
19548,2.4580631,-29.840214,0.6561637,-1.0726318,3.6023438,-2.5934327,167.0
19549,2.4580631,-29.840214,0.6561637,-0.26868898,3.1945312,-1.3370727,167.0
19550,3.0334797,-28.170156,3.285722,-0.26868898,3.1945312,-1.3370727,167.0
19551,3.0334797,-28.170156,3.285722,1.2223755,1.81073,0.17735596,167.0
19552,1.0023823,-14.055204,5.540675,1.2223755,1.81073,0.17735596,167.0
19553,1.0023823,-14.055204,5.540675,0.20390625,0.9834229,1.3997315,167.0
19554,-2.7341175,1.6110125,4.9822474,0.20390625,0.9834229,1.3997315,167.0
19555,-2.7341175,1.6110125,4.9822474,-0.96643066,1.1236085,1.5887696,167.0
19556,-6.2832174,10.15762,2.4278388,-0.96643066,1.1236085,1.5887696,167.0
19557,-6.2832174,10.15762,2.4278388,-1.4984986,1.5632813,1.2914063,167.0
19558,-8.538219,12.549485,0.37289846,-1.4984986,1.5632813,1.2914063,167.0
19559,-8.538219,12.549485,0.37289846,-1.7565674,1.7650635,0.8889038,167.0
19560,-9.279453,12.211134,0.064920306,-1.7565674,1.7650635,0.8889038,167.0
19561,-9.279453,12.211134,0.064920306,-1.7640015,1.5930176,0.41206056,167.0
19562,-8.442276,11.252012,1.1902053,-1.7640015,1.5930176,0.41206056,167.0
19563,-8.442276,11.252012,1.1902053,-1.7140869,1.1607789,-0.0021240234,167.0
19564,-6.7811527,10.433166,2.4550939,-1.7140869,1.1607789,-0.0021240234,167.0
19565,-6.7811527,10.433166,2.4550939,-2.0358765,0.6425171,-0.32816163,167.0
19566,-5.4075637,9.378479,3.3708622,-2.0358765,0.6425171,-0.32816163,167.0
19567,-5.4075637,9.378479,3.3708622,-2.2376587,0.14124756,-0.4725952,167.0
19568,-4.495863,7.6511106,4.256016,-2.2376587,0.14124756,-0.4725952,167.0
19569,-4.495863,7.6511106,4.256016,-1.8765748,-0.057348635,-0.45347902,167.0
19570,-4.097826,5.532583,4.8289948,-1.8765748,-0.057348635,-0.45347902,167.0
19571,-4.097826,5.532583,4.8289948,-1.0131592,0.23258057,-0.32603762,167.0
19572,-4.360939,3.9069748,4.4689207,-1.0131592,0.23258057,-0.32603762,167.0
19573,-4.360939,3.9069748,4.4689207,0.22302246,0.3440918,0.0180542,167.0
19574,-4.7236757,3.1841736,3.2125149,0.22302246,0.3440918,0.0180542,167.0
19575,-4.7236757,3.1841736,3.2125149,1.1395386,-0.093457036,0.42799073,167.0
19576,-4.326279,2.7107058,1.5486012,1.1395386,-0.093457036,0.42799073,167.0
19577,-4.326279,2.7107058,1.5486012,1.3052124,-0.544812,0.73703617,167.0
19578,-2.753553,1.5230079,0.08230114,1.3052124,-0.544812,0.73703617,167.0
19579,-2.753553,1.5230079,0.08230114,1.6939087,-1.1098022,1.0524536,167.0
19580,-0.48934126,-1.0263572,-1.1422887,1.6939087,-1.1098022,1.0524536,167.0
19581,-0.48934126,-1.0263572,-1.1422887,2.451123,-1.2786621,1.3232666,167.0
19582,1.4698672,-5.3239665,-2.6176882,2.451123,-1.2786621,1.3232666,167.0
19583,1.4698672,-5.3239665,-2.6176882,3.0692139,-1.1352905,1.3009644,167.0
19584,2.061575,-11.808599,-3.7293801,3.0692139,-1.1352905,1.3009644,167.0
19585,2.061575,-11.808599,-3.7293801,2.884424,-1.4687623,1.075818,167.0
19586,2.666423,-20.198027,-4.9533286,2.884424,-1.4687623,1.075818,167.0
19587,2.666423,-20.198027,-4.9533286,3.2826784,-1.630188,1.4570801,167.0
19588,6.0994716,-25.61195,-6.1349773,3.2826784,-1.630188,1.4570801,167.0
19589,6.0994716,-25.61195,-6.1349773,2.265271,-1.7278931,2.9577026,167.0
19590,10.016747,-22.10842,-5.444957,2.265271,-1.7278931,2.9577026,167.0
19591,10.016747,-22.10842,-5.444957,1.6015137,-2.360852,3.9453735,167.0
19592,11.007905,-10.871563,-4.258175,1.6015137,-2.360852,3.9453735,167.0
19593,11.007905,-10.871563,-4.258175,1.4868164,-2.348108,4.0579467,167.0
19594,9.339283,1.689579,-4.247885,1.4868164,-2.348108,4.0579467,167.0
19595,9.339283,1.689579,-4.247885,0.6701294,-2.35979,3.529065,167.0
19596,6.1999664,10.052543,-4.4448905,0.6701294,-2.35979,3.529065,167.0
19597,6.1999664,10.052543,-4.4448905,-0.26550293,-2.352356,2.5711305,167.0
19598,3.4270267,12.840631,-3.8678021,-0.26550293,-2.352356,2.5711305,167.0
19599,3.4270267,12.840631,-3.8678021,-0.9589966,-2.3810303,1.447522,167.0
19600,2.2046585,12.525886,-2.5859165,-0.9589966,-2.3810303,1.447522,167.0
19601,2.2046585,12.525886,-2.5859165,-1.448584,-2.3958986,0.4056885,167.0
19602,1.9876041,12.125225,-1.1952837,-1.448584,-2.3958986,0.4056885,167.0
19603,1.9876041,12.125225,-1.1952837,-1.7852417,-2.2365968,-0.42161867,167.0
19604,1.8701372,12.591306,-0.28673244,-1.7852417,-2.2365968,-0.42161867,167.0
19605,1.8701372,12.591306,-0.28673244,-2.6454713,-1.9254273,-1.0545777,167.0
19606,1.8279581,13.195212,-0.28705215,-2.6454713,-1.9254273,-1.0545777,167.0
19607,1.8279581,13.195212,-0.28705215,-3.609778,-1.5091187,-1.6514282,167.0
19608,1.6454477,12.957378,-0.2809968,-3.609778,-1.5091187,-1.6514282,167.0
19609,1.6454477,12.957378,-0.2809968,-4.696216,-1.0981201,-2.2227905,167.0
19610,0.9542732,11.719687,1.7838573,-4.696216,-1.0981201,-2.2227905,167.0
