,accx,accy,accz,gyrox,gyroy,gyroz,heart rate
18562,run,run,run,run,run,run,run
18563,-2.0559847,1.1477127,-7.660034,-0.2814331,0.03717041,-0.038232423,122.0
18564,-2.0559847,1.1477127,-7.660034,0.13912354,-0.004248047,-0.025488282,122.0
18565,-1.6446048,0.90457916,-6.1261215,0.13912354,-0.004248047,-0.025488282,122.0
18566,-1.3152933,0.71640015,-4.8995323,0.13912354,-0.004248047,-0.025488282,122.0
18567,-1.3152933,0.71640015,-4.8995323,0.083898924,-0.0063720704,-0.043542482,122.0
18568,0.34642267,-2.4093246,3.172329,0.083898924,-0.0063720704,-0.043542482,122.0
18569,0.34642267,-2.4093246,3.172329,0.09770508,-0.0063720704,-0.04248047,122.0
18570,0.30200386,-1.9516144,2.5330544,0.09770508,-0.0063720704,-0.04248047,122.0
18571,0.30200386,-1.9516144,2.5330544,0.057348635,0.026550293,-0.050976563,122.0
18572,0.30200386,-1.9516144,2.5330544,-0.0031860352,0.04248047,-0.09664307,122.0
18573,0.26988673,-1.6384506,2.2117958,-0.0031860352,0.04248047,-0.09664307,122.0
18574,0.19294798,-1.3017349,1.8913116,-0.0031860352,0.04248047,-0.09664307,122.0
18575,0.19294798,-1.3017349,1.8913116,-0.052038576,0.06584473,-0.1263794,122.0
18576,0.124390125,-0.9936218,1.4709816,-0.052038576,0.06584473,-0.1263794,122.0
18577,0.124390125,-0.9936218,1.4709816,-0.04991455,0.06478272,-0.118945315,122.0
18578,0.07585478,-0.7964325,1.0723038,-0.04991455,0.06478272,-0.118945315,122.0
18579,0.07585478,-0.7964325,1.0723038,-0.057348635,0.050976563,-0.081774905,122.0
18580,0.03921163,-0.6738205,0.8205147,-0.057348635,0.050976563,-0.081774905,122.0
18581,0.03921163,-0.6738205,0.8205147,-0.046728518,0.04460449,-0.08920898,122.0
18582,0.0397799,-0.5653763,0.71837616,-0.046728518,0.04460449,-0.08920898,122.0
18583,0.0397799,-0.5653763,0.71837616,0.027612304,0.025488282,-0.09239502,122.0
18584,0.054638863,-0.39965057,0.6438408,0.027612304,0.025488282,-0.09239502,122.0
18585,0.054638863,-0.39965057,0.6438408,0.045666505,0.028674318,-0.07965088,122.0
18586,0.059213996,-0.23871613,0.53510284,0.045666505,0.028674318,-0.07965088,122.0
18587,0.059213996,-0.23871613,0.53510284,0.053100586,0.03079834,-0.06690674,122.0
18588,0.06096983,-0.16039276,0.4270935,0.053100586,0.03079834,-0.06690674,122.0
18589,0.06096983,-0.16039276,0.4270935,0.010620117,0.06159668,-0.07434082,122.0
18590,0.06096983,-0.16039276,0.4270935,0.0031860352,0.08071289,-0.06690674,122.0
18591,0.06553614,-0.15592957,0.313488,0.0031860352,0.08071289,-0.06690674,122.0
18592,0.036620855,-0.16042328,0.20165634,0.0031860352,0.08071289,-0.06690674,122.0
18593,0.036620855,-0.16042328,0.20165634,0.0180542,0.05628662,-0.06265869,122.0
18594,-0.032434344,-0.088912964,0.1265564,0.0180542,0.05628662,-0.06265869,122.0
18595,-0.032434344,-0.088912964,0.1265564,0.010620117,0.014868164,-0.07965088,122.0
18596,-0.056623697,-0.008522034,0.10403824,0.010620117,0.014868164,-0.07965088,122.0
18597,-0.056623697,-0.008522034,0.10403824,-0.0021240234,-0.019116212,-0.078588866,122.0
18598,-0.030882359,-0.012054443,0.12747955,-0.0021240234,-0.019116212,-0.078588866,122.0
18599,-0.030882359,-0.012054443,0.12747955,0.029736329,-0.057348635,0.004248047,122.0
18600,-0.04355347,-0.042160034,0.15123749,0.029736329,-0.057348635,0.004248047,122.0
18601,-0.04355347,-0.042160034,0.15123749,0.0053100586,-0.078588866,0.0010620117,122.0
18602,-0.06528711,0.004760742,0.1346016,0.0053100586,-0.078588866,0.0010620117,122.0
18603,-0.06528711,0.004760742,0.1346016,-0.052038576,-0.0722168,-0.032922365,122.0
18604,-0.017647266,0.12436676,0.109046936,-0.052038576,-0.0722168,-0.032922365,122.0
18605,-0.017647266,0.12436676,0.109046936,-0.121069334,-0.04460449,-0.0722168,122.0
18606,0.10621905,0.15998077,0.12860489,-0.121069334,-0.04460449,-0.0722168,122.0
18607,0.10621905,0.15998077,0.12860489,-0.14018555,-0.020178223,-0.07327881,122.0
18608,0.20918179,0.077812195,0.18187714,-0.14018555,-0.020178223,-0.07327881,122.0
18609,0.20918179,0.077812195,0.18187714,-0.20178223,-0.007434082,-0.1263794,122.0
18610,0.15087819,-0.09580994,0.18037796,-0.20178223,-0.007434082,-0.1263794,122.0
18611,0.15087819,-0.09580994,0.18037796,0.004248047,-0.06265869,-0.0998291,122.0
18612,0.03808534,-0.14365387,0.1304245,0.004248047,-0.06265869,-0.0998291,122.0
18613,0.03808534,-0.14365387,0.1304245,0.12956543,0.0180542,-0.14549561,122.0
18614,0.08090782,0.09087372,0.08568573,0.12956543,0.0180542,-0.14549561,122.0
18615,0.08090782,0.09087372,0.08568573,0.0010620117,0.007434082,-0.08814698,122.0
18616,0.08090782,0.09087372,0.08568573,-0.08602295,0.09451904,-0.13275146,122.0
18617,0.17313695,0.40963745,0.012226105,-0.08602295,0.09451904,-0.13275146,122.0
18618,0.1023767,0.54024506,-0.10292816,-0.08602295,0.09451904,-0.13275146,122.0
18619,0.1023767,0.54024506,-0.10292816,0.009558106,0.012744141,-0.0998291,122.0
18620,-0.18672657,0.52033234,-0.101825714,0.009558106,0.012744141,-0.0998291,122.0
18621,-0.18672657,0.52033234,-0.101825714,-0.15186767,0.09451904,-0.004248047,122.0
18622,-0.5806923,0.32026672,0.05908966,-0.15186767,0.09451904,-0.004248047,122.0
18623,-0.5806923,0.32026672,0.05908966,-0.05522461,0.035046387,0.060534667,122.0
18624,-0.7229767,0.018089294,0.18006134,-0.05522461,0.035046387,0.060534667,122.0
18625,-0.7229767,0.018089294,0.18006134,0.059472658,0.013806152,-0.08602295,122.0
18626,-0.46278083,-0.31967163,0.20240021,0.059472658,0.013806152,-0.08602295,122.0
18627,-0.46278083,-0.31967163,0.20240021,0.24851075,-0.016992187,-0.18372802,122.0
18628,-0.21875978,-0.5891342,0.20752716,0.24851075,-0.016992187,-0.18372802,122.0
18629,-0.21875978,-0.5891342,0.20752716,0.14230958,0.027612304,-0.046728518,122.0
18630,-0.39085257,-0.43236542,-0.005302429,0.14230958,0.027612304,-0.046728518,122.0
18631,-0.39085257,-0.43236542,-0.005302429,-0.023364259,0.12319336,-0.0031860352,122.0
18632,-0.7808095,0.123176575,-0.56264114,-0.023364259,0.12319336,-0.0031860352,122.0
18633,-0.7808095,0.123176575,-0.56264114,-0.23258057,0.13912354,-0.015930176,122.0
18634,-0.7808095,0.123176575,-0.56264114,-0.37595215,0.047790527,-0.0180542,122.0
18635,-1.1147844,0.59174347,-1.1365776,-0.37595215,0.047790527,-0.0180542,122.0
18636,-1.4463563,0.2137909,-1.4183083,-0.37595215,0.047790527,-0.0180542,122.0
18637,-1.4463563,0.2137909,-1.4183083,-0.15717773,-0.2262085,0.08920898,122.0
18638,-1.8233325,-0.85292816,-1.3141899,-0.15717773,-0.2262085,0.08920898,122.0
18639,-1.8233325,-0.85292816,-1.3141899,0.40037844,-0.65419924,0.20603028,122.0
18640,-1.9655265,-1.2036438,-0.93247986,0.40037844,-0.65419924,0.20603028,122.0
18641,-1.9655265,-1.2036438,-0.93247986,0.56817627,-0.8496094,0.24107666,122.0
18642,-1.7195892,-0.20413971,-0.60692215,0.56817627,-0.8496094,0.24107666,122.0
18643,-1.7195892,-0.20413971,-0.60692215,0.013806152,-0.80394286,0.41312256,122.0
18644,-1.4037231,1.0618973,-0.65094376,0.013806152,-0.80394286,0.41312256,122.0
18645,-1.4037231,1.0618973,-0.65094376,-0.6573853,-0.68924564,0.49277344,122.0
18646,-1.2218677,1.1307144,-0.96424866,-0.6573853,-0.68924564,0.49277344,122.0
18647,-1.2218677,1.1307144,-0.96424866,-0.6988037,-0.7678345,0.43754885,122.0
18648,-1.0830972,-0.094429016,-1.1058731,-0.6988037,-0.7678345,0.43754885,122.0
18649,-1.0830972,-0.094429016,-1.1058731,-0.36639404,-0.92713624,0.36002198,122.0
18650,-1.0141218,-1.5209427,-0.94402695,-0.36639404,-0.92713624,0.36002198,122.0
18651,-1.0141218,-1.5209427,-0.94402695,-0.19753419,-1.075818,0.4067505,122.0
18652,-0.87156343,-2.3722,-0.6454811,-0.19753419,-1.075818,0.4067505,122.0
18653,-0.87156343,-2.3722,-0.6454811,-0.2357666,-1.0386475,0.3419678,122.0
18654,-0.37852526,-2.3945007,-0.37245178,-0.2357666,-1.0386475,0.3419678,122.0
18655,-0.37852526,-2.3945007,-0.37245178,-0.631897,-0.92926025,0.36320803,122.0
18656,-0.3806157,-1.5328598,-0.6690903,-0.631897,-0.92926025,0.36320803,122.0
18657,-0.3806157,-1.5328598,-0.6690903,-1.3933594,-0.97386473,0.7168579,122.0
18658,-2.0733523,-0.35494995,-1.9155693,-1.3933594,-0.97386473,0.7168579,122.0
18659,-2.0733523,-0.35494995,-1.9155693,-1.8808228,-1.2085694,1.1363525,122.0
18660,-4.998172,0.36954498,-2.7014732,-1.8808228,-1.2085694,1.1363525,122.0
18661,-4.998172,0.36954498,-2.7014732,-1.6153198,-1.6609863,1.5229248,122.0
18662,-7.2997217,-0.17658234,-1.6373253,-1.6153198,-1.6609863,1.5229248,122.0
18663,-7.2997217,-0.17658234,-1.6373253,-1.1469727,-1.6015137,1.4315919,122.0
18664,-7.6096144,-5.436455,0.3966713,-1.1469727,-1.6015137,1.4315919,122.0
18665,-7.6096144,-5.436455,0.3966713,-0.0722168,-1.1342286,2.5159059,122.0
18666,-5.1914024,-16.419304,2.2517967,-0.0722168,-1.1342286,2.5159059,122.0
18667,-5.1914024,-16.419304,2.2517967,3.07771,-0.6711914,4.725952,122.0
18668,0.6422634,-24.185234,3.9999237,3.07771,-0.6711914,4.725952,122.0
18669,0.6422634,-24.185234,3.9999237,4.8427734,0.078588866,7.159021,122.0
18670,8.3617115,-21.21302,5.9894676,4.8427734,0.078588866,7.159021,122.0
18671,8.3617115,-21.21302,5.9894676,3.9687378,1.3200806,8.234839,122.0
18672,13.424635,-11.423042,6.739937,3.9687378,1.3200806,8.234839,122.0
18673,13.424635,-11.423042,6.739937,1.3657471,2.0581787,9.125867,122.0
18674,13.110277,-1.4605789,4.2737503,1.3657471,2.0581787,9.125867,122.0
18675,13.110277,-1.4605789,4.2737503,-1.2574219,2.6019287,9.473145,122.0
18676,9.078468,6.546417,-0.41178513,-1.2574219,2.6019287,9.473145,122.0
18677,9.078468,6.546417,-0.41178513,-2.6677735,2.2047365,8.633094,122.0
18678,4.174591,12.669357,-4.2318573,-2.6677735,2.2047365,8.633094,122.0
18679,4.174591,12.669357,-4.2318573,-4.437085,1.4634522,7.0060916,122.0
18680,0.08101797,15.050621,-5.28883,-4.437085,1.4634522,7.0060916,122.0
18681,0.08101797,15.050621,-5.28883,-6.67793,1.7045288,5.306873,122.0
18682,-2.184563,12.0707855,-5.4408913,-6.67793,1.7045288,5.306873,122.0
18683,-2.184563,12.0707855,-5.4408913,-6.890332,1.1490967,3.711731,122.0
18684,-2.0640323,8.489822,-7.502823,-6.890332,1.1490967,3.711731,122.0
18685,-2.0640323,8.489822,-7.502823,-3.8391724,-1.3657471,0.99722904,122.0
18686,0.3609445,13.362671,-10.171009,-3.8391724,-1.3657471,0.99722904,122.0
18687,0.3609445,13.362671,-10.171009,-0.51826173,-3.3071046,-3.989978,122.0
18688,8.028697,20.197937,-9.072308,-0.51826173,-3.3071046,-3.989978,122.0
18689,8.028697,20.197937,-9.072308,-2.6773317,-2.9162843,-6.3306518,122.0
18690,18.477058,17.977928,-3.432541,-2.6773317,-2.9162843,-6.3306518,122.0
18691,18.477058,17.977928,-3.432541,-3.792444,-2.1558838,-9.77688,122.0
18692,20.098114,10.504082,2.148365,-3.792444,-2.1558838,-9.77688,122.0
18693,20.098114,10.504082,2.148365,-4.86189,-1.0535157,-12.795117,122.0
18694,13.155043,1.1994934,3.9141388,-4.86189,-1.0535157,-12.795117,122.0
18695,13.155043,1.1994934,3.9141388,-4.634619,-0.1731079,-13.866687,122.0
18696,7.8981075,-9.834915,2.3874855,-4.634619,-0.1731079,-13.866687,122.0
18697,7.8981075,-9.834915,2.3874855,-1.9795898,-0.99935305,-15.391736,122.0
18698,10.335943,-25.008118,3.1324387,-1.9795898,-0.99935305,-15.391736,122.0
18699,10.335943,-25.008118,3.1324387,13.903857,-4.358496,-14.808692,122.0
18700,12.212139,-29.20945,8.780109,13.903857,-4.358496,-14.808692,122.0
18701,12.212139,-29.20945,8.780109,9.289416,-14.718421,-4.8926883,122.0
18702,11.649813,-23.850601,13.02853,9.289416,-14.718421,-4.8926883,122.0
18703,11.649813,-23.850601,13.02853,1.5940796,-12.140918,1.1883911,122.0
18704,4.964136,-15.120605,13.488632,1.5940796,-12.140918,1.1883911,122.0
18705,4.964136,-15.120605,13.488632,-0.53737795,-13.6776495,4.0080323,122.0
18706,-8.633795,5.490494,11.142189,-0.53737795,-13.6776495,4.0080323,122.0
18707,-8.633795,5.490494,11.142189,-4.5666504,-10.51604,-0.059472658,122.0
18708,-20.906353,20.565422,9.078926,-4.5666504,-10.51604,-0.059472658,122.0
18709,-20.906353,20.565422,9.078926,-14.035547,-6.1235595,-1.3158325,122.0
18710,-35.458923,10.301628,8.737907,-14.035547,-6.1235595,-1.3158325,122.0
18711,-35.458923,10.301628,8.737907,-18.405725,-2.1431396,-4.6463013,122.0
18712,-47.784863,-17.230873,5.180485,-18.405725,-2.1431396,-4.6463013,122.0
18713,-47.784863,-17.230873,5.180485,-2.1941164,-0.90058595,-1.8489624,122.0
18714,-35.96368,-29.424934,2.1997566,-2.1941164,-0.90058595,-1.8489624,122.0
18715,-35.96368,-29.424934,2.1997566,12.962915,0.14549561,-0.57454836,122.0
18716,-6.6531963,-14.324051,4.5909195,12.962915,0.14549561,-0.57454836,122.0
18717,-6.6531963,-14.324051,4.5909195,14.941443,5.3950195,0.8708496,122.0
18718,11.354934,10.060707,4.260689,14.941443,5.3950195,0.8708496,122.0
18719,11.354934,10.060707,4.260689,14.451856,6.0545287,-2.631665,122.0
18720,21.074549,25.514816,-0.32535934,14.451856,6.0545287,-2.631665,122.0
18721,21.074549,25.514816,-0.32535934,0.5278198,5.147571,-4.2331786,122.0
18722,29.918026,15.8129425,0.09799957,0.5278198,5.147571,-4.2331786,122.0
18723,29.918026,15.8129425,0.09799957,-11.237146,19.625977,3.3219726,122.0
18724,30.658066,-9.158386,11.913055,-11.237146,19.625977,3.3219726,122.0
18725,30.658066,-9.158386,11.913055,-3.087268,13.38241,5.7603517,122.0
18726,28.343592,-17.25145,12.310379,-3.087268,13.38241,5.7603517,122.0
18727,28.343592,-17.25145,12.310379,-0.12213135,12.670862,7.5370975,122.0
18728,24.115875,-8.076134,-6.3935432,-0.12213135,12.670862,7.5370975,122.0
18729,24.115875,-8.076134,-6.3935432,0.21240234,12.593335,10.455505,122.0
18730,17.479017,-1.9767227,-14.7799225,0.21240234,12.593335,10.455505,122.0
18731,17.479017,-1.9767227,-14.7799225,0.6425171,11.769214,11.493091,122.0
18732,-1.4928493,9.77919,-30.373451,0.6425171,11.769214,11.493091,122.0
18733,-1.4928493,9.77919,-30.373451,1.7947998,5.8166385,8.466357,122.0
18734,-4.695135,8.505539,-26.635105,1.7947998,5.8166385,8.466357,122.0
18735,-4.695135,8.505539,-26.635105,3.1212525,5.171997,6.6237674,122.0
18736,-5.9395924,5.690651,-26.791252,3.1212525,5.171997,6.6237674,122.0
18737,-5.9395924,5.690651,-26.791252,0.87615967,2.18562,4.622937,122.0
18738,-3.8323498,7.656929,-24.02525,0.87615967,2.18562,4.622937,122.0
18739,-3.8323498,7.656929,-24.02525,-2.977881,1.4050416,3.900769,122.0
18740,-2.2384758,25.343697,-28.350218,-2.977881,1.4050416,3.900769,122.0
18741,-2.2384758,25.343697,-28.350218,-6.075769,-3.3230348,-3.4281738,122.0
18742,-3.270687,24.382431,-24.801037,-6.075769,-3.3230348,-3.4281738,122.0
18743,-3.270687,24.382431,-24.801037,-4.0069704,-5.9483275,-5.6467166,122.0
18744,-1.9752426,20.968674,-11.054733,-4.0069704,-5.9483275,-5.6467166,122.0
18745,-1.9752426,20.968674,-11.054733,-4.4806275,-9.360572,-11.287061,122.0
18746,-0.13955688,16.317104,-1.8420658,-4.4806275,-9.360572,-11.287061,122.0
18747,-0.13955688,16.317104,-1.8420658,-5.0381837,-9.08551,-11.443176,122.0
18748,6.5448723,-9.001152,15.211321,-5.0381837,-9.08551,-11.443176,122.0
18749,6.5448723,-9.001152,15.211321,4.6463013,-9.941492,-11.609912,122.0
18750,6.632332,-20.628685,15.491579,4.6463013,-9.941492,-11.609912,122.0
18751,6.632332,-20.628685,15.491579,10.062561,-11.134131,-9.44447,122.0
18752,12.33753,-34.214607,19.17406,10.062561,-11.134131,-9.44447,122.0
18753,12.33753,-34.214607,19.17406,9.047278,-12.016663,1.5993897,122.0
18754,9.924126,-22.762703,19.158047,9.047278,-12.016663,1.5993897,122.0
18755,9.924126,-22.762703,19.158047,3.9103272,-8.886914,2.262085,122.0
18756,-3.1912537,11.517548,26.771713,3.9103272,-8.886914,2.262085,122.0
18757,-3.1912537,11.517548,26.771713,-6.7384644,0.57454836,1.4708862,122.0
18758,-10.448975,18.902191,23.893322,-6.7384644,0.57454836,1.4708862,122.0
18759,-10.448975,18.902191,23.893322,-9.983973,1.903125,0.13275146,122.0
18760,-32.495495,21.311462,13.435791,-9.983973,1.903125,0.13275146,122.0
18761,-32.495495,21.311462,13.435791,-17.878967,4.8756957,-0.32497558,122.0
18762,-32.392418,13.708031,5.1866837,-17.878967,4.8756957,-0.32497558,122.0
18763,-32.392418,13.708031,5.1866837,-19.099218,4.6547976,0.544812,122.0
18764,-39.217426,-5.4579163,-4.7110786,-19.099218,4.6547976,0.544812,122.0
18765,-39.217426,-5.4579163,-4.7110786,-13.185938,3.0617797,3.6926148,122.0
18766,-38.921158,-23.233826,-7.420986,-13.185938,3.0617797,3.6926148,122.0
18767,-38.921158,-23.233826,-7.420986,3.2125854,1.6726685,4.2926517,122.0
18768,-26.028833,-22.29586,-5.665695,3.2125854,1.6726685,4.2926517,122.0
18769,-26.028833,-22.29586,-5.665695,7.817468,1.9254273,5.2261596,122.0
18770,-9.185835,-7.4845886,-5.26062,7.817468,1.9254273,5.2261596,122.0
18771,-9.185835,-7.4845886,-5.26062,8.469543,3.7265992,5.0955324,122.0
18772,8.230299,-0.08054352,-8.529552,8.469543,3.7265992,5.0955324,122.0
18773,8.230299,-0.08054352,-8.529552,13.9665165,5.5596313,4.4848757,122.0
18774,11.004992,-5.16967,-7.025692,13.9665165,5.5596313,4.4848757,122.0
18775,11.004992,-5.16967,-7.025692,15.748572,4.700464,4.268225,122.0
18776,15.496828,-10.8112335,-0.12427521,15.748572,4.700464,4.268225,122.0
18777,15.496828,-10.8112335,-0.12427521,17.518946,2.275891,2.0114503,122.0
18778,20.874344,-1.6020508,13.828049,17.518946,2.275891,2.0114503,122.0
18779,20.874344,-1.6020508,13.828049,3.2529418,4.0229006,2.069861,122.0
18780,25.1786,6.6212463,20.780518,3.2529418,4.0229006,2.069861,122.0
18781,25.1786,6.6212463,20.780518,-8.004382,10.149646,2.6635253,122.0
18782,18.89277,2.8310928,9.188965,-8.004382,10.149646,2.6635253,122.0
18783,18.89277,2.8310928,9.188965,-7.574268,7.4574466,5.2017336,122.0
18784,6.8764725,-1.2703323,-7.9172974,-7.574268,7.4574466,5.2017336,122.0
18785,6.8764725,-1.2703323,-7.9172974,-6.4772096,4.5496583,6.2170167,122.0
18786,0.5392027,-1.3300476,-14.976723,-6.4772096,4.5496583,6.2170167,122.0
18787,0.5392027,-1.3300476,-14.976723,-0.64570314,3.270996,6.9264407,122.0
18788,-1.16998,1.7081604,-12.969109,-0.64570314,3.270996,6.9264407,122.0
18789,-1.16998,1.7081604,-12.969109,6.6747437,0.5384399,6.3826904,122.0
18790,-2.4177103,9.331284,-10.805023,6.6747437,0.5384399,6.3826904,122.0
18791,-2.4177103,9.331284,-10.805023,7.337439,-0.38869628,2.3141236,122.0
18792,-3.9104872,18.883865,-10.236767,7.337439,-0.38869628,2.3141236,122.0
18793,-3.9104872,18.883865,-10.236767,2.6741455,0.39294434,0.5957886,122.0
18794,-5.557785,20.570686,-8.005161,2.6741455,0.39294434,0.5957886,122.0
18795,-5.557785,20.570686,-8.005161,-0.0180542,0.3440918,0.53950197,122.0
18796,-5.557785,20.570686,-8.005161,-0.0180542,0.3440918,0.53950197,0.0
18797,-7.5439944,11.971367,-3.6337814,-0.0180542,0.3440918,0.53950197,0.0
18798,-7.5439944,11.971367,-3.6337814,0.24638672,-0.83474123,-0.6881836,0.0
18799,-9.062857,0.31692505,0.03873825,0.24638672,-0.83474123,-0.6881836,0.0
18800,-9.062857,0.31692505,0.03873825,-0.16673584,-0.52038574,-2.811145,0.0
18801,-7.9421554,-10.146927,1.840622,-0.16673584,-0.52038574,-2.811145,0.0
18802,-7.9421554,-10.146927,1.840622,-0.73597413,0.25913087,-4.003784,0.0
18803,-4.641322,-17.74556,4.191494,-0.73597413,0.25913087,-4.003784,0.0
18804,-4.641322,-17.74556,4.191494,0.010620117,-0.6403931,-1.8287842,0.0
18805,-2.8458579,-18.612572,7.153965,0.010620117,-0.6403931,-1.8287842,0.0
18806,-2.8458579,-18.612572,7.153965,1.3030884,-2.1463258,0.6287109,0.0
18807,-3.7379901,-9.329582,6.6003227,1.3030884,-2.1463258,0.6287109,0.0
18808,-3.7379901,-9.329582,6.6003227,-2.714502,-0.9834229,1.175647,0.0
18809,-6.0858145,3.5346756,1.8313332,-2.714502,-0.9834229,1.175647,0.0
18810,-6.0858145,3.5346756,1.8313332,-5.1847415,0.12000733,1.3073364,0.0
18811,-9.014465,9.259796,-3.0608978,-5.1847415,0.12000733,1.3073364,0.0
18812,-9.014465,9.259796,-3.0608978,-3.3134766,0.27399904,0.6616333,0.0
18813,-11.025134,6.749359,-4.311489,-3.3134766,0.27399904,0.6616333,0.0
18814,-11.025134,6.749359,-4.311489,-0.7317261,0.4991455,0.41843262,0.0
18815,-9.552359,1.7696075,-2.3794136,-0.7317261,0.4991455,0.41843262,0.0
18816,-9.552359,1.7696075,-2.3794136,0.362146,0.14337158,-0.23045655,0.0
18817,-5.0295696,-2.284317,0.28089142,0.362146,0.14337158,-0.23045655,0.0
18818,-5.0295696,-2.284317,0.28089142,0.13062744,-0.6074707,-0.10195313,0.0
18819,0.051221848,-6.866974,2.942463,0.13062744,-0.6074707,-0.10195313,0.0
18820,0.051221848,-6.866974,2.942463,0.6754395,-0.5214478,-0.012744141,0.0
18821,4.430382,-13.433563,4.6396523,0.6754395,-0.5214478,-0.012744141,0.0
18822,4.430382,-13.433563,4.6396523,1.1947632,0.2899292,0.5076416,0.0
18823,7.296198,-15.207863,3.2227936,1.1947632,0.2899292,0.5076416,0.0
18824,7.296198,-15.207863,3.2227936,2.2047365,-1.1501588,2.1049073,0.0
18825,9.161433,-6.1268845,0.068431854,2.2047365,-1.1501588,2.1049073,0.0
18826,9.161433,-6.1268845,0.068431854,0.10938721,-0.3812622,1.8287842,0.0
18827,10.016037,5.906494,-2.2373314,0.10938721,-0.3812622,1.8287842,0.0
18828,10.016037,5.906494,-2.2373314,-4.134412,1.4889405,0.2984253,0.0
18829,8.46991,11.377777,-3.3763504,-4.134412,1.4889405,0.2984253,0.0
18830,8.46991,11.377777,-3.3763504,-3.6565063,1.4326538,-0.016992187,0.0
18831,5.0914307,10.862854,-2.6211739,-3.6565063,1.4326538,-0.016992187,0.0
18832,5.0914307,10.862854,-2.6211739,-2.5615723,1.1151123,0.51826173,0.0
18833,0.41315913,8.1267395,-0.14947891,-2.5615723,1.1151123,0.51826173,0.0
18834,0.41315913,8.1267395,-0.14947891,-3.7467773,0.8623535,-0.32391357,0.0
18835,-5.1297755,4.43412,1.1284294,-3.7467773,0.8623535,-0.32391357,0.0
18836,-5.1297755,4.43412,1.1284294,-2.806897,1.2021973,-2.529712,0.0
18837,-8.113854,-0.15831757,1.2039871,-2.806897,1.2021973,-2.529712,0.0
18838,-8.113854,-0.15831757,1.2039871,-0.905896,1.183081,-3.8328004,0.0
18839,-6.877583,-2.008667,3.2272034,-0.905896,1.183081,-3.8328004,0.0
18840,-6.877583,-2.008667,3.2272034,0.52250975,-0.009558106,-3.1021364,0.0
18841,-5.271085,0.93357086,5.25198,0.52250975,-0.009558106,-3.1021364,0.0
18842,-5.271085,0.93357086,5.25198,-0.25913087,-0.7614624,-2.72937,0.0
18843,-7.01511,5.0419006,2.9742775,-0.25913087,-0.7614624,-2.72937,0.0
18844,-7.01511,5.0419006,2.9742775,-0.9228882,-0.62764895,-3.0288575,0.0
18845,-9.9806185,5.684555,-1.8576126,-0.9228882,-0.62764895,-3.0288575,0.0
18846,-9.9806185,5.684555,-1.8576126,0.35577393,-0.4725952,-2.8706176,0.0
18847,-10.463853,-2.2126312,-3.359478,0.35577393,-0.4725952,-2.8706176,0.0
18848,-10.463853,-2.2126312,-3.359478,3.059656,-0.9526245,-1.2011353,0.0
18849,-9.904396,-15.468262,-0.20487976,3.059656,-0.9526245,-1.2011353,0.0
18850,-9.904396,-15.468262,-0.20487976,3.2359498,-0.55755615,3.4802125,0.0
18851,-8.7281685,-21.822044,1.619873,3.2359498,-0.55755615,3.4802125,0.0
18852,-8.7281685,-21.822044,1.619873,2.4797974,1.1990112,6.436853,0.0
18853,-3.9490757,-16.867493,-1.8532219,2.4797974,1.1990112,6.436853,0.0
18854,-3.9490757,-16.867493,-1.8532219,1.5048707,1.9264892,7.9449096,0.0
18855,5.050541,-7.129608,-6.7170143,1.5048707,1.9264892,7.9449096,0.0
18856,5.050541,-7.129608,-6.7170143,1.0131592,1.7947998,7.5498414,0.0
18857,16.46133,1.5044556,-7.7594643,1.0131592,1.7947998,7.5498414,0.0
18858,16.46133,1.5044556,-7.7594643,1.5845215,0.8506714,1.9148072,0.0
18859,25.402256,8.416672,-3.5677757,1.5845215,0.8506714,1.9148072,0.0
18860,25.402256,8.416672,-3.5677757,-1.7884277,0.8729736,0.95793456,0.0
18861,24.15811,12.766281,2.1112442,-1.7884277,0.8729736,0.95793456,0.0
18862,24.15811,12.766281,2.1112442,-3.9336915,0.54375,2.5010376,0.0
18863,11.069187,12.872513,3.8015175,-3.9336915,0.54375,2.5010376,0.0
18864,11.069187,12.872513,3.8015175,-2.347046,-0.5883545,-0.31116945,0.0
18865,-3.1282191,13.221222,1.5127335,-2.347046,-0.5883545,-0.31116945,0.0
18866,-3.1282191,13.221222,1.5127335,-0.57242435,-1.2860962,-2.991687,0.0
18867,-7.536413,16.157082,0.2593689,-0.57242435,-1.2860962,-2.991687,0.0
18868,-7.536413,16.157082,0.2593689,0.3993164,-2.1611938,-4.70365,0.0
18869,-4.9047656,14.377388,1.2062607,0.3993164,-2.1611938,-4.70365,0.0
18870,-4.9047656,14.377388,1.2062607,-2.3396118,-1.5983276,-5.333423,0.0
18871,-5.332333,1.5763626,1.352169,-2.3396118,-1.5983276,-5.333423,0.0
18872,-5.332333,1.5763626,1.352169,-3.2816162,-0.811377,-4.279907,0.0
18873,-13.322325,-13.565872,-1.065506,-3.2816162,-0.811377,-4.279907,0.0
18874,-13.322325,-13.565872,-1.065506,-0.9366943,-1.1809571,-1.7852417,0.0
18875,-19.19475,-16.738258,-4.9133415,-0.9366943,-1.1809571,-1.7852417,0.0
18876,-19.19475,-16.738258,-4.9133415,0.24001466,-0.93138427,0.43967286,0.0
18877,-17.42505,-8.422752,-8.216682,0.24001466,-0.93138427,0.43967286,0.0
18878,-17.42505,-8.422752,-8.216682,-5.6530886,-0.93563235,4.2066283,0.0
18879,-12.670094,-4.0633087,-8.960247,-5.6530886,-0.93563235,4.2066283,0.0
18880,-12.670094,-4.0633087,-8.960247,-3.522693,-1.9413575,6.5111938,0.0
18881,-5.0824127,-4.798958,-7.1225433,-3.522693,-1.9413575,6.5111938,0.0
18882,-5.0824127,-4.798958,-7.1225433,1.2383057,-3.6416383,4.431775,0.0
18883,3.047741,-0.8125458,-4.448597,1.2383057,-3.6416383,4.431775,0.0
18884,3.047741,-0.8125458,-4.448597,0.08496094,-3.906079,1.4379638,0.0
18885,7.332321,1.4888077,-0.28481674,0.08496094,-3.906079,1.4379638,0.0
18886,7.332321,1.4888077,-0.28481674,-1.3614991,-3.4972045,1.4772583,0.0
18887,8.639648,-0.27503967,3.179472,-1.3614991,-3.4972045,1.4772583,0.0
18888,8.639648,-0.27503967,3.179472,-2.902478,-3.3166625,1.6801026,0.0
18889,8.513916,1.5468445,3.8115463,-2.902478,-3.3166625,1.6801026,0.0
18890,8.513916,1.5468445,3.8115463,-4.3510623,-2.7782228,0.77739257,0.0
18891,5.850012,6.1882935,4.549885,-4.3510623,-2.7782228,0.77739257,0.0
18892,5.850012,6.1882935,4.549885,-1.6832886,-3.0086792,0.37382814,0.0
18893,1.2662392,7.0759354,3.86376,-1.6832886,-3.0086792,0.37382814,0.0
18894,1.2662392,7.0759354,3.86376,1.721521,-2.7421143,-0.35683593,0.0
18895,1.2986116,5.171257,-6.1859455,1.721521,-2.7421143,-0.35683593,0.0
18896,1.2986116,5.171257,-6.1859455,10.243103,-4.557092,-9.3053465,0.0
18897,1.2986116,5.171257,-6.1859455,10.243103,-4.557092,-9.3053465,0.0
18898,3.0702372,3.897232,-8.173878,10.243103,-4.557092,-9.3053465,0.0
18899,3.0702372,3.897232,-8.173878,3.9103272,-2.2153566,1.0014771,0.0
18900,3.0702372,3.897232,-8.173878,9.922376,-0.008496094,2.5583863,0.0
18901,0.47880936,1.6506424,2.5653648,9.922376,-0.008496094,2.5583863,0.0
18902,1.3585968,7.9482346,14.638973,9.922376,-0.008496094,2.5583863,0.0
18903,1.3585968,7.9482346,14.638973,1.7693115,1.3434448,4.329822,0.0
18904,1.0868778,6.358589,11.711178,1.7693115,1.3434448,4.329822,0.0
18905,1.0868778,6.358589,11.711178,-2.1218994,1.6737305,-0.7880127,0.0
18906,1.0868778,6.358589,11.711178,-18.796545,8.6012335,-2.0103881,0.0
18907,4.6893997,7.607277,7.355709,-18.796545,8.6012335,-2.0103881,0.0
18908,-18.797724,-16.943375,-15.74202,-18.796545,8.6012335,-2.0103881,0.0
18909,-18.797724,-16.943375,-15.74202,-8.1265135,-2.8132691,-0.20072022,0.0
18910,-18.797724,-16.943375,-15.74202,10.193189,-2.8706176,-1.5091187,0.0
18911,-18.797724,-16.943375,-15.74202,2.4872315,-2.2100465,-1.3094605,0.0
18912,-13.417635,-8.498611,-4.937269,2.4872315,-2.2100465,-1.3094605,0.0
18913,1.8063459,10.982277,8.587795,2.4872315,-2.2100465,-1.3094605,0.0
18914,1.8063459,10.982277,8.587795,-0.45135498,-2.2004883,-2.7559204,0.0
18915,1.8063459,10.982277,8.587795,0.62764895,-4.032459,-2.1049073,0.0
18916,1.8063459,10.982277,8.587795,2.8833618,-5.0243773,-3.0458496,0.0
18917,1.445077,8.78582,6.8702354,2.8833618,-5.0243773,-3.0458496,0.0
18918,-16.335247,-6.310623,10.6525,2.8833618,-5.0243773,-3.0458496,0.0
18919,-16.335247,-6.310623,10.6525,2.7867188,-5.3079348,-3.3941896,0.0
18920,-16.335247,-6.310623,10.6525,-4.0420165,-3.6947389,-3.2837403,0.0
18921,-16.335247,-6.310623,10.6525,-2.1728761,-0.11257324,-3.1180665,0.0
18922,-13.56484,-37.651962,4.340004,-2.1728761,-0.11257324,-3.1180665,0.0
18923,-13.56484,-37.651962,4.340004,10.13053,-2.4797974,3.877405,0.0
18924,-8.048492,-50.614838,-0.111530304,10.13053,-2.4797974,3.877405,0.0
18925,-8.048492,-50.614838,-0.111530304,14.021741,-0.9483765,8.617164,0.0
18926,2.619091,-32.075134,1.5309525,14.021741,-0.9483765,8.617164,0.0
18927,2.619091,-32.075134,1.5309525,10.242042,2.0549927,10.998194,0.0
18928,14.37883,-4.2852936,6.275749,10.242042,2.0549927,10.998194,0.0
18929,14.37883,-4.2852936,6.275749,6.993347,3.4685304,9.4073,0.0
18930,18.30702,17.80539,7.3206863,6.993347,3.4685304,9.4073,0.0
18931,18.30702,17.80539,7.3206863,2.3969605,5.2474,9.055774,0.0
18932,13.354942,28.436134,-0.83813095,2.3969605,5.2474,9.055774,0.0
18933,13.354942,28.436134,-0.83813095,-3.0607178,3.26781,6.4665895,0.0
18934,6.6213436,28.97496,-16.110958,-3.0607178,3.26781,6.4665895,0.0
18935,6.6213436,28.97496,-16.110958,-9.694043,2.4553711,4.329822,0.0
18936,5.886956,21.498795,-26.055832,-9.694043,2.4553711,4.329822,0.0
18937,5.886956,21.498795,-26.055832,-8.813636,4.189636,3.6437624,0.0
18938,14.418916,10.116142,-17.400255,-8.813636,4.189636,3.6437624,0.0
18939,14.418916,10.116142,-17.400255,-2.532898,-0.011682129,2.7760987,0.0
18940,24.86836,7.661873,-2.9316425,-2.532898,-0.011682129,2.7760987,0.0
18941,24.86836,7.661873,-2.9316425,-0.7986328,3.6650026,-1.2149414,0.0
18942,20.19386,16.939667,0.6384258,-0.7986328,3.6650026,-1.2149414,0.0
18943,20.19386,16.939667,0.6384258,2.3364258,-0.8963379,-9.553858,0.0
18944,8.044296,24.824745,-2.524807,2.3364258,-0.8963379,-9.553858,0.0
18945,8.044296,24.824745,-2.524807,-3.7807617,-5.4863524,-13.041504,0.0
18946,10.667469,18.25904,-2.1976776,-3.7807617,-5.4863524,-13.041504,0.0
18947,10.667469,18.25904,-2.1976776,-12.471204,-4.140784,-17.276808,0.0
18948,23.499516,-5.348297,3.5068245,-12.471204,-4.140784,-17.276808,0.0
18949,23.499516,-5.348297,3.5068245,-9.844849,-3.714917,-19.924402,0.0
18950,33.669403,-33.124672,4.0609035,-9.844849,-3.714917,-19.924402,0.0
18951,33.669403,-33.124672,4.0609035,11.355029,-7.4733768,-19.816076,0.0
18952,34.611656,-39.716354,4.1436443,11.355029,-7.4733768,-19.816076,0.0
18953,34.611656,-39.716354,4.1436443,15.8133545,-9.7800665,-8.917712,0.0
18954,26.042473,-22.191864,19.373829,15.8133545,-9.7800665,-8.917712,0.0
18955,26.042473,-22.191864,19.373829,1.3816773,-14.647265,-3.6501343,0.0
18956,13.603874,-2.2934036,39.064163,1.3816773,-14.647265,-3.6501343,0.0
18957,13.603874,-2.2934036,39.064163,-3.9411256,-5.696631,-2.4936035,0.0
18958,-5.153183,6.7562256,41.96299,-3.9411256,-5.696631,-2.4936035,0.0
18959,-5.153183,6.7562256,41.96299,-10.345057,-1.0301514,-2.1272094,0.0
18960,-32.58484,1.7140045,28.079094,-10.345057,-1.0301514,-2.1272094,0.0
18961,-32.58484,1.7140045,28.079094,-14.439112,0.97280276,-4.442395,0.0
18962,-56.37803,-20.748322,12.488728,-14.439112,0.97280276,-4.442395,0.0
18963,-56.37803,-20.748322,12.488728,-8.011817,1.9519776,-4.775867,0.0
18964,-57.05776,-39.66243,7.031105,-8.011817,1.9519776,-4.775867,0.0
18965,-57.05776,-39.66243,7.031105,10.483118,1.8808228,0.91864014,0.0
18966,-36.758682,-28.74105,4.625702,10.483118,1.8808228,0.91864014,0.0
18967,-36.758682,-28.74105,4.625702,9.170471,3.6830566,2.156946,0.0
18968,-14.04087,-6.465332,2.7891693,9.170471,3.6830566,2.156946,0.0
18969,-14.04087,-6.465332,2.7891693,6.853162,7.2779665,2.8376954,0.0
18970,3.7493482,0.4569397,6.1711655,6.853162,7.2779665,2.8376954,0.0
18971,3.7493482,0.4569397,6.1711655,9.557044,8.977185,4.256543,0.0
18972,16.684341,-1.2534943,15.643265,9.557044,8.977185,4.256543,0.0
18973,16.684341,-1.2534943,15.643265,10.116724,9.611206,4.428589,0.0
18974,31.874891,5.056488,20.41072,10.116724,9.611206,4.428589,0.0
18975,31.874891,5.056488,20.41072,2.0634887,10.809155,1.6206299,0.0
18976,41.50316,15.64563,7.741745,2.0634887,10.809155,1.6206299,0.0
18977,41.50316,15.64563,7.741745,-6.226575,14.873474,6.051343,0.0
18978,35.0615,17.742409,-11.77533,-6.226575,14.873474,6.051343,0.0
18979,35.0615,17.742409,-11.77533,-7.7367554,14.328662,9.123743,0.0
18980,18.608282,12.331528,-23.431725,-7.7367554,14.328662,9.123743,0.0
18981,18.608282,12.331528,-23.431725,-5.662647,10.797473,11.436805,0.0
18982,3.149809,8.26339,-26.297958,-5.662647,10.797473,11.436805,0.0
18983,3.149809,8.26339,-26.297958,-2.4904175,6.413489,10.502234,0.0
18984,-3.4769173,12.626724,-28.370255,-2.4904175,6.413489,10.502234,0.0
18985,-3.4769173,12.626724,-28.370255,-1.4560181,3.0076172,8.611854,0.0
18986,-0.06511688,24.520973,-34.19346,-1.4560181,3.0076172,8.611854,0.0
18987,-0.06511688,24.520973,-34.19346,-6.351892,3.798816,6.5844727,0.0
18988,4.477997,32.888023,-37.848454,-6.351892,3.798816,6.5844727,0.0
18989,4.477997,32.888023,-37.848454,-7.148401,0.6860596,3.62677,0.0
18990,4.084059,32.446907,-34.001335,-7.148401,0.6860596,3.62677,0.0
18991,4.084059,32.446907,-34.001335,-3.2911744,-2.1027832,-3.090454,0.0
18992,-1.5627327,28.767708,-19.602484,-3.2911744,-2.1027832,-3.090454,0.0
18993,-1.5627327,28.767708,-19.602484,-1.4995606,-6.4687133,-10.282397,0.0
18994,-5.5793495,19.4357,0.20772171,-1.4995606,-6.4687133,-10.282397,0.0
18995,-5.5793495,19.4357,0.20772171,-3.9889162,-8.566187,-13.465247,0.0
18996,-1.3735008,-2.904564,13.620327,-3.9889162,-8.566187,-13.465247,0.0
18997,-1.3735008,-2.904564,13.620327,-4.9362307,-5.8474364,-15.759192,0.0
18998,4.586918,-30.757713,13.025925,-4.9362307,-5.8474364,-15.759192,0.0
18999,4.586918,-30.757713,13.025925,7.128223,-5.804956,-19.51659,0.0
19000,11.854774,-35.348175,8.145912,7.128223,-5.804956,-19.51659,0.0
19001,11.854774,-35.348175,8.145912,13.748804,-16.652344,-10.073181,0.0
19002,11.854774,-35.348175,8.145912,13.748804,-16.652344,-10.073181,0.0
19003,23.578133,-17.480919,15.292976,13.748804,-16.652344,-10.073181,0.0
19004,23.578133,-17.480919,15.292976,-4.51355,-9.705726,-3.2232056,0.0
19005,21.830109,-5.431587,33.561455,-4.51355,-9.705726,-3.2232056,0.0
19006,21.830109,-5.431587,33.561455,-6.0874515,-6.7820067,-2.0199463,0.0
19007,-2.453476,-5.31884,37.320404,-6.0874515,-6.7820067,-2.0199463,0.0
19008,-2.453476,-5.31884,37.320404,-11.096961,-0.96218264,-1.5855836,0.0
19009,-37.1611,-15.435616,23.010612,-11.096961,-0.96218264,-1.5855836,0.0
19010,-37.1611,-15.435616,23.010612,-14.872413,0.5055176,-2.3884645,0.0
19011,-64.06698,-28.867508,9.864517,-14.872413,0.5055176,-2.3884645,0.0
19012,-64.06698,-28.867508,9.864517,-6.2584352,0.016992187,-3.5789795,0.0
19013,-62.777023,-28.41571,4.4176254,-6.2584352,0.016992187,-3.5789795,0.0
19014,-62.777023,-28.41571,4.4176254,5.8516846,1.7385132,1.5569092,0.0
19015,-40.208168,-12.643738,1.9533768,5.8516846,1.7385132,1.5569092,0.0
19016,-40.208168,-12.643738,1.9533768,6.890332,3.7329712,2.4957275,0.0
19017,-17.831816,0.030540466,-1.5203171,6.890332,3.7329712,2.4957275,0.0
19018,-17.831816,0.030540466,-1.5203171,7.123975,6.1065674,2.8323853,0.0
19019,-0.64737415,-2.4934082,-1.8256149,7.123975,6.1065674,2.8323853,0.0
19020,-0.64737415,-2.4934082,-1.8256149,10.110352,6.973169,4.0866213,0.0
19021,12.046322,-7.1196594,7.4058533,10.110352,6.973169,4.0866213,0.0
19022,12.046322,-7.1196594,7.4058533,14.776832,6.7331543,3.348523,0.0
19023,25.103489,3.277542,22.167091,14.776832,6.7331543,3.348523,0.0
19024,25.103489,3.277542,22.167091,3.8742187,8.433435,0.9653687,0.0
19025,36.436234,16.589813,20.29924,3.8742187,8.433435,0.9653687,0.0
19026,36.436234,16.589813,20.29924,-8.246521,15.064636,6.152234,0.0
19027,36.00637,14.196754,-1.0559845,-8.246521,15.064636,6.152234,0.0
19028,36.00637,14.196754,-1.0559845,-6.9859133,11.209534,8.632031,0.0
19029,24.591877,5.702812,-21.093689,-6.9859133,11.209534,8.632031,0.0
19030,24.591877,5.702812,-21.093689,-5.774158,10.784729,10.030701,0.0
19031,10.954922,6.3356857,-27.988426,-5.774158,10.784729,10.030701,0.0
19032,10.954922,6.3356857,-27.988426,-6.34021,7.5732055,9.665369,0.0
19033,3.490244,16.48101,-27.930622,-6.34021,7.5732055,9.665369,0.0
19034,3.490244,16.48101,-27.930622,-5.9345217,3.3071046,8.235901,0.0
19035,5.382124,29.946426,-32.34534,-5.9345217,3.3071046,8.235901,0.0
19036,5.382124,29.946426,-32.34534,-4.431775,2.7442384,6.7713866,0.0
19037,4.94541,40.792397,-37.54513,-4.431775,2.7442384,6.7713866,0.0
19038,4.94541,40.792397,-37.54513,-1.1013062,0.74871826,0.9239502,0.0
19039,-2.682869,44.693195,-31.446579,-1.1013062,0.74871826,0.9239502,0.0
19040,-2.682869,44.693195,-31.446579,-0.42905274,-2.9194703,-6.256311,0.0
19041,-6.388958,36.54755,-14.933998,-0.42905274,-2.9194703,-6.256311,0.0
19042,-6.388958,36.54755,-14.933998,-2.079419,-5.6722045,-12.045337,0.0
19043,-1.5421238,17.482094,-1.5552921,-2.079419,-5.6722045,-12.045337,0.0
19044,-1.5421238,17.482094,-1.5552921,-5.3843994,-6.3030396,-15.663611,0.0
19045,9.684795,-7.6147385,2.6417885,-5.3843994,-6.3030396,-15.663611,0.0
19046,9.684795,-7.6147385,2.6417885,-2.3162477,-8.932581,-19.428442,0.0
19047,24.91108,-33.819916,1.3152008,-2.3162477,-8.932581,-19.428442,0.0
19048,24.91108,-33.819916,1.3152008,6.8489137,-7.331067,-18.184828,0.0
19049,31.778717,-41.223755,4.070215,6.8489137,-7.331067,-18.184828,0.0
19050,31.778717,-41.223755,4.070215,10.067871,-13.185938,-11.081031,0.0
19051,26.781384,-26.314812,14.9660225,10.067871,-13.185938,-11.081031,0.0
19052,26.781384,-26.314812,14.9660225,-1.898877,-8.422815,-4.804541,0.0
19053,12.43066,-13.522369,28.660904,-1.898877,-8.422815,-4.804541,0.0
19054,12.43066,-13.522369,28.660904,-5.0349975,-2.4829834,-2.272705,0.0
19055,-11.085819,-11.696594,33.143394,-5.0349975,-2.4829834,-2.272705,0.0
19056,-11.085819,-11.696594,33.143394,-9.095069,1.450708,-1.1459106,0.0
19057,-37.57248,-17.70829,24.931732,-9.095069,1.450708,-1.1459106,0.0
19058,-37.57248,-17.70829,24.931732,-11.963562,3.4717164,-3.0607178,0.0
19059,-60.791874,-27.856148,14.1690445,-11.963562,3.4717164,-3.0607178,0.0
19060,-60.791874,-27.856148,14.1690445,-6.3943725,1.811792,-0.41418457,0.0
19061,-63.232513,-31.209724,5.5768585,-6.3943725,1.811792,-0.41418457,0.0
19062,-63.232513,-31.209724,5.5768585,2.3045654,3.7680175,2.3980224,0.0
19063,-45.156822,-22.532257,-3.4047852,2.3045654,3.7680175,2.3980224,0.0
19064,-45.156822,-22.532257,-3.4047852,4.781177,4.816223,4.1237917,0.0
19065,-23.21894,-13.422203,-9.152004,4.781177,4.816223,4.1237917,0.0
19066,-23.21894,-13.422203,-9.152004,7.6719728,5.3493533,5.6711426,0.0
19067,-4.0771055,-7.719986,-3.7773438,7.6719728,5.3493533,5.6711426,0.0
19068,-4.0771055,-7.719986,-3.7773438,12.344825,5.861243,5.543701,0.0
19069,9.143126,-0.18076324,10.19286,12.344825,5.861243,5.543701,0.0
19070,9.143126,-0.18076324,10.19286,8.623535,8.681946,6.518628,0.0
19071,21.00089,5.8069687,22.128822,8.623535,8.681946,6.518628,0.0
19072,21.00089,5.8069687,22.128822,2.441565,7.7505617,6.044971,0.0
19073,33.28178,8.523003,18.153618,2.441565,7.7505617,6.044971,0.0
19074,33.28178,8.523003,18.153618,-3.7457154,10.738001,8.454676,0.0
19075,37.19726,9.804779,-0.7001419,-3.7457154,10.738001,8.454676,0.0
19076,37.19726,9.804779,-0.7001419,-5.088098,11.298743,9.075953,0.0
19077,26.714108,12.495377,-19.45765,-5.088098,11.298743,9.075953,0.0
19078,26.714108,12.495377,-19.45765,-7.308765,8.417505,10.499048,0.0
19079,10.859581,17.365509,-30.019806,-7.308765,8.417505,10.499048,0.0
19080,10.859581,17.365509,-30.019806,-6.8266115,3.5959718,10.551086,0.0
19081,4.2659492,27.5177,-32.625355,-6.8266115,3.5959718,10.551086,0.0
19082,4.2659492,27.5177,-32.625355,-9.091883,2.1155274,9.152417,0.0
19083,4.445877,37.15104,-31.10085,-9.091883,2.1155274,9.152417,0.0
19084,4.445877,37.15104,-31.10085,-3.619336,-2.156946,5.3674073,0.0
19085,2.0713387,44.347443,-28.319828,-3.619336,-2.156946,5.3674073,0.0
19086,2.0713387,44.347443,-28.319828,0.91864014,-2.52865,-2.9460206,0.0
19087,-3.518612,49.033047,-18.873466,0.91864014,-2.52865,-2.9460206,0.0
19088,-3.518612,49.033047,-18.873466,-2.9736328,-6.6481934,-8.676636,0.0
19089,-3.2955036,35.015633,-4.607563,-2.9736328,-6.6481934,-8.676636,0.0
19090,-3.2955036,35.015633,-4.607563,-6.684302,-7.710205,-13.465247,0.0
19091,5.642124,6.4625664,5.763485,-6.684302,-7.710205,-13.465247,0.0
19092,5.642124,6.4625664,5.763485,-7.587012,-5.2590823,-17.607092,0.0
19093,17.774101,-20.73959,7.2013283,-7.587012,-5.2590823,-17.607092,0.0
19094,17.774101,-20.73959,7.2013283,-0.06903076,-9.1481695,-21.883814,0.0
19095,31.052422,-36.40588,0.38216782,-0.06903076,-9.1481695,-21.883814,0.0
19096,31.052422,-36.40588,0.38216782,13.462061,-6.51438,-15.811231,0.0
19097,35.490425,-32.446884,0.20339203,13.462061,-6.51438,-15.811231,0.0
19098,35.490425,-32.446884,0.20339203,3.3676393,-9.774756,-7.880127,0.0
19099,24.034382,-17.617325,17.433868,3.3676393,-9.774756,-7.880127,0.0
19100,24.034382,-17.617325,17.433868,-1.4369019,-4.3574343,-2.340674,0.0
19101,-0.8430176,-4.1104355,33.260952,-1.4369019,-4.3574343,-2.340674,0.0
19102,-0.8430176,-4.1104355,33.260952,-10.535156,-1.360437,-1.9827759,0.0
19103,-30.671669,-9.11512,25.297592,-10.535156,-1.360437,-1.9827759,0.0
19104,-30.671669,-9.11512,25.297592,-15.840967,5.8187623,-0.49489745,0.0
19105,-58.87756,-39.836533,9.872452,-15.840967,5.8187623,-0.49489745,0.0
19106,-58.87756,-39.836533,9.872452,-8.021375,-0.72004396,-3.074524,0.0
19107,-69.309845,-52.97538,8.294117,-8.021375,-0.72004396,-3.074524,0.0
19108,-69.309845,-52.97538,8.294117,8.920898,0.6403931,2.3958986,0.0
19109,-54.133232,-28.033562,9.825317,8.920898,0.6403931,2.3958986,0.0
19110,-54.133232,-28.033562,9.825317,4.2087526,3.539685,2.9290283,0.0
19111,-30.784077,-4.691742,8.14872,4.2087526,3.539685,2.9290283,0.0
19112,-30.784077,-4.691742,8.14872,5.183679,5.7168093,4.2321167,0.0
19113,-8.371487,-1.3843765,6.8471527,5.183679,5.7168093,4.2321167,0.0
19114,-8.371487,-1.3843765,6.8471527,9.95105,5.607422,5.352539,0.0
19115,7.4415803,1.8181686,10.161266,9.95105,5.607422,5.352539,0.0
19116,7.4415803,1.8181686,10.161266,10.486304,8.232715,5.3164306,0.0
19117,19.329205,9.779831,18.435814,10.486304,8.232715,5.3164306,0.0
19118,19.329205,9.779831,18.435814,6.4442873,8.207227,3.899707,0.0
19119,33.91733,15.198204,20.261543,6.4442873,8.207227,3.899707,0.0
19120,33.91733,15.198204,20.261543,-3.987854,13.347363,4.0112185,0.0
19121,42.19196,14.604622,8.08564,-3.987854,13.347363,4.0112185,0.0
19122,42.19196,14.604622,8.08564,-7.0814943,14.005811,5.8283205,0.0
19123,34.14053,8.057068,-11.135895,-7.0814943,14.005811,5.8283205,0.0
19124,34.14053,8.057068,-11.135895,-7.8153443,11.954004,9.673865,0.0
19125,17.356808,7.078949,-26.111534,-7.8153443,11.954004,9.673865,0.0
19126,17.356808,7.078949,-26.111534,-8.223157,5.4693604,10.836768,0.0
19127,6.6511803,22.785324,-33.27186,-8.223157,5.4693604,10.836768,0.0
19128,6.6511803,22.785324,-33.27186,-14.446546,3.0893922,11.23927,0.0
19129,1.7325783,42.804276,-34.213604,-14.446546,3.0893922,11.23927,0.0
19130,1.7325783,42.804276,-34.213604,-9.214014,0.3069214,6.510132,0.0
19131,-1.3912315,49.530296,-35.439205,-9.214014,0.3069214,6.510132,0.0
19132,-1.3912315,49.530296,-35.439205,6.4655275,-2.8100832,2.996997,0.0
19133,-3.6938324,49.886166,-27.944786,6.4655275,-2.8100832,2.996997,0.0
19134,-3.6938324,49.886166,-27.944786,1.1512207,-7.416028,-10.411963,0.0
19135,-5.0956173,37.570213,-5.364544,1.1512207,-7.416028,-10.411963,0.0
19136,-5.0956173,37.570213,-5.364544,-5.584058,-7.445764,-12.151538,0.0
19137,-0.6884804,6.502182,8.819828,-5.584058,-7.445764,-12.151538,0.0
19138,-0.6884804,6.502182,8.819828,-4.1301637,-5.1220827,-14.842676,0.0
19139,8.643578,-24.605335,4.144264,-4.1301637,-5.1220827,-14.842676,0.0
19140,8.643578,-24.605335,4.144264,5.515027,-8.6192875,-21.366613,0.0
19141,21.50843,-37.67935,-3.8911438,5.515027,-8.6192875,-21.366613,0.0
19142,21.50843,-37.67935,-3.8911438,18.486439,-5.211292,-11.573804,0.0
19143,26.87796,-21.009003,4.958313,18.486439,-5.211292,-11.573804,0.0
19144,26.87796,-21.009003,4.958313,2.1176515,-12.929993,-7.801538,0.0
19145,19.35487,-1.7372208,21.25,2.1176515,-12.929993,-7.801538,0.0
19146,19.35487,-1.7372208,21.25,-11.190417,-5.337671,-5.9377074,0.0
19147,2.8809052,-11.554359,23.98484,-11.190417,-5.337671,-5.9377074,0.0
19148,2.8809052,-11.554359,23.98484,-10.514978,-1.7438233,-4.2087526,0.0
19149,-18.92334,-36.477936,16.470222,-10.514978,-1.7438233,-4.2087526,0.0
19150,-18.92334,-36.477936,16.470222,-8.241211,2.541394,-3.8328004,0.0
19151,-43.30613,-49.053383,12.241707,-8.241211,2.541394,-3.8328004,0.0
19152,-43.30613,-49.053383,12.241707,-6.323218,-1.2085694,-1.6121339,0.0
19153,-59.133747,-42.21897,12.066597,-6.323218,-1.2085694,-1.6121339,0.0
19154,-59.133747,-42.21897,12.066597,1.6822265,0.43011475,0.3971924,0.0
19155,-59.133747,-42.21897,12.066597,1.6822265,0.43011475,0.3971924,137.0
19156,-52.991547,-24.54515,9.833183,1.6822265,0.43011475,0.3971924,137.0
19157,-52.991547,-24.54515,9.833183,0.72216797,3.1934693,3.2232056,137.0
19158,-33.74437,-11.760864,4.374893,0.72216797,3.1934693,3.2232056,137.0
19159,-33.74437,-11.760864,4.374893,3.1138184,4.443457,4.964905,137.0
19160,-14.23058,-7.2394104,0.3870468,3.1138184,4.443457,4.964905,137.0
19161,-14.23058,-7.2394104,0.3870468,7.450012,4.1301637,6.244629,137.0
19162,0.0042562485,0.9856415,2.9411926,7.450012,4.1301637,6.244629,137.0
19163,0.0042562485,0.9856415,2.9411926,9.525184,6.2881713,6.3147216,137.0
19164,9.463318,10.962524,11.252708,9.525184,6.2881713,6.3147216,137.0
19165,9.463318,10.962524,11.252708,7.9003053,7.8100343,5.577686,137.0
19166,19.993261,15.633728,17.316216,7.9003053,7.8100343,5.577686,137.0
19167,19.993261,15.633728,17.316216,0.115759276,9.405176,4.061133,137.0
19168,29.899261,14.482994,11.297981,0.115759276,9.405176,4.061133,137.0
19169,29.899261,14.482994,11.297981,-6.0980716,13.247535,6.9901614,137.0
19170,32.43402,9.646896,-4.9951324,-6.0980716,13.247535,6.9901614,137.0
19171,32.43402,9.646896,-4.9951324,-7.0029054,10.408777,7.4723144,137.0
19172,23.854773,7.6390915,-23.445328,-7.0029054,10.408777,7.4723144,137.0
19173,23.854773,7.6390915,-23.445328,-9.736524,7.7473755,9.9967165,137.0
19174,8.619144,15.79306,-33.476196,-9.736524,7.7473755,9.9967165,137.0
19175,8.619144,15.79306,-33.476196,-13.162574,1.0588257,10.208056,137.0
19176,2.6576939,28.606323,-30.979942,-13.162574,1.0588257,10.208056,137.0
19177,2.6576939,28.606323,-30.979942,-6.6556277,0.19753419,10.137964,137.0
19178,2.4410858,35.105667,-25.080734,-6.6556277,0.19753419,10.137964,137.0
19179,2.4410858,35.105667,-25.080734,1.808606,-2.8801758,3.8646607,137.0
19180,-0.6263428,40.60585,-22.479946,1.808606,-2.8801758,3.8646607,137.0
19181,-0.6263428,40.60585,-22.479946,3.1594849,-5.3143067,-3.42605,137.0
19182,-3.5979004,43.65458,-15.739754,3.1594849,-5.3143067,-3.42605,137.0
19183,-3.5979004,43.65458,-15.739754,-5.440686,-7.709143,-9.890515,137.0
19184,-1.3512344,28.60329,-1.722393,-5.440686,-7.709143,-9.890515,137.0
19185,-1.3512344,28.60329,-1.722393,-8.677698,-5.7263675,-13.800842,137.0
19186,5.297249,1.1415787,8.080132,-8.677698,-5.7263675,-13.800842,137.0
19187,5.297249,1.1415787,8.080132,-7.154773,-1.5739014,-16.500477,137.0
19188,13.410469,-20.5498,5.224411,-7.154773,-1.5739014,-16.500477,137.0
19189,13.410469,-20.5498,5.224411,1.0471436,-4.72489,-22.660145,137.0
19190,26.820564,-35.8263,-4.734398,1.0471436,-4.72489,-22.660145,137.0
19191,26.820564,-35.8263,-4.734398,16.58119,-4.8417115,-14.332911,137.0
19192,30.86795,-36.554626,-4.2580757,16.58119,-4.8417115,-14.332911,137.0
19193,30.86795,-36.554626,-4.2580757,6.8159914,-8.295374,-7.4882445,137.0
19194,19.791798,-21.726585,12.231491,6.8159914,-8.295374,-7.4882445,137.0
19195,19.791798,-21.726585,12.231491,-0.5363159,-9.953174,-1.8606446,137.0
19196,2.6325722,-8.772293,26.204788,-0.5363159,-9.953174,-1.8606446,137.0
19197,2.6325722,-8.772293,26.204788,-5.810266,-2.6911378,0.4704712,137.0
19198,-18.442478,-7.3062744,28.418835,-5.810266,-2.6911378,0.4704712,137.0
19199,-18.442478,-7.3062744,28.418835,-9.657935,2.4936035,-0.90695804,137.0
19200,-46.3481,-18.868927,24.636642,-9.657935,2.4936035,-0.90695804,137.0
19201,-46.3481,-18.868927,24.636642,-10.681714,0.7880127,-0.95368654,137.0
19202,-65.98867,-31.422256,21.22002,-10.681714,0.7880127,-0.95368654,137.0
19203,-65.98867,-31.422256,21.22002,1.1108643,2.2111084,0.028674318,137.0
19204,-59.255585,-26.99678,15.713654,1.1108643,2.2111084,0.028674318,137.0
19205,-59.255585,-26.99678,15.713654,4.6324954,3.5588014,1.0535157,137.0
19206,-36.963245,-10.813171,6.304497,4.6324954,3.5588014,1.0535157,137.0
19207,-36.963245,-10.813171,6.304497,2.0326905,5.2155395,2.535022,137.0
19208,-14.432231,-3.4215317,-0.5494919,2.0326905,5.2155395,2.535022,137.0
19209,-14.432231,-3.4215317,-0.5494919,4.242737,5.2909427,3.979358,137.0
19210,1.3552046,-4.652382,-0.44892883,4.242737,5.2909427,3.979358,137.0
19211,1.3552046,-4.652382,-0.44892883,6.4570312,6.4485354,5.674329,137.0
19212,11.494002,-5.783951,5.4972305,6.4570312,6.4485354,5.674329,137.0
19213,11.494002,-5.783951,5.4972305,6.8351073,8.733985,6.859534,137.0
19214,21.74724,-1.8761292,12.421196,6.8351073,8.733985,6.859534,137.0
19215,21.74724,-1.8761292,12.421196,6.3858767,5.951514,5.8421264,137.0
19216,38.82504,6.59153,7.1542664,6.3858767,5.951514,5.8421264,137.0
19217,38.82504,6.59153,7.1542664,-5.4013915,11.015185,5.4916625,137.0
19218,42.3323,11.343414,-10.194885,-5.4013915,11.015185,5.4916625,137.0
19219,42.3323,11.343414,-10.194885,-7.7802978,13.344177,9.4189825,137.0
19220,42.3323,11.343414,-10.194885,-7.7802978,13.344177,9.4189825,137.0
19221,25.01535,10.626709,-24.601501,-7.7802978,13.344177,9.4189825,137.0
19222,25.01535,10.626709,-24.601501,-7.636926,8.380335,10.887744,137.0
19223,9.513317,17.247528,-32.64855,-7.636926,8.380335,10.887744,137.0
19224,9.513317,17.247528,-32.64855,-9.205518,4.8342776,10.570203,137.0
19225,3.780281,36.811607,-33.656986,-9.205518,4.8342776,10.570203,137.0
19226,3.780281,36.811607,-33.656986,-7.514795,1.0354614,6.9922853,137.0
19227,0.2653122,52.44764,-31.141712,-7.514795,1.0354614,6.9922853,137.0
19228,0.2653122,52.44764,-31.141712,5.227222,-3.3007324,3.8795288,137.0
19229,-4.627619,51.804783,-27.542458,5.227222,-3.3007324,3.8795288,137.0
19230,-4.627619,51.804783,-27.542458,4.0250244,-8.495032,-7.784546,137.0
19231,-4.981735,38.22206,-15.860308,4.0250244,-8.495032,-7.784546,137.0
19232,-4.981735,38.22206,-15.860308,-12.269422,-9.068519,-10.134778,137.0
19233,0.67160606,15.256786,-2.0240135,-12.269422,-9.068519,-10.134778,137.0
19234,0.67160606,15.256786,-2.0240135,-8.071289,-4.4073486,-17.65276,137.0
19235,12.758282,-6.647148,3.3488922,-8.071289,-4.4073486,-17.65276,137.0
19236,12.758282,-6.647148,3.3488922,1.449646,-9.263928,-21.15315,137.0
19237,32.18734,-28.879753,-1.6675911,1.449646,-9.263928,-21.15315,137.0
19238,32.18734,-28.879753,-1.6675911,9.865027,-5.9408937,-14.977551,137.0
19239,36.797016,-32.862907,-2.4036293,9.865027,-5.9408937,-14.977551,137.0
19240,36.797016,-32.862907,-2.4036293,10.689148,-4.1078615,-11.489905,137.0
19241,28.105019,-28.78569,13.66975,10.689148,-4.1078615,-11.489905,137.0
19242,28.105019,-28.78569,13.66975,-7.9395995,-5.369531,-2.698572,137.0
19243,12.844158,-21.56858,17.44093,-7.9395995,-5.369531,-2.698572,137.0
19244,12.844158,-21.56858,17.44093,-7.4935546,-2.6359131,-0.31966552,137.0
19245,-27.733559,-14.216133,24.074131,-7.4935546,-2.6359131,-0.31966552,137.0
19246,-27.733559,-14.216133,24.074131,-11.567431,-0.998291,-1.6885986,137.0
19247,-31.988567,-11.847305,15.410732,-11.567431,-0.998291,-1.6885986,137.0
19248,-31.988567,-11.847305,15.410732,-13.781726,2.156946,-1.2892822,137.0
19249,-60.62047,-35.84784,-0.06570053,-13.781726,2.156946,-1.2892822,137.0
19250,-60.62047,-35.84784,-0.06570053,-8.959131,-0.21346436,-1.5112427,137.0
19251,-60.38445,-38.802773,0.0064735413,-8.959131,-0.21346436,-1.5112427,137.0
19252,-60.38445,-38.802773,0.0064735413,2.799463,0.12319336,1.0609497,137.0
19253,-50.224884,-28.531197,2.2638435,2.799463,0.12319336,1.0609497,137.0
19254,-50.224884,-28.531197,2.2638435,5.188989,3.075586,3.9474976,137.0
19255,-34.388206,-16.134384,2.389576,5.188989,3.075586,3.9474976,137.0
19256,-34.388206,-16.134384,2.389576,6.6396976,2.7399902,4.956409,137.0
19257,-6.398054,0.25270844,7.172035,6.6396976,2.7399902,4.956409,137.0
19258,-6.398054,0.25270844,7.172035,11.54513,3.1902833,6.1023192,137.0
19259,0.7253313,4.491516,10.999832,11.54513,3.1902833,6.1023192,137.0
19260,0.7253313,4.491516,10.999832,11.01731,4.6622314,6.0194826,137.0
19261,15.996378,11.256447,26.605713,11.01731,4.6622314,6.0194826,137.0
19262,15.996378,11.256447,26.605713,5.80177,7.6411743,6.433667,137.0
19263,18.664242,9.391838,25.280602,5.80177,7.6411743,6.433667,137.0
19264,18.664242,9.391838,25.280602,3.42074,7.6379886,5.815576,137.0
19265,41.61367,4.0188904,14.403854,3.42074,7.6379886,5.815576,137.0
19266,41.61367,4.0188904,14.403854,-4.4466434,11.135193,5.985498,137.0
19267,39.39665,3.4817123,1.7829361,-4.4466434,11.135193,5.985498,137.0
19268,39.39665,3.4817123,1.7829361,-6.097009,12.626258,6.954053,137.0
19269,24.878635,6.0357513,-25.729172,-6.097009,12.626258,6.954053,137.0
19270,24.878635,6.0357513,-25.729172,-9.783252,6.531372,11.422998,137.0
19271,14.941566,10.023575,-26.7891,-9.783252,6.531372,11.422998,137.0
19272,14.941566,10.023575,-26.7891,-9.737586,2.5828125,12.3182745,137.0
19273,7.046711,28.744858,-29.582928,-9.737586,2.5828125,12.3182745,137.0
19274,7.046711,28.744858,-29.582928,-5.3557253,0.5171997,9.880958,137.0
19275,1.9858189,53.058678,-29.871944,-5.3557253,0.5171997,9.880958,137.0
19276,1.9858189,53.058678,-29.871944,-2.5190918,-3.0246093,7.0230837,137.0
19277,-4.649639,61.670113,-29.125889,-2.5190918,-3.0246093,7.0230837,137.0
19278,-4.649639,61.670113,-29.125889,-1.6716064,-5.058362,-2.3289917,137.0
19279,-6.1456623,52.79918,-18.86763,-1.6716064,-5.058362,-2.3289917,137.0
19280,-6.1456623,52.79918,-18.86763,-3.6724365,-4.609131,-10.277087,137.0
19281,1.9191151,17.897522,6.203785,-3.6724365,-4.609131,-10.277087,137.0
19282,1.9191151,17.897522,6.203785,-1.0567017,-4.1535277,-15.843091,137.0
19283,6.729616,0.24152756,9.806572,-1.0567017,-4.1535277,-15.843091,137.0
19284,6.729616,0.24152756,9.806572,-0.45560303,-4.8406496,-17.096266,137.0
19285,20.402016,-26.003056,9.829071,-0.45560303,-4.8406496,-17.096266,137.0
19286,20.402016,-26.003056,9.829071,1.1873292,-8.987805,-15.907874,137.0
19287,29.72828,-35.450836,7.906456,1.1873292,-8.987805,-15.907874,137.0
19288,29.72828,-35.450836,7.906456,0.24001466,-5.9377074,-11.4102545,137.0
19289,27.746807,-28.986084,7.153412,0.24001466,-5.9377074,-11.4102545,137.0
19290,27.746807,-28.986084,7.153412,-5.245276,-2.5743165,-7.2121215,137.0
19291,11.112949,-27.234238,3.426014,-5.245276,-2.5743165,-7.2121215,137.0
19292,11.112949,-27.234238,3.426014,-10.546839,0.8878418,-3.255066,137.0
19293,-16.303719,-32.848892,0.61042786,-10.546839,0.8878418,-3.255066,137.0
19294,-16.303719,-32.848892,0.61042786,-10.893054,6.1182494,-2.2376587,137.0
19295,-42.38231,-33.941185,-1.8911972,-10.893054,6.1182494,-2.2376587,137.0
19296,-42.38231,-33.941185,-1.8911972,-11.685315,2.799463,-3.2476318,137.0
19297,-61.13468,-27.879997,-5.778866,-11.685315,2.799463,-3.2476318,137.0
19298,-61.13468,-27.879997,-5.778866,-5.42688,0.27506104,-0.09133301,137.0
19299,-62.44566,-19.140144,-7.4315033,-5.42688,0.27506104,-0.09133301,137.0
19300,-62.44566,-19.140144,-7.4315033,-0.10620117,0.5076416,2.5859985,137.0
19301,-47.1578,-11.121384,-5.9537735,-0.10620117,0.5076416,2.5859985,137.0
19302,-47.1578,-11.121384,-5.9537735,0.49171144,1.8882569,4.9330444,137.0
19303,-28.583612,-8.288795,-3.979473,0.49171144,1.8882569,4.9330444,137.0
19304,-28.583612,-8.288795,-3.979473,4.9426026,1.3827393,5.8346925,137.0
19305,-12.302132,-8.111221,0.007888794,4.9426026,1.3827393,5.8346925,137.0
19306,-12.302132,-8.111221,0.007888794,11.670447,0.88040775,7.1887574,137.0
19307,2.5950499,-7.2666473,9.785938,11.670447,0.88040775,7.1887574,137.0
19308,2.5950499,-7.2666473,9.785938,15.350318,3.444104,9.493323,137.0
19309,15.092288,-2.1842957,24.784622,15.350318,3.444104,9.493323,137.0
19310,15.092288,-2.1842957,24.784622,13.939966,5.619104,8.294312,137.0
19311,23.63992,9.407043,34.11741,13.939966,5.619104,8.294312,137.0
19312,23.63992,9.407043,34.11741,4.352124,6.3646364,7.3523073,137.0
19313,33.488987,15.169998,26.257858,4.352124,6.3646364,7.3523073,137.0
19314,33.488987,15.169998,26.257858,-7.1813235,9.295789,7.4542603,137.0
19315,36.874493,9.109467,4.2075577,-7.1813235,9.295789,7.4542603,137.0
19316,36.874493,9.109467,4.2075577,-7.3682375,9.7875,9.357386,137.0
19317,25.057894,5.747696,-17.38255,-7.3682375,9.7875,9.357386,137.0
19318,25.057894,5.747696,-17.38255,-9.490137,4.715332,10.766675,137.0
19319,11.736927,13.547058,-27.83834,-9.490137,4.715332,10.766675,137.0
19320,11.736927,13.547058,-27.83834,-7.512671,-2.7591064,11.884974,137.0
19321,9.958828,30.430115,-27.857307,-7.512671,-2.7591064,11.884974,137.0
19322,9.958828,30.430115,-27.857307,-6.818115,-3.0915163,9.611206,137.0
19323,10.806112,45.68119,-23.447773,-6.818115,-3.0915163,9.611206,137.0
19324,10.806112,45.68119,-23.447773,-4.905432,-5.628662,6.4559693,137.0
19325,5.4966354,54.32808,-15.905838,-4.905432,-5.628662,6.4559693,137.0
19326,5.4966354,54.32808,-15.905838,-3.0171754,-3.3718872,-4.066443,137.0
19327,-2.0993233,52.943592,0.115550995,-3.0171754,-3.3718872,-4.066443,137.0
19328,-2.0993233,52.943592,0.115550995,-4.3000855,-4.2374268,-11.087402,137.0
19329,-2.6804829,32.95639,14.946346,-4.3000855,-4.2374268,-11.087402,137.0
19330,-2.6804829,32.95639,14.946346,-5.4608645,-2.9215944,-15.804858,137.0
19331,5.8119354,5.045616,15.188522,-5.4608645,-2.9215944,-15.804858,137.0
19332,5.8119354,5.045616,15.188522,-5.9971805,-0.62552494,-18.822035,137.0
19333,20.789185,-24.155182,4.991417,-5.9971805,-0.62552494,-18.822035,137.0
19334,20.789185,-24.155182,4.991417,-1.1002442,-1.6907227,-17.674,137.0
19335,31.718422,-50.3963,-2.2137375,-1.1002442,-1.6907227,-17.674,137.0
19336,31.718422,-50.3963,-2.2137375,1.4517701,2.4320068,-11.472913,137.0
19337,21.60485,-52.149475,0.6358719,1.4517701,2.4320068,-11.472913,137.0
19338,21.60485,-52.149475,0.6358719,-6.4442873,2.5753784,-6.7427125,137.0
19339,-0.23126602,-32.80613,-1.8937798,-6.4442873,2.5753784,-6.7427125,137.0
19340,-0.23126602,-32.80613,-1.8937798,-14.751343,5.06261,-3.6862428,137.0
19341,-21.886272,-21.89096,-15.880207,-14.751343,5.06261,-3.6862428,137.0
19342,-21.886272,-21.89096,-15.880207,-13.992004,7.112293,-0.8485474,137.0
19343,-45.04045,-22.149483,-22.89158,-13.992004,7.112293,-0.8485474,137.0
19344,-45.04045,-22.149483,-22.89158,-7.456384,2.1250856,-1.8213501,137.0
19345,-67.89884,-15.737976,-14.273361,-7.456384,2.1250856,-1.8213501,137.0
19346,-67.89884,-15.737976,-14.273361,2.994873,-1.6907227,0.78376466,137.0
19347,-71.13298,1.9459686,-0.13835526,2.994873,-1.6907227,0.78376466,137.0
19348,-71.13298,1.9459686,-0.13835526,3.700049,0.04885254,1.4857544,137.0
19349,-42.144043,8.194031,5.950802,3.700049,0.04885254,1.4857544,137.0
19350,-42.144043,8.194031,5.950802,-1.4252198,2.7368042,3.344275,137.0
19351,-25.86731,-1.7946777,2.498825,-1.4252198,2.7368042,3.344275,137.0
19352,-25.86731,-1.7946777,2.498825,3.3941896,0.88996583,3.7828858,137.0
19353,-8.154274,-20.712608,-3.121582,3.3941896,0.88996583,3.7828858,137.0
19354,-8.154274,-20.712608,-3.121582,15.674232,-2.9789429,4.636743,137.0
19355,4.2841377,-20.111137,2.6540298,15.674232,-2.9789429,4.636743,137.0
19356,4.2841377,-20.111137,2.6540298,21.526978,-0.50233155,7.9226074,137.0
19357,16.361551,-4.5484924,23.71883,21.526978,-0.50233155,7.9226074,137.0
19358,16.361551,-4.5484924,23.71883,12.926806,4.268225,7.7431273,137.0
19359,26.719296,6.0721436,39.115334,12.926806,4.268225,7.7431273,137.0
19360,26.719296,6.0721436,39.115334,-0.61915284,6.6917357,9.443408,137.0
19361,35.077633,0.21048737,31.82381,-0.61915284,6.6917357,9.443408,137.0
19362,35.077633,0.21048737,31.82381,-2.8153932,7.3671756,9.465711,137.0
19363,36.3571,-4.887253,10.538307,-2.8153932,7.3671756,9.465711,137.0
19364,36.3571,-4.887253,10.538307,-3.2168336,7.9990726,9.413672,137.0
19365,27.751148,6.021141,-8.651436,-3.2168336,7.9990726,9.413672,137.0
19366,27.751148,6.021141,-8.651436,-7.5615234,6.892456,9.721656,137.0
19367,16.569523,22.049232,-18.404156,-7.5615234,6.892456,9.721656,137.0
19368,16.569523,22.049232,-18.404156,-5.7327394,1.1501588,10.174072,137.0
19369,10.496647,36.118874,-23.646507,-5.7327394,1.1501588,10.174072,137.0
19370,10.496647,36.118874,-23.646507,-3.2221437,-2.4171388,7.185571,137.0
19371,8.111551,51.53305,-26.626095,-3.2221437,-2.4171388,7.185571,137.0
19372,8.111551,51.53305,-26.626095,-2.3236816,-3.4674683,1.8521484,137.0
19373,3.3265572,61.545166,-20.628403,-2.3236816,-3.4674683,1.8521484,137.0
19374,3.3265572,61.545166,-20.628403,-3.9559937,-5.173059,-4.9882693,137.0
19375,-0.18886375,51.315197,-6.080652,-3.9559937,-5.173059,-4.9882693,137.0
19376,-0.18886375,51.315197,-6.080652,-3.443042,-5.7550416,-13.477991,137.0
19377,4.7952595,23.938366,6.5764923,-3.443042,-5.7550416,-13.477991,137.0
19378,4.7952595,23.938366,6.5764923,-2.885486,-4.616565,-16.049122,137.0
19379,14.867203,-8.963554,12.487965,-2.885486,-4.616565,-16.049122,137.0
19380,14.867203,-8.963554,12.487965,1.4719483,-5.2654543,-17.251318,137.0
19381,24.300354,-35.69198,14.059502,1.4719483,-5.2654543,-17.251318,137.0
19382,24.300354,-35.69198,14.059502,4.5878906,-6.15011,-16.075672,137.0
19383,27.88218,-41.628128,11.688713,4.5878906,-6.15011,-16.075672,137.0
19384,27.88218,-41.628128,11.688713,-3.0373535,-6.796875,-10.568079,137.0
19385,23.640533,-32.00009,6.914654,-3.0373535,-6.796875,-10.568079,137.0
19386,23.640533,-32.00009,6.914654,-9.575098,-3.529065,-6.6471314,137.0
19387,7.905445,-28.071495,1.1618385,-9.575098,-3.529065,-6.6471314,137.0
19388,7.905445,-28.071495,1.1618385,-11.45592,0.32285157,-2.9258423,137.0
19389,-17.977806,-28.83992,0.16427231,-11.45592,0.32285157,-2.9258423,137.0
19390,-17.977806,-28.83992,0.16427231,-9.494385,0.16885987,-2.0401247,137.0
19391,-17.977806,-28.83992,0.16427231,-9.494385,0.16885987,-2.0401247,150.0
19392,-38.793076,-23.253433,2.6660118,-9.494385,0.16885987,-2.0401247,150.0
19393,-38.793076,-23.253433,2.6660118,-8.824256,0.22089843,-2.899292,150.0
19394,-52.128883,-17.797012,2.1193085,-8.824256,0.22089843,-2.899292,150.0
19395,-52.128883,-17.797012,2.1193085,-6.3635745,1.5346069,-0.21452637,150.0
19396,-59.31828,-16.156815,0.31718445,-6.3635745,1.5346069,-0.21452637,150.0
19397,-59.31828,-16.156815,0.31718445,2.0156982,0.91864014,1.4379638,150.0
19398,-53.0099,-11.579025,-1.2368774,2.0156982,0.91864014,1.4379638,150.0
19399,-53.0099,-11.579025,-1.2368774,4.631433,2.160132,3.074524,150.0
19400,-36.005,-4.2656403,-2.5052605,4.631433,2.160132,3.074524,150.0
19401,-36.005,-4.2656403,-2.5052605,6.4931397,2.2249146,4.444519,150.0
19402,-16.53723,-3.0639114,-1.7502403,6.4931397,2.2249146,4.444519,150.0
19403,-16.53723,-3.0639114,-1.7502403,11.021558,1.811792,5.534143,150.0
19404,0.8134651,-6.8595734,5.776848,11.021558,1.811792,5.534143,150.0
19405,0.8134651,-6.8595734,5.776848,14.1831665,3.076648,7.619934,150.0
19406,13.746719,-4.7460327,19.285477,14.1831665,3.076648,7.619934,150.0
19407,13.746719,-4.7460327,19.285477,7.962964,6.4039307,8.589551,150.0
19408,23.386316,-0.33913422,28.855736,7.962964,6.4039307,8.589551,150.0
19409,23.386316,-0.33913422,28.855736,0.7317261,7.241858,9.815112,150.0
19410,37.834896,-2.137207,21.611649,0.7317261,7.241858,9.815112,150.0
19411,37.834896,-2.137207,21.611649,-3.8986452,2.8217652,6.4729614,150.0
19412,43.906578,1.5848007,-4.6050415,-3.8986452,2.8217652,6.4729614,150.0
19413,43.906578,1.5848007,-4.6050415,-8.915588,12.6974125,12.535987,150.0
19414,27.216877,13.760544,-26.130836,-8.915588,12.6974125,12.535987,150.0
19415,27.216877,13.760544,-26.130836,-11.666199,1.6556762,12.819544,150.0
19416,10.66696,24.466751,-28.382149,-11.666199,1.6556762,12.819544,150.0
19417,10.66696,24.466751,-28.382149,-6.9444947,-4.185388,10.844202,150.0
19418,9.660912,35.99005,-19.480476,-6.9444947,-4.185388,10.844202,150.0
19419,9.660912,35.99005,-19.480476,-0.7943848,-4.1036134,7.6549807,150.0
19420,10.518635,51.853363,-13.815254,-0.7943848,-4.1036134,7.6549807,150.0
19421,10.518635,51.853363,-13.815254,3.169043,-5.956824,1.7756836,150.0
19422,4.537529,64.34003,-14.015266,3.169043,-5.956824,1.7756836,150.0
19423,4.537529,64.34003,-14.015266,-1.3094605,-5.8623047,-7.587012,150.0
19424,0.44699097,55.05431,-5.8531933,-1.3094605,-5.8623047,-7.587012,150.0
19425,0.44699097,55.05431,-5.8531933,-10.423645,-5.781592,-12.537048,150.0
19426,4.9729004,20.22575,7.0417747,-10.423645,-5.781592,-12.537048,150.0
19427,4.9729004,20.22575,7.0417747,-8.385645,-0.098767094,-16.322058,150.0
19428,11.103039,-14.515224,10.140316,-8.385645,-0.098767094,-16.322058,150.0
19429,11.103039,-14.515224,10.140316,0.66269535,0.86341554,-19.048243,150.0
19430,20.700802,-37.21218,4.023983,0.66269535,0.86341554,-19.048243,150.0
19431,20.700802,-37.21218,4.023983,9.874585,-3.7308471,-17.812061,150.0
19432,26.732101,-42.229507,0.29535675,9.874585,-3.7308471,-17.812061,150.0
19433,26.732101,-42.229507,0.29535675,4.2119384,-0.92926025,-10.819776,150.0
19434,13.654087,-26.394524,7.3187943,4.2119384,-0.92926025,-10.819776,150.0
19435,13.654087,-26.394524,7.3187943,-8.141382,-2.088977,-3.612964,150.0
19436,3.7990112,-21.99105,6.930233,-8.141382,-2.088977,-3.612964,150.0
19437,3.7990112,-21.99105,6.930233,-6.586597,0.02442627,-1.540979,150.0
19438,-18.654152,-20.81881,8.744358,-6.586597,0.02442627,-1.540979,150.0
19439,-18.654152,-20.81881,8.744358,-6.728906,-0.4354248,-0.93563235,150.0
19440,-39.53282,-14.227646,9.4208145,-6.728906,-0.4354248,-0.93563235,150.0
19441,-39.53282,-14.227646,9.4208145,-11.463355,0.21558838,-3.274182,150.0
19442,-55.928543,-16.213943,3.9488602,-11.463355,0.21558838,-3.274182,150.0
19443,-55.928543,-16.213943,3.9488602,-10.856946,1.450708,-0.7954468,150.0
19444,-58.81069,-28.331268,-1.3905106,-10.856946,1.450708,-0.7954468,150.0
19445,-58.81069,-28.331268,-1.3905106,3.2348878,1.803296,2.258899,150.0
19446,-44.326935,-27.67202,-2.4325867,3.2348878,1.803296,2.258899,150.0
19447,-44.326935,-27.67202,-2.4325867,7.1940675,2.4723632,4.483814,150.0
19448,-25.86333,-10.146919,-1.4287949,7.1940675,2.4723632,4.483814,150.0
19449,-25.86333,-10.146919,-1.4287949,8.442993,2.6858277,5.786902,150.0
19450,-8.986259,4.462921,4.35297,8.442993,2.6858277,5.786902,150.0
19451,-8.986259,4.462921,4.35297,10.784729,3.4706542,5.815576,150.0
19452,4.096491,8.264847,15.56015,10.784729,3.4706542,5.815576,150.0
19453,4.096491,8.264847,15.56015,7.3777957,6.029041,6.0109863,150.0
19454,12.965596,5.5250854,24.21476,7.3777957,6.029041,6.0109863,150.0
19455,12.965596,5.5250854,24.21476,-0.19434814,8.9442625,8.754163,150.0
19456,20.986832,-2.2172852,24.221687,-0.19434814,8.9442625,8.754163,150.0
19457,20.986832,-2.2172852,24.221687,-0.45347902,8.75841,9.852283,150.0
19458,32.89242,-6.9178314,13.909782,-0.45347902,8.75841,9.852283,150.0
19459,32.89242,-6.9178314,13.909782,-1.0970582,1.8946289,5.752918,150.0
19460,39.128952,2.0116577,-10.321602,-1.0970582,1.8946289,5.752918,150.0
19461,39.128952,2.0116577,-10.321602,-9.451904,11.19679,12.217383,150.0
19462,26.058216,13.633827,-30.075459,-9.451904,11.19679,12.217383,150.0
19463,26.058216,13.633827,-30.075459,-10.659411,1.5229248,12.327832,150.0
19464,11.863859,24.2641,-29.114468,-10.659411,1.5229248,12.327832,150.0
19465,11.863859,24.2641,-29.114468,-6.6566896,-3.0277956,10.528785,150.0
19466,8.902281,39.97383,-17.54559,-6.6566896,-3.0277956,10.528785,150.0
19467,8.902281,39.97383,-17.54559,-3.807312,-4.6654177,7.0645022,150.0
19468,5.974718,53.42733,-17.040096,-3.807312,-4.6654177,7.0645022,150.0
19469,5.974718,53.42733,-17.040096,2.9534547,-6.943433,1.3795532,150.0
19470,1.6152248,58.72536,-22.62225,2.9534547,-6.943433,1.3795532,150.0
19471,1.6152248,58.72536,-22.62225,-1.175647,-5.2027955,-9.006922,150.0
19472,0.655035,44.346855,-9.840708,-1.175647,-5.2027955,-9.006922,150.0
19473,0.655035,44.346855,-9.840708,-7.405408,-5.543701,-12.564661,150.0
19474,4.6981506,11.45689,8.801445,-7.405408,-5.543701,-12.564661,150.0
19475,4.6981506,11.45689,8.801445,-5.45343,-0.26337892,-15.37262,150.0
19476,11.178028,-16.183987,13.029594,-5.45343,-0.26337892,-15.37262,150.0
19477,11.178028,-16.183987,13.029594,0.04991455,-3.42605,-19.810766,150.0
19478,23.701736,-34.437744,3.2088318,0.04991455,-3.42605,-19.810766,150.0
19479,23.701736,-34.437744,3.2088318,6.2010865,-3.4844606,-14.15874,150.0
19480,29.54966,-39.15779,-1.9081917,6.2010865,-3.4844606,-14.15874,150.0
19481,29.54966,-39.15779,-1.9081917,1.4772583,-2.5605104,-9.094007,150.0
19482,18.226215,-31.472458,5.7229004,1.4772583,-2.5605104,-9.094007,150.0
19483,18.226215,-31.472458,5.7229004,-7.049634,-4.088745,-4.7588744,150.0
19484,18.226215,-31.472458,5.7229004,-7.049634,-4.088745,-4.7588744,159.0
19485,-2.9032555,-26.477882,11.452209,-7.049634,-4.088745,-4.7588744,159.0
19486,-2.9032555,-26.477882,11.452209,-5.3801513,-0.91757816,-1.4029175,159.0
19487,-25.706139,-18.615875,12.871315,-5.3801513,-0.91757816,-1.4029175,159.0
19488,-25.706139,-18.615875,12.871315,-7.420276,-0.04991455,-2.0316284,159.0
19489,-42.72015,-9.255211,10.33493,-7.420276,-0.04991455,-2.0316284,159.0
19490,-42.72015,-9.255211,10.33493,-12.745203,1.4252198,-4.241675,159.0
19491,-57.427303,-15.44809,2.7812004,-12.745203,1.4252198,-4.241675,159.0
19492,-57.427303,-15.44809,2.7812004,-9.637756,1.448584,0.20921631,159.0
19493,-59.69729,-28.828514,-1.819706,-9.637756,1.448584,0.20921631,159.0
19494,-59.69729,-28.828514,-1.819706,5.1815553,1.5473511,1.3360108,159.0
19495,-44.31115,-23.85405,-2.2412033,5.1815553,1.5473511,1.3360108,159.0
19496,-44.31115,-23.85405,-2.2412033,6.0821414,2.8631837,3.5609252,159.0
19497,-24.032528,-8.43602,-1.8655243,6.0821414,2.8631837,3.5609252,159.0
19498,-24.032528,-8.43602,-1.8655243,7.8981814,3.3347168,5.418384,159.0
19499,-5.006859,-0.8451996,3.1138191,7.8981814,3.3347168,5.418384,159.0
19500,-5.006859,-0.8451996,3.1138191,11.261573,3.2932985,5.7646,159.0
19501,9.373016,1.8974533,14.054752,11.261573,3.2932985,5.7646,159.0
19502,9.373016,1.8974533,14.054752,9.648376,5.853809,6.2223268,159.0
19503,17.99358,5.087105,24.016556,9.648376,5.853809,6.2223268,159.0
19504,17.99358,5.087105,24.016556,3.7658937,7.7983522,7.76543,159.0
19505,27.033255,3.4216614,25.537865,3.7658937,7.7983522,7.76543,159.0
19506,27.033255,3.4216614,25.537865,-0.08283692,5.6711426,6.5611086,159.0
19507,40.17736,0.05177307,11.606308,-0.08283692,5.6711426,6.5611086,159.0
19508,40.17736,0.05177307,11.606308,-4.725952,9.086573,6.701294,159.0
19509,38.392487,5.4310226,-11.208656,-4.725952,9.086573,6.701294,159.0
19510,38.392487,5.4310226,-11.208656,-9.0345335,9.534741,10.132654,159.0
19511,19.336084,14.172134,-24.453903,-9.0345335,9.534741,10.132654,159.0
19512,19.336084,14.172134,-24.453903,-8.487597,2.073047,11.527076,159.0
19513,7.3786945,23.104996,-27.624123,-8.487597,2.073047,11.527076,159.0
19514,7.3786945,23.104996,-27.624123,-6.692798,-3.3973756,10.88031,159.0
19515,6.8416023,35.07377,-27.887836,-6.692798,-3.3973756,10.88031,159.0
19516,6.8416023,35.07377,-27.887836,-3.2837403,-3.2625,8.178553,159.0
19517,6.284012,49.072052,-25.588604,-3.2837403,-3.2625,8.178553,159.0
19518,6.284012,49.072052,-25.588604,-1.3137085,-5.3865237,2.6720216,159.0
19519,1.1867924,57.38657,-16.617,-1.3137085,-5.3865237,2.6720216,159.0
19520,1.1867924,57.38657,-16.617,-1.9498535,-4.3871703,-6.7639527,159.0
19521,-2.8937054,46.33705,-1.3608608,-1.9498535,-4.3871703,-6.7639527,159.0
19522,-2.8937054,46.33705,-1.3608608,-3.2210815,-4.8650756,-11.488843,159.0
19523,-0.7119255,18.591763,8.964218,-3.2210815,-4.8650756,-11.488843,159.0
19524,-0.7119255,18.591763,8.964218,-3.900769,-2.441565,-14.66532,159.0
19525,6.3787746,-8.345058,8.885387,-3.900769,-2.441565,-14.66532,159.0
19526,6.3787746,-8.345058,8.885387,0.33134767,-3.3920655,-18.588392,159.0
19527,20.501068,-31.670689,5.2138405,0.33134767,-3.3920655,-18.588392,159.0
19528,20.501068,-31.670689,5.2138405,10.580823,-5.074292,-16.065052,159.0
19529,27.590199,-40.383232,6.2971573,10.580823,-5.074292,-16.065052,159.0
19530,27.590199,-40.383232,6.2971573,6.17666,-2.2217286,-8.251831,159.0
19531,17.540432,-28.065628,12.949821,6.17666,-2.2217286,-8.251831,159.0
19532,17.540432,-28.065628,12.949821,-4.520984,-6.606775,-5.03606,159.0
19533,3.1781845,-17.047691,14.020622,-4.520984,-6.606775,-5.03606,159.0
19534,3.1781845,-17.047691,14.020622,-6.8998904,-1.0577637,-1.9859619,159.0
19535,-14.676422,-15.747246,10.178692,-6.8998904,-1.0577637,-1.9859619,159.0
19536,-14.676422,-15.747246,10.178692,-10.387537,-0.814563,-2.1059692,159.0
19537,-33.179493,-16.140823,6.4788513,-10.387537,-0.814563,-2.1059692,159.0
19538,-33.179493,-16.140823,6.4788513,-13.482239,0.07434082,-4.430713,159.0
19539,-48.845123,-21.066841,-0.52264404,-13.482239,0.07434082,-4.430713,159.0
19540,-48.845123,-21.066841,-0.52264404,-12.526428,0.8931519,-1.806482,159.0
19541,-55.12506,-30.818344,-6.060158,-12.526428,0.8931519,-1.806482,159.0
19542,-55.12506,-30.818344,-6.060158,1.8362182,1.1448487,0.39400634,159.0
19543,-46.413013,-27.942383,-4.42939,1.8362182,1.1448487,0.39400634,159.0
19544,-46.413013,-27.942383,-4.42939,5.4895387,2.4086425,2.6975098,159.0
19545,-31.275087,-10.628014,-1.1991043,5.4895387,2.4086425,2.6975098,159.0
19546,-31.275087,-10.628014,-1.1991043,6.5834107,2.879114,4.431775,159.0
19547,-15.487232,2.3331146,1.4605675,6.5834107,2.879114,4.431775,159.0
19548,-15.487232,2.3331146,1.4605675,8.867798,3.161609,5.0233154,159.0
19549,-1.5701694,3.2228394,7.3419876,8.867798,3.161609,5.0233154,159.0
19550,-1.5701694,3.2228394,7.3419876,10.235669,4.3616824,5.880359,159.0
19551,10.001299,-0.08569336,16.83963,10.235669,4.3616824,5.880359,159.0
19552,10.001299,-0.08569336,16.83963,8.605481,6.84148,6.824487,159.0
19553,17.278702,2.374794,24.007286,8.605481,6.84148,6.824487,159.0
19554,17.278702,2.374794,24.007286,4.0005984,8.774341,7.25885,159.0
19555,24.912048,4.425705,21.969269,4.0005984,8.774341,7.25885,159.0
19556,24.912048,4.425705,21.969269,-1.9764038,7.229114,6.248877,159.0
19557,35.874256,2.3641968,6.680481,-1.9764038,7.229114,6.248877,159.0
19558,35.874256,2.3641968,6.680481,-6.251001,8.832751,7.694275,159.0
19559,33.675564,5.135208,-14.93589,-6.251001,8.832751,7.694275,159.0
19560,33.675564,5.135208,-14.93589,-10.118848,7.490369,10.717822,159.0
19561,17.887302,11.407181,-26.60849,-10.118848,7.490369,10.717822,159.0
19562,17.887302,11.407181,-26.60849,-10.708264,1.3933594,10.351428,159.0
19563,8.625126,17.103615,-24.918922,-10.708264,1.3933594,10.351428,159.0
19564,8.625126,17.103615,-24.918922,-5.5532594,-3.5025146,10.623303,159.0
19565,8.378214,30.5429,-22.84351,-5.5532594,-3.5025146,10.623303,159.0
19566,8.378214,30.5429,-22.84351,-2.8483155,-6.0938234,5.980188,159.0
19567,7.835701,52.686615,-24.010601,-2.8483155,-6.0938234,5.980188,159.0
19568,7.835701,52.686615,-24.010601,-5.047742,-4.2788453,0.5692383,159.0
19569,2.5482235,61.409657,-17.974998,-5.047742,-4.2788453,0.5692383,159.0
19570,2.5482235,61.409657,-17.974998,-5.7677855,-5.060486,-8.419629,159.0
19571,1.2550583,42.236404,-4.924469,-5.7677855,-5.060486,-8.419629,159.0
19572,1.2550583,42.236404,-4.924469,-4.7302003,-3.5842896,-13.010706,159.0
19573,5.271332,10.129372,5.48114,-4.7302003,-3.5842896,-13.010706,159.0
19574,5.271332,10.129372,5.48114,-1.7937378,0.4895874,-15.844153,159.0
19575,11.172998,-16.505081,8.975513,-1.7937378,0.4895874,-15.844153,159.0
19576,11.172998,-16.505081,8.975513,2.7548585,-4.3563724,-18.199696,159.0
19577,22.727718,-38.05138,4.3114777,2.7548585,-4.3563724,-18.199696,159.0
19578,22.727718,-38.05138,4.3114777,9.579346,-4.0197144,-15.315271,159.0
19579,27.211937,-41.160416,1.116394,9.579346,-4.0197144,-15.315271,159.0
19580,27.211937,-41.160416,1.116394,1.4039795,-4.224683,-9.675989,159.0
19581,20.244488,-27.051407,8.006935,1.4039795,-4.224683,-9.675989,159.0
19582,20.244488,-27.051407,8.006935,-6.2297606,-5.955762,-4.9160523,159.0
19583,4.9013405,-18.44632,14.814789,-6.2297606,-5.955762,-4.9160523,159.0
19584,4.9013405,-18.44632,14.814789,-8.407947,-1.7501954,-0.79013675,159.0
19585,-18.234764,-14.660851,13.6891365,-8.407947,-1.7501954,-0.79013675,159.0
19586,-18.234764,-14.660851,13.6891365,-12.852466,-0.78376466,-1.6588624,159.0
19587,-36.0368,-14.659027,5.81176,-12.852466,-0.78376466,-1.6588624,159.0
19588,-36.0368,-14.659027,5.81176,-12.788745,1.8457764,-2.3884645,159.0
19589,-51.25964,-22.196487,0.1664238,-12.788745,1.8457764,-2.3884645,159.0
19590,-51.25964,-22.196487,0.1664238,-7.4924927,-0.6531372,-1.0641358,159.0
19591,-51.25964,-22.196487,0.1664238,-7.4924927,-0.6531372,-1.0641358,160.0
19592,-59.361645,-26.318077,0.90982056,-7.4924927,-0.6531372,-1.0641358,160.0
19593,-59.361645,-26.318077,0.90982056,2.537146,1.2531738,1.1852051,160.0
19594,-49.44735,-17.673431,2.4244156,2.537146,1.2531738,1.1852051,160.0
19595,-49.44735,-17.673431,2.4244156,4.483814,3.0012453,2.2886353,160.0
19596,-30.260845,-5.8811035,0.5826111,4.483814,3.0012453,2.2886353,160.0
19597,-30.260845,-5.8811035,0.5826111,6.864844,3.5566773,3.877405,160.0
19598,-12.192184,-0.3999176,-0.022937775,6.864844,3.5566773,3.877405,160.0
19599,-12.192184,-0.3999176,-0.022937775,9.99353,2.6868896,5.3833375,160.0
19600,0.76363564,1.2055664,5.779892,9.99353,2.6868896,5.3833375,160.0
19601,0.76363564,1.2055664,5.779892,10.9588995,3.7329712,4.997827,160.0
19602,10.211237,2.513855,15.789368,10.9588995,3.7329712,4.997827,160.0
19603,10.211237,2.513855,15.789368,6.3582644,7.2769046,6.335962,160.0
19604,16.617123,2.8791656,22.881104,6.3582644,7.2769046,6.335962,160.0
19605,16.617123,2.8791656,22.881104,3.3368409,8.628845,7.512671,160.0
19606,23.463364,0.5643692,20.875488,3.3368409,8.628845,7.512671,160.0
19607,23.463364,0.5643692,20.875488,0.81668705,6.8552856,7.1059203,160.0
19608,36.150208,-1.6707153,6.9972534,0.81668705,6.8552856,7.1059203,160.0
19609,36.150208,-1.6707153,6.9972534,-4.3829226,7.06344,5.990808,160.0
19610,38.532787,2.3471909,-13.619629,-4.3829226,7.06344,5.990808,160.0
19611,38.532787,2.3471909,-13.619629,-8.600171,10.329126,9.852283,160.0
19612,22.737339,9.257042,-24.070656,-8.600171,10.329126,9.852283,160.0
19613,22.737339,9.257042,-24.070656,-9.239502,2.6582153,11.008814,160.0
19614,11.707291,17.878082,-25.117058,-9.239502,2.6582153,11.008814,160.0
19615,11.707291,17.878082,-25.117058,-4.1046753,-3.4717164,11.564246,160.0
19616,11.035669,33.901215,-26.253788,-4.1046753,-3.4717164,11.564246,160.0
19617,11.035669,33.901215,-26.253788,-3.6458862,-3.090454,8.928332,160.0
19618,8.303877,52.9215,-27.85812,-3.6458862,-3.090454,8.928332,160.0
19619,8.303877,52.9215,-27.85812,-2.631665,-6.2233887,2.9619508,160.0
19620,1.2312374,61.44222,-22.664255,-2.631665,-6.2233887,2.9619508,160.0
19621,1.2312374,61.44222,-22.664255,-2.8738039,-4.246985,-7.404346,160.0
19622,-3.5651073,48.186005,-6.9300003,-2.8738039,-4.246985,-7.404346,160.0
19623,-3.5651073,48.186005,-6.9300003,-5.4810424,-5.1401367,-11.837183,160.0
19624,-1.0949936,17.757568,5.8070374,-5.4810424,-5.1401367,-11.837183,160.0
19625,-1.0949936,17.757568,5.8070374,-5.435376,-2.6475952,-15.679542,160.0
19626,6.439312,-11.579788,7.8996086,-5.435376,-2.6475952,-15.679542,160.0
19627,6.439312,-11.579788,7.8996086,-0.18585205,-3.5545533,-19.083288,160.0
19628,19.582603,-34.4286,4.1197586,-0.18585205,-3.5545533,-19.083288,160.0
19629,19.582603,-34.4286,4.1197586,5.233594,-5.6435304,-16.213734,160.0
19630,29.166695,-41.43802,3.8698425,5.233594,-5.6435304,-16.213734,160.0
19631,29.166695,-41.43802,3.8698425,0.35895997,-4.3691163,-9.887329,160.0
19632,25.000275,-31.289772,9.599686,0.35895997,-4.3691163,-9.887329,160.0
19633,25.000275,-31.289772,9.599686,-8.078723,-3.440918,-5.709375,160.0
19634,6.866394,-23.010132,10.811085,-8.078723,-3.440918,-5.709375,160.0
19635,6.866394,-23.010132,10.811085,-12.418103,-0.9653687,-1.4007934,160.0
19636,-17.163525,-20.907997,7.578884,-12.418103,-0.9653687,-1.4007934,160.0
19637,-17.163525,-20.907997,7.578884,-12.853528,0.817749,-1.5728394,160.0
19638,-33.313057,-19.041695,2.6615334,-12.853528,0.817749,-1.5728394,160.0
19639,-33.313057,-19.041695,2.6615334,-10.370544,2.9354005,-1.4358399,160.0
19640,-48.11376,-19.70031,-2.2404518,-10.370544,2.9354005,-1.4358399,160.0
19641,-48.11376,-19.70031,-2.2404518,-8.045801,0.35789797,-1.7958618,160.0
19642,-59.38878,-21.355507,-3.2761154,-8.045801,0.35789797,-1.7958618,160.0
19643,-59.38878,-21.355507,-3.2761154,3.5630493,0.6605713,1.8171021,160.0
19644,-52.57379,-12.678329,-0.9296684,3.5630493,0.6605713,1.8171021,160.0
19645,-52.57379,-12.678329,-0.9296684,3.8412964,2.4182007,1.360437,160.0
19646,-35.57511,0.39434814,0.12989807,3.8412964,2.4182007,1.360437,160.0
19647,-35.57511,0.39434814,0.12989807,1.8521484,3.696863,2.6964478,160.0
19648,-18.567242,-0.87394714,-1.3495483,1.8521484,3.696863,2.6964478,160.0
19649,-18.567242,-0.87394714,-1.3495483,5.963196,2.88761,3.9241333,160.0
19650,-3.2742653,-11.042282,1.5926895,5.963196,2.88761,3.9241333,160.0
19651,-3.2742653,-11.042282,1.5926895,10.173011,3.243384,6.1957765,160.0
19652,9.581478,-12.808716,11.484894,10.173011,3.243384,6.1957765,160.0
19653,9.581478,-12.808716,11.484894,6.8446655,5.8060184,8.49397,160.0
19654,19.022861,-6.146988,18.376205,6.8446655,5.8060184,8.49397,160.0
19655,19.022861,-6.146988,18.376205,0.22727051,6.6460695,10.62118,160.0
19656,26.376797,-3.7930603,15.70359,0.22727051,6.6460695,10.62118,160.0
19657,26.376797,-3.7930603,15.70359,-2.6475952,5.758228,11.197852,160.0
19658,34.163303,-5.016838,7.1790924,-2.6475952,5.758228,11.197852,160.0
19659,34.163303,-5.016838,7.1790924,-1.9806519,3.274182,8.741419,160.0
19660,34.665398,4.9423904,-5.5181274,-1.9806519,3.274182,8.741419,160.0
19661,34.665398,4.9423904,-5.5181274,-6.818115,5.0965943,11.605664,160.0
19662,21.620123,19.821106,-17.22628,-6.818115,5.0965943,11.605664,160.0
19663,21.620123,19.821106,-17.22628,-9.550672,-0.7349121,13.115845,160.0
19664,7.9596233,25.16874,-21.093826,-9.550672,-0.7349121,13.115845,160.0
19665,7.9596233,25.16874,-21.093826,-6.4888916,-7.7441897,10.56914,160.0
19666,7.322399,29.623924,-17.9819,-6.4888916,-7.7441897,10.56914,160.0
19667,7.322399,29.623924,-17.9819,-1.7586914,-9.152417,5.640344,160.0
19668,13.567295,46.09887,-11.620518,-1.7586914,-9.152417,5.640344,160.0
19669,13.567295,46.09887,-11.620518,-0.29205322,-5.0169435,2.6072388,160.0
19670,9.639578,61.46373,-4.5827904,-0.29205322,-5.0169435,2.6072388,160.0
19671,9.639578,61.46373,-4.5827904,-5.804956,-3.793506,-4.1375976,160.0
19672,-1.1651325,53.458702,0.33382797,-5.804956,-3.793506,-4.1375976,160.0
19673,-1.1651325,53.458702,0.33382797,-5.6265383,-2.2408447,-11.031116,160.0
19674,-3.072279,26.425117,2.3660126,-5.6265383,-2.2408447,-11.031116,160.0
19675,-3.072279,26.425117,2.3660126,-4.100427,0.29736328,-14.245826,160.0
19676,3.9366722,-1.8238106,2.2479134,-4.100427,0.29736328,-14.245826,160.0
19677,3.9366722,-1.8238106,2.2479134,-3.2051513,1.6949707,-16.413391,160.0
19678,16.482735,-27.711723,1.436245,-3.2051513,1.6949707,-16.413391,160.0
19679,16.482735,-27.711723,1.436245,2.8823,0.3090454,-16.130896,160.0
19680,24.216904,-46.525414,0.12808609,2.8823,0.3090454,-16.130896,160.0
19681,24.216904,-46.525414,0.12808609,8.404761,1.260608,-12.736707,160.0
19682,17.722061,-41.8404,1.5941925,8.404761,1.260608,-12.736707,160.0
19683,17.722061,-41.8404,1.5941925,-2.9162843,-3.1966553,-9.1641,160.0
19684,6.925659,-26.535034,3.9700203,-2.9162843,-3.1966553,-9.1641,160.0
19685,6.925659,-26.535034,3.9700203,-7.7463136,-0.53737795,-3.6511962,160.0
19686,-7.965103,-19.670654,4.6988297,-7.7463136,-0.53737795,-3.6511962,160.0
19687,-7.965103,-19.670654,4.6988297,-9.1248045,0.039294433,-1.8861328,160.0
19688,-27.80177,-16.018227,4.273102,-9.1248045,0.039294433,-1.8861328,160.0
19689,-27.80177,-16.018227,4.273102,-10.761365,-0.013806152,-2.0284424,160.0
19690,-44.755344,-15.203903,2.73069,-10.761365,-0.013806152,-2.0284424,160.0
19691,-44.755344,-15.203903,2.73069,-10.205933,-0.9791748,-2.4107666,160.0
19692,-53.995304,-17.55796,1.7597084,-10.205933,-0.9791748,-2.4107666,160.0
19693,-53.995304,-17.55796,1.7597084,-2.1452637,-0.10089111,-0.5363159,160.0
19694,-50.734024,-16.36274,2.8952522,-2.1452637,-0.10089111,-0.5363159,160.0
19695,-50.734024,-16.36274,2.8952522,0.9568726,1.0365235,1.5962037,160.0
19696,-37.719948,-9.960175,3.7301788,0.9568726,1.0365235,1.5962037,160.0
19697,-37.719948,-9.960175,3.7301788,4.1535277,2.085791,3.1594849,160.0
19698,-20.929535,-3.4009018,2.582409,4.1535277,2.085791,3.1594849,160.0
19699,-20.929535,-3.4009018,2.582409,6.7214723,2.442627,4.878882,160.0
19700,-6.395056,0.46372223,2.8709908,6.7214723,2.442627,4.878882,160.0
19701,-6.395056,0.46372223,2.8709908,9.859717,2.527588,5.5660033,160.0
19702,3.3701859,2.8898163,7.696327,9.859717,2.527588,5.5660033,160.0
19703,3.3701859,2.8898163,7.696327,10.420459,3.6586304,5.9472656,160.0
19704,10.552568,5.197571,15.336311,10.420459,3.6586304,5.9472656,160.0
19705,10.552568,5.197571,15.336311,5.5638795,7.054944,6.9413085,160.0
19706,17.111744,4.6937714,18.89687,5.5638795,7.054944,6.9413085,160.0
19707,17.111744,4.6937714,18.89687,1.2244996,7.4308963,8.236963,160.0
19708,17.111744,4.6937714,18.89687,1.2244996,7.4308963,8.236963,162.0
19709,24.712505,-1.659256,15.531292,1.2244996,7.4308963,8.236963,162.0
19710,24.712505,-1.659256,15.531292,-0.3791382,6.6503177,7.9226074,162.0
19711,32.238487,-6.350357,7.0586624,-0.3791382,6.6503177,7.9226074,162.0
19712,32.238487,-6.350357,7.0586624,-2.8323853,5.4045777,7.2174315,162.0
19713,31.142048,1.9683609,-6.4818535,-2.8323853,5.4045777,7.2174315,162.0
19714,31.142048,1.9683609,-6.4818535,-7.9141116,6.888208,8.9442625,162.0
19715,18.84811,16.427277,-17.940964,-7.9141116,6.888208,8.9442625,162.0
19716,18.84811,16.427277,-17.940964,-10.295142,0.7072998,11.03855,162.0
19717,8.335081,26.788063,-23.68113,-10.295142,0.7072998,11.03855,162.0
19718,8.335081,26.788063,-23.68113,-6.265869,-4.7854247,8.526893,162.0
19719,6.818163,36.618706,-25.85363,-6.265869,-4.7854247,8.526893,162.0
19720,6.818163,36.618706,-25.85363,1.7937378,-4.584705,4.8364015,162.0
19721,6.548086,48.113586,-22.882683,1.7937378,-4.584705,4.8364015,162.0
19722,6.548086,48.113586,-22.882683,1.1225464,-3.803064,0.29736328,162.0
19723,0.93627167,52.52761,-14.377949,1.1225464,-3.803064,0.29736328,162.0
19724,0.93627167,52.52761,-14.377949,-3.3708253,-4.072815,-6.7554564,162.0
19725,-3.9482841,39.750153,-2.6571312,-3.3708253,-4.072815,-6.7554564,162.0
19726,-3.9482841,39.750153,-2.6571312,-6.0895753,-3.8189943,-10.96952,162.0
19727,-1.1592865,14.17593,5.137989,-6.0895753,-3.8189943,-10.96952,162.0
19728,-1.1592865,14.17593,5.137989,-3.1318727,-1.5887696,-14.47522,162.0
19729,6.2168694,-9.7430725,5.435013,-3.1318727,-1.5887696,-14.47522,162.0
19730,6.2168694,-9.7430725,5.435013,0.68499756,-2.2249146,-16.404896,162.0
19731,16.416721,-30.44246,1.8694229,0.68499756,-2.2249146,-16.404896,162.0
19732,16.416721,-30.44246,1.8694229,10.349304,-4.049451,-15.593518,162.0
19733,22.85258,-37.64762,3.2368965,10.349304,-4.049451,-15.593518,162.0
19734,22.85258,-37.64762,3.2368965,7.1876955,-4.308582,-10.353553,162.0
19735,22.161667,-27.536674,12.329617,7.1876955,-4.308582,-10.353553,162.0
19736,22.161667,-27.536674,12.329617,-3.0511596,-6.1278076,-5.317493,162.0
19737,14.495922,-18.266525,18.316147,-3.0511596,-6.1278076,-5.317493,162.0
19738,14.495922,-18.266525,18.316147,-7.3023925,-1.3710572,-1.532483,162.0
19739,-5.2814255,-15.25119,14.003517,-7.3023925,-1.3710572,-1.532483,162.0
19740,-5.2814255,-15.25119,14.003517,-11.948694,-1.6461182,-0.6945557,162.0
19741,-25.431623,-15.132309,3.232479,-11.948694,-1.6461182,-0.6945557,162.0
19742,-25.431623,-15.132309,3.232479,-13.288953,0.80394286,-1.5781494,162.0
19743,-40.505444,-18.618797,-4.1831703,-13.288953,0.80394286,-1.5781494,162.0
19744,-40.505444,-18.618797,-4.1831703,-12.478638,0.2081543,-2.4235108,162.0
19745,-52.693478,-23.56672,-4.1110497,-12.478638,0.2081543,-2.4235108,162.0
19746,-52.693478,-23.56672,-4.1110497,-3.0639038,0.26337892,0.901648,162.0
19747,-51.528503,-19.410309,-0.021762848,-3.0639038,0.26337892,0.901648,162.0
19748,-51.528503,-19.410309,-0.021762848,1.5632813,1.3795532,2.1548219,162.0
19749,-38.987988,-6.3672333,1.5537949,1.5632813,1.3795532,2.1548219,162.0
19750,-38.987988,-6.3672333,1.5537949,2.4054565,3.4218018,3.4568481,162.0
19751,-28.185984,-0.89334106,0.04623413,2.4054565,3.4218018,3.4568481,162.0
19752,-28.185984,-0.89334106,0.04623413,4.2374268,3.3177247,4.34469,162.0
19753,-9.161423,0.3411255,-3.8956413,4.2374268,3.3177247,4.34469,162.0
19754,-9.161423,0.3411255,-3.8956413,9.832105,2.3640382,6.2074585,162.0
19755,-2.7337894,-1.1326904,-0.9757652,9.832105,2.3640382,6.2074585,162.0
19756,-2.7337894,-1.1326904,-0.9757652,10.944031,2.355542,6.1734743,162.0
19757,13.058855,-2.330925,16.02847,10.944031,2.355542,6.1734743,162.0
19758,13.058855,-2.330925,16.02847,8.761597,6.143738,6.982727,162.0
19759,15.32626,-0.17611694,19.300049,8.761597,6.143738,6.982727,162.0
19760,15.32626,-0.17611694,19.300049,7.218494,7.0241456,6.7246585,162.0
19761,31.363632,0.41329956,25.551346,7.218494,7.0241456,6.7246585,162.0
19762,31.363632,0.41329956,25.551346,-1.7746216,5.424756,3.1393068,162.0
19763,32.96338,0.7533722,15.87075,-1.7746216,5.424756,3.1393068,162.0
19764,32.96338,0.7533722,15.87075,-7.1144166,7.456384,5.331299,162.0
19765,30.321058,5.167267,-14.280071,-7.1144166,7.456384,5.331299,162.0
19766,30.321058,5.167267,-14.280071,-7.9215455,5.3790894,9.862903,162.0
19767,19.7588,8.520241,-18.4254,-7.9215455,5.3790894,9.862903,162.0
19768,19.7588,8.520241,-18.4254,-7.610376,1.9041871,9.928748,162.0
19769,8.729502,19.042587,-21.948391,-7.610376,1.9041871,9.928748,162.0
19770,8.729502,19.042587,-21.948391,-3.619336,-3.2221437,8.667078,162.0
19771,8.597407,21.71341,-18.317734,-3.619336,-3.2221437,8.667078,162.0
19772,8.597407,21.71341,-18.317734,-2.0008302,-4.0005984,7.9725223,162.0
19773,8.638901,48.818512,-23.474258,-2.0008302,-4.0005984,7.9725223,162.0
19774,8.638901,48.818512,-23.474258,-3.5864136,-4.094055,2.8684938,162.0
19775,4.4509525,49.600346,-20.507408,-3.5864136,-4.094055,2.8684938,162.0
19776,4.4509525,49.600346,-20.507408,-4.3892946,-3.5736694,-1.0343994,162.0
19777,-6.134403,43.295403,-8.843758,-4.3892946,-3.5736694,-1.0343994,162.0
19778,-6.134403,43.295403,-8.843758,-2.9247804,-3.3878174,-12.085693,162.0
19779,-5.714834,26.836002,-1.7642136,-2.9247804,-3.3878174,-12.085693,162.0
19780,-5.714834,26.836002,-1.7642136,-2.1080933,-2.8886719,-13.589502,162.0
19781,7.0846024,-8.346691,9.281479,-2.1080933,-2.8886719,-13.589502,162.0
19782,7.0846024,-8.346691,9.281479,3.2327638,-2.2344728,-16.272144,162.0
19783,12.850361,-21.724983,9.850098,3.2327638,-2.2344728,-16.272144,162.0
19784,12.850361,-21.724983,9.850098,8.0596075,-3.2625,-15.688037,162.0
19785,24.131935,-44.07293,12.838306,8.0596075,-3.2625,-15.688037,162.0
19786,24.131935,-44.07293,12.838306,8.040491,-5.8219485,-8.535388,162.0
19787,19.788801,-32.56198,14.265057,8.040491,-5.8219485,-8.535388,162.0
19788,19.788801,-32.56198,14.265057,0.56392825,-5.8134522,-6.492078,162.0
19789,13.000488,-12.23938,18.933395,0.56392825,-5.8134522,-6.492078,162.0
19790,13.000488,-12.23938,18.933395,-7.071936,-2.1346436,-3.2009034,162.0
19791,-1.8285904,-6.860924,15.301865,-7.071936,-2.1346436,-3.2009034,162.0
19792,-1.8285904,-6.860924,15.301865,-11.352905,-2.1367676,-2.1303957,162.0
19793,-28.347906,-16.325325,-4.1701164,-11.352905,-2.1367676,-2.1303957,162.0
19794,-28.347906,-16.325325,-4.1701164,-13.777478,-0.43861085,-2.8599975,162.0
19795,-28.865337,-16.556488,-8.750988,-13.777478,-0.43861085,-2.8599975,162.0
19796,-28.865337,-16.556488,-8.750988,-13.60437,-0.22302246,-3.2763062,162.0
19797,-37.857445,-17.608688,-10.51059,-13.60437,-0.22302246,-3.2763062,162.0
19798,-37.857445,-17.608688,-10.51059,-8.892224,-1.6174439,-1.63125,162.0
19799,-45.348114,-15.761505,-6.3757095,-8.892224,-1.6174439,-1.63125,162.0
19800,-45.348114,-15.761505,-6.3757095,-0.58410645,-1.3413209,-1.2329956,162.0
19801,-41.400368,-7.9126816,-1.2828331,-0.58410645,-1.3413209,-1.2329956,162.0
19802,-41.400368,-7.9126816,-1.2828331,2.2928834,-0.6531372,0.65207523,162.0
19803,-28.452202,-0.49939728,2.3300934,2.2928834,-0.6531372,0.65207523,162.0
19804,-28.452202,-0.49939728,2.3300934,4.8310914,1.5208008,1.0535157,162.0
19805,-15.022577,0.39593506,2.4674911,4.8310914,1.5208008,1.0535157,162.0
19806,-15.022577,0.39593506,2.4674911,8.17218,2.2450929,3.3835695,162.0
19807,-5.698677,-1.522583,1.8587189,8.17218,2.2450929,3.3835695,162.0
19808,-5.698677,-1.522583,1.8587189,8.512024,2.5615723,4.1036134,162.0
19809,0.7012272,-3.67424,5.0513916,8.512024,2.5615723,4.1036134,162.0
19810,0.7012272,-3.67424,5.0513916,8.85824,3.7287233,4.704712,162.0
19811,7.535225,-4.782463,11.753872,8.85824,3.7287233,4.704712,162.0
19812,7.535225,-4.782463,11.753872,7.225928,6.231885,5.6424685,162.0
19813,14.497566,-4.0281296,17.556503,7.225928,6.231885,5.6424685,162.0
19814,14.497566,-4.0281296,17.556503,5.0403075,8.326172,5.945142,162.0
19815,20.665802,-2.7570648,17.64492,5.0403075,8.326172,5.945142,162.0
19816,20.665802,-2.7570648,17.64492,1.0577637,7.8928714,6.1086917,162.0
19817,28.498169,-2.7127075,10.511616,1.0577637,7.8928714,6.1086917,162.0
19818,28.498169,-2.7127075,10.511616,-5.3026247,6.1288695,4.8459597,162.0
19819,31.169373,-0.38404083,-3.5082703,-5.3026247,6.1288695,4.8459597,162.0
19820,31.169373,-0.38404083,-3.5082703,-10.875,8.416443,9.065332,162.0
19821,31.169373,-0.38404083,-3.5082703,-10.875,8.416443,9.065332,164.0
19822,21.42046,4.818428,-14.643993,-10.875,8.416443,9.065332,164.0
19823,21.42046,4.818428,-14.643993,-9.965919,2.710254,10.078491,164.0
19824,10.643803,10.416931,-17.63435,-9.965919,2.710254,10.078491,164.0
19825,10.643803,10.416931,-17.63435,-6.440039,-3.1233766,10.101855,164.0
19826,9.709635,17.276306,-19.207886,-6.440039,-3.1233766,10.101855,164.0
19827,9.709635,17.276306,-19.207886,-0.540564,-6.5515504,8.48866,164.0
19828,14.610628,35.70571,-21.610607,-0.540564,-6.5515504,8.48866,164.0
19829,14.610628,35.70571,-21.610607,0.07115479,-5.696631,4.912866,164.0
19830,8.136646,65.27597,-17.47865,0.07115479,-5.696631,4.912866,164.0
19831,8.136646,65.27597,-17.47865,-6.4644656,-2.6688354,-4.0292726,164.0
19832,0.33591652,53.24606,-9.616001,-6.4644656,-2.6688354,-4.0292726,164.0
19833,0.33591652,53.24606,-9.616001,-4.5432863,-2.5796266,-8.2167845,164.0
19834,-6.902214,30.656872,1.0401955,-4.5432863,-2.5796266,-8.2167845,164.0
19835,-6.902214,30.656872,1.0401955,-0.97280276,-1.9413575,-13.281519,164.0
19836,-2.3109932,5.781456,5.406925,-0.97280276,-1.9413575,-13.281519,164.0
19837,-2.3109932,5.781456,5.406925,1.088562,-1.6854126,-15.638123,164.0
19838,10.20842,-18.852737,7.069229,1.088562,-1.6854126,-15.638123,164.0
19839,10.20842,-18.852737,7.069229,6.427295,-3.1276245,-15.757068,164.0
19840,21.7698,-40.06565,8.947533,6.427295,-3.1276245,-15.757068,164.0
19841,21.7698,-40.06565,8.947533,9.823608,-2.4882934,-11.04386,164.0
19842,23.451473,-40.52349,11.811417,9.823608,-2.4882934,-11.04386,164.0
19843,23.451473,-40.52349,11.811417,-0.68924564,-4.7227664,-8.138196,164.0
19844,16.7691,-25.843063,15.797874,-0.68924564,-4.7227664,-8.138196,164.0
19845,16.7691,-25.843063,15.797874,-5.9345217,-0.83474123,-3.8476684,164.0
19846,-0.5955353,-15.877441,11.997334,-5.9345217,-0.83474123,-3.8476684,164.0
19847,-0.5955353,-15.877441,11.997334,-11.549377,-1.442212,-1.7576294,164.0
19848,-21.445581,-12.919357,-2.1941261,-11.549377,-1.442212,-1.7576294,164.0
19849,-21.445581,-12.919357,-2.1941261,-14.357337,-0.3791382,-1.5101807,164.0
19850,-33.926144,-14.224182,-12.050343,-14.357337,-0.3791382,-1.5101807,164.0
19851,-33.926144,-14.224182,-12.050343,-12.195081,0.45029297,-1.902063,164.0
19852,-44.582676,-15.654724,-10.100601,-12.195081,0.45029297,-1.902063,164.0
19853,-44.582676,-15.654724,-10.100601,-4.169458,-0.36533204,-0.53100586,164.0
19854,-48.623367,-12.377289,-4.7426147,-4.169458,-0.36533204,-0.53100586,164.0
19855,-48.623367,-12.377289,-4.7426147,0.6786255,0.29205322,-0.0637207,164.0
19856,-41.677345,-3.2613602,-1.4468155,0.6786255,0.29205322,-0.0637207,164.0
19857,-41.677345,-3.2613602,-1.4468155,2.3119996,0.98448485,1.5038086,164.0
19858,-29.278643,4.0397415,-1.2093048,2.3119996,0.98448485,1.5038086,164.0
19859,-29.278643,4.0397415,-1.2093048,4.636743,1.9466676,1.3264526,164.0
19860,-15.926613,4.450279,-1.4273796,4.636743,1.9466676,1.3264526,164.0
19861,-15.926613,4.450279,-1.4273796,5.6594605,2.2132325,2.6730835,164.0
19862,-5.5631657,-1.7676544,1.3064346,5.6594605,2.2132325,2.6730835,164.0
19863,-5.5631657,-1.7676544,1.3064346,6.2679935,2.345984,3.070276,164.0
19864,3.074541,-10.15181,7.485092,6.2679935,2.345984,3.070276,164.0
19865,3.074541,-10.15181,7.485092,7.0060916,3.2125854,4.882068,164.0
19866,10.943226,-12.81665,15.384876,7.0060916,3.2125854,4.882068,164.0
19867,10.943226,-12.81665,15.384876,4.5762086,5.3493533,7.0209594,164.0
19868,16.737333,-8.212494,18.944462,4.5762086,5.3493533,7.0209594,164.0
19869,16.737333,-8.212494,18.944462,1.1724609,6.9285645,8.227405,164.0
19870,23.181017,-7.116066,14.828945,1.1724609,6.9285645,8.227405,164.0
19871,23.181017,-7.116066,14.828945,-1.448584,6.3019776,8.120142,164.0
19872,29.916836,-7.8524857,6.4627876,-1.448584,6.3019776,8.120142,164.0
19873,29.916836,-7.8524857,6.4627876,-4.9341063,4.2119384,7.24292,164.0
19874,29.554184,1.6713638,-4.45129,-4.9341063,4.2119384,7.24292,164.0
19875,29.554184,1.6713638,-4.45129,-7.5487795,4.530542,9.373316,164.0
19876,19.640455,15.426445,-14.374092,-7.5487795,4.530542,9.373316,164.0
19877,19.640455,15.426445,-14.374092,-8.352722,-1.2627319,10.338684,164.0
19878,9.874339,23.833252,-21.058273,-8.352722,-1.2627319,10.338684,164.0
19879,9.874339,23.833252,-21.058273,-6.085327,-5.243152,7.76012,164.0
19880,6.852523,30.033615,-21.471924,-6.085327,-5.243152,7.76012,164.0
19881,6.852523,30.033615,-21.471924,-2.076233,-6.0481567,4.6611695,164.0
19882,6.3997793,38.988983,-13.2414665,-2.076233,-6.0481567,4.6611695,164.0
19883,6.3997793,38.988983,-13.2414665,-2.1187134,-5.950452,2.16969,164.0
19884,4.304223,44.266502,-3.470993,-2.1187134,-5.950452,2.16969,164.0
19885,4.304223,44.266502,-3.470993,-4.6505494,-3.3771973,-1.9764038,164.0
19886,-0.5542288,38.495564,0.80275726,-4.6505494,-3.3771973,-1.9764038,164.0
19887,-0.5542288,38.495564,0.80275726,-4.7365723,-1.3168945,-7.8026004,164.0
19888,-2.8329096,23.097927,0.6048279,-4.7365723,-1.3168945,-7.8026004,164.0
19889,-2.8329096,23.097927,0.6048279,-2.2079225,0.047790527,-11.524951,164.0
19890,0.9455986,5.5240707,-0.6365967,-2.2079225,0.047790527,-11.524951,164.0
19891,0.9455986,5.5240707,-0.6365967,-0.28674316,1.3360108,-13.368604,164.0
19892,7.1376553,-10.136665,1.0902939,-0.28674316,1.3360108,-13.368604,164.0
19893,7.1376553,-10.136665,1.0902939,1.4262818,2.088977,-14.413623,164.0
19894,14.397137,-28.153732,6.3471985,1.4262818,2.088977,-14.413623,164.0
19895,14.397137,-28.153732,6.3471985,9.379687,2.2812011,-11.815943,164.0
19896,15.321432,-37.38542,10.791077,9.379687,2.2812011,-11.815943,164.0
19897,15.321432,-37.38542,10.791077,10.444885,-4.065381,-10.33125,164.0
19898,14.708611,-28.319664,10.451157,10.444885,-4.065381,-10.33125,164.0
19899,14.708611,-28.319664,10.451157,-0.26125488,-3.882715,-8.543884,164.0
19900,13.994001,-18.939804,7.1674576,-0.26125488,-3.882715,-8.543884,164.0
19901,13.994001,-18.939804,7.1674576,-6.5674806,-1.0662597,-2.5594482,164.0
19902,0.69018555,-18.711243,0.77244186,-6.5674806,-1.0662597,-2.5594482,164.0
19903,0.69018555,-18.711243,0.77244186,-9.050464,-2.5530763,-1.4252198,164.0
19904,-16.436914,-17.60102,-7.388176,-9.050464,-2.5530763,-1.4252198,164.0
19905,-16.436914,-17.60102,-7.388176,-9.541114,-1.7990478,-1.3349488,164.0
19906,-29.391035,-11.265625,-8.217533,-9.541114,-1.7990478,-1.3349488,164.0
19907,-29.391035,-11.265625,-8.217533,-9.596338,-2.88761,-1.7894897,164.0
19908,-42.082077,-6.7192154,-3.80962,-9.596338,-2.88761,-1.7894897,164.0
19909,-42.082077,-6.7192154,-3.80962,-7.889685,-1.3827393,-0.30267334,164.0
19910,-46.93123,-9.383575,0.41651154,-7.889685,-1.3827393,-0.30267334,164.0
19911,-46.93123,-9.383575,0.41651154,-1.9084351,-0.10089111,-1.264856,164.0
19912,-39.26278,-11.09182,4.178604,-1.9084351,-0.10089111,-1.264856,164.0
19913,-39.26278,-11.09182,4.178604,2.5658205,0.9696167,2.0656128,164.0
19914,-25.918049,-5.078308,4.892002,2.5658205,0.9696167,2.0656128,164.0
19915,-25.918049,-5.078308,4.892002,5.170935,2.3895264,3.4664063,164.0
19916,-13.038357,3.8287811,2.0299454,5.170935,2.3895264,3.4664063,164.0
19917,-13.038357,3.8287811,2.0299454,5.4576783,2.8589356,4.1652102,164.0
19918,-4.1696396,6.889099,0.11326218,5.4576783,2.8589356,4.1652102,164.0
19919,-4.1696396,6.889099,0.11326218,5.520337,3.3835695,4.2278686,164.0
19920,2.7150955,0.67832184,2.7781372,5.520337,3.3835695,4.2278686,164.0
19921,2.7150955,0.67832184,2.7781372,5.520337,3.3835695,4.2278686,166.0
19922,2.7150955,0.67832184,2.7781372,5.423694,4.5677123,5.534143,166.0
19923,10.075909,-7.6327515,9.329735,5.423694,4.5677123,5.534143,166.0
19924,10.075909,-7.6327515,9.329735,3.5715454,6.2743654,7.1016726,166.0
19925,18.620907,-12.711372,14.927143,3.5715454,6.2743654,7.1016726,166.0
19926,18.620907,-12.711372,14.927143,1.2531738,6.491016,7.9608397,166.0
19927,28.90023,-15.029488,13.910561,1.2531738,6.491016,7.9608397,166.0
19928,28.90023,-15.029488,13.910561,-2.804773,3.5619874,7.4765625,166.0
19929,34.78304,-8.235672,2.4903488,-2.804773,3.5619874,7.4765625,166.0
19930,34.78304,-8.235672,2.4903488,-6.632263,4.2554812,9.958484,166.0
19931,28.02726,7.5702515,-11.565571,-6.632263,4.2554812,9.958484,166.0
19932,28.02726,7.5702515,-11.565571,-7.2832766,-0.050976563,11.321045,166.0
19933,15.25832,20.502625,-18.215813,-7.2832766,-0.050976563,11.321045,166.0
19934,15.25832,20.502625,-18.215813,-7.4861207,-4.5645266,10.33656,166.0
19935,8.148429,30.45366,-17.82663,-7.4861207,-4.5645266,10.33656,166.0
19936,8.148429,30.45366,-17.82663,-9.432788,-7.0921144,6.581287,166.0
19937,6.85429,42.125023,-11.861221,-9.432788,-7.0921144,6.581287,166.0
19938,6.85429,42.125023,-11.861221,-1.5059327,-6.6917357,1.5250489,166.0
19939,5.567734,52.04519,-1.83638,-1.5059327,-6.6917357,1.5250489,166.0
19940,5.567734,52.04519,-1.83638,0.44604492,-3.6639404,-2.1463258,166.0
19941,0.14897537,51.985043,4.126053,0.44604492,-3.6639404,-2.1463258,166.0
19942,0.14897537,51.985043,4.126053,-0.70305175,-1.1384766,-10.154956,166.0
19943,-2.7526827,36.137375,1.1342888,-0.70305175,-1.1384766,-10.154956,166.0
19944,-2.7526827,36.137375,1.1342888,-3.5927856,-0.8963379,-13.675525,166.0
19945,3.987709,9.159939,-4.700798,-3.5927856,-0.8963379,-13.675525,166.0
19946,3.987709,9.159939,-4.700798,-1.1841431,1.5537232,-14.683374,166.0
19947,15.221294,-21.089188,-3.7901764,-1.1841431,1.5537232,-14.683374,166.0
19948,15.221294,-21.089188,-3.7901764,4.229993,1.4761963,-14.065284,166.0
19949,21.041233,-45.88674,1.1583977,4.229993,1.4761963,-14.065284,166.0
19950,21.041233,-45.88674,1.1583977,13.723315,0.88040775,-11.858423,166.0
19951,16.940495,-44.953293,3.5357628,13.723315,0.88040775,-11.858423,166.0
19952,16.940495,-44.953293,3.5357628,5.156067,-5.8166385,-7.6443605,166.0
19953,10.361027,-24.17308,4.5123863,5.156067,-5.8166385,-7.6443605,166.0
19954,10.361027,-24.17308,4.5123863,-6.591907,-0.9802368,-3.5694215,166.0
19955,0.56516457,-11.987343,4.811825,-6.591907,-0.9802368,-3.5694215,166.0
19956,0.56516457,-11.987343,4.811825,-9.822547,-0.016992187,-1.9594116,166.0
19957,-14.94046,-10.034126,0.72712326,-9.822547,-0.016992187,-1.9594116,166.0
19958,-14.94046,-10.034126,0.72712326,-12.003919,0.72216797,-1.720459,166.0
19959,-25.538904,-9.257782,-5.6148224,-12.003919,0.72216797,-1.720459,166.0
19960,-25.538904,-9.257782,-5.6148224,-11.512207,1.173523,-1.5579712,166.0
19961,-29.787094,-8.129906,-8.031643,-11.512207,1.173523,-1.5579712,166.0
19962,-29.787094,-8.129906,-8.031643,-9.653687,0.3791382,-1.8585205,166.0
19963,-33.28534,-6.098625,-5.9266815,-9.653687,0.3791382,-1.8585205,166.0
19964,-33.28534,-6.098625,-5.9266815,-5.853809,-0.046728518,-0.0998291,166.0
19965,-35.09927,-3.2872467,-3.3496208,-5.853809,-0.046728518,-0.0998291,166.0
19966,-35.09927,-3.2872467,-3.3496208,-2.992749,0.12531738,0.047790527,166.0
19967,-32.065853,-2.484047,-2.7284508,-2.992749,0.12531738,0.047790527,166.0
19968,-32.065853,-2.484047,-2.7284508,-0.13168946,0.68499756,0.8326172,166.0
19969,-23.964268,-5.063957,-3.0854568,-0.13168946,0.68499756,0.8326172,166.0
19970,-23.964268,-5.063957,-3.0854568,3.9432495,1.1841431,2.0433106,166.0
19971,-14.50065,-5.975563,-3.1132889,3.9432495,1.1841431,2.0433106,166.0
19972,-14.50065,-5.975563,-3.1132889,6.8096194,1.2372437,4.0112185,166.0
19973,-8.54117,-2.45755,-3.0640564,6.8096194,1.2372437,4.0112185,166.0
19974,-8.54117,-2.45755,-3.0640564,8.085095,0.7519043,5.5649414,166.0
19975,-4.5402374,0.890892,-1.4921494,8.085095,0.7519043,5.5649414,166.0
19976,-4.5402374,0.890892,-1.4921494,8.870984,1.725769,6.575977,166.0
19977,1.5202999,-2.0608673,3.587677,8.870984,1.725769,6.575977,166.0
19978,1.5202999,-2.0608673,3.587677,10.131592,3.158423,7.795166,166.0
19979,10.662029,-8.545654,12.377148,10.131592,3.158423,7.795166,166.0
19980,10.662029,-8.545654,12.377148,11.148999,5.1900516,7.1048584,166.0
19981,21.735947,-11.162979,23.898056,11.148999,5.1900516,7.1048584,166.0
19982,21.735947,-11.162979,23.898056,7.8440185,3.4186158,4.223621,166.0
19983,31.390722,-1.9900894,24.669521,7.8440185,3.4186158,4.223621,166.0
19984,31.390722,-1.9900894,24.669521,-9.083386,4.346814,5.4757323,166.0
19985,29.952312,8.746819,7.0978966,-9.083386,4.346814,5.4757323,166.0
19986,29.952312,8.746819,7.0978966,-17.011305,7.778174,10.550025,166.0
19987,15.881137,8.343658,-7.934082,-17.011305,7.778174,10.550025,166.0
19988,15.881137,8.343658,-7.934082,-12.871582,-1.6620483,9.914942,166.0
19989,7.2546415,7.25737,-10.936108,-12.871582,-1.6620483,9.914942,166.0
19990,7.2546415,7.25737,-10.936108,-4.6643558,-6.4878297,8.094653,166.0
19991,10.617507,18.392273,-10.364647,-4.6643558,-6.4878297,8.094653,166.0
19992,10.617507,18.392273,-10.364647,2.4840455,-6.9158206,5.221912,166.0
19993,14.158715,41.790863,-10.722599,2.4840455,-6.9158206,5.221912,166.0
19994,14.158715,41.790863,-10.722599,2.1951783,-4.6739135,3.7319093,166.0
19995,8.112751,56.305283,-10.822014,2.1951783,-4.6739135,3.7319093,166.0
19996,8.112751,56.305283,-10.822014,-3.4133058,-2.0146363,-1.263794,166.0
19997,-3.8708706,46.533596,-7.892353,-3.4133058,-2.0146363,-1.263794,166.0
19998,-3.8708706,46.533596,-7.892353,-3.625708,-0.93775636,-7.8599486,166.0
19999,-9.203117,22.170555,-3.4622116,-3.625708,-0.93775636,-7.8599486,166.0
20000,-9.203117,22.170555,-3.4622116,-1.4602661,0.67225343,-10.756055,166.0
20001,-4.085578,-1.4655075,-1.5276451,-1.4602661,0.67225343,-10.756055,166.0
20002,-4.085578,-1.4655075,-1.5276451,1.3721192,0.5968506,-11.649207,166.0
20003,6.7099924,-23.057732,0.40127182,1.3721192,0.5968506,-11.649207,166.0
20004,6.7099924,-23.057732,0.40127182,7.2333617,1.6556762,-10.731628,166.0
20005,12.6839485,-37.985565,6.3105316,7.2333617,1.6556762,-10.731628,166.0
20006,12.6839485,-37.985565,6.3105316,13.095667,-0.2984253,-9.234192,166.0
20007,12.197439,-32.662827,13.033707,13.095667,-0.2984253,-9.234192,166.0
20008,12.197439,-32.662827,13.033707,1.5993897,-3.4918945,-8.5290165,166.0
20009,11.805962,-18.731117,14.098915,1.5993897,-3.4918945,-8.5290165,166.0
20010,11.805962,-18.731117,14.098915,-7.5625854,1.4199097,-5.306873,166.0
20011,4.230852,-13.876465,9.618488,-7.5625854,1.4199097,-5.306873,166.0
20012,4.230852,-13.876465,9.618488,-8.685132,0.79332274,-2.7378662,166.0
20013,-10.769016,-12.469009,1.753006,-8.685132,0.79332274,-2.7378662,166.0
20014,-10.769016,-12.469009,1.753006,-9.0886965,0.6573853,-2.3311157,166.0
20015,-21.571146,-7.362404,-5.7219734,-9.0886965,0.6573853,-2.3311157,166.0
20016,-21.571146,-7.362404,-5.7219734,-11.120325,1.268042,-2.1112792,166.0
20017,-27.32712,-1.136795,-9.720123,-11.120325,1.268042,-2.1112792,166.0
20018,-27.32712,-1.136795,-9.720123,-11.959314,0.15080567,-1.989148,166.0
20019,-27.32712,-1.136795,-9.720123,-11.959314,0.15080567,-1.989148,156.0
20020,-32.847046,1.2768402,-10.661461,-11.959314,0.15080567,-1.989148,156.0
20021,-32.847046,1.2768402,-10.661461,-9.212952,0.1996582,-0.81987303,156.0
20022,-35.283924,-1.1869278,-9.6058655,-9.212952,0.1996582,-0.81987303,156.0
20023,-35.283924,-1.1869278,-9.6058655,-2.4213867,0.008496094,-1.8510865,156.0
20024,-28.133282,-3.5272903,-7.2050285,-2.4213867,0.008496094,-1.8510865,156.0
20025,-28.133282,-3.5272903,-7.2050285,0.84536135,0.11044922,-1.4390259,156.0
20026,-15.382797,-3.736679,-4.727146,0.84536135,0.11044922,-1.4390259,156.0
20027,-15.382797,-3.736679,-4.727146,2.1909301,0.996167,0.4163086,156.0
20028,-6.7785034,-3.9022598,-4.279045,2.1909301,0.996167,0.4163086,156.0
20029,-6.7785034,-3.9022598,-4.279045,5.6753907,0.6531372,2.0337524,156.0
20030,-4.3722153,-3.5801773,-5.635334,5.6753907,0.6531372,2.0337524,156.0
20031,-4.3722153,-3.5801773,-5.635334,8.043677,-0.70305175,3.6873047,156.0
20032,-2.4279976,-3.1523285,-5.162163,8.043677,-0.70305175,3.6873047,156.0
20033,-2.4279976,-3.1523285,-5.162163,9.18534,-0.52038574,5.0509276,156.0
20034,3.824667,-4.171936,-0.02892685,9.18534,-0.52038574,5.0509276,156.0
20035,3.824667,-4.171936,-0.02892685,10.332313,0.7147339,5.618042,156.0
20036,14.026224,-5.8647842,10.224758,10.332313,0.7147339,5.618042,156.0
20037,14.026224,-5.8647842,10.224758,10.280273,2.4882934,4.003784,156.0
20038,24.716526,-5.6164856,21.90123,10.280273,2.4882934,4.003784,156.0
20039,24.716526,-5.6164856,21.90123,5.4725466,0.6244629,2.2270386,156.0
20040,32.00601,0.19255829,20.575756,5.4725466,0.6244629,2.2270386,156.0
20041,32.00601,0.19255829,20.575756,-7.2269897,3.0161133,3.0543458,156.0
20042,27.67114,6.6579895,4.774349,-7.2269897,3.0161133,3.0543458,156.0
20043,27.67114,6.6579895,4.774349,-9.490137,4.071753,7.886499,156.0
20044,12.50897,6.1645126,-7.681072,-9.490137,4.071753,7.886499,156.0
20045,12.50897,6.1645126,-7.681072,-3.6819947,-1.2372437,7.3873534,156.0
20046,2.642943,4.4601517,-10.120483,-3.6819947,-1.2372437,7.3873534,156.0
20047,2.642943,4.4601517,-10.120483,0.9834229,-3.2911744,6.271179,156.0
20048,3.1331897,9.558945,-8.030289,0.9834229,-3.2911744,6.271179,156.0
20049,3.1331897,9.558945,-8.030289,3.344275,-2.9449584,6.3423343,156.0
20050,4.088009,27.566414,-8.452675,3.344275,-2.9449584,6.3423343,156.0
20051,4.088009,27.566414,-8.452675,1.7714356,-2.89823,2.1643798,156.0
20052,-0.65348244,50.281258,-11.693317,1.7714356,-2.89823,2.1643798,156.0
20053,-0.65348244,50.281258,-11.693317,-6.6365113,-0.81668705,1.983838,156.0
20054,-7.8696733,47.43779,-11.810074,-6.6365113,-0.81668705,1.983838,156.0
20055,-7.8696733,47.43779,-11.810074,-8.11908,1.1480347,-4.799231,156.0
20056,-10.05266,23.0526,-5.6282463,-8.11908,1.1480347,-4.799231,156.0
20057,-10.05266,23.0526,-5.6282463,4.789673,0.3090454,-10.496924,156.0
20058,-10.05266,23.0526,-5.6282463,1.721521,-0.47684327,-12.897071,156.0
20059,-4.2588396,7.8459625,1.1765175,1.721521,-0.47684327,-12.897071,156.0
20060,7.348995,-0.6097412,1.8530426,1.721521,-0.47684327,-12.897071,156.0
20061,7.348995,-0.6097412,1.8530426,1.1140503,-1.3476928,-13.359046,156.0
20062,19.276072,-17.435043,4.432289,1.1140503,-1.3476928,-13.359046,156.0
20063,19.276072,-17.435043,4.432289,6.9508667,-3.7446535,-11.146875,156.0
20064,26.45101,-32.820045,9.521599,6.9508667,-3.7446535,-11.146875,156.0
20065,26.45101,-32.820045,9.521599,7.9491577,-7.0953,-9.637756,156.0
20066,27.513481,-31.942574,8.95882,7.9491577,-7.0953,-9.637756,156.0
20067,27.513481,-31.942574,8.95882,0.24001466,-7.161145,-6.9391847,156.0
20068,21.881048,-24.321907,7.7028503,0.24001466,-7.161145,-6.9391847,156.0
20069,21.881048,-24.321907,7.7028503,-1.273352,-3.0192993,-1.7905518,156.0
20070,8.797882,-16.251823,8.640282,-1.273352,-3.0192993,-1.7905518,156.0
20071,8.797882,-16.251823,8.640282,-5.340857,-3.2858644,0.3430298,156.0
20072,-6.8637447,-7.0861816,6.8194275,-5.340857,-3.2858644,0.3430298,156.0
20073,-6.8637447,-7.0861816,6.8194275,-9.063209,0.32285157,0.53100586,156.0
20074,-18.87547,-2.9256592,2.1898804,-9.063209,0.32285157,0.53100586,156.0
20075,-18.87547,-2.9256592,2.1898804,-11.020495,1.5611572,-0.0998291,156.0
20076,-26.705662,-4.0426865,-1.8764877,-11.020495,1.5611572,-0.0998291,156.0
20077,-26.705662,-4.0426865,-1.8764877,-11.728858,-0.15930176,-0.9494385,156.0
20078,-31.31553,-6.626274,-4.184101,-11.728858,-0.15930176,-0.9494385,156.0
20079,-31.31553,-6.626274,-4.184101,-10.436389,-0.39400634,-0.69136965,156.0
20080,-33.991474,-9.461136,-4.9123573,-10.436389,-0.39400634,-0.69136965,156.0
20081,-33.991474,-9.461136,-4.9123573,-6.2063966,0.4248047,-0.3462158,156.0
20082,-29.784195,-12.457703,-5.3878098,-6.2063966,0.4248047,-0.3462158,156.0
20083,-29.784195,-12.457703,-5.3878098,-1.1820191,0.97280276,0.20284425,156.0
20084,-18.227003,-13.265602,-5.9542313,-1.1820191,0.97280276,0.20284425,156.0
20085,-18.227003,-13.265602,-5.9542313,1.9625977,0.7391602,1.9371094,156.0
20086,-8.3164425,-9.551895,-5.6844406,1.9625977,0.7391602,1.9371094,156.0
20087,-8.3164425,-9.551895,-5.6844406,4.5528445,0.49489745,3.6044679,156.0
20088,-3.9577065,-2.061386,-4.0551567,4.5528445,0.49489745,3.6044679,156.0
20089,-3.9577065,-2.061386,-4.0551567,6.0258546,0.019116212,4.969153,156.0
20090,-2.2562656,5.0340347,-1.273262,6.0258546,0.019116212,4.969153,156.0
20091,-2.2562656,5.0340347,-1.273262,6.7522707,0.28780517,5.2983766,156.0
20092,0.20984268,6.9378586,1.355732,6.7522707,0.28780517,5.2983766,156.0
20093,0.20984268,6.9378586,1.355732,7.0209594,1.6875366,5.407764,156.0
20094,5.285098,1.9160004,3.8834267,7.0209594,1.6875366,5.407764,156.0
20095,5.285098,1.9160004,3.8834267,8.741419,2.8823,6.5600467,156.0
20096,14.516274,-5.40432,8.862358,8.741419,2.8823,6.5600467,156.0
20097,14.516274,-5.40432,8.862358,13.489673,1.5940796,3.9687378,156.0
20098,26.013424,-3.6031647,16.890266,13.489673,1.5940796,3.9687378,156.0
20099,26.013424,-3.6031647,16.890266,8.14563,-1.3954834,2.6518433,156.0
20100,34.18934,6.4980316,16.840363,8.14563,-1.3954834,2.6518433,156.0
20101,34.18934,6.4980316,16.840363,-6.1118774,5.356787,4.3669925,156.0
20102,27.951815,10.9722595,6.66444,-6.1118774,5.356787,4.3669925,156.0
20103,27.951815,10.9722595,6.66444,-7.435144,4.3797364,6.780945,156.0
20104,11.198512,8.402023,-4.188797,-7.435144,4.3797364,6.780945,156.0
20105,11.198512,8.402023,-4.188797,-4.2767215,-0.62552494,6.982727,156.0
20106,1.5783777,6.754181,-11.7042465,-4.2767215,-0.62552494,6.982727,156.0
20107,1.5783777,6.754181,-11.7042465,-0.09133301,-0.3971924,7.8089724,156.0
20108,-1.8349056,10.7176895,-13.330147,-0.09133301,-0.3971924,7.8089724,156.0
20109,-1.8349056,10.7176895,-13.330147,2.357666,-1.0057251,7.071936,156.0
20110,-6.0462685,21.834358,-11.70269,2.357666,-1.0057251,7.071936,156.0
20111,-6.0462685,21.834358,-11.70269,2.0709229,-0.7391602,4.1429076,156.0
20112,-10.844217,34.066544,-10.203426,2.0709229,-0.7391602,4.1429076,156.0
20113,-10.844217,34.066544,-10.203426,-1.5431031,-0.19116211,3.2614381,156.0
20114,-15.491536,37.21731,-9.693794,-1.5431031,-0.19116211,3.2614381,156.0
20115,-15.491536,37.21731,-9.693794,-4.783301,-0.2262085,-0.63720703,156.0
20116,-15.491536,37.21731,-9.693794,-4.783301,-0.2262085,-0.63720703,149.0
20117,-17.929985,26.77668,-9.237251,-4.783301,-0.2262085,-0.63720703,149.0
20118,-17.929985,26.77668,-9.237251,-3.6681886,0.57561034,-4.619751,149.0
20119,-14.631219,9.780853,-7.052923,-3.6681886,0.57561034,-4.619751,149.0
20120,-14.631219,9.780853,-7.052923,0.29630128,0.8336792,-7.890747,149.0
20121,-5.922065,-3.4244537,-3.0267391,0.29630128,0.8336792,-7.890747,149.0
20122,-5.922065,-3.4244537,-3.0267391,1.7905518,0.5299439,-9.138611,149.0
20123,5.155024,-15.190834,2.651741,1.7905518,0.5299439,-9.138611,149.0
20124,5.155024,-15.190834,2.651741,0.24851075,0.20603028,-5.869739,149.0
20125,13.87961,-28.752495,8.029121,0.24851075,0.20603028,-5.869739,149.0
20126,13.87961,-28.752495,8.029121,-2.6943238,-0.29736328,-5.166687,149.0
20127,15.285536,-35.499786,9.6716,-2.6943238,-0.29736328,-5.166687,149.0
20128,15.285536,-35.499786,9.6716,-6.859534,-0.31435546,-3.9400635,149.0
20129,10.611693,-30.259827,5.379162,-6.859534,-0.31435546,-3.9400635,149.0
20130,10.611693,-30.259827,5.379162,-11.601417,-0.6775635,-1.075818,149.0
20131,3.1395378,-18.30394,-1.3129082,-11.601417,-0.6775635,-1.075818,149.0
20132,3.1395378,-18.30394,-1.3129082,-13.106287,-0.21346436,0.8931519,149.0
20133,-5.545169,-10.095215,-3.4227371,-13.106287,-0.21346436,0.8931519,149.0
20134,-5.545169,-10.095215,-3.4227371,-5.792212,0.06478272,2.2780151,149.0
20135,-12.959781,-4.7203674,1.6910706,-5.792212,0.06478272,2.2780151,149.0
20136,-12.959781,-4.7203674,1.6910706,2.8631837,0.8421753,0.8336792,149.0
20137,-17.275478,6.6484375,8.529713,2.8631837,0.8421753,0.8336792,149.0
20138,-17.275478,6.6484375,8.529713,-0.77102053,0.8007569,2.6752076,149.0
20139,-17.25748,16.86473,7.8274193,-0.77102053,0.8007569,2.6752076,149.0
20140,-17.25748,16.86473,7.8274193,-6.164978,1.8011719,2.2737672,149.0
20141,-15.689309,16.855492,0.81230164,-6.164978,1.8011719,2.2737672,149.0
20142,-15.689309,16.855492,0.81230164,-7.0814943,1.3402588,0.43011475,149.0
20143,-14.710444,11.129791,-5.272255,-7.0814943,1.3402588,0.43011475,149.0
20144,-14.710444,11.129791,-5.272255,-6.527124,0.544812,-0.28780517,149.0
20145,-12.073971,7.6919327,-7.234371,-6.527124,0.544812,-0.28780517,149.0
20146,-12.073971,7.6919327,-7.234371,-7.230176,-0.31966552,-1.4953126,149.0
20147,-12.073971,7.6919327,-7.234371,-5.888855,-1.1469727,-3.073462,149.0
20148,-7.972824,4.7998886,-6.4075394,-5.888855,-1.1469727,-3.073462,149.0
20149,2.1689453,-7.3104553,-1.4219666,-5.888855,-1.1469727,-3.073462,149.0
20150,2.1689453,-7.3104553,-1.4219666,-0.3164795,-1.8011719,-2.538208,149.0
20151,2.1689453,-7.3104553,-1.4219666,3.9634278,-1.176709,-2.6571534,149.0
20152,2.1689453,-7.3104553,-1.4219666,2.8270752,0.32709962,-2.981067,149.0
20153,8.98689,-2.2457504,-5.794777,2.8270752,0.32709962,-2.981067,149.0
20154,8.98689,-2.2457504,-5.794777,0.47684327,-0.9494385,-4.1928225,149.0
20155,24.548008,0.18878937,-14.57193,0.47684327,-0.9494385,-4.1928225,149.0
20156,24.548008,0.18878937,-14.57193,-3.0511596,-2.2334106,-6.070459,149.0
20157,34.88771,0.6299057,-17.373573,-3.0511596,-2.2334106,-6.070459,149.0
20158,34.88771,0.6299057,-17.373573,0.14868164,2.1526978,-1.4071655,149.0
20159,18.588928,-0.91000366,-8.388592,0.14868164,2.1526978,-1.4071655,149.0
20160,18.588928,-0.91000366,-8.388592,1.3678712,-1.3859253,-2.6444092,149.0
20161,-4.984387,-0.6632538,2.5792885,1.3678712,-1.3859253,-2.6444092,149.0
20162,-4.984387,-0.6632538,2.5792885,2.89292,-0.15186767,-1.9562256,149.0
20163,-15.593967,1.2202835,6.9941673,2.89292,-0.15186767,-1.9562256,149.0
20164,-15.593967,1.2202835,6.9941673,3.8243043,-0.4895874,-0.998291,149.0
20165,-16.421696,3.284439,7.4065285,3.8243043,-0.4895874,-0.998291,149.0
20166,-16.421696,3.284439,7.4065285,3.9400635,-0.6701294,-0.48533937,149.0
20167,-13.194326,5.066002,7.722355,3.9400635,-0.6701294,-0.48533937,149.0
20168,-13.194326,5.066002,7.722355,3.3761353,-0.5129517,-0.54693604,149.0
20169,-9.340324,6.01033,6.839943,3.3761353,-0.5129517,-0.54693604,149.0
20170,-9.340324,6.01033,6.839943,2.8812377,-0.724292,-0.1996582,149.0
20171,-6.5808287,5.5480957,4.3853455,2.8812377,-0.724292,-0.1996582,149.0
20172,-6.5808287,5.5480957,4.3853455,3.062842,-0.9228882,-0.3536499,149.0
20173,-4.678811,4.3807755,2.4946175,3.062842,-0.9228882,-0.3536499,149.0
20174,-4.678811,4.3807755,2.4946175,2.3417358,-1.1204224,-0.92501223,149.0
20175,-2.0247145,2.7181854,1.5311203,2.3417358,-1.1204224,-0.92501223,149.0
20176,-2.0247145,2.7181854,1.5311203,1.5080566,-0.79969484,-1.5898316,149.0
20177,1.6209879,-0.34749603,-0.3606987,1.5080566,-0.79969484,-1.5898316,149.0
20178,1.6209879,-0.34749603,-0.3606987,1.1883911,0.047790527,-1.5038086,149.0
20179,6.430299,-5.6719284,-2.529892,1.1883911,0.047790527,-1.5038086,149.0
20180,6.430299,-5.6719284,-2.529892,1.3689331,0.19647217,-1.5208008,149.0
20181,14.485096,-8.538055,-1.271595,1.3689331,0.19647217,-1.5208008,149.0
20182,14.485096,-8.538055,-1.271595,2.536084,-0.42905274,-1.5813354,149.0
20183,21.358852,-5.088295,1.5985222,2.536084,-0.42905274,-1.5813354,149.0
20184,21.358852,-5.088295,1.5985222,1.0099732,-0.053100586,-0.010620117,149.0
20185,17.882006,-1.9232712,1.1043205,1.0099732,-0.053100586,-0.010620117,149.0
20186,17.882006,-1.9232712,1.1043205,-1.174585,-0.38975832,-0.62127686,149.0
20187,6.9979134,-3.8782272,-0.9478798,-1.174585,-0.38975832,-0.62127686,149.0
20188,6.9979134,-3.8782272,-0.9478798,-0.13381349,-0.70305175,-1.1374146,149.0
20189,-2.845749,-4.8397293,-0.02015686,-0.13381349,-0.70305175,-1.1374146,149.0
20190,-2.845749,-4.8397293,-0.02015686,-0.19222413,0.083898924,-1.264856,149.0
20191,-9.187622,-2.2259827,2.9856453,-0.19222413,0.083898924,-1.264856,149.0
20192,-9.187622,-2.2259827,2.9856453,-2.7378662,0.12850343,-1.7363892,149.0
20193,-10.641223,-2.1394272,3.960537,-2.7378662,0.12850343,-1.7363892,149.0
20194,-10.641223,-2.1394272,3.960537,-4.7397585,1.0471436,-1.3891114,149.0
20195,-8.335354,-6.421921,-0.3326187,-4.7397585,1.0471436,-1.3891114,149.0
20196,-8.335354,-6.421921,-0.3326187,-2.2079225,1.2786621,0.29736328,149.0
