,accx,accy,accz,gyrox,gyroy,gyroz,heart rate
20523,run,run,run,run,run,run,run
20524,-2.5197792,2.5643768,-7.1250076,0.057348635,-0.0063720704,-0.039294433,113.0
20525,-2.0172393,2.067955,-5.6966133,0.057348635,-0.0063720704,-0.039294433,113.0
20526,-2.0172393,2.067955,-5.6966133,-0.03717041,0.016992187,-0.115759276,113.0
20527,-1.6146584,1.6598663,-4.556961,-0.03717041,0.016992187,-0.115759276,113.0
20528,-1.6146584,1.6598663,-4.556961,0.035046387,0.0021240234,-0.043542482,113.0
20529,-1.6146584,1.6598663,-4.556961,0.10938721,-0.0021240234,0.015930176,113.0
20530,-2.4559114,-1.2861176,3.5725098,0.10938721,-0.0021240234,0.015930176,113.0
20531,-2.036702,-0.95770264,2.948021,0.10938721,-0.0021240234,0.015930176,113.0
20532,-2.036702,-0.95770264,2.948021,-0.007434082,-0.014868164,0.039294433,113.0
20533,-2.036702,-0.95770264,2.948021,-0.13381349,-0.039294433,0.0180542,113.0
20534,-1.7032019,-0.72216034,2.4564743,-0.13381349,-0.039294433,0.0180542,113.0
20535,-1.3623052,-0.7002411,1.9460869,-0.13381349,-0.039294433,0.0180542,113.0
20536,-1.3623052,-0.7002411,1.9460869,-0.0361084,-0.07434082,0.0180542,113.0
20537,-1.0168462,-0.72470856,1.5194206,-0.0361084,-0.07434082,0.0180542,113.0
20538,-1.0168462,-0.72470856,1.5194206,0.052038576,-0.06584473,0.0180542,113.0
20539,-0.7285526,-0.60227966,1.2673302,0.052038576,-0.06584473,0.0180542,113.0
20540,-0.7285526,-0.60227966,1.2673302,0.08071289,-0.04991455,-0.007434082,113.0
20541,-0.5276297,-0.33275604,1.1315384,0.08071289,-0.04991455,-0.007434082,113.0
20542,-0.5276297,-0.33275604,1.1315384,0.03717041,-0.014868164,-0.05628662,113.0
20543,-0.5276297,-0.33275604,1.1315384,-0.08283692,0.028674318,-0.11363526,113.0
20544,-0.4116789,-0.13854218,0.9859543,-0.08283692,0.028674318,-0.11363526,113.0
20545,-0.3247655,-0.16736603,0.7430725,-0.08283692,0.028674318,-0.11363526,113.0
20546,-0.3247655,-0.16736603,0.7430725,-0.053100586,0.047790527,-0.093457036,113.0
20547,-0.24864298,-0.2155304,0.49339294,-0.053100586,0.047790527,-0.093457036,113.0
20548,-0.24864298,-0.2155304,0.49339294,-0.045666505,0.06796875,-0.025488282,113.0
20549,-0.24864298,-0.2155304,0.49339294,0.028674318,0.0637207,0.019116212,113.0
20550,-0.19795004,-0.19078827,0.32715988,0.028674318,0.0637207,0.019116212,113.0
20551,-0.22071356,-0.1753006,0.24247742,0.028674318,0.0637207,0.019116212,113.0
20552,-0.22071356,-0.1753006,0.24247742,0.09239502,0.028674318,0.18479005,113.0
20553,-0.28244242,-0.24900818,0.21355057,0.09239502,0.028674318,0.18479005,113.0
20554,-0.28244242,-0.24900818,0.21355057,0.27293703,-0.027612304,0.4725952,113.0
20555,-0.14207943,-0.58940125,0.120121,0.27293703,-0.027612304,0.4725952,113.0
20556,-0.14207943,-0.58940125,0.120121,0.6711914,-0.13168946,0.06478272,113.0
20557,-0.031583473,-0.6668472,-0.0357399,0.6711914,-0.13168946,0.06478272,113.0
20558,-0.031583473,-0.6668472,-0.0357399,0.4343628,-0.1539917,0.1709839,113.0
20559,-0.1442121,-0.16382599,-0.101566315,0.4343628,-0.1539917,0.1709839,113.0
20560,-0.1442121,-0.16382599,-0.101566315,0.24320069,-0.13381349,0.22514649,113.0
20561,-0.1926768,0.41984558,-0.04140854,0.24320069,-0.13381349,0.22514649,113.0
20562,-0.1926768,0.41984558,-0.04140854,-0.070092775,-0.13062744,0.17735596,113.0
20563,-0.21686116,0.5799637,0.009304047,-0.070092775,-0.13062744,0.17735596,113.0
20564,-0.21686116,0.5799637,0.009304047,-0.3334717,-0.10620117,0.10089111,113.0
20565,-0.2611232,0.25489807,0.024253845,-0.3334717,-0.10620117,0.10089111,113.0
20566,-0.2611232,0.25489807,0.024253845,-0.06796875,-0.16779785,-0.046728518,113.0
20567,-0.19019741,-0.1350708,0.042060852,-0.06796875,-0.16779785,-0.046728518,113.0
20568,-0.19019741,-0.1350708,0.042060852,0.07965088,-0.18372802,-0.023364259,113.0
20569,-0.07905001,-0.22707367,0.036712646,0.07965088,-0.18372802,-0.023364259,113.0
20570,-0.07905001,-0.22707367,0.036712646,0.09451904,-0.15717773,-0.0010620117,113.0
20571,0.0046921223,-0.10824585,0.012744904,0.09451904,-0.15717773,-0.0010620117,113.0
20572,0.0046921223,-0.10824585,0.012744904,0.2177124,-0.17523193,-0.058410645,113.0
20573,0.10551152,0.11755371,0.025505066,0.2177124,-0.17523193,-0.058410645,113.0
20574,0.10551152,0.11755371,0.025505066,0.15505372,-0.16142578,-0.095581055,113.0
20575,0.10551152,0.11755371,0.025505066,0.009558106,-0.13168946,-0.06265869,113.0
20576,0.18086918,0.233078,0.07333374,0.009558106,-0.13168946,-0.06265869,113.0
20577,0.12028128,0.05013275,0.07584,0.009558106,-0.13168946,-0.06265869,113.0
20578,0.12028128,0.05013275,0.07584,0.0021240234,-0.124255374,-0.009558106,113.0
20579,-0.069363356,-0.18112183,0.00289917,0.0021240234,-0.124255374,-0.009558106,113.0
20580,-0.069363356,-0.18112183,0.00289917,0.05628662,-0.13699952,0.052038576,113.0
20581,-0.251206,-0.1912384,-0.12181473,0.05628662,-0.13699952,0.052038576,113.0
20582,-0.251206,-0.1912384,-0.12181473,0.081774905,-0.14124756,0.08920898,113.0
20583,-0.3394414,0.030654907,-0.24853897,0.081774905,-0.14124756,0.08920898,113.0
20584,-0.3394414,0.030654907,-0.24853897,0.07115479,-0.13912354,0.07965088,113.0
20585,-0.33306435,0.24806976,-0.31316376,0.07115479,-0.13912354,0.07965088,113.0
20586,-0.33306435,0.24806976,-0.31316376,-0.011682129,-0.13168946,0.07540283,113.0
20587,-0.26684213,0.19833374,-0.301239,-0.011682129,-0.13168946,0.07540283,113.0
20588,-0.26684213,0.19833374,-0.301239,-0.09451904,-0.1263794,0.043542482,113.0
20589,-0.19035357,-0.022315979,-0.2467308,-0.09451904,-0.1263794,0.043542482,113.0
20590,-0.19035357,-0.022315979,-0.2467308,-0.15505372,-0.11151123,0.038232423,113.0
20591,-0.16129166,-0.16142273,-0.21041107,-0.15505372,-0.11151123,0.038232423,113.0
20592,-0.16129166,-0.16142273,-0.21041107,-0.18054199,-0.08496094,0.07434082,113.0
20593,-0.16129166,-0.16142273,-0.21041107,-0.18797608,-0.07646485,0.0998291,113.0
20594,-0.21316421,-0.13864899,-0.259964,-0.18797608,-0.07646485,0.0998291,113.0
20595,-0.2729728,-0.04181671,-0.3664322,-0.18797608,-0.07646485,0.0998291,113.0
20596,-0.2729728,-0.04181671,-0.3664322,-0.24213867,-0.06796875,0.10195313,113.0
20597,-0.25224054,-0.022323608,-0.450531,-0.24213867,-0.06796875,0.10195313,113.0
20598,-0.25224054,-0.022323608,-0.450531,-0.32603762,-0.07540283,0.09133301,113.0
20599,-0.16807663,-0.08343506,-0.5030899,-0.32603762,-0.07540283,0.09133301,113.0
20600,-0.16807663,-0.08343506,-0.5030899,-0.4163086,-0.095581055,0.087084964,113.0
20601,-0.16807663,-0.08343506,-0.5030899,-0.5331299,-0.11469727,0.08496094,113.0
20602,-0.07185143,-0.11644745,-0.53848267,-0.5331299,-0.11469727,0.08496094,113.0
20603,-0.026377678,-0.09868622,-0.5732918,-0.5331299,-0.11469727,0.08496094,113.0
20604,-0.026377678,-0.09868622,-0.5732918,-0.69136965,-0.13487549,0.10089111,113.0
20605,-0.038716912,-0.06668091,-0.6326065,-0.69136965,-0.13487549,0.10089111,113.0
20606,-0.038716912,-0.06668091,-0.6326065,-0.85598147,-0.1731079,0.0722168,113.0
20607,-0.056046784,-0.017410278,-0.6981888,-0.85598147,-0.1731079,0.0722168,113.0
20608,-0.056046784,-0.017410278,-0.6981888,-1.0917481,-0.20178223,0.013806152,113.0
20609,-0.03189802,-0.019470215,-0.7326126,-1.0917481,-0.20178223,0.013806152,113.0
20610,-0.03189802,-0.019470215,-0.7326126,-1.355127,-0.24957275,-0.045666505,113.0
20611,-0.0076228976,-0.14331055,-0.7534027,-1.355127,-0.24957275,-0.045666505,113.0
20612,-0.0076228976,-0.14331055,-0.7534027,-1.5866455,-0.32709962,-0.07115479,113.0
20613,-0.0652414,-0.30885315,-0.78808594,-1.5866455,-0.32709962,-0.07115479,113.0
20614,-0.0652414,-0.30885315,-0.78808594,-1.6684204,-0.4428589,-0.0722168,113.0
20615,-0.19252515,-0.34254456,-0.7902107,-1.6684204,-0.4428589,-0.0722168,113.0
20616,-0.19252515,-0.34254456,-0.7902107,-1.6885986,-0.54693604,-0.07965088,113.0
20617,-0.27012122,-0.16357422,-0.73262024,-1.6885986,-0.54693604,-0.07965088,113.0
20618,-0.27012122,-0.16357422,-0.73262024,-1.7406372,-0.66481936,-0.11469727,113.0
20619,-0.2508626,0.15242767,-0.6794815,-1.7406372,-0.66481936,-0.11469727,113.0
20620,-0.2508626,0.15242767,-0.6794815,-1.9519776,-0.7540283,-0.19434814,113.0
20621,-0.22501868,0.3782425,-0.6860657,-1.9519776,-0.7540283,-0.19434814,113.0
20622,-0.22501868,0.3782425,-0.6860657,-2.3258057,-0.81668705,-0.2442627,113.0
20623,-0.26459742,0.35011292,-0.75001144,-2.3258057,-0.81668705,-0.2442627,113.0
20624,-0.26459742,0.35011292,-0.75001144,-2.6507814,-0.89102787,-0.24320069,113.0
20625,-0.2633747,0.16446686,-0.8539772,-2.6507814,-0.89102787,-0.24320069,113.0
20626,-0.2633747,0.16446686,-0.8539772,-2.7474244,-0.99722904,-0.26550293,113.0
20627,-0.14227939,0.08126831,-0.96957016,-2.7474244,-0.99722904,-0.26550293,113.0
20628,-0.14227939,0.08126831,-0.96957016,-2.703882,-1.1660889,-0.29523927,113.0
20629,-0.04658723,0.12921143,-0.98147964,-2.703882,-1.1660889,-0.29523927,113.0
20630,-0.04658723,0.12921143,-0.98147964,-2.8642457,-1.3349488,-0.4258667,113.0
20631,-0.14345872,0.036376953,-0.7777977,-2.8642457,-1.3349488,-0.4258667,113.0
20632,-0.14345872,0.036376953,-0.7777977,-2.9715087,-1.4400879,-0.71791995,113.0
20633,-0.28175914,-0.24803162,-0.40706635,-2.9715087,-1.4400879,-0.71791995,113.0
20634,-0.28175914,-0.24803162,-0.40706635,-2.8451295,-1.5579712,-0.87403566,113.0
20635,-0.25048053,-0.52941895,-0.060028076,-2.8451295,-1.5579712,-0.87403566,113.0
20636,-0.25048053,-0.52941895,-0.060028076,-2.2939453,-1.6546143,-0.96430665,113.0
20637,-0.19719839,-0.6270294,0.17368317,-2.2939453,-1.6546143,-0.96430665,113.0
20638,-0.19719839,-0.6270294,0.17368317,-1.7480713,-1.905249,-1.0312134,113.0
20639,-0.113996506,-0.54091644,0.3248825,-1.7480713,-1.905249,-1.0312134,113.0
20640,-0.113996506,-0.54091644,0.3248825,-1.3296387,-2.0252564,-1.2287476,113.0
20641,0.3119645,-0.61078644,0.47549438,-1.3296387,-2.0252564,-1.2287476,113.0
20642,0.3119645,-0.61078644,0.47549438,-0.7604004,-2.071985,-1.4825684,113.0
20643,1.2651112,-1.1494446,0.6932602,-0.7604004,-2.071985,-1.4825684,113.0
20644,1.2651112,-1.1494446,0.6932602,-0.38869628,-1.9381714,-1.6110718,113.0
20645,2.4944377,-2.0077667,0.81583786,-0.38869628,-1.9381714,-1.6110718,113.0
20646,2.4944377,-2.0077667,0.81583786,0.004248047,-1.7544434,-1.8277222,113.0
20647,3.598126,-2.3398895,0.6871033,0.004248047,-1.7544434,-1.8277222,113.0
20648,3.598126,-2.3398895,0.6871033,0.41843262,-1.5685914,-2.1431396,113.0
20649,4.3480687,-1.5003662,0.27319336,0.41843262,-1.5685914,-2.1431396,113.0
20650,4.3480687,-1.5003662,0.27319336,0.38444826,-1.4326538,-2.714502,113.0
20651,4.3950076,0.27856445,-0.54154205,0.38444826,-1.4326538,-2.714502,113.0
20652,4.3950076,0.27856445,-0.54154205,-0.56605226,-1.4230957,-3.524817,113.0
20653,3.4429348,2.1746597,-1.6544266,-0.56605226,-1.4230957,-3.524817,113.0
20654,3.4429348,2.1746597,-1.6544266,-2.1027832,-1.3126465,-4.3234496,113.0
20655,1.555471,3.7621002,-2.5377235,-2.1027832,-1.3126465,-4.3234496,113.0
20656,1.555471,3.7621002,-2.5377235,-3.9251955,-1.3710572,-5.0381837,113.0
20657,-0.47310376,5.0810776,-2.7661781,-3.9251955,-1.3710572,-5.0381837,113.0
20658,-0.47310376,5.0810776,-2.7661781,-6.0258546,-0.86341554,-5.5670657,113.0
20659,-1.8616128,5.5352325,-2.3610115,-6.0258546,-0.86341554,-5.5670657,113.0
20660,-1.8616128,5.5352325,-2.3610115,-7.8270264,0.0180542,-5.7476077,113.0
20661,-2.736019,4.2602158,-1.5031891,-7.8270264,0.0180542,-5.7476077,113.0
20662,-2.736019,4.2602158,-1.5031891,-8.321924,0.70942384,-5.4714847,113.0
20663,-3.4257536,1.7670746,-0.46573257,-8.321924,0.70942384,-5.4714847,113.0
20664,-3.4257536,1.7670746,-0.46573257,-6.6418214,1.2276856,-4.704712,113.0
20665,-3.7111962,-0.12762451,0.49490738,-6.6418214,1.2276856,-4.704712,113.0
20666,-3.7111962,-0.12762451,0.49490738,-3.8274903,1.7555054,-4.14397,113.0
20667,-2.9182246,-0.41806793,1.353859,-3.8274903,1.7555054,-4.14397,113.0
20668,-2.9182246,-0.41806793,1.353859,-1.5611572,2.0464966,-3.1881592,113.0
20669,-1.265903,0.419487,1.8943558,-1.5611572,2.0464966,-3.1881592,113.0
20670,-1.265903,0.419487,1.8943558,-0.90908206,2.1250856,-2.7676027,113.0
20671,0.47216535,0.69727325,1.9211617,-0.90908206,2.1250856,-2.7676027,113.0
20672,0.47216535,0.69727325,1.9211617,0.121069334,1.7024049,-2.1038454,113.0
20673,2.397593,-0.34890747,1.4966698,0.121069334,1.7024049,-2.1038454,113.0
20674,2.397593,-0.34890747,1.4966698,0.69349366,0.98873293,-1.4400879,113.0
20675,4.702486,-0.95532227,0.6172333,0.69349366,0.98873293,-1.4400879,113.0
20676,4.702486,-0.95532227,0.6172333,-0.57242435,0.8708496,-0.3971924,113.0
20677,5.7563496,-0.9203644,-0.06691742,-0.57242435,0.8708496,-0.3971924,113.0
20678,5.7563496,-0.9203644,-0.06691742,-1.4262818,0.79969484,0.26656494,113.0
20679,4.302785,-1.4164429,0.07814407,-1.4262818,0.79969484,0.26656494,113.0
20680,4.302785,-1.4164429,0.07814407,-0.5894165,0.33028564,0.7083618,113.0
20681,1.3268714,-2.1304474,0.40841293,-0.5894165,0.33028564,0.7083618,113.0
20682,1.3268714,-2.1304474,0.40841293,0.6595093,-0.28461915,1.0354614,113.0
20683,-1.5803242,-2.1832428,-0.07678604,0.6595093,-0.28461915,1.0354614,113.0
20684,-1.5803242,-2.1832428,-0.07678604,1.2053833,-0.6977417,1.2478638,113.0
20685,-3.6028457,-1.2425308,-1.0391998,1.2053833,-0.6977417,1.2478638,113.0
20686,-3.6028457,-1.2425308,-1.0391998,1.0991821,-0.77739257,1.7321411,113.0
20687,-4.711073,0.33615112,-1.427185,1.0991821,-0.77739257,1.7321411,113.0
20688,-4.711073,0.33615112,-1.427185,0.92501223,-0.77951664,2.001892,113.0
20689,-5.4771957,1.975914,-1.210144,0.92501223,-0.77951664,2.001892,113.0
20690,-5.4771957,1.975914,-1.210144,0.94731444,-0.9685547,1.9997681,113.0
20691,-6.4128847,3.2323456,-0.90213776,0.94731444,-0.9685547,1.9997681,113.0
20692,-6.4128847,3.2323456,-0.90213776,0.61702883,-0.9717407,1.7533814,113.0
20693,-7.741526,3.6734848,-0.224823,0.61702883,-0.9717407,1.7533814,113.0
20694,-7.741526,3.6734848,-0.224823,-0.43861085,-0.53737795,1.634436,113.0
20695,-9.732271,3.2976608,0.73470306,-0.43861085,-0.53737795,1.634436,113.0
20696,-9.732271,3.2976608,0.73470306,-1.5473511,-0.32922363,1.3859253,113.0
20697,-12.401211,2.4359055,1.0523491,-1.5473511,-0.32922363,1.3859253,113.0
20698,-12.401211,2.4359055,1.0523491,-1.9381714,-0.63826907,0.70942384,113.0
20699,-14.208554,0.7108307,1.2012787,-1.9381714,-0.63826907,0.70942384,113.0
20700,-14.208554,0.7108307,1.2012787,-1.4230957,-1.7608155,0.33134767,113.0
20701,-11.76273,-1.904686,1.5688629,-1.4230957,-1.7608155,0.33134767,113.0
20702,-11.76273,-1.904686,1.5688629,0.40250245,-2.1930542,1.3094605,113.0
20703,-5.5732574,-3.620102,0.8249855,0.40250245,-2.1930542,1.3094605,113.0
20704,-5.5732574,-3.620102,0.8249855,2.0210083,-1.9286133,1.719397,113.0
20705,0.0777092,-3.386963,-2.0488968,2.0210083,-1.9286133,1.719397,113.0
20706,0.0777092,-3.386963,-2.0488968,2.9152222,-2.3279297,2.0188844,113.0
20707,4.1502533,-4.597336,-5.9301834,2.9152222,-2.3279297,2.0188844,113.0
20708,4.1502533,-4.597336,-5.9301834,3.4249878,-2.8281372,2.34917,113.0
20709,10.525378,-10.774132,-8.578621,3.4249878,-2.8281372,2.34917,113.0
20710,10.525378,-10.774132,-8.578621,4.0409546,-1.269104,3.3931274,113.0
20711,24.123695,-18.155792,-9.183514,4.0409546,-1.269104,3.3931274,113.0
20712,24.123695,-18.155792,-9.183514,5.2760744,-3.3368409,4.539038,113.0
20713,34.412094,-17.644455,-7.8659286,5.2760744,-3.3368409,4.539038,113.0
20714,34.412094,-17.644455,-7.8659286,3.5683594,-0.5320679,5.604236,113.0
20715,30.845665,-9.926125,-5.4586487,3.5683594,-0.5320679,5.604236,113.0
20716,30.845665,-9.926125,-5.4586487,2.0995972,-0.2814331,7.157959,113.0
20717,19.169819,-2.031807,-2.971264,2.0995972,-0.2814331,7.157959,113.0
20718,19.169819,-2.031807,-2.971264,2.1367676,-1.1437867,6.800061,113.0
20719,7.0569496,5.1331787,-1.1358109,2.1367676,-1.1437867,6.800061,113.0
20720,7.0569496,5.1331787,-1.1358109,1.6397461,-2.5201538,6.1957765,113.0
20721,-0.5915985,10.282944,-0.081207275,1.6397461,-2.5201538,6.1957765,113.0
20722,-0.5915985,10.282944,-0.081207275,1.0949341,-2.9598267,5.686011,113.0
20723,-0.5915985,10.282944,-0.081207275,1.0949341,-2.9598267,5.686011,0.0
20724,-3.6319704,11.20903,0.76114464,1.0949341,-2.9598267,5.686011,0.0
20725,-3.6319704,11.20903,0.76114464,1.1034302,-3.2009034,5.077478,0.0
20726,-4.163316,10.96505,1.7245903,1.1034302,-3.2009034,5.077478,0.0
20727,-4.163316,10.96505,1.7245903,1.3445069,-3.4589722,3.6745605,0.0
20728,-4.1891127,13.377426,2.169075,1.3445069,-3.4589722,3.6745605,0.0
20729,-4.1891127,13.377426,2.169075,1.0705079,-2.988501,2.1250856,0.0
20730,-4.1224823,13.307533,1.733038,1.0705079,-2.988501,2.1250856,0.0
20731,-4.1224823,13.307533,1.733038,0.53950197,-2.7665405,2.0029542,0.0
20732,-6.3610106,14.44421,1.448906,0.53950197,-2.7665405,2.0029542,0.0
20733,-6.3610106,14.44421,1.448906,-1.3901733,-2.3651001,2.1176515,0.0
20734,-5.85458,10.947971,1.1110153,-1.3901733,-2.3651001,2.1176515,0.0
20735,-5.85458,10.947971,1.1110153,-1.4432739,-2.0103881,1.3721192,0.0
20736,-4.8631926,5.2033234,1.5721626,-1.4432739,-2.0103881,1.3721192,0.0
20737,-4.8631926,5.2033234,1.5721626,-0.65844727,-0.7349121,-0.73809814,0.0
20738,-3.9187279,3.2906265,1.7040558,-0.65844727,-0.7349121,-0.73809814,0.0
20739,-3.9187279,3.2906265,1.7040558,-0.7614624,-0.3164795,-1.1575928,0.0
20740,-3.3172941,0.35427856,2.4456291,-0.7614624,-0.3164795,-1.1575928,0.0
20741,-3.3172941,0.35427856,2.4456291,-1.2160034,1.2627319,-2.1378295,0.0
20742,-2.582693,-0.26444244,2.3832016,-1.2160034,1.2627319,-2.1378295,0.0
20743,-2.582693,-0.26444244,2.3832016,-1.0545777,1.7990478,-2.3215578,0.0
20744,-0.8416915,-3.5093231,2.4941711,-1.0545777,1.7990478,-2.3215578,0.0
20745,-0.8416915,-3.5093231,2.4941711,-1.7406372,3.4101198,-3.258252,0.0
20746,0.115977764,-6.149536,1.392334,-1.7406372,3.4101198,-3.258252,0.0
20747,0.115977764,-6.149536,1.392334,-1.540979,3.6384523,-3.3782594,0.0
20748,4.948727,-28.35292,-4.58844,-1.540979,3.6384523,-3.3782594,0.0
20749,4.948727,-28.35292,-4.58844,-1.2722901,2.8366334,-4.069629,0.0
20750,5.8403053,-28.395126,-3.1829948,-1.2722901,2.8366334,-4.069629,0.0
20751,5.8403053,-28.395126,-3.1829948,-1.8287842,3.3007324,-3.1223145,0.0
20752,4.9290676,-22.699951,5.8249054,-1.8287842,3.3007324,-3.1223145,0.0
20753,4.9290676,-22.699951,5.8249054,-3.0214233,1.5112427,0.3058594,0.0
20754,1.2897139,-14.338867,5.681019,-3.0214233,1.5112427,0.3058594,0.0
20755,1.2897139,-14.338867,5.681019,-1.0917481,0.9505005,0.6287109,0.0
20756,-8.876066,3.7742615,-0.44909286,-1.0917481,0.9505005,0.6287109,0.0
20757,-8.876066,3.7742615,-0.44909286,1.4252198,0.91120607,0.39613038,0.0
20758,-9.215159,7.2666397,-1.7769508,1.4252198,0.91120607,0.39613038,0.0
20759,-9.215159,7.2666397,-1.7769508,1.4560181,1.4029175,0.7349121,0.0
20760,-10.356649,14.339767,-1.1749802,1.4560181,1.4029175,0.7349121,0.0
20761,-10.356649,14.339767,-1.1749802,-0.03186035,0.62977296,0.07115479,0.0
20762,-8.957952,13.198914,0.28612518,-0.03186035,0.62977296,0.07115479,0.0
20763,-8.957952,13.198914,0.28612518,-0.27718505,0.8729736,-0.08283692,0.0
20764,-10.747404,13.386757,3.3178673,-0.27718505,0.8729736,-0.08283692,0.0
20765,-10.747404,13.386757,3.3178673,-0.5501221,0.34833986,-0.4088745,0.0
20766,-15.327915,12.855606,4.776314,-0.5501221,0.34833986,-0.4088745,0.0
20767,-15.327915,12.855606,4.776314,0.8358032,-0.3419678,-0.06796875,0.0
20768,-17.081522,10.447983,3.6337967,0.8358032,-0.3419678,-0.06796875,0.0
20769,-17.081522,10.447983,3.6337967,2.262085,-1.1352905,0.41949463,0.0
20770,-12.200557,6.3919067,1.744587,2.262085,-1.1352905,0.41949463,0.0
20771,-12.200557,6.3919067,1.744587,2.901416,-1.9594116,0.5533081,0.0
20772,-2.006136,2.2703972,0.4502716,2.901416,-1.9594116,0.5533081,0.0
20773,-2.006136,2.2703972,0.4502716,1.6450561,-2.1941164,0.8028809,0.0
20774,0.32679367,0.6665764,-0.3659172,1.6450561,-2.1941164,0.8028809,0.0
20775,0.32679367,0.6665764,-0.3659172,1.4029175,-2.0040162,0.7051758,0.0
20776,2.3576632,-4.3759193,-2.784275,1.4029175,-2.0040162,0.7051758,0.0
20777,2.3576632,-4.3759193,-2.784275,2.6656494,-2.256775,0.27718505,0.0
20778,2.5647926,-14.573944,-6.518875,2.6656494,-2.256775,0.27718505,0.0
20779,2.5647926,-14.573944,-6.518875,4.4031005,-2.1505737,0.19647217,0.0
20780,4.8533106,-24.103615,-9.604576,4.4031005,-2.1505737,0.19647217,0.0
20781,4.8533106,-24.103615,-9.604576,4.957471,-2.162256,0.6425171,0.0
20782,14.745918,-26.966988,-7.681988,4.957471,-2.162256,0.6425171,0.0
20783,14.745918,-26.966988,-7.681988,1.9541016,-0.16142578,3.2773683,0.0
20784,25.53017,-23.039093,-1.780014,1.9541016,-0.16142578,3.2773683,0.0
20785,25.53017,-23.039093,-1.780014,-1.4772583,-0.014868164,3.5641115,0.0
20786,21.97134,-12.566803,1.661768,-1.4772583,-0.014868164,3.5641115,0.0
20787,21.97134,-12.566803,1.661768,-1.1278565,0.54693604,3.9400635,0.0
20788,8.28845,-0.77908325,0.7722244,-1.1278565,0.54693604,3.9400635,0.0
20789,8.28845,-0.77908325,0.7722244,-0.20709229,-0.070092775,4.0929933,0.0
20790,-0.24939108,7.2107544,-1.0890064,-0.20709229,-0.070092775,4.0929933,0.0
20791,-0.24939108,7.2107544,-1.0890064,-0.33771974,-0.5564942,3.519507,0.0
20792,-1.7397842,11.593468,-1.2204971,-0.33771974,-0.5564942,3.519507,0.0
20793,-1.7397842,11.593468,-1.2204971,-0.8973999,-0.72323,2.7899048,0.0
20794,-1.165082,13.07016,-0.10689163,-0.8973999,-0.72323,2.7899048,0.0
20795,-1.165082,13.07016,-0.10689163,-1.175647,-0.8485474,2.3385499,0.0
20796,-1.2660866,12.280029,0.7873001,-1.175647,-0.8485474,2.3385499,0.0
20797,-1.2660866,12.280029,0.7873001,-1.0322754,-1.0938721,2.0709229,0.0
20798,-1.4624667,10.505264,0.865118,-1.0322754,-1.0938721,2.0709229,0.0
20799,-1.4624667,10.505264,0.865118,-0.86341554,-1.3530029,2.1218994,0.0
20800,-0.82740736,9.224503,0.4860897,-0.86341554,-1.3530029,2.1218994,0.0
20801,-0.82740736,9.224503,0.4860897,-0.9589966,-1.4347779,1.989148,0.0
20802,0.07017851,9.00663,0.12192917,-0.9589966,-1.4347779,1.989148,0.0
20803,0.07017851,9.00663,0.12192917,-0.8687256,-1.2552979,1.716211,0.0
20804,-0.021847725,8.633621,-0.0011863708,-0.8687256,-1.2552979,1.716211,0.0
20805,-0.021847725,8.633621,-0.0011863708,-0.44923097,-1.0195312,1.2712281,0.0
20806,-0.8279028,6.4643784,0.08922577,-0.44923097,-1.0195312,1.2712281,0.0
20807,-0.8279028,6.4643784,0.08922577,0.24638672,-0.5586182,0.48640138,0.0
20808,-1.0427055,3.8694534,0.46669388,0.24638672,-0.5586182,0.48640138,0.0
20809,-1.0427055,3.8694534,0.46669388,0.7434082,0.057348635,-0.66588134,0.0
20810,-0.6901214,3.177719,1.1784706,0.7434082,0.057348635,-0.66588134,0.0
20811,-0.6901214,3.177719,1.1784706,0.39613038,0.7688965,-1.8574585,0.0
20812,-0.30439186,3.317299,2.1538734,0.39613038,0.7688965,-1.8574585,0.0
20813,-0.30439186,3.317299,2.1538734,-0.58410645,2.092163,-2.4160767,0.0
20814,-0.57320094,1.4315948,2.2530556,-0.58410645,2.092163,-2.4160767,0.0
20815,-0.57320094,1.4315948,2.2530556,-0.5065796,2.166504,-3.43136,0.0
20816,-1.2683387,-5.0587387,0.18350983,-0.5065796,2.166504,-3.43136,0.0
20817,-1.2683387,-5.0587387,0.18350983,1.5526612,3.2359498,-5.7561035,0.0
20818,-1.1756206,-16.635506,-2.3555222,1.5526612,3.2359498,-5.7561035,0.0
20819,-1.1756206,-16.635506,-2.3555222,-0.58410645,1.7140869,-6.299854,0.0
20820,1.1197085,-24.651657,-2.5007133,-0.58410645,1.7140869,-6.299854,0.0
20821,1.1197085,-24.651657,-2.5007133,-5.092346,2.2992554,-5.0318117,0.0
20822,4.163711,-23.25161,2.3492355,-5.092346,2.2992554,-5.0318117,0.0
20823,4.163711,-23.25161,2.3492355,-7.348059,3.349585,-2.7113159,0.0
20824,3.1017332,-16.19529,5.772297,-7.348059,3.349585,-2.7113159,0.0
20825,3.1017332,-16.19529,5.772297,-1.3296387,1.545227,-0.53100586,0.0
20826,-2.2245216,-5.1509247,1.923233,-1.3296387,1.545227,-0.53100586,0.0
20827,-2.2245216,-5.1509247,1.923233,3.0989501,0.68499756,0.1901001,0.0
20828,-6.516568,6.0446167,-2.749878,3.0989501,0.68499756,0.1901001,0.0
20829,-6.516568,6.0446167,-2.749878,2.0135744,1.5059327,0.0053100586,0.0
20830,-7.7130594,12.159485,-3.5316277,2.0135744,1.5059327,0.0053100586,0.0
20831,-7.7130594,12.159485,-3.5316277,1.3317627,1.5760254,0.12213135,0.0
20832,-7.505201,13.448204,-1.731041,1.3317627,1.5760254,0.12213135,0.0
20833,-7.505201,13.448204,-1.731041,0.7869507,1.3317627,-0.0722168,0.0
20834,-6.5644393,12.848152,0.7559509,0.7869507,1.3317627,-0.0722168,0.0
20835,-6.5644393,12.848152,0.7559509,0.023364259,1.3901733,0.13168946,0.0
20836,-5.37328,11.457939,3.3914185,0.023364259,1.3901733,0.13168946,0.0
20837,-5.37328,11.457939,3.3914185,-0.36639404,0.8294312,0.6510132,0.0
20838,-5.0287023,9.804428,4.875759,-0.36639404,0.8294312,0.6510132,0.0
20839,-5.0287023,9.804428,4.875759,-0.07965088,0.35471192,0.9515625,0.0
20840,-6.134522,8.691063,3.9488487,-0.07965088,0.35471192,0.9515625,0.0
20841,-6.134522,8.691063,3.9488487,1.0651978,-0.27506104,1.7278931,0.0
20842,-7.387867,8.186081,1.5156593,1.0651978,-0.27506104,1.7278931,0.0
20843,-7.387867,8.186081,1.5156593,2.3895264,-1.0662597,2.9608886,0.0
20844,-6.5532265,7.1192245,-0.7934418,2.3895264,-1.0662597,2.9608886,0.0
20845,-6.5532265,7.1192245,-0.7934418,2.4808595,-1.3190186,2.8419435,0.0
20846,-3.6406765,4.4001274,-2.5214462,2.4808595,-1.3190186,2.8419435,0.0
20847,-3.6406765,4.4001274,-2.5214462,2.170752,-1.4900025,2.5307739,0.0
20848,-1.2745647,0.48242188,-3.7057915,2.170752,-1.4900025,2.5307739,0.0
20849,-1.2745647,0.48242188,-3.7057915,2.3141236,-1.1076783,1.4953126,0.0
20850,-1.8285141,-8.60862,-3.773983,2.3141236,-1.1076783,1.4953126,0.0
20851,-1.8285141,-8.60862,-3.773983,4.7291384,0.30054933,-1.2043213,0.0
20852,-0.85809994,-24.635101,-1.867527,4.7291384,0.30054933,-1.2043213,0.0
20853,-0.85809994,-24.635101,-1.867527,6.964673,1.5038086,1.6450561,0.0
20854,7.6296577,-32.194168,0.67199326,6.964673,1.5038086,1.6450561,0.0
20855,7.6296577,-32.194168,0.67199326,8.533264,1.6854126,1.6854126,0.0
20856,7.6296577,-32.194168,0.67199326,8.533264,1.6854126,1.6854126,0.0
20857,20.421047,-26.712402,4.3894386,8.533264,1.6854126,1.6854126,0.0
20858,20.421047,-26.712402,4.3894386,8.586365,0.79226077,2.4001465,0.0
20859,22.376438,-16.646751,7.9079285,8.586365,0.79226077,2.4001465,0.0
20860,22.376438,-16.646751,7.9079285,-2.5254638,-1.4220337,2.0826051,0.0
20861,10.131046,-4.0594254,5.6187363,-2.5254638,-1.4220337,2.0826051,0.0
20862,10.131046,-4.0594254,5.6187363,-8.6373415,-0.630835,2.8302612,0.0
20863,-0.77364206,5.8299637,-0.27399445,-8.6373415,-0.630835,2.8302612,0.0
20864,-0.77364206,5.8299637,-0.27399445,-9.015418,-2.0401247,2.806897,0.0
20865,-2.8020926,10.159332,-3.3850899,-9.015418,-2.0401247,2.806897,0.0
20866,-2.8020926,10.159332,-3.3850899,-7.5211673,-3.260376,1.9944581,0.0
20867,-0.4242425,11.530174,-3.1447906,-7.5211673,-3.260376,1.9944581,0.0
20868,-0.4242425,11.530174,-3.1447906,-5.082788,-3.5991578,1.3158325,0.0
20869,1.2221539,11.655655,-1.6152344,-5.082788,-3.5991578,1.3158325,0.0
20870,1.2221539,11.655655,-1.6152344,-2.0390625,-3.7669556,1.354065,0.0
20871,1.2954111,11.024307,-0.3490219,-2.0390625,-3.7669556,1.354065,0.0
20872,1.2954111,11.024307,-0.3490219,0.32709962,-3.7627075,2.2079225,0.0
20873,0.8616097,10.526253,-0.40439987,0.32709962,-3.7627075,2.2079225,0.0
20874,0.8616097,10.526253,-0.40439987,0.9674927,-3.6766846,2.0241945,0.0
20875,0.37434626,10.524269,-1.9752312,0.9674927,-3.6766846,2.0241945,0.0
20876,0.37434626,10.524269,-1.9752312,0.8506714,-3.3251588,1.7735596,0.0
20877,0.14487481,10.017853,-3.317379,0.8506714,-3.3251588,1.7735596,0.0
20878,0.14487481,10.017853,-3.317379,0.1178833,-2.1994264,1.1331666,0.0
20879,0.31386137,9.00132,-2.7497025,0.1178833,-2.1994264,1.1331666,0.0
20880,0.31386137,9.00132,-2.7497025,-1.1289185,-0.70305175,-0.090270996,0.0
20881,0.18503666,7.2700577,-1.2153511,-1.1289185,-0.70305175,-0.090270996,0.0
20882,0.18503666,7.2700577,-1.2153511,-1.8383423,0.7062378,-1.1395386,0.0
20883,-0.21947551,3.9991302,0.031345367,-1.8383423,0.7062378,-1.1395386,0.0
20884,-0.21947551,3.9991302,0.031345367,-2.086853,2.085791,-1.7544434,0.0
20885,-0.25590277,0.5514908,0.856987,-2.086853,2.085791,-1.7544434,0.0
20886,-0.25590277,0.5514908,0.856987,-1.0567017,3.346399,-2.3735962,0.0
20887,-0.8303447,-1.8844299,0.7012634,-1.0567017,3.346399,-2.3735962,0.0
20888,-0.8303447,-1.8844299,0.7012634,0.18691407,3.902893,-3.2178955,0.0
20889,-2.4501522,-8.344994,-2.0763206,0.18691407,3.902893,-3.2178955,0.0
20890,-2.4501522,-8.344994,-2.0763206,1.4114136,4.443457,-4.6898437,0.0
20891,-3.1055684,-19.152237,-6.6656227,1.4114136,4.443457,-4.6898437,0.0
20892,-3.1055684,-19.152237,-6.6656227,-0.44179687,3.5003908,-5.217664,0.0
20893,-1.2229558,-25.077774,-5.469681,-0.44179687,3.5003908,-5.217664,0.0
20894,-1.2229558,-25.077774,-5.469681,-3.893335,5.420508,-3.6734986,0.0
20895,-0.07483685,-22.64215,5.027504,-3.893335,5.420508,-3.6734986,0.0
20896,-0.07483685,-22.64215,5.027504,-3.43136,2.6019287,-0.814563,0.0
20897,-0.99985975,-13.255455,9.900665,-3.43136,2.6019287,-0.814563,0.0
20898,-0.99985975,-13.255455,9.900665,1.8351563,0.70942384,1.5823975,0.0
20899,-1.9217384,-0.61372375,1.7106209,1.8351563,0.70942384,1.5823975,0.0
20900,-1.9217384,-0.61372375,1.7106209,3.3952515,-0.1985962,1.2988404,0.0
20901,-3.2347052,8.230408,-6.5754013,3.3952515,-0.1985962,1.2988404,0.0
20902,-3.2347052,8.230408,-6.5754013,2.1049073,1.3349488,0.8867798,0.0
20903,-5.6972613,12.148872,-7.1091614,2.1049073,1.3349488,0.8867798,0.0
20904,-5.6972613,12.148872,-7.1091614,-0.012744141,0.8750977,1.2329956,0.0
20905,-6.7037196,13.051163,-3.272253,-0.012744141,0.8750977,1.2329956,0.0
20906,-6.7037196,13.051163,-3.272253,-1.1873292,0.6988037,1.09281,0.0
20907,-5.1150875,12.312843,0.061494827,-1.1873292,0.6988037,1.09281,0.0
20908,-5.1150875,12.312843,0.061494827,-0.80394286,0.5766724,1.3052124,0.0
20909,-3.1252851,11.314766,1.8824368,-0.80394286,0.5766724,1.3052124,0.0
20910,-3.1252851,11.314766,1.8824368,-0.6042847,-0.25063476,1.5643433,0.0
20911,-1.8980794,10.9650955,3.305973,-0.6042847,-0.25063476,1.5643433,0.0
20912,-1.8980794,10.9650955,3.305973,-0.71154785,-1.0694458,2.173938,0.0
20913,-1.1379337,11.726547,4.2738686,-0.71154785,-1.0694458,2.173938,0.0
20914,-1.1379337,11.726547,4.2738686,-0.46728516,-1.9243653,2.0475585,0.0
20915,-1.1999469,12.634361,3.6599998,-0.46728516,-1.9243653,2.0475585,0.0
20916,-1.1999469,12.634361,3.6599998,-0.29311523,-2.6093628,1.4761963,0.0
20917,-2.2531948,10.642654,1.674057,-0.29311523,-2.6093628,1.4761963,0.0
20918,-2.2531948,10.642654,1.674057,-0.7476563,-3.08833,0.92076415,0.0
20919,-3.0235157,5.27108,-0.43048096,-0.7476563,-3.08833,0.92076415,0.0
20920,-3.0235157,5.27108,-0.43048096,-0.7455322,-3.4526002,0.13912354,0.0
20921,-2.7956314,0.1433258,-1.7820816,-0.7455322,-3.4526002,0.13912354,0.0
20922,-2.7956314,0.1433258,-1.7820816,-0.32497558,-3.7414672,-0.38975832,0.0
20923,-3.0051088,-2.348938,-1.991108,-0.32497558,-3.7414672,-0.38975832,0.0
20924,-3.0051088,-2.348938,-1.991108,0.42692873,-3.5864136,-1.364685,0.0
20925,-3.9047956,-5.930435,-1.2567291,0.42692873,-3.5864136,-1.364685,0.0
20926,-3.9047956,-5.930435,-1.2567291,3.4026856,-2.7336183,-4.873572,0.0
20927,-1.0527306,-19.089272,-0.8404541,3.4026856,-2.7336183,-4.873572,0.0
20928,-1.0527306,-19.089272,-0.8404541,4.398853,-2.3311157,-3.4302979,0.0
20929,4.987894,-31.639557,-0.5594101,4.398853,-2.3311157,-3.4302979,0.0
20930,4.987894,-31.639557,-0.5594101,-0.04991455,-1.7002808,-2.7421143,0.0
20931,9.640865,-28.702621,-7.0775204,-0.04991455,-1.7002808,-2.7421143,0.0
20932,9.640865,-28.702621,-7.0775204,6.5228763,-3.797754,-2.263147,0.0
20933,17.135763,-21.977234,-13.806047,6.5228763,-3.797754,-2.263147,0.0
20934,17.135763,-21.977234,-13.806047,5.5925536,-3.167981,2.9768188,0.0
20935,16.791582,-13.075577,-7.067299,5.5925536,-3.167981,2.9768188,0.0
20936,16.791582,-13.075577,-7.067299,-0.97386473,-2.4989135,0.68499756,0.0
20937,3.2395527,1.3342514,3.9438286,-0.97386473,-2.4989135,0.68499756,0.0
20938,3.2395527,1.3342514,3.9438286,-2.807959,-2.4075806,2.177124,0.0
20939,-7.0818443,9.8545,7.3703213,-2.807959,-2.4075806,2.177124,0.0
20940,-7.0818443,9.8545,7.3703213,-1.7332032,-1.5059327,2.4755495,0.0
20941,-7.498288,11.79287,4.196295,-1.7332032,-1.5059327,2.4755495,0.0
20942,-7.498288,11.79287,4.196295,-0.94412845,-1.7937378,1.9456055,0.0
20943,-3.6135108,12.162552,0.2920227,-0.94412845,-1.7937378,1.9456055,0.0
20944,-3.6135108,12.162552,0.2920227,-0.82730716,-1.5781494,1.2351197,0.0
20945,-1.2600226,11.973358,-1.3076534,-0.82730716,-1.5781494,1.2351197,0.0
20946,-1.2600226,11.973358,-1.3076534,-0.97386473,-1.5197388,1.1650269,0.0
20947,-0.89105034,11.901367,-0.7513733,-0.97386473,-1.5197388,1.1650269,0.0
20948,-0.89105034,11.901367,-0.7513733,-1.5590333,-1.4209718,1.0460815,0.0
20949,-0.9110458,12.434181,0.56866455,-1.5590333,-1.4209718,1.0460815,0.0
20950,-0.9110458,12.434181,0.56866455,-1.4029175,-1.3307008,0.8973999,0.0
20951,-0.88681984,12.481071,1.5974007,-1.4029175,-1.3307008,0.8973999,0.0
20952,-0.88681984,12.481071,1.5974007,-1.0906861,-1.1979493,0.46728516,0.0
20953,-0.9595535,10.929268,2.0588417,-1.0906861,-1.1979493,0.46728516,0.0
20954,-0.9595535,10.929268,2.0588417,-1.363623,-0.6467652,0.51082766,0.0
20955,-1.1642859,7.4561615,2.5094032,-1.363623,-0.6467652,0.51082766,0.0
20956,-1.1642859,7.4561615,2.5094032,-0.996167,-0.27718505,0.3791382,0.0
20957,-1.1642859,7.4561615,2.5094032,-0.996167,-0.27718505,0.3791382,0.0
20958,-1.114986,3.1975555,3.4097443,-0.996167,-0.27718505,0.3791382,0.0
20959,-1.114986,3.1975555,3.4097443,-0.13275146,0.31860352,-0.26019287,0.0
20960,-0.7787318,0.51992035,4.1029053,-0.13275146,0.31860352,-0.26019287,0.0
20961,-0.7787318,0.51992035,4.1029053,0.33984375,0.80819094,-1.0482056,0.0
20962,-0.32468224,-1.0831146,3.1476936,0.33984375,0.80819094,-1.0482056,0.0
20963,-0.32468224,-1.0831146,3.1476936,0.4067505,1.4592041,-2.0645509,0.0
20964,0.62102795,-6.9227676,0.44631577,0.4067505,1.4592041,-2.0645509,0.0
20965,0.62102795,-6.9227676,0.44631577,1.1490967,2.1813722,-2.8472536,0.0
20966,2.2131796,-16.20903,-1.4899445,1.1490967,2.1813722,-2.8472536,0.0
20967,2.2131796,-16.20903,-1.4899445,1.3423828,1.1342286,-2.8398194,0.0
20968,3.7760735,-21.293533,-0.39923096,1.3423828,1.1342286,-2.8398194,0.0
20969,3.7760735,-21.293533,-0.39923096,0.038232423,-0.4959595,-2.3003175,0.0
20970,3.7894623,-18.790909,2.5326538,0.038232423,-0.4959595,-2.3003175,0.0
20971,3.7894623,-18.790909,2.5326538,-5.0010133,-0.04141846,-1.5940796,0.0
20972,1.5194483,-11.109428,4.1761093,-5.0010133,-0.04141846,-1.5940796,0.0
20973,1.5194483,-11.109428,4.1761093,-4.608069,0.85704345,-0.2166504,0.0
20974,-1.6691948,-2.459999,2.6312447,-4.608069,0.85704345,-0.2166504,0.0
20975,-1.6691948,-2.459999,2.6312447,-1.2436157,1.1044922,0.5894165,0.0
20976,-3.6311567,3.8235703,-1.2844467,-1.2436157,1.1044922,0.5894165,0.0
20977,-3.6311567,3.8235703,-1.2844467,0.89421386,1.3126465,0.8400513,0.0
20978,-4.2447815,6.968025,-4.263874,0.89421386,1.3126465,0.8400513,0.0
20979,-4.2447815,6.968025,-4.263874,2.0995972,1.5802735,0.8931519,0.0
20980,-4.3053102,8.338898,-4.857437,2.0995972,1.5802735,0.8931519,0.0
20981,-4.3053102,8.338898,-4.857437,1.9328613,1.0694458,0.28568116,0.0
20982,-4.011277,9.45076,-4.4222527,1.9328613,1.0694458,0.28568116,0.0
20983,-4.011277,9.45076,-4.4222527,0.3079834,1.7119629,-0.45560303,0.0
20984,-4.431324,9.828346,-3.7265224,0.3079834,1.7119629,-0.45560303,0.0
20985,-4.431324,9.828346,-3.7265224,-0.634021,1.0269654,-0.89846194,0.0
20986,-6.345023,8.783279,-2.5608826,-0.634021,1.0269654,-0.89846194,0.0
20987,-6.345023,8.783279,-2.5608826,-0.8581055,0.28674316,-0.9781128,0.0
20988,-9.5190735,7.363991,-0.4436283,-0.8581055,0.28674316,-0.9781128,0.0
20989,-9.5190735,7.363991,-0.4436283,-0.814563,-0.9696167,-0.3727661,0.0
20990,-11.4404545,6.359421,1.932415,-0.814563,-0.9696167,-0.3727661,0.0
20991,-11.4404545,6.359421,1.932415,-0.36851808,-2.0528686,0.7104859,0.0
20992,-8.703695,5.445694,3.227768,-0.36851808,-2.0528686,0.7104859,0.0
20993,-8.703695,5.445694,3.227768,0.41099855,-2.2121704,1.8139161,0.0
20994,-3.0010052,3.7491684,2.8312988,0.41099855,-2.2121704,1.8139161,0.0
20995,-3.0010052,3.7491684,2.8312988,1.0875,-2.3789062,1.719397,0.0
20996,0.3931408,0.12877655,0.6076546,1.0875,-2.3789062,1.719397,0.0
20997,0.3931408,0.12877655,0.6076546,2.0995972,-2.3842163,1.2478638,0.0
20998,0.2687111,-7.6241302,-2.0767174,2.0995972,-2.3842163,1.2478638,0.0
20999,0.2687111,-7.6241302,-2.0767174,3.270996,-2.2950075,1.1193603,0.0
21000,0.88020325,-17.709244,-4.3075905,3.270996,-2.2950075,1.1193603,0.0
21001,0.88020325,-17.709244,-4.3075905,4.3117676,-1.899939,1.4358399,0.0
21002,6.2876835,-22.78717,-6.413273,4.3117676,-1.899939,1.4358399,0.0
21003,6.2876835,-22.78717,-6.413273,4.6399293,-2.0741088,2.5424562,0.0
21004,14.742378,-19.938515,-5.509636,4.6399293,-2.0741088,2.5424562,0.0
21005,14.742378,-19.938515,-5.509636,2.543518,-1.6747925,2.5127199,0.0
21006,16.573944,-11.293892,-0.5816097,2.543518,-1.6747925,2.5127199,0.0
21007,16.573944,-11.293892,-0.5816097,-2.7760987,-1.2043213,1.8627685,0.0
21008,8.831018,-2.244934,3.614132,-2.7760987,-1.2043213,1.8627685,0.0
21009,8.831018,-2.244934,3.614132,-4.8756957,-0.83474123,2.0709229,0.0
21010,0.39988565,3.0218887,3.977707,-4.8756957,-0.83474123,2.0709229,0.0
21011,0.39988565,3.0218887,3.977707,-3.0554078,-1.8330323,2.256775,0.0
21012,-2.6558728,6.3184967,1.8303947,-3.0554078,-1.8330323,2.256775,0.0
21013,-2.6558728,6.3184967,1.8303947,-1.2924683,-2.3332398,1.9477295,0.0
21014,-2.098795,9.543411,0.03376007,-1.2924683,-2.3332398,1.9477295,0.0
21015,-2.098795,9.543411,0.03376007,-0.71154785,-2.4097047,1.5590333,0.0
21016,-1.3035598,11.79451,-0.2559147,-0.71154785,-2.4097047,1.5590333,0.0
21017,-1.3035598,11.79451,-0.2559147,-1.0259033,-2.3268678,1.3614991,0.0
21018,-1.1580577,12.268677,0.36468887,-1.0259033,-2.3268678,1.3614991,0.0
21019,-1.1580577,12.268677,0.36468887,-1.9392334,-2.1038454,1.4698242,0.0
21020,-0.73099947,11.457092,1.4573879,-1.9392334,-2.1038454,1.4698242,0.0
21021,-0.73099947,11.457092,1.4573879,-2.3980224,-1.7905518,1.3391968,0.0
21022,0.41998577,10.5527115,3.0865898,-2.3980224,-1.7905518,1.3391968,0.0
21023,0.41998577,10.5527115,3.0865898,-1.8956909,-1.3891114,1.0768799,0.0
21024,1.4978051,9.969978,4.8671856,-1.8956909,-1.3891114,1.0768799,0.0
21025,1.4978051,9.969978,4.8671856,-0.90695804,-0.71367186,0.8358032,0.0
21026,1.4882832,8.717537,5.737194,-0.90695804,-0.71367186,0.8358032,0.0
21027,1.4882832,8.717537,5.737194,-0.1083252,-0.13168946,0.52888185,0.0
21028,0.49687672,6.025276,4.7245216,-0.1083252,-0.13168946,0.52888185,0.0
21029,0.49687672,6.025276,4.7245216,0.17523193,0.46834716,-0.0021240234,0.0
21030,-0.1970787,2.5313034,2.423561,0.17523193,0.46834716,-0.0021240234,0.0
21031,-0.1970787,2.5313034,2.423561,-0.10513916,1.0790039,-0.47684327,0.0
21032,0.1252718,-0.31250763,0.23543167,-0.10513916,1.0790039,-0.47684327,0.0
21033,0.1252718,-0.31250763,0.23543167,-0.542688,1.8319702,-0.77526855,0.0
21034,0.33670425,-3.0288773,-1.523716,-0.542688,1.8319702,-0.77526855,0.0
21035,0.33670425,-3.0288773,-1.523716,-0.52250975,2.35448,-1.6365601,0.0
21036,-0.6485319,-8.664375,-3.4428864,-0.52250975,2.35448,-1.6365601,0.0
21037,-0.6485319,-8.664375,-3.4428864,0.058410645,2.7516725,-3.1371827,0.0
21038,-2.1994042,-16.912704,-5.4500847,0.058410645,2.7516725,-3.1371827,0.0
21039,-2.1994042,-16.912704,-5.4500847,0.904834,2.3066895,-3.0384157,0.0
21040,-3.2943745,-21.149902,-5.27236,0.904834,2.3066895,-3.0384157,0.0
21041,-3.2943745,-21.149902,-5.27236,2.4829834,1.4677002,-2.2886353,0.0
21042,-3.1006365,-16.61937,0.21240997,2.4829834,1.4677002,-2.2886353,0.0
21043,-3.1006365,-16.61937,0.21240997,2.16969,0.5097656,-2.1250856,0.0
21044,-1.5804605,-7.551033,7.5477715,2.16969,0.5097656,-2.1250856,0.0
21045,-1.5804605,-7.551033,7.5477715,-2.806897,0.08920898,-0.998291,0.0
21046,-0.5046272,0.015487671,8.36694,-2.806897,0.08920898,-0.998291,0.0
21047,-0.5046272,0.015487671,8.36694,-3.888025,1.0694458,-0.24001466,0.0
21048,-1.5485506,4.4502716,1.7147675,-3.888025,1.0694458,-0.24001466,0.0
21049,-1.5485506,4.4502716,1.7147675,-1.1554688,1.8638306,0.3079834,0.0
21050,-3.5351782,6.5762024,-5.524498,-1.1554688,1.8638306,0.3079834,0.0
21051,-3.5351782,6.5762024,-5.524498,1.5154908,1.5494751,0.3451538,0.0
21052,-4.581377,8.353111,-8.200348,1.5154908,1.5494751,0.3451538,0.0
21053,-4.581377,8.353111,-8.200348,2.2865112,1.0280274,0.47471926,0.0
21054,-4.3975477,10.010872,-6.73905,2.2865112,1.0280274,0.47471926,0.0
21055,-4.3975477,10.010872,-6.73905,1.6004517,0.3164795,0.5331299,0.0
21056,-3.631734,10.911652,-3.267229,1.6004517,0.3164795,0.5331299,0.0
21057,-3.631734,10.911652,-3.267229,0.24957275,-0.26019287,0.8219971,0.0
21058,-3.631734,10.911652,-3.267229,-0.7943848,-0.6701294,0.9218262,0.0
21059,-3.1272745,11.08905,0.4008026,-0.7943848,-0.6701294,0.9218262,0.0
21060,-3.480835,10.7547,2.5126343,-0.7943848,-0.6701294,0.9218262,0.0
21061,-3.480835,10.7547,2.5126343,-0.5331299,-1.3668091,0.7880127,0.0
21062,-3.6307,9.295403,2.5243416,-0.5331299,-1.3668091,0.7880127,0.0
21063,-3.6307,9.295403,2.5243416,0.19753419,-1.897815,0.9589966,0.0
21064,-2.6336498,6.231949,1.5908966,0.19753419,-1.897815,0.9589966,0.0
21065,-2.6336498,6.231949,1.5908966,0.5777344,-2.253589,1.1129884,0.0
21066,-1.2547722,2.8387947,0.7292366,0.5777344,-2.253589,1.1129884,0.0
21067,-1.2547722,2.8387947,0.7292366,0.55755615,-2.4150147,1.1522827,0.0
21068,-0.871542,-0.023521423,0.012172699,0.55755615,-2.4150147,1.1522827,0.0
21069,-0.871542,-0.023521423,0.012172699,0.4694092,-2.3321779,0.4598511,0.0
21070,-2.2336102,-6.5383606,-0.9550438,0.4694092,-2.3321779,0.4598511,0.0
21071,-2.2336102,-6.5383606,-0.9550438,1.6514282,-1.44646,-1.4358399,0.0
21072,-3.1102772,-20.009377,-2.1028519,1.6514282,-1.44646,-1.4358399,0.0
21073,-3.1102772,-20.009377,-2.1028519,3.0607178,-0.7508423,0.81243896,0.0
21074,0.7118759,-28.479095,-3.2580643,3.0607178,-0.7508423,0.81243896,0.0
21075,0.7118759,-28.479095,-3.2580643,7.072998,-1.0524536,1.9466676,0.0
21076,9.9326105,-24.194206,-0.6840286,7.072998,-1.0524536,1.9466676,0.0
21077,9.9326105,-24.194206,-0.6840286,7.8387084,0.5501221,2.977881,0.0
21078,14.341267,-12.696716,6.2962456,7.8387084,0.5501221,2.977881,0.0
21079,14.341267,-12.696716,6.2962456,-2.5668824,-2.3364258,1.7268311,0.0
21080,8.173624,-0.38227844,8.349216,-2.5668824,-2.3364258,1.7268311,0.0
21081,8.173624,-0.38227844,8.349216,-9.914942,0.7975708,1.3614991,0.0
21082,-0.49733162,6.4068832,3.8893814,-9.914942,0.7975708,1.3614991,0.0
21083,-0.49733162,6.4068832,3.8893814,-9.772632,0.24213867,1.629126,0.0
21084,-3.4779682,7.762329,-0.6768875,-9.772632,0.24213867,1.629126,0.0
21085,-3.4779682,7.762329,-0.6768875,-4.636743,-1.2096313,1.7055908,0.0
21086,-1.6135759,8.680275,-2.397541,-4.636743,-1.2096313,1.7055908,0.0
21087,-1.6135759,8.680275,-2.397541,-0.9239502,-1.9710938,1.3009644,0.0
21088,0.7691002,11.289574,-1.6406174,-0.9239502,-1.9710938,1.3009644,0.0
21089,0.7691002,11.289574,-1.6406174,-0.3536499,-2.0911012,1.3763672,0.0
21090,2.0060759,13.865486,0.28645706,-0.3536499,-2.0911012,1.3763672,0.0
21091,2.0060759,13.865486,0.28645706,-0.901648,-2.250403,1.3466309,0.0
21092,2.6059465,14.656319,2.3689117,-0.901648,-2.250403,1.3466309,0.0
21093,2.6059465,14.656319,2.3689117,-0.9653687,-2.2822633,0.9345703,0.0
21094,2.6545448,13.408638,3.8981552,-0.9653687,-2.2822633,0.9345703,0.0
21095,2.6545448,13.408638,3.8981552,-0.8814697,-2.2376587,0.62340087,0.0
21096,2.0114899,10.273224,3.7778358,-0.8814697,-2.2376587,0.62340087,0.0
21097,2.0114899,10.273224,3.7778358,-1.3774292,-1.2722901,0.4715332,0.0
21098,1.0819454,6.2383766,2.1878815,-1.3774292,-1.2722901,0.4715332,0.0
21099,1.0819454,6.2383766,2.1878815,-1.7820557,-0.058410645,-0.5671143,0.0
21100,0.5787525,3.1953888,0.5903206,-1.7820557,-0.058410645,-0.5671143,0.0
21101,0.5787525,3.1953888,0.5903206,-1.1384766,0.74447024,-1.5898316,0.0
21102,1.0943499,0.9891739,-0.48371124,-1.1384766,0.74447024,-1.5898316,0.0
21103,1.0943499,0.9891739,-0.48371124,0.18479005,1.7958618,-1.7576294,0.0
21104,1.8121862,-3.575714,-1.4561348,0.18479005,1.7958618,-1.7576294,0.0
21105,1.8121862,-3.575714,-1.4561348,1.8744507,2.4150147,-1.3965454,0.0
21106,0.9626522,-11.356255,-2.743473,1.8744507,2.4150147,-1.3965454,0.0
21107,0.9626522,-11.356255,-2.743473,1.7438233,2.3449218,-2.8100832,0.0
21108,-0.90127707,-17.708572,-4.2876625,1.7438233,2.3449218,-2.8100832,0.0
21109,-0.90127707,-17.708572,-4.2876625,1.1554688,2.438379,-3.2380738,0.0
21110,-1.3834848,-19.060974,-4.042156,1.1554688,2.438379,-3.2380738,0.0
21111,-1.3834848,-19.060974,-4.042156,-2.0220704,2.5859985,-2.529712,0.0
21112,-0.8229499,-16.005356,-0.56238556,-2.0220704,2.5859985,-2.529712,0.0
21113,-0.8229499,-16.005356,-0.56238556,-4.702588,2.7495484,-1.7735596,0.0
21114,-1.0043926,-10.232216,2.9959183,-4.702588,2.7495484,-1.7735596,0.0
21115,-1.0043926,-10.232216,2.9959183,-2.5679443,2.5647583,-0.27293703,0.0
21116,-2.0641222,-3.5233002,1.982563,-2.5679443,2.5647583,-0.27293703,0.0
21117,-2.0641222,-3.5233002,1.982563,0.72216797,2.0316284,0.5363159,0.0
21118,-3.1481,2.6807785,-2.520115,0.72216797,2.0316284,0.5363159,0.0
21119,-3.1481,2.6807785,-2.520115,1.8447144,2.1558838,0.58623046,0.0
21120,-3.845848,7.0264664,-5.114723,1.8447144,2.1558838,0.58623046,0.0
21121,-3.845848,7.0264664,-5.114723,1.7278931,1.9997681,0.5161377,0.0
21122,-3.845848,7.0264664,-5.114723,1.7278931,1.9997681,0.5161377,157.0
21123,-3.854559,9.483185,-4.149212,1.7278931,1.9997681,0.5161377,157.0
21124,-3.854559,9.483185,-4.149212,1.0513916,1.6046997,0.4333008,157.0
21125,-3.3813152,10.847572,-1.4978237,1.0513916,1.6046997,0.4333008,157.0
21126,-3.3813152,10.847572,-1.4978237,0.41418457,1.273352,0.37701416,157.0
21127,-3.465416,11.186531,1.0386429,0.41418457,1.273352,0.37701416,157.0
21128,-3.465416,11.186531,1.0386429,0.3717041,0.5894165,0.5363159,157.0
21129,-4.571697,10.757484,2.3014603,0.3717041,0.5894165,0.5363159,157.0
21130,-4.571697,10.757484,2.3014603,0.8952759,0.020178223,0.64570314,157.0
21131,-5.9391937,10.130074,1.9518623,0.8952759,0.020178223,0.64570314,157.0
21132,-5.9391937,10.130074,1.9518623,1.3275146,-0.6042847,0.814563,157.0
21133,-5.8556767,8.657585,0.81879044,1.3275146,-0.6042847,0.814563,157.0
21134,-5.8556767,8.657585,0.81879044,1.4687623,-1.1915772,1.0492676,157.0
21135,-3.5841503,5.829193,-0.10978699,1.4687623,-1.1915772,1.0492676,157.0
21136,-3.5841503,5.829193,-0.10978699,0.9802368,-1.5770874,1.1395386,157.0
21137,-0.8033066,2.4925385,-0.56954193,0.9802368,-1.5770874,1.1395386,157.0
21138,-0.8033066,2.4925385,-0.56954193,0.36745605,-1.5972656,0.99298096,157.0
21139,-0.021636963,-2.0727882,-1.0539246,0.36745605,-1.5972656,0.99298096,157.0
21140,-0.021636963,-2.0727882,-1.0539246,1.0747559,-1.4751343,-0.11469727,157.0
21141,-1.1771126,-11.824921,-2.0706902,1.0747559,-1.4751343,-0.11469727,157.0
21142,-1.1771126,-11.824921,-2.0706902,2.3173096,-1.1108643,-0.5171997,157.0
21143,-0.44828224,-21.59298,-3.620798,2.3173096,-1.1108643,-0.5171997,157.0
21144,-0.44828224,-21.59298,-3.620798,3.896521,-1.6121339,0.96218264,157.0
21145,6.0254936,-22.977646,-4.3103714,3.896521,-1.6121339,0.96218264,157.0
21146,6.0254936,-22.977646,-4.3103714,2.8759277,-0.5511841,1.6535523,157.0
21147,14.270859,-17.605545,-0.661396,2.8759277,-0.5511841,1.6535523,157.0
21148,14.270859,-17.605545,-0.661396,-2.2249146,-0.90802,2.0964112,157.0
21149,13.624853,-8.378487,4.3869095,-2.2249146,-0.90802,2.0964112,157.0
21150,13.624853,-8.378487,4.3869095,-6.1161256,-0.5713623,1.6705445,157.0
21151,4.406474,0.6663971,4.6130924,-6.1161256,-0.5713623,1.6705445,157.0
21152,4.406474,0.6663971,4.6130924,-4.9606566,-0.6425171,1.7555054,157.0
21153,-2.9756145,5.9497604,1.7040977,-4.9606566,-0.6425171,1.7555054,157.0
21154,-2.9756145,5.9497604,1.7040977,-1.5760254,-1.4326538,1.8744507,157.0
21155,-2.9756145,5.9497604,1.7040977,0.095581055,-2.0411866,1.7109009,157.0
21156,-3.3552113,8.751762,-0.48809052,0.095581055,-2.0411866,1.7109009,157.0
21157,-0.015846252,10.485786,-0.7798767,0.095581055,-2.0411866,1.7109009,157.0
21158,-0.015846252,10.485786,-0.7798767,-0.36639404,-2.0677369,1.1958252,157.0
21159,2.3564396,11.336624,0.36115646,-0.36639404,-2.0677369,1.1958252,157.0
21160,2.3564396,11.336624,0.36115646,-1.2956543,-1.8956909,1.1512207,157.0
21161,2.9925003,11.680237,2.141304,-1.2956543,-1.8956909,1.1512207,157.0
21162,2.9925003,11.680237,2.141304,-1.6726685,-1.8022339,1.1586548,157.0
21163,3.0376768,11.586548,3.8343697,-1.6726685,-1.8022339,1.1586548,157.0
21164,3.0376768,11.586548,3.8343697,-1.0333375,-1.4815063,0.67331547,157.0
21165,2.570022,10.275658,4.5547295,-1.0333375,-1.4815063,0.67331547,157.0
21166,2.570022,10.275658,4.5547295,-0.0180542,-0.95581055,0.35152587,157.0
21167,1.6087279,7.4188995,3.674961,-0.0180542,-0.95581055,0.35152587,157.0
21168,1.6087279,7.4188995,3.674961,0.6149048,-0.07540283,-0.1709839,157.0
21169,1.0857372,4.5077057,1.8918991,0.6149048,-0.07540283,-0.1709839,157.0
21170,1.0857372,4.5077057,1.8918991,0.95793456,0.98129886,-1.2298096,157.0
21171,1.4580555,2.6629639,0.62615204,0.95793456,0.98129886,-1.2298096,157.0
21172,1.4580555,2.6629639,0.62615204,1.3041505,2.0995972,-2.005078,157.0
21173,1.4580555,2.6629639,0.62615204,1.9233032,3.0639038,-2.0199463,157.0
21174,2.0620623,0.6570053,0.41051483,1.9233032,3.0639038,-2.0199463,157.0
21175,1.7396035,-4.5105515,-0.09585571,1.9233032,3.0639038,-2.0199463,157.0
21176,1.7396035,-4.5105515,-0.09585571,2.9523926,3.6660645,-2.8153932,157.0
21177,0.4206133,-12.750969,-1.3334846,2.9523926,3.6660645,-2.8153932,157.0
21178,0.4206133,-12.750969,-1.3334846,2.0326905,3.6278322,-4.3627443,157.0
21179,-0.2604332,-18.29229,-2.2108078,2.0326905,3.6278322,-4.3627443,157.0
21180,-0.2604332,-18.29229,-2.2108078,-1.1650269,3.2189577,-3.982544,157.0
21181,0.55851126,-18.240608,-2.596859,-1.1650269,3.2189577,-3.982544,157.0
21182,0.55851126,-18.240608,-2.596859,-4.980835,3.797754,-3.1201904,157.0
21183,0.8282666,-14.882294,-2.4256325,-4.980835,3.797754,-3.1201904,157.0
21184,0.8282666,-14.882294,-2.4256325,-4.642053,4.0186524,-2.090039,157.0
21185,-1.3654995,-9.637741,-2.4946556,-4.642053,4.0186524,-2.090039,157.0
21186,-1.3654995,-9.637741,-2.4946556,0.11151123,2.9215944,-0.78164065,157.0
21187,-4.1112595,-2.463028,-3.8429527,0.11151123,2.9215944,-0.78164065,157.0
21188,-4.1112595,-2.463028,-3.8429527,2.3056276,2.5849366,-0.89846194,157.0
21189,-5.6493225,4.781494,-4.851927,2.3056276,2.5849366,-0.89846194,157.0
21190,-5.6493225,4.781494,-4.851927,1.8606446,2.6805177,-0.9281983,157.0
21191,-6.5886602,9.334496,-3.7499008,1.8606446,2.6805177,-0.9281983,157.0
21192,-6.5886602,9.334496,-3.7499008,0.8071289,2.6029909,-1.1374146,157.0
21193,-7.251177,10.871773,-1.2679634,0.8071289,2.6029909,-1.1374146,157.0
21194,-7.251177,10.871773,-1.2679634,0.1178833,2.0326905,-0.7688965,157.0
21195,-7.9705944,10.409195,0.69485855,0.1178833,2.0326905,-0.7688965,157.0
21196,-7.9705944,10.409195,0.69485855,0.6149048,1.4443359,0.040356446,157.0
21197,-9.286594,9.554909,0.83185196,0.6149048,1.4443359,0.040356446,157.0
21198,-9.286594,9.554909,0.83185196,1.8001099,0.5607422,0.9781128,157.0
21199,-9.956888,8.904327,-0.13703156,1.8001099,0.5607422,0.9781128,157.0
21200,-9.956888,8.904327,-0.13703156,2.4766114,-0.6265869,1.6376221,157.0
21201,-7.6417694,7.0962524,-0.5413151,2.4766114,-0.6265869,1.6376221,157.0
21202,-7.6417694,7.0962524,-0.5413151,2.0677369,-1.3434448,1.8595825,157.0
21203,-3.194006,3.6136475,-0.29275703,2.0677369,-1.3434448,1.8595825,157.0
21204,-3.194006,3.6136475,-0.29275703,1.2414917,-1.7682495,2.1537597,157.0
21205,0.17921829,-0.48410797,-0.68608475,1.2414917,-1.7682495,2.1537597,157.0
21206,0.17921829,-0.48410797,-0.68608475,0.7051758,-2.2748291,2.453247,157.0
21207,1.5702667,-5.1373444,-2.0857334,0.7051758,-2.2748291,2.453247,157.0
21208,1.5702667,-5.1373444,-2.0857334,0.8400513,-2.4043946,1.7098389,157.0
21209,1.5702667,-5.1373444,-2.0857334,1.1289185,-2.0146363,0.815625,157.0
21210,2.8289185,-12.002213,-3.4989338,1.1289185,-2.0146363,0.815625,157.0
21211,6.28767,-18.772217,-4.3072643,1.1289185,-2.0146363,0.815625,157.0
21212,6.28767,-18.772217,-4.3072643,1.6726685,-1.8818848,2.2376587,157.0
21213,11.732553,-19.458328,-3.8417225,1.6726685,-1.8818848,2.2376587,157.0
21214,11.732553,-19.458328,-3.8417225,1.7937378,-1.7555054,2.362976,157.0
21215,15.578205,-13.7823715,-1.2682991,1.7937378,-1.7555054,2.362976,157.0
21216,15.578205,-13.7823715,-1.2682991,0.0,-1.4698242,2.0624268,157.0
21217,13.775003,-5.8861465,2.264841,0.0,-1.4698242,2.0624268,157.0
21218,13.775003,-5.8861465,2.264841,-2.2026124,-1.3030884,2.1548219,157.0
21219,7.3702593,1.5781174,4.1648865,-2.2026124,-1.3030884,2.1548219,157.0
21220,7.3702593,1.5781174,4.1648865,-2.5902467,-1.898877,2.066675,157.0
21221,1.6446695,7.048218,3.7530518,-2.5902467,-1.898877,2.066675,157.0
21222,1.6446695,7.048218,3.7530518,-2.2121704,-2.1144655,1.5590333,157.0
21223,-0.9479971,9.504631,2.9201794,-2.2121704,-2.1144655,1.5590333,157.0
21224,-0.9479971,9.504631,2.9201794,-1.5802735,-2.3778443,0.98129886,157.0
21225,-0.9479971,9.504631,2.9201794,-1.5802735,-2.3778443,0.98129886,164.0
21226,-1.1732292,9.783577,2.911827,-1.5802735,-2.3778443,0.98129886,164.0
21227,-1.1732292,9.783577,2.911827,-0.86978763,-2.52865,0.6796875,164.0
21228,-0.46716022,9.652664,3.4257755,-0.86978763,-2.52865,0.6796875,164.0
21229,-0.46716022,9.652664,3.4257755,-0.6701294,-2.430945,0.16885987,164.0
21230,0.11230707,9.575905,4.0565643,-0.6701294,-2.430945,0.16885987,164.0
21231,0.11230707,9.575905,4.0565643,-0.8814697,-1.9179932,-0.06478272,164.0
21232,0.33371782,8.81694,4.6378784,-0.8814697,-1.9179932,-0.06478272,164.0
21233,0.33371782,8.81694,4.6378784,-0.79226077,-1.3275146,0.15186767,164.0
21234,0.29579544,6.9417496,4.6170425,-0.79226077,-1.3275146,0.15186767,164.0
21235,0.29579544,6.9417496,4.6170425,-0.026550293,-0.88996583,0.271875,164.0
21236,0.21513987,4.725876,3.7714767,-0.026550293,-0.88996583,0.271875,164.0
21237,0.21513987,4.725876,3.7714767,0.99935305,-0.24532472,0.12213135,164.0
21238,0.2966361,2.9558334,2.9482613,0.99935305,-0.24532472,0.12213135,164.0
21239,0.2966361,2.9558334,2.9482613,1.5962037,0.58410645,-0.19328614,164.0
21240,0.5588541,1.3240662,2.6609268,1.5962037,0.58410645,-0.19328614,164.0
21241,0.5588541,1.3240662,2.6609268,1.5972656,1.5462891,-0.5363159,164.0
21242,0.8460822,-1.2481766,2.2761307,1.5972656,1.5462891,-0.5363159,164.0
21243,0.8460822,-1.2481766,2.2761307,1.2754761,2.5700684,-0.9154541,164.0
21244,1.1064434,-5.2686844,0.9856758,1.2754761,2.5700684,-0.9154541,164.0
21245,1.1064434,-5.2686844,0.9856758,0.99085695,3.2072754,-1.8192261,164.0
21246,1.2167835,-6.726692,-0.12830353,0.99085695,3.2072754,-1.8192261,164.0
21247,1.2167835,-6.726692,-0.12830353,0.9218262,3.3687012,-2.2196045,164.0
21248,1.1026015,-10.225494,-2.348919,0.9218262,3.3687012,-2.2196045,164.0
21249,1.1026015,-10.225494,-2.348919,-0.48533937,3.8381104,-2.5127199,164.0
21250,0.9507828,-8.922707,-2.4031944,-0.48533937,3.8381104,-2.5127199,164.0
21251,0.9507828,-8.922707,-2.4031944,-0.8485474,3.8720949,-2.5976808,164.0
21252,-1.7259827,-7.948288,-3.0717392,-0.8485474,3.8720949,-2.5976808,164.0
21253,-1.7259827,-7.948288,-3.0717392,-0.16354981,3.1913452,-3.1902833,164.0
21254,-2.61864,-6.174156,-3.0586014,-0.16354981,3.1913452,-3.1902833,164.0
21255,-2.61864,-6.174156,-3.0586014,0.0010620117,2.9226563,-3.1987793,164.0
21256,-5.496707,-1.7510834,-4.7817917,0.0010620117,2.9226563,-3.1987793,164.0
21257,-5.496707,-1.7510834,-4.7817917,-0.3695801,2.3396118,-3.064966,164.0
21258,-5.0458393,0.3096161,-4.6102104,-0.3695801,2.3396118,-3.064966,164.0
21259,-5.0458393,0.3096161,-4.6102104,-0.3993164,2.1548219,-3.177539,164.0
21260,-7.000149,5.6335373,-4.50305,-0.3993164,2.1548219,-3.177539,164.0
21261,-7.000149,5.6335373,-4.50305,0.06584473,1.4188477,-3.2263916,164.0
21262,-7.047409,6.1174393,-3.234909,0.06584473,1.4188477,-3.2263916,164.0
21263,-7.047409,6.1174393,-3.234909,0.17416993,1.171399,-2.9003541,164.0
21264,-9.834181,8.582283,-1.0997314,0.17416993,1.171399,-2.9003541,164.0
21265,-9.834181,8.582283,-1.0997314,0.22514649,1.0322754,-1.1501588,164.0
21266,-8.798279,7.5524597,-0.83003044,0.22514649,1.0322754,-1.1501588,164.0
21267,-8.798279,7.5524597,-0.83003044,0.13381349,1.0099732,-0.6265869,164.0
21268,-7.8398685,6.3378525,-2.2829323,0.13381349,1.0099732,-0.6265869,164.0
21269,-7.8398685,6.3378525,-2.2829323,0.0053100586,0.2782471,0.630835,164.0
21270,-7.8398685,6.3378525,-2.2829323,-0.021240234,-0.12000733,0.9366943,164.0
21271,-5.6052685,4.2550125,-2.4909096,-0.021240234,-0.12000733,0.9366943,164.0
21272,-0.5804672,-2.2508469,-2.1075363,-0.021240234,-0.12000733,0.9366943,164.0
21273,-0.5804672,-2.2508469,-2.1075363,0.11682129,-1.3020264,2.4649293,164.0
21274,1.0712719,-4.2972565,-1.3431454,0.11682129,-1.3020264,2.4649293,164.0
21275,1.0712719,-4.2972565,-1.3431454,0.5320679,-1.5484132,2.8355713,164.0
21276,3.84276,-9.108498,-0.6337204,0.5320679,-1.5484132,2.8355713,164.0
21277,3.84276,-9.108498,-0.6337204,1.1013062,-1.627002,2.904602,164.0
21278,6.223341,-13.917267,-0.87610626,1.1013062,-1.627002,2.904602,164.0
21279,6.223341,-13.917267,-0.87610626,1.6843506,-1.2000732,3.064966,164.0
21280,9.775158,-16.236588,-1.1688652,1.6843506,-1.2000732,3.064966,164.0
21281,9.775158,-16.236588,-1.1688652,1.8542725,-1.3360108,4.1652102,164.0
21282,13.138034,-13.376038,0.7112694,1.8542725,-1.3360108,4.1652102,164.0
21283,13.138034,-13.376038,0.7112694,0.32922363,-2.2142944,3.7499635,164.0
21284,10.312015,-5.3330917,4.998764,0.32922363,-2.2142944,3.7499635,164.0
21285,10.312015,-5.3330917,4.998764,-1.9434814,-2.3704102,3.6596925,164.0
21286,6.245681,-2.2467651,4.7436523,-1.9434814,-2.3704102,3.6596925,164.0
21287,6.245681,-2.2467651,4.7436523,-1.6673584,-2.6964478,3.714917,164.0
21288,2.205175,1.9675293,3.546667,-1.6673584,-2.6964478,3.714917,164.0
21289,2.205175,1.9675293,3.546667,-1.1692749,-3.1509888,3.4865844,164.0
21290,1.1792402,6.236389,1.8466225,-1.1692749,-3.1509888,3.4865844,164.0
21291,1.1792402,6.236389,1.8466225,-1.269104,-3.1297486,2.9630127,164.0
21292,0.99906826,9.701111,1.0804482,-1.269104,-3.1297486,2.9630127,164.0
21293,0.99906826,9.701111,1.0804482,-1.7140869,-3.0256715,2.4872315,164.0
21294,0.89033127,11.546875,1.0749054,-1.7140869,-3.0256715,2.4872315,164.0
21295,0.89033127,11.546875,1.0749054,-2.1495118,-2.642285,1.9710938,164.0
21296,1.361093,12.598312,1.2065048,-2.1495118,-2.642285,1.9710938,164.0
21297,1.361093,12.598312,1.2065048,-2.4872315,-2.182434,1.178833,164.0
21298,2.4725046,14.449326,1.1331863,-2.4872315,-2.182434,1.178833,164.0
21299,2.4725046,14.449326,1.1331863,-2.3990846,-1.9806519,-0.75721437,164.0
21300,2.7439342,16.907578,1.1277657,-2.3990846,-1.9806519,-0.75721437,164.0
21301,2.7439342,16.907578,1.1277657,-2.1643798,-1.5739014,-2.0178223,164.0
21302,1.1652765,16.671951,1.5378456,-2.1643798,-1.5739014,-2.0178223,164.0
21303,1.1652765,16.671951,1.5378456,-2.5541382,-0.44498292,-1.7841797,164.0
21304,-0.68822575,9.042519,3.1377335,-2.5541382,-0.44498292,-1.7841797,164.0
21305,-0.68822575,9.042519,3.1377335,-1.0343994,1.4369019,-4.0229006,164.0
21306,-0.52376175,4.3303413,3.341755,-1.0343994,1.4369019,-4.0229006,164.0
21307,-0.52376175,4.3303413,3.341755,-0.2623169,1.8436524,-4.1981325,164.0
21308,0.49858093,-1.692646,4.0929832,-0.2623169,1.8436524,-4.1981325,164.0
21309,0.49858093,-1.692646,4.0929832,1.0174073,2.4224489,-4.239551,164.0
21310,0.92457294,-5.6829376,3.0231667,1.0174073,2.4224489,-4.239551,164.0
21311,0.92457294,-5.6829376,3.0231667,1.6100098,2.262085,-4.430713,164.0
21312,1.7918799,-11.479271,-0.8756447,1.6100098,2.262085,-4.430713,164.0
21313,1.7918799,-11.479271,-0.8756447,0.28568116,1.9615357,-5.9313354,164.0
21314,5.297359,-20.070633,-5.1225357,0.28568116,1.9615357,-5.9313354,164.0
21315,5.297359,-20.070633,-5.1225357,-4.003784,2.9120362,-5.980188,164.0
21316,7.4404755,-27.293518,-4.5616264,-4.003784,2.9120362,-5.980188,164.0
21317,7.4404755,-27.293518,-4.5616264,-7.913049,3.891211,-3.9570558,164.0
21318,3.0189087,-28.107704,-0.78570175,-7.913049,3.891211,-3.9570558,164.0
21319,3.0189087,-28.107704,-0.78570175,-2.071985,2.1537597,-1.7671875,164.0
21320,-3.768174,-18.381607,-0.21982193,-2.071985,2.1537597,-1.7671875,164.0
21321,-3.768174,-18.381607,-0.21982193,3.1403687,0.7763306,-0.27399904,164.0
21322,-7.3621464,-3.4883347,-2.570572,3.1403687,0.7763306,-0.27399904,164.0
21323,-7.3621464,-3.4883347,-2.570572,3.0065553,0.6202149,-0.19753419,164.0
21324,-8.22928,7.8531036,-3.8971062,3.0065553,0.6202149,-0.19753419,164.0
21325,-8.22928,7.8531036,-3.8971062,2.3778443,0.7699585,0.022302246,164.0
21326,-8.569033,13.707558,-3.5581875,2.3778443,0.7699585,0.022302246,164.0
21327,-8.569033,13.707558,-3.5581875,0.90695804,0.994043,-0.3334717,164.0
21328,-9.215029,15.498451,-2.3786182,0.90695804,0.994043,-0.3334717,164.0
21329,-9.215029,15.498451,-2.3786182,-0.7083618,1.268042,-0.6085327,164.0
21330,-10.361818,14.946968,-0.060426712,-0.7083618,1.268042,-0.6085327,164.0
21331,-10.361818,14.946968,-0.060426712,-1.7693115,0.72960204,-0.27718505,164.0
21332,-11.761013,13.774124,2.7200298,-1.7693115,0.72960204,-0.27718505,164.0
21333,-11.761013,13.774124,2.7200298,-2.2865112,0.2888672,-0.14761963,164.0
21334,-13.120762,12.943382,3.9458961,-2.2865112,0.2888672,-0.14761963,164.0
21335,-13.120762,12.943382,3.9458961,-1.2372437,0.72323,0.24107666,164.0
21336,-12.718277,10.743233,3.104725,-1.2372437,0.72323,0.24107666,164.0
21337,-12.718277,10.743233,3.104725,0.26337892,-0.010620117,0.6042847,164.0
21338,-8.422045,6.710312,1.3207436,0.26337892,-0.010620117,0.6042847,164.0
21339,-8.422045,6.710312,1.3207436,0.8496094,-0.36002198,1.0089111,164.0
21340,-8.422045,6.710312,1.3207436,0.8496094,-0.36002198,1.0089111,167.0
21341,-2.586647,3.0756226,-0.44064713,0.8496094,-0.36002198,1.0089111,167.0
21342,-2.586647,3.0756226,-0.44064713,0.5734863,-0.58198243,1.3806152,167.0
21343,0.98854446,-0.34827423,-1.9684486,0.5734863,-0.58198243,1.3806152,167.0
21344,0.98854446,-0.34827423,-1.9684486,0.6159668,-0.68499756,1.0779419,167.0
21345,1.9424095,-6.692894,-4.144888,0.6159668,-0.68499756,1.0779419,167.0
21346,1.9424095,-6.692894,-4.144888,0.6956177,-1.1236085,1.4687623,167.0
21347,2.6492634,-16.616768,-7.504093,0.6956177,-1.1236085,1.4687623,167.0
21348,2.6492634,-16.616768,-7.504093,2.066675,-0.8028809,1.4199097,167.0
21349,7.920326,-26.466087,-9.046963,2.066675,-0.8028809,1.4199097,167.0
21350,7.920326,-26.466087,-9.046963,3.0989501,-0.10513916,2.5042236,167.0
21351,20.348736,-30.63868,-3.6661339,3.0989501,-0.10513916,2.5042236,167.0
21352,20.348736,-30.63868,-3.6661339,2.253589,-0.8262451,5.7221193,167.0
21353,26.369982,-22.518951,2.8932037,2.253589,-0.8262451,5.7221193,167.0
21354,26.369982,-22.518951,2.8932037,-1.0577637,-0.77951664,4.438147,167.0
21355,17.06172,-6.4497223,3.2575321,-1.0577637,-0.77951664,4.438147,167.0
21356,17.06172,-6.4497223,3.2575321,-3.3198488,-0.15080567,5.26864,167.0
21357,4.271227,5.059021,1.7203808,-3.3198488,-0.15080567,5.26864,167.0
21358,4.271227,5.059021,1.7203808,-2.2015502,-1.4804443,5.042432,167.0
21359,-1.0204694,10.463333,1.7286987,-2.2015502,-1.4804443,5.042432,167.0
21360,-1.0204694,10.463333,1.7286987,-0.7604004,-2.7580445,4.1822023,167.0
21361,-0.71448326,14.038025,2.9124374,-0.7604004,-2.7580445,4.1822023,167.0
21362,-0.71448326,14.038025,2.9124374,-0.46622315,-3.1817873,3.0607178,167.0
21363,0.20297384,16.283875,3.5578423,-0.46622315,-3.1817873,3.0607178,167.0
21364,0.20297384,16.283875,3.5578423,-0.98236084,-3.3336549,2.5042236,167.0
21365,0.4657848,16.644142,3.1122646,-0.98236084,-3.3336549,2.5042236,167.0
21366,0.4657848,16.644142,3.1122646,-2.2238526,-3.3899415,2.16969,167.0
21367,1.1523519,15.604233,2.2766514,-2.2238526,-3.3899415,2.16969,167.0
21368,1.1523519,15.604233,2.2766514,-2.972571,-2.794153,1.5208008,167.0
21369,1.8191714,14.888618,2.1467628,-2.972571,-2.794153,1.5208008,167.0
21370,1.8191714,14.888618,2.1467628,-2.269519,-2.1197755,-0.2527588,167.0
21371,0.7693143,14.508194,2.8998184,-2.269519,-2.1197755,-0.2527588,167.0
21372,0.7693143,14.508194,2.8998184,-1.5101807,-1.26167,-1.3158325,167.0
21373,-0.9336331,12.192642,3.3847847,-1.5101807,-1.26167,-1.3158325,167.0
21374,-0.9336331,12.192642,3.3847847,-1.0471436,0.2166504,-2.817517,167.0
21375,-0.8390696,7.938671,3.0685234,-1.0471436,0.2166504,-2.817517,167.0
21376,-0.8390696,7.938671,3.0685234,-0.57561034,1.5579712,-3.978296,167.0
21377,0.5180874,3.7815285,2.4975204,-0.57561034,1.5579712,-3.978296,167.0
21378,0.5180874,3.7815285,2.4975204,-0.5968506,2.3980224,-4.5560303,167.0
21379,0.5180874,3.7815285,2.4975204,-0.991919,3.4186158,-4.7397585,167.0
21380,0.92128134,0.49712372,2.013214,-0.991919,3.4186158,-4.7397585,167.0
21381,-0.11413455,-35.219376,-6.103554,-0.991919,3.4186158,-4.7397585,167.0
21382,-0.11413455,-35.219376,-6.103554,-0.09239502,4.5740848,-4.528418,167.0
21383,-0.11413455,-35.219376,-6.103554,2.2089844,5.645654,-4.8990602,167.0
21384,-0.11413455,-35.219376,-6.103554,4.499744,2.7962768,-5.6764526,167.0
21385,2.36598,-36.512802,-3.285553,4.499744,2.7962768,-5.6764526,167.0
21386,2.36598,-36.512802,-3.285553,0.2814331,1.8765748,-3.2147095,167.0
21387,4.9375715,-26.651184,2.4769173,0.2814331,1.8765748,-3.2147095,167.0
21388,4.9375715,-26.651184,2.4769173,-7.053882,2.4001465,-1.6089478,167.0
21389,1.1674035,-11.958054,2.8945465,-7.053882,2.4001465,-1.6089478,167.0
21390,1.1674035,-11.958054,2.8945465,-4.790735,2.2971313,0.028674318,167.0
21391,-6.071485,0.26927185,-1.8500366,-4.790735,2.2971313,0.028674318,167.0
21392,-6.071485,0.26927185,-1.8500366,1.3763672,1.4177856,0.6425171,167.0
21393,-10.25548,7.8127213,-6.371044,1.3763672,1.4177856,0.6425171,167.0
21394,-10.25548,7.8127213,-6.371044,3.886963,1.09281,0.6435791,167.0
21395,-10.761793,12.615845,-7.39415,3.886963,1.09281,0.6435791,167.0
21396,-10.761793,12.615845,-7.39415,2.8313234,0.9281983,-0.13912354,167.0
21397,-10.507689,15.111259,-4.3452873,2.8313234,0.9281983,-0.13912354,167.0
21398,-10.507689,15.111259,-4.3452873,0.46622315,0.5012695,-0.53525394,167.0
21399,-11.696436,15.733467,1.9254913,0.46622315,0.5012695,-0.53525394,167.0
21400,-11.696436,15.733467,1.9254913,-1.905249,0.13806152,-0.7848267,167.0
21401,-14.412325,15.794449,6.6384277,-1.905249,0.13806152,-0.7848267,167.0
21402,-14.412325,15.794449,6.6384277,-1.6100098,1.0120972,-0.09133301,167.0
21403,-15.240761,13.727722,5.6904907,-1.6100098,1.0120972,-0.09133301,167.0
21404,-15.240761,13.727722,5.6904907,-0.5055176,0.4428589,0.36851808,167.0
21405,-10.43045,8.589989,1.2418938,-0.5055176,0.4428589,0.36851808,167.0
21406,-10.43045,8.589989,1.2418938,0.6552612,-0.5012695,0.8219971,167.0
21407,-3.1925888,3.4445343,-2.2563744,0.6552612,-0.5012695,0.8219971,167.0
21408,-3.1925888,3.4445343,-2.2563744,1.6482422,-1.0779419,1.4953126,167.0
21409,0.96455765,0.06488037,-2.8273888,1.6482422,-1.0779419,1.4953126,167.0
21410,0.96455765,0.06488037,-2.8273888,1.8213501,-1.1182984,1.260608,167.0
21411,1.8159466,-2.4090958,-2.2105808,1.8213501,-1.1182984,1.260608,167.0
21412,1.8159466,-2.4090958,-2.2105808,1.5261109,-0.905896,0.93350834,167.0
21413,1.5484371,-10.562248,-3.7844067,1.5261109,-0.905896,0.93350834,167.0
21414,1.5484371,-10.562248,-3.7844067,1.1013062,-0.67331547,0.29630128,167.0
21415,5.145012,-26.284454,-7.5710316,1.1013062,-0.67331547,0.29630128,167.0
21416,5.145012,-26.284454,-7.5710316,4.8629518,0.721106,1.1374146,167.0
21417,19.06131,-37.12516,-5.2544327,4.8629518,0.721106,1.1374146,167.0
21418,19.06131,-37.12516,-5.2544327,7.344873,-1.0567017,3.3888795,167.0
21419,31.612232,-29.595757,3.9967842,7.344873,-1.0567017,3.3888795,167.0
21420,31.612232,-29.595757,3.9967842,-1.088562,-1.6960328,3.445166,167.0
21421,28.326847,-12.375298,14.281288,-1.088562,-1.6960328,3.445166,167.0
21422,28.326847,-12.375298,14.281288,-7.5678954,2.4734254,4.5762086,167.0
21423,10.288198,1.5490646,0.020832062,-7.5678954,2.4734254,4.5762086,167.0
21424,10.288198,1.5490646,0.020832062,-5.2930665,-0.9388184,4.0526366,167.0
21425,-1.8419632,7.015007,-4.6997166,-5.2930665,-0.9388184,4.0526366,167.0
21426,-1.8419632,7.015007,-4.6997166,-1.089624,-3.2295778,3.5545533,167.0
21427,-4.9350452,10.842987,-4.581856,-1.089624,-3.2295778,3.5545533,167.0
21428,-4.9350452,10.842987,-4.581856,0.65632325,-3.9517457,3.0235474,167.0
21429,-2.0362198,12.919846,-1.4488945,0.65632325,-3.9517457,3.0235474,167.0
21430,-2.0362198,12.919846,-1.4488945,0.9398804,-4.0144043,2.70813,167.0
21431,-0.47157836,14.079468,1.2250404,0.9398804,-4.0144043,2.70813,167.0
21432,-0.47157836,14.079468,1.2250404,-0.24213867,-3.706421,2.6444092,167.0
21433,0.23223448,15.203384,1.9504929,-0.24213867,-3.706421,2.6444092,167.0
21434,0.23223448,15.203384,1.9504929,-1.9806519,-3.4186158,1.6599244,167.0
21435,0.14290428,17.698242,1.8102856,-1.9806519,-3.4186158,1.6599244,167.0
21436,0.14290428,17.698242,1.8102856,-2.8419435,-2.4606812,0.08920898,167.0
21437,0.14290428,17.698242,1.8102856,-2.8419435,-2.4606812,0.08920898,168.0
21438,-1.3054154,17.918297,1.5130959,-2.8419435,-2.4606812,0.08920898,168.0
21439,-1.3054154,17.918297,1.5130959,-3.4632204,-1.2383057,-0.33878174,168.0
21440,-2.8095546,12.993645,1.3319244,-3.4632204,-1.2383057,-0.33878174,168.0
21441,-2.8095546,12.993645,1.3319244,-2.804773,0.06478272,-2.2132325,168.0
21442,-2.1307,6.7811203,1.4681396,-2.804773,0.06478272,-2.2132325,168.0
21443,-2.1307,6.7811203,1.4681396,-2.241907,1.3243287,-3.983606,168.0
21444,0.028264523,3.2449417,1.6418839,-2.241907,1.3243287,-3.983606,168.0
21445,0.028264523,3.2449417,1.6418839,-2.7527344,2.3247437,-4.5443482,168.0
21446,0.028264523,3.2449417,1.6418839,-3.1860352,3.0129273,-4.4901857,168.0
21447,1.4984663,2.008442,1.4228821,-3.1860352,3.0129273,-4.4901857,168.0
21448,5.446051,-21.219788,-8.21903,-3.1860352,3.0129273,-4.4901857,168.0
21449,5.446051,-21.219788,-8.21903,-2.6656494,3.696863,-4.2214966,168.0
21450,5.446051,-21.219788,-8.21903,-0.7519043,4.275659,-2.988501,168.0
21451,5.446051,-21.219788,-8.21903,-2.5605104,4.0250244,-4.6707277,168.0
21452,9.583013,-31.844948,-9.673967,-2.5605104,4.0250244,-4.6707277,168.0
21453,9.583013,-31.844948,-9.673967,-3.446228,3.3049805,-3.5874755,168.0
21454,12.3898115,-30.556427,-9.154322,-3.446228,3.3049805,-3.5874755,168.0
21455,12.3898115,-30.556427,-9.154322,-1.264856,3.3028564,0.057348635,168.0
21456,6.4051843,-19.313484,-7.5736904,-1.264856,3.3028564,0.057348635,168.0
21457,6.4051843,-19.313484,-7.5736904,1.0407715,2.6815796,1.075818,168.0
21458,-3.3090806,-4.4049377,-4.263506,1.0407715,2.6815796,1.075818,168.0
21459,-3.3090806,-4.4049377,-4.263506,2.1250856,1.8946289,0.8729736,168.0
21460,-8.524901,6.781563,-0.42057037,2.1250856,1.8946289,0.8729736,168.0
21461,-8.524901,6.781563,-0.42057037,2.8865478,2.72406,1.3466309,168.0
21462,-8.92207,12.769455,2.1666203,2.8865478,2.72406,1.3466309,168.0
21463,-8.92207,12.769455,2.1666203,2.7814088,2.265271,0.35577393,168.0
21464,-7.3190036,14.958336,2.4805737,2.7814088,2.265271,0.35577393,168.0
21465,-7.3190036,14.958336,2.4805737,1.3349488,3.0076172,-0.5363159,168.0
21466,-7.47272,14.928848,2.273594,1.3349488,3.0076172,-0.5363159,168.0
21467,-7.47272,14.928848,2.273594,-1.0237793,2.879114,-0.8878418,168.0
21468,-11.427456,14.160179,3.8349266,-1.0237793,2.879114,-0.8878418,168.0
21469,-11.427456,14.160179,3.8349266,-2.9449584,1.1214844,-0.9632446,168.0
21470,-11.427456,14.160179,3.8349266,-2.9120362,-0.19222413,-0.31860352,168.0
21471,-17.196922,12.902718,6.0010834,-2.9120362,-0.19222413,-0.31860352,168.0
21472,-17.630646,9.27504,7.0311165,-2.9120362,-0.19222413,-0.31860352,168.0
21473,-17.630646,9.27504,7.0311165,-1.0248413,-0.89421386,-0.18691407,168.0
21474,-9.832911,4.237999,6.6852093,-1.0248413,-0.89421386,-0.18691407,168.0
21475,-9.832911,4.237999,6.6852093,1.8457764,-1.6896607,0.727478,168.0
21476,-1.3087959,0.9194565,4.811693,1.8457764,-1.6896607,0.727478,168.0
21477,-1.3087959,0.9194565,4.811693,2.89823,-2.088977,1.5845215,168.0
21478,1.7483978,-1.120285,1.3019676,2.89823,-2.088977,1.5845215,168.0
21479,1.7483978,-1.120285,1.3019676,3.2242677,-2.171814,1.5558472,168.0
21480,0.5354614,-8.110939,-3.161892,3.2242677,-2.171814,1.5558472,168.0
21481,0.5354614,-8.110939,-3.161892,4.180078,-2.7899048,1.7512573,168.0
21482,1.553112,-22.836258,-6.9679413,4.180078,-2.7899048,1.7512573,168.0
21483,1.553112,-22.836258,-6.9679413,6.2191405,-0.9239502,1.8861328,168.0
21484,11.267588,-35.60482,-6.956751,6.2191405,-0.9239502,1.8861328,168.0
21485,11.267588,-35.60482,-6.956751,6.751209,0.18903808,4.501868,168.0
21486,24.233356,-34.274094,-2.120247,6.751209,0.18903808,4.501868,168.0
21487,24.233356,-34.274094,-2.120247,2.3927124,-2.2514648,4.721704,168.0
21488,24.1075,-17.658691,1.6047173,2.3927124,-2.2514648,4.721704,168.0
21489,24.1075,-17.658691,1.6047173,-3.1382446,1.1363525,4.4477053,168.0
21490,10.791493,0.026573181,1.2221146,-3.1382446,1.1363525,4.4477053,168.0
21491,10.791493,0.026573181,1.2221146,-3.4982667,-0.013806152,5.0126953,168.0
21492,-0.06997937,9.225441,0.13400269,-3.4982667,-0.013806152,5.0126953,168.0
21493,-0.06997937,9.225441,0.13400269,-1.080066,-2.0199463,4.336194,168.0
21494,-3.4164572,13.957924,0.07416916,-1.080066,-2.0199463,4.336194,168.0
21495,-3.4164572,13.957924,0.07416916,-0.67650145,-2.5594482,3.5588014,168.0
21496,-2.6443474,16.793877,0.7466526,-0.67650145,-2.5594482,3.5588014,168.0
21497,-2.6443474,16.793877,0.7466526,-1.4092896,-2.7378662,2.9141603,168.0
21498,-1.4947505,17.59137,1.1504116,-1.4092896,-2.7378662,2.9141603,168.0
21499,-1.4947505,17.59137,1.1504116,-2.698572,-3.0012453,2.6773317,168.0
21500,-0.8538326,16.806808,0.6256275,-2.698572,-3.0012453,2.6773317,168.0
21501,-0.8538326,16.806808,0.6256275,-3.8136842,-3.071338,2.3343017,168.0
21502,-0.31871057,16.058975,0.6382942,-3.8136842,-3.071338,2.3343017,168.0
21503,-0.31871057,16.058975,0.6382942,-3.4122436,-2.176062,0.40144044,168.0
21504,-0.48273945,15.296692,2.4389915,-3.4122436,-2.176062,0.40144044,168.0
21505,-0.48273945,15.296692,2.4389915,-2.2684572,-1.273352,-1.0227174,168.0
21506,-1.0724099,11.686623,3.670395,-2.2684572,-1.273352,-1.0227174,168.0
21507,-1.0724099,11.686623,3.670395,-1.0949341,0.09664307,-2.0571167,168.0
21508,-0.47155094,5.492111,3.0434818,-1.0949341,0.09664307,-2.0571167,168.0
21509,-0.47155094,5.492111,3.0434818,-0.0180542,1.5239868,-3.1478028,168.0
21510,0.78374565,1.3697968,2.3581867,-0.0180542,1.5239868,-3.1478028,168.0
21511,0.78374565,1.3697968,2.3581867,1.1034302,1.9222412,-4.0271487,168.0
21512,1.1096137,0.9289932,1.7202301,1.1034302,1.9222412,-4.0271487,168.0
21513,1.1096137,0.9289932,1.7202301,0.9897949,2.3236816,-4.4530153,168.0
21514,1.3811235,0.30390167,-0.03387451,0.9897949,2.3236816,-4.4530153,168.0
21515,1.3811235,0.30390167,-0.03387451,1.268042,3.1562989,-4.2915893,168.0
21516,1.3811235,0.30390167,-0.03387451,3.2879884,4.1705203,-3.451538,168.0
21517,2.788981,-8.028877,-3.0410519,3.2879884,4.1705203,-3.451538,168.0
21518,3.8959796,-34.927925,-3.9570007,3.2879884,4.1705203,-3.451538,168.0
21519,3.8959796,-34.927925,-3.9570007,1.5537232,2.5148437,-7.033704,168.0
21520,3.8959796,-34.927925,-3.9570007,-5.0201297,1.3349488,-4.5146117,168.0
21521,5.806945,-29.328873,0.21594238,-5.0201297,1.3349488,-4.5146117,168.0
21522,5.806945,-29.328873,0.21594238,-10.473559,3.792444,-2.0103881,168.0
21523,4.7582393,-18.13272,2.0204964,-10.473559,3.792444,-2.0103881,168.0
21524,4.7582393,-18.13272,2.0204964,-4.759937,2.430945,0.29523927,168.0
21525,-1.8524907,-6.159813,-1.1551476,-4.759937,2.430945,0.29523927,168.0
21526,-1.8524907,-6.159813,-1.1551476,2.8302612,0.6669434,0.89102787,168.0
21527,-8.262327,4.6907196,-4.592905,2.8302612,0.6669434,0.89102787,168.0
21528,-8.262327,4.6907196,-4.592905,2.8302612,0.6669434,0.89102787,169.0
21529,-8.262327,4.6907196,-4.592905,4.680286,1.0280274,1.080066,169.0
21530,-10.563939,12.1418,-4.319662,4.680286,1.0280274,1.080066,169.0
21531,-10.563939,12.1418,-4.319662,2.9035401,0.6265869,0.32497558,169.0
21532,-9.982731,15.503143,-0.9729042,2.9035401,0.6265869,0.32497558,169.0
21533,-9.982731,15.503143,-0.9729042,-0.16354981,0.6435791,-0.22089843,169.0
21534,-10.80076,15.928017,3.821701,-0.16354981,0.6435791,-0.22089843,169.0
21535,-10.80076,15.928017,3.821701,-2.253589,-0.31010744,-0.4248047,169.0
21536,-13.600667,14.904694,7.534033,-2.253589,-0.31010744,-0.4248047,169.0
21537,-13.600667,14.904694,7.534033,-0.91120607,0.011682129,0.13062744,169.0
21538,-14.600358,12.062965,7.6989937,-0.91120607,0.011682129,0.13062744,169.0
21539,-14.600358,12.062965,7.6989937,1.2627319,0.11469727,0.3717041,169.0
21540,-11.581617,7.5685883,4.303776,1.2627319,0.11469727,0.3717041,169.0
21541,-11.581617,7.5685883,4.303776,2.3842163,-0.58623046,0.5331299,169.0
21542,-6.4156723,3.5555344,-0.63433456,2.3842163,-0.58623046,0.5331299,169.0
21543,-6.4156723,3.5555344,-0.63433456,2.5020998,-1.5346069,1.1565307,169.0
21544,-1.7009583,0.8420944,-4.525753,2.5020998,-1.5346069,1.1565307,169.0
21545,-1.7009583,0.8420944,-4.525753,2.247217,-1.8595825,1.537793,169.0
21546,0.8386841,-3.4563675,-6.6732388,2.247217,-1.8595825,1.537793,169.0
21547,0.8386841,-3.4563675,-6.6732388,2.5031617,-1.5144287,0.7540283,169.0
21548,0.8386841,-3.4563675,-6.6732388,2.5562623,-0.61915284,-0.6467652,169.0
21549,1.6346436,-16.745392,-8.049358,2.5562623,-0.61915284,-0.6467652,169.0
21550,37.697304,-37.304184,5.448124,2.5562623,-0.61915284,-0.6467652,169.0
21551,37.697304,-37.304184,5.448124,8.002258,0.9218262,3.3761353,169.0
21552,37.697304,-37.304184,5.448124,8.376086,-3.4738405,3.9432495,169.0
21553,37.697304,-37.304184,5.448124,-3.3336549,0.9430664,4.2437987,169.0
21554,24.19112,-15.00528,5.7319126,-3.3336549,0.9430664,4.2437987,169.0
21555,24.19112,-15.00528,5.7319126,-8.176429,2.5530763,5.3982058,169.0
21556,6.894485,-2.746872,-0.50868225,-8.176429,2.5530763,5.3982058,169.0
21557,6.894485,-2.746872,-0.50868225,-4.6569214,-0.62977296,5.074292,169.0
21558,-1.2689824,2.5213547,-4.9140625,-4.6569214,-0.62977296,5.074292,169.0
21559,-1.2689824,2.5213547,-4.9140625,-0.6552612,-2.1580079,4.4583254,169.0
21560,-1.9409428,7.2200775,-4.2430916,-0.6552612,-2.1580079,4.4583254,169.0
21561,-1.9409428,7.2200775,-4.2430916,0.727478,-2.8865478,3.6458862,169.0
21562,-0.18019569,11.034279,-1.215702,0.727478,-2.8865478,3.6458862,169.0
21563,-0.18019569,11.034279,-1.215702,0.39294434,-2.980005,3.078772,169.0
21564,0.9977257,13.26889,1.1222763,0.39294434,-2.980005,3.078772,169.0
21565,0.9977257,13.26889,1.1222763,-1.2128174,-3.1520507,2.6868896,169.0
21566,1.5498897,14.8882675,1.7942429,-1.2128174,-3.1520507,2.6868896,169.0
21567,1.5498897,14.8882675,1.7942429,-3.0447876,-2.4925416,1.9233032,169.0
21568,1.7005684,15.318329,2.0090504,-3.0447876,-2.4925416,1.9233032,169.0
21569,1.7005684,15.318329,2.0090504,-4.0175905,-1.0694458,0.55968016,169.0
21570,0.7295832,13.30542,2.7522964,-4.0175905,-1.0694458,0.55968016,169.0
21571,0.7295832,13.30542,2.7522964,-3.3039186,-0.0637207,-1.9041871,169.0
21572,-0.19025922,8.843796,2.4022636,-3.3039186,-0.0637207,-1.9041871,169.0
21573,-0.19025922,8.843796,2.4022636,-2.4075806,1.1947632,-3.2359498,169.0
21574,0.6638571,3.6570969,1.0652542,-2.4075806,1.1947632,-3.2359498,169.0
21575,0.6638571,3.6570969,1.0652542,-0.7614624,2.5870607,-5.042432,169.0
21576,2.0006046,0.7176819,0.7663269,-0.7614624,2.5870607,-5.042432,169.0
21577,2.0006046,0.7176819,0.7663269,0.9122681,3.1446168,-5.6276,169.0
21578,2.4428666,-1.4361725,0.8462143,0.9122681,3.1446168,-5.6276,169.0
21579,2.4428666,-1.4361725,0.8462143,1.9679078,3.622522,-5.0073853,169.0
21580,2.68558,-10.345581,-0.77072144,1.9679078,3.622522,-5.0073853,169.0
21581,2.68558,-10.345581,-0.77072144,2.809021,3.9474976,-5.9547,169.0
21582,2.7379904,-23.589493,-2.9665146,2.809021,3.9474976,-5.9547,169.0
21583,2.7379904,-23.589493,-2.9665146,-0.6510132,2.5020998,-8.599109,169.0
21584,4.339794,-29.470535,-1.6744804,-0.6510132,2.5020998,-8.599109,169.0
21585,4.339794,-29.470535,-1.6744804,-5.3833375,3.4271119,-5.875049,169.0
21586,7.864352,-27.701332,0.19444847,-5.3833375,3.4271119,-5.875049,169.0
21587,7.864352,-27.701332,0.19444847,-5.145447,2.8599975,-2.0337524,169.0
21588,5.0308127,-19.903175,-1.9937325,-5.145447,2.8599975,-2.0337524,169.0
21589,5.0308127,-19.903175,-1.9937325,-0.27293703,1.3041505,-1.2404298,169.0
21590,-4.998189,-5.348297,-4.407902,-0.27293703,1.3041505,-1.2404298,169.0
21591,-4.998189,-5.348297,-4.407902,1.7544434,0.81031495,-0.74022216,169.0
21592,-12.162102,8.26062,-3.8789825,1.7544434,0.81031495,-0.74022216,169.0
21593,-12.162102,8.26062,-3.8789825,1.8181641,1.4050416,-0.35895997,169.0
21594,-12.925421,15.472862,-1.5044556,1.8181641,1.4050416,-0.35895997,169.0
21595,-12.925421,15.472862,-1.5044556,0.014868164,1.5993897,-0.5384399,169.0
21596,-10.795208,16.973251,1.1663322,0.014868164,1.5993897,-0.5384399,169.0
21597,-10.795208,16.973251,1.1663322,-1.5919555,1.4039795,-0.811377,169.0
21598,-9.745956,15.174782,3.528244,-1.5919555,1.4039795,-0.811377,169.0
21599,-9.745956,15.174782,3.528244,-1.9742798,1.0513916,-0.7678345,169.0
21600,-10.635889,12.421715,5.235634,-1.9742798,1.0513916,-0.7678345,169.0
21601,-10.635889,12.421715,5.235634,-0.5968506,0.65632325,-0.04991455,169.0
21602,-11.450594,9.652878,5.567219,-0.5968506,0.65632325,-0.04991455,169.0
21603,-11.450594,9.652878,5.567219,1.4772583,0.7508423,0.5915405,169.0
21604,-10.613051,7.1398163,4.232071,1.4772583,0.7508423,0.5915405,169.0
21605,-10.613051,7.1398163,4.232071,2.095349,0.5479981,0.8729736,169.0
21606,-7.756811,5.212082,1.491272,2.095349,0.5479981,0.8729736,169.0
21607,-7.756811,5.212082,1.491272,1.0991821,0.5055176,1.3838013,169.0
21608,-3.9521046,3.4974442,-2.0331802,1.0991821,0.5055176,1.3838013,169.0
21609,-3.9521046,3.4974442,-2.0331802,0.41312256,-0.18372802,1.9179932,169.0
21610,-0.80836296,0.06782532,-5.133894,0.41312256,-0.18372802,1.9179932,169.0
21611,-0.80836296,0.06782532,-5.133894,1.0736939,-0.8846558,2.171814,169.0
21612,0.9346695,-7.573166,-7.1723614,1.0736939,-0.8846558,2.171814,169.0
21613,0.9346695,-7.573166,-7.1723614,1.0205933,-1.2765381,3.1010742,169.0
21614,2.4851875,-19.419098,-7.890503,1.0205933,-1.2765381,3.1010742,169.0
21615,2.4851875,-19.419098,-7.890503,1.7597535,-0.6149048,2.3799684,169.0
21616,9.594302,-30.078941,-5.4556026,1.7597535,-0.6149048,2.3799684,169.0
21617,9.594302,-30.078941,-5.4556026,3.166919,2.4224489,4.7365723,169.0
21618,24.148746,-31.945587,1.3920231,3.166919,2.4224489,4.7365723,169.0
21619,24.148746,-31.945587,1.3920231,4.6654177,-0.9791748,6.440039,169.0
21620,24.148746,-31.945587,1.3920231,-0.51188964,0.75509036,5.1635013,169.0
21621,28.894108,-19.803223,5.467575,-0.51188964,0.75509036,5.1635013,169.0
21622,15.927529,-1.9575806,2.2797127,-0.51188964,0.75509036,5.1635013,169.0
21623,15.927529,-1.9575806,2.2797127,-5.0126953,0.817749,5.966382,169.0
21624,2.0737371,8.234398,-1.6768894,-5.0126953,0.817749,5.966382,169.0
21625,2.0737371,8.234398,-1.6768894,-4.8491454,-1.4305298,5.1008425,169.0
21626,-2.7599556,11.409271,-1.9040241,-4.8491454,-1.4305298,5.1008425,169.0
21627,-2.7599556,11.409271,-1.9040241,-2.8738039,-3.5057008,4.064319,169.0
21628,-1.9877741,13.298996,0.6139507,-2.8738039,-3.5057008,4.064319,169.0
21629,-1.9877741,13.298996,0.6139507,-1.7055908,-4.258667,2.7453003,169.0
21630,-1.9877741,13.298996,0.6139507,-1.7055908,-4.258667,2.7453003,169.0
21631,-1.1916964,14.452873,2.9370594,-1.7055908,-4.258667,2.7453003,169.0
21632,-1.1916964,14.452873,2.9370594,-1.174585,-4.951099,2.266333,169.0
21633,-1.7985353,14.367523,3.4056168,-1.174585,-4.951099,2.266333,169.0
21634,-1.7985353,14.367523,3.4056168,-1.540979,-4.9160523,2.2026124,169.0
21635,-2.251255,13.856911,2.377655,-1.540979,-4.9160523,2.2026124,169.0
21636,-2.251255,13.856911,2.377655,-2.3905885,-4.6324954,1.7969239,169.0
21637,-1.8394196,13.458427,1.1675415,-2.3905885,-4.6324954,1.7969239,169.0
21638,-1.8394196,13.458427,1.1675415,-3.342151,-4.0197144,1.176709,169.0
21639,-1.8394196,13.458427,1.1675415,-3.623584,-2.5732543,-0.6531372,169.0
21640,-1.2961329,12.975616,1.0648422,-3.623584,-2.5732543,-0.6531372,169.0
21641,-1.0488327,11.591736,2.2868233,-3.623584,-2.5732543,-0.6531372,169.0
21642,-1.0488327,11.591736,2.2868233,-3.2338257,-0.75296634,-1.8415283,169.0
21643,-0.9019079,7.8876953,3.216957,-3.2338257,-0.75296634,-1.8415283,169.0
21644,-0.9019079,7.8876953,3.216957,-1.8383423,0.6669434,-2.440503,169.0
21645,-0.8696953,2.519226,2.3186226,-1.8383423,0.6669434,-2.440503,169.0
21646,-0.8696953,2.519226,2.3186226,0.5076416,1.6705445,-2.804773,169.0
21647,-1.0584272,-2.073326,0.5637703,0.5076416,1.6705445,-2.804773,169.0
21648,-1.0584272,-2.073326,0.5637703,2.6762695,2.732556,-2.6412232,169.0
21649,-1.6048229,-4.512924,-0.25426865,2.6762695,2.732556,-2.6412232,169.0
21650,-1.6048229,-4.512924,-0.25426865,3.9018312,3.5566773,-3.1902833,169.0
21651,-2.439034,-8.912926,-0.88475037,3.9018312,3.5566773,-3.1902833,169.0
21652,-2.439034,-8.912926,-0.88475037,3.977234,4.0207763,-5.4173217,169.0
21653,-2.439034,-8.912926,-0.88475037,0.57454836,3.8466065,-6.9466186,169.0
21654,-2.4666448,-17.359299,-2.2848015,0.57454836,3.8466065,-6.9466186,169.0
21655,5.123615E-4,-22.792618,-2.6000462,0.57454836,3.8466065,-6.9466186,169.0
21656,5.123615E-4,-22.792618,-2.6000462,-3.2720582,4.6686034,-4.964905,169.0
21657,3.7612133,-21.408066,0.52147675,-3.2720582,4.6686034,-4.964905,169.0
21658,3.7612133,-21.408066,0.52147675,-6.727844,4.4816895,-3.0862062,169.0
21659,3.7966416,-15.854042,2.1404724,-6.727844,4.4816895,-3.0862062,169.0
21660,3.7966416,-15.854042,2.1404724,-3.4727783,3.5970337,-1.3094605,169.0
21661,-1.0014806,-7.3834763,-2.222107,-3.4727783,3.5970337,-1.3094605,169.0
21662,-1.0014806,-7.3834763,-2.222107,1.1437867,2.4904175,-0.6287109,169.0
21663,-5.613965,2.2272644,-6.6297226,1.1437867,2.4904175,-0.6287109,169.0
21664,-5.613965,2.2272644,-6.6297226,2.2939453,2.5530763,0.03186035,169.0
21665,-6.923814,9.988251,-6.6084423,2.2939453,2.5530763,0.03186035,169.0
21666,-6.923814,9.988251,-6.6084423,1.442212,2.3268678,-0.24957275,169.0
21667,-6.4237432,14.525085,-3.8344097,1.442212,2.3268678,-0.24957275,169.0
21668,-6.4237432,14.525085,-3.8344097,0.093457036,1.803296,-0.9834229,169.0
21669,-6.8245783,16.140274,0.15509033,0.093457036,1.803296,-0.9834229,169.0
21670,-6.8245783,16.140274,0.15509033,-1.2712281,0.7827026,-0.73703617,169.0
21671,-8.873115,16.226685,4.201954,-1.2712281,0.7827026,-0.73703617,169.0
21672,-8.873115,16.226685,4.201954,-1.7809937,0.11363526,-0.24744873,169.0
21673,-11.387285,15.341446,6.0574493,-1.7809937,0.11363526,-0.24744873,169.0
21674,-11.387285,15.341446,6.0574493,-0.9802368,-0.07965088,-0.17947999,169.0
21675,-11.77355,12.343208,5.0942993,-0.9802368,-0.07965088,-0.17947999,169.0
21676,-11.77355,12.343208,5.0942993,0.14124756,-0.6881836,-0.2548828,169.0
21677,-8.34511,7.554146,2.6285515,0.14124756,-0.6881836,-0.2548828,169.0
21678,-8.34511,7.554146,2.6285515,0.6488892,-1.3062744,0.12531738,169.0
21679,-3.270485,3.3855438,0.314291,0.6488892,-1.3062744,0.12531738,169.0
21680,-3.270485,3.3855438,0.314291,0.90058595,-1.7671875,0.82730716,169.0
21681,0.15247154,0.5179291,-1.1928062,0.90058595,-1.7671875,0.82730716,169.0
21682,0.15247154,0.5179291,-1.1928062,1.3986695,-1.9997681,0.9897949,169.0
21683,0.9289112,-4.8694077,-3.0071392,1.3986695,-1.9997681,0.9897949,169.0
21684,0.9289112,-4.8694077,-3.0071392,2.890796,-2.2684572,0.52888185,169.0
21685,1.5078869,-18.814476,-5.022789,2.890796,-2.2684572,0.52888185,169.0
21686,1.5078869,-18.814476,-5.022789,5.555383,-0.5511841,1.2977784,169.0
21687,7.758006,-33.816483,-4.932575,5.555383,-0.5511841,1.2977784,169.0
21688,7.758006,-33.816483,-4.932575,11.332727,0.905896,3.0065553,169.0
21689,22.14548,-36.866806,1.0975552,11.332727,0.905896,3.0065553,169.0
21690,22.14548,-36.866806,1.0975552,15.1719,-0.1529297,5.3790894,169.0
21691,28.225136,-24.464294,9.5432415,15.1719,-0.1529297,5.3790894,169.0
21692,28.225136,-24.464294,9.5432415,7.0411377,-1.1586548,3.5619874,169.0
21693,15.880268,-3.4370346,10.155384,7.0411377,-1.1586548,3.5619874,169.0
21694,15.880268,-3.4370346,10.155384,-3.8264282,2.1930542,3.3814454,169.0
21695,1.2040067,10.339447,4.164055,-3.8264282,2.1930542,3.3814454,169.0
21696,1.2040067,10.339447,4.164055,-8.754163,1.8319702,3.6809328,169.0
21697,-4.7472563,13.170486,-1.0265694,-8.754163,1.8319702,3.6809328,169.0
21698,-4.7472563,13.170486,-1.0265694,-8.461047,-0.85598147,2.8260133,169.0
21699,-4.3824363,13.087601,-3.0990982,-8.461047,-0.85598147,2.8260133,169.0
21700,-4.3824363,13.087601,-3.0990982,-7.676221,-1.718335,2.3810303,169.0
21701,-2.372087,13.138702,-2.578251,-7.676221,-1.718335,2.3810303,169.0
21702,-2.372087,13.138702,-2.578251,-5.8527465,-2.0443726,2.0496826,169.0
21703,-1.4024181,12.846504,-0.9396286,-5.8527465,-2.0443726,2.0496826,169.0
21704,-1.4024181,12.846504,-0.9396286,-2.980005,-2.7665405,2.176062,169.0
21705,-1.1171737,12.547272,0.2336464,-2.980005,-2.7665405,2.176062,169.0
21706,-1.1171737,12.547272,0.2336464,-0.62977296,-2.9269044,2.7824707,169.0
21707,-0.53160524,12.329224,0.3058281,-0.62977296,-2.9269044,2.7824707,169.0
21708,-0.53160524,12.329224,0.3058281,0.04460449,-2.1962402,2.347046,169.0
21709,-0.18445158,11.094887,-0.06832504,0.04460449,-2.1962402,2.347046,169.0
21710,-0.18445158,11.094887,-0.06832504,0.13487549,-1.1204224,1.1607789,169.0
21711,-0.32723665,9.509628,0.2622223,0.13487549,-1.1204224,1.1607789,169.0
21712,-0.32723665,9.509628,0.2622223,-0.20178223,-0.13912354,-0.32922363,169.0
21713,-0.17681599,8.469528,1.1936035,-0.20178223,-0.13912354,-0.32922363,169.0
21714,-0.17681599,8.469528,1.1936035,-1.1448487,1.1480347,-1.7905518,169.0
21715,0.36904526,6.4832535,1.5414429,-1.1448487,1.1480347,-1.7905518,169.0
21716,0.36904526,6.4832535,1.5414429,-1.5420411,2.3757203,-2.7930908,169.0
21717,0.46391296,2.651802,0.7124634,-1.5420411,2.3757203,-2.7930908,169.0
21718,0.46391296,2.651802,0.7124634,-0.44923097,2.9322145,-3.4557862,169.0
21719,-0.093444824,-3.5687332,-1.9784164,-0.44923097,2.9322145,-3.4557862,169.0
21720,-0.093444824,-3.5687332,-1.9784164,1.8022339,3.3846314,-4.674976,169.0
21721,-0.5939696,-15.658096,-5.328327,1.8022339,3.3846314,-4.674976,169.0
21722,-0.5939696,-15.658096,-5.328327,2.9587648,3.7181032,-6.1267457,169.0
21723,-0.5939696,-15.658096,-5.328327,2.9587648,3.7181032,-6.1267457,158.0
21724,-1.3538499,-26.208115,-6.174795,2.9587648,3.7181032,-6.1267457,158.0
21725,-1.3538499,-26.208115,-6.174795,0.9897949,1.5261109,-5.9472656,158.0
21726,0.14369011,-24.958252,-0.2932663,0.9897949,1.5261109,-5.9472656,158.0
21727,0.14369011,-24.958252,-0.2932663,-4.370178,3.624646,-3.8784668,158.0
21728,3.6573226,-17.303467,7.2693405,-4.370178,3.624646,-3.8784668,158.0
21729,3.6573226,-17.303467,7.2693405,-6.8436036,3.1223145,-1.2319336,158.0
21730,3.6573226,-17.303467,7.2693405,-2.631665,1.2627319,-0.022302246,158.0
21731,3.3480628,-8.826187,4.182892,-2.631665,1.2627319,-0.022302246,158.0
21732,-1.6424116,0.1606369,-5.546276,-2.631665,1.2627319,-0.022302246,158.0
21733,-1.6424116,0.1606369,-5.546276,1.5069946,2.0103881,0.12213135,158.0
21734,-6.5597057,7.8795166,-9.254784,1.5069946,2.0103881,0.12213135,158.0
21735,-6.5597057,7.8795166,-9.254784,2.078357,1.9094971,0.542688,158.0
21736,-7.995226,12.6953125,-5.9528866,2.078357,1.9094971,0.542688,158.0
21737,-7.995226,12.6953125,-5.9528866,0.9791748,1.3838013,0.3802002,158.0
21738,-6.3008194,14.281006,-1.2436924,0.9791748,1.3838013,0.3802002,158.0
21739,-6.3008194,14.281006,-1.2436924,-0.30267334,1.4241577,-0.021240234,158.0
21740,-4.971881,13.7415085,2.5039845,-0.30267334,1.4241577,-0.021240234,158.0
21741,-4.971881,13.7415085,2.5039845,-0.7657105,0.5957886,0.23682861,158.0
21742,-5.599758,12.565178,4.640503,-0.7657105,0.5957886,0.23682861,158.0
21743,-5.599758,12.565178,4.640503,-0.18054199,-0.04991455,0.35683593,158.0
21744,-7.359787,11.943588,4.465294,-0.18054199,-0.04991455,0.35683593,158.0
21745,-7.359787,11.943588,4.465294,0.45560303,-0.3164795,0.34090576,158.0
21746,-8.187622,11.057457,2.5890446,0.45560303,-0.3164795,0.34090576,158.0
21747,-8.187622,11.057457,2.5890446,0.80819094,-1.1098022,0.28780517,158.0
21748,-6.055176,8.276131,0.6295357,0.80819094,-1.1098022,0.28780517,158.0
21749,-6.055176,8.276131,0.6295357,0.6860596,-1.9360474,0.41843262,158.0
21750,-2.2651482,4.0505447,-0.5661087,0.6860596,-1.9360474,0.41843262,158.0
21751,-2.2651482,4.0505447,-0.5661087,0.7593384,-2.170752,0.67225343,158.0
21752,-0.9414892,1.6233292,-1.007515,0.7593384,-2.170752,0.67225343,158.0
21753,-0.9414892,1.6233292,-1.007515,0.89421386,-2.253589,0.54906005,158.0
21754,-1.258295,-7.253853,-2.626667,0.89421386,-2.253589,0.54906005,158.0
21755,-1.258295,-7.253853,-2.626667,2.71875,-1.6684204,-1.7066529,158.0
21756,-1.534956,-12.9427185,-2.6961098,2.71875,-1.6684204,-1.7066529,158.0
21757,-1.534956,-12.9427185,-2.6961098,3.709607,-1.5537232,-1.6949707,158.0
21758,6.0458393,-33.24669,-4.767605,3.709607,-1.5537232,-1.6949707,158.0
21759,6.0458393,-33.24669,-4.767605,9.160913,-0.79969484,1.4772583,158.0
21760,11.091225,-30.98764,-2.9493752,9.160913,-0.79969484,1.4772583,158.0
21761,11.091225,-30.98764,-2.9493752,9.9786625,0.07965088,1.7820557,158.0
21762,24.908686,-20.193268,6.682089,9.9786625,0.07965088,1.7820557,158.0
21763,24.908686,-20.193268,6.682089,-4.907556,-0.6425171,2.3682861,158.0
21764,19.00964,-10.386154,6.9423027,-4.907556,-0.6425171,2.3682861,158.0
21765,19.00964,-10.386154,6.9423027,-8.774341,1.4783204,2.623169,158.0
21766,0.3163538,5.0123672,1.7848587,-8.774341,1.4783204,2.623169,158.0
21767,0.3163538,5.0123672,1.7848587,-6.6736817,-0.63826907,3.1339967,158.0
21768,-3.512066,6.889885,-0.48294067,-6.6736817,-0.63826907,3.1339967,158.0
21769,-3.512066,6.889885,-0.48294067,-3.7605836,-1.6004517,3.073462,158.0
21770,-4.7045503,12.470734,-2.531067,-3.7605836,-1.6004517,3.073462,158.0
21771,-4.7045503,12.470734,-2.531067,0.53950197,-2.9906251,2.8504395,158.0
21772,-2.982268,12.689377,-1.6945305,0.53950197,-2.9906251,2.8504395,158.0
21773,-2.982268,12.689377,-1.6945305,0.63720703,-3.062842,2.6858277,158.0
21774,0.6831553,18.165894,0.42820168,0.63720703,-3.062842,2.6858277,158.0
21775,0.6831553,18.165894,0.42820168,-0.7880127,-3.446228,2.5583863,158.0
21776,0.88473225,17.08828,0.9652672,-0.7880127,-3.446228,2.5583863,158.0
21777,0.88473225,17.08828,0.9652672,-1.355127,-3.2295778,2.53396,158.0
21778,0.86336446,17.2387,2.4397202,-1.355127,-3.2295778,2.53396,158.0
21779,0.86336446,17.2387,2.4397202,-2.4298828,-1.7576294,1.5834595,158.0
21780,-0.076361656,13.320526,2.6282883,-2.4298828,-1.7576294,1.5834595,158.0
21781,-0.076361656,13.320526,2.6282883,-2.3013794,-1.3721192,0.996167,158.0
21782,-1.2451224,4.516281,2.7786446,-2.3013794,-1.3721192,0.996167,158.0
21783,-1.2451224,4.516281,2.7786446,-2.885486,0.25594482,-0.52675784,158.0
21784,-0.46835136,2.2203217,2.0210838,-2.885486,0.25594482,-0.52675784,158.0
21785,-0.46835136,2.2203217,2.0210838,-3.3761353,0.85491943,-1.3264526,158.0
21786,1.3700697,1.5782928,0.10319519,-3.3761353,0.85491943,-1.3264526,158.0
21787,1.3700697,1.5782928,0.10319519,-3.1966553,2.0008302,-2.6900756,158.0
21788,1.3700697,1.5782928,0.10319519,-0.64995116,3.80094,-1.9456055,158.0
21789,2.1978748,1.6454697,-2.0352669,-0.64995116,3.80094,-1.9456055,158.0
21790,-0.6378794,-18.206955,-7.8642006,-0.64995116,3.80094,-1.9456055,158.0
21791,-0.6378794,-18.206955,-7.8642006,3.1467407,4.347876,-2.5605104,158.0
21792,-0.6378794,-18.206955,-7.8642006,4.398853,4.0335207,-4.1036134,158.0
21793,-0.6378794,-18.206955,-7.8642006,4.1652102,2.806897,-3.5566773,158.0
21794,-4.3184333,-26.725464,-8.72448,4.1652102,2.806897,-3.5566773,158.0
21795,0.85758233,-9.40477,12.195881,4.1652102,2.806897,-3.5566773,158.0
21796,0.85758233,-9.40477,12.195881,2.6921997,2.9523926,-3.1817873,158.0
21797,0.85758233,-9.40477,12.195881,-2.9640749,2.165442,-1.2914063,158.0
21798,0.85758233,-9.40477,12.195881,-5.7104373,2.4182007,-0.48109132,158.0
21799,0.4962833,-1.1113663,-1.3450527,-5.7104373,2.4182007,-0.48109132,158.0
21800,0.4962833,-1.1113663,-1.3450527,-1.7746216,3.1371827,0.03717041,158.0
21801,-1.1281567,0.33384705,-5.6607227,-1.7746216,3.1371827,0.03717041,158.0
21802,-1.1281567,0.33384705,-5.6607227,0.27506104,2.9991212,-0.06903076,158.0
21803,-4.79254,2.980568,-9.04999,0.27506104,2.9991212,-0.06903076,158.0
21804,-4.79254,2.980568,-9.04999,2.800525,1.9572877,0.015930176,158.0
21805,-6.2226553,6.744278,-5.722622,2.800525,1.9572877,0.015930176,158.0
21806,-6.2226553,6.744278,-5.722622,2.088977,1.4071655,-0.21452637,158.0
21807,-5.78623,9.841164,-0.013803482,2.088977,1.4071655,-0.21452637,158.0
21808,-5.78623,9.841164,-0.013803482,0.20072022,1.2021973,-0.5076416,158.0
21809,-5.6496754,11.174332,4.675823,0.20072022,1.2021973,-0.5076416,158.0
21810,-5.6496754,11.174332,4.675823,-0.86341554,0.5586182,-0.32816163,158.0
21811,-6.9214134,11.404991,5.8748016,-0.86341554,0.5586182,-0.32816163,158.0
21812,-6.9214134,11.404991,5.8748016,-0.5766724,0.095581055,-0.027612304,158.0
21813,-7.935507,9.804131,3.8511715,-0.5766724,0.095581055,-0.027612304,158.0
21814,-7.935507,9.804131,3.8511715,-0.008496094,-0.89421386,-0.22727051,158.0
21815,-5.923771,5.8594055,1.2944374,-0.008496094,-0.89421386,-0.22727051,158.0
21816,-5.923771,5.8594055,1.2944374,0.75509036,-2.0125122,0.2516968,158.0
21817,-2.070365,1.6816559,0.0036525726,0.75509036,-2.0125122,0.2516968,158.0
21818,-2.070365,1.6816559,0.0036525726,1.3360108,-2.4224489,0.5968506,158.0
21819,0.52648354,-1.9534149,-0.6680145,1.3360108,-2.4224489,0.5968506,158.0
21820,0.52648354,-1.9534149,-0.6680145,1.6461182,-2.2111084,-0.29948732,158.0
21821,-0.22161102,-4.857933,-1.4780273,1.6461182,-2.2111084,-0.29948732,158.0
21822,-0.22161102,-4.857933,-1.4780273,2.35448,-1.7395753,-1.354065,158.0
21823,-0.07171059,-19.472336,-3.915638,2.35448,-1.7395753,-1.354065,158.0
21824,-0.07171059,-19.472336,-3.915638,4.444519,-0.7126099,-0.56605226,158.0
21825,6.9661665,-37.70117,-4.452835,4.444519,-0.7126099,-0.56605226,158.0
21826,6.9661665,-37.70117,-4.452835,14.1651125,1.1363525,3.3570192,158.0
21827,6.9661665,-37.70117,-4.452835,14.1651125,1.1363525,3.3570192,162.0
21828,16.953085,-41.45211,3.2827873,14.1651125,1.1363525,3.3570192,162.0
21829,16.953085,-41.45211,3.2827873,22.480665,-2.2387207,6.395435,162.0
21830,17.877007,-23.295395,13.815804,22.480665,-2.2387207,6.395435,162.0
21831,17.877007,-23.295395,13.815804,13.669153,-5.369531,1.9445435,162.0
21832,12.167109,6.039795,15.175995,13.669153,-5.369531,1.9445435,162.0
21833,12.167109,6.039795,15.175995,-3.622522,2.2780151,0.34940186,162.0
21834,5.5408154,21.26516,7.4226074,-3.622522,2.2780151,0.34940186,162.0
21835,5.5408154,21.26516,7.4226074,-12.616699,3.7287233,2.0326905,162.0
21836,-1.7694105,16.482971,-2.0352173,-12.616699,3.7287233,2.0326905,162.0
21837,-1.7694105,16.482971,-2.0352173,-13.96864,0.72960204,1.3222046,162.0
21838,-6.6103773,9.008179,-6.8703995,-13.96864,0.72960204,1.3222046,162.0
21839,-6.6103773,9.008179,-6.8703995,-12.819544,-1.2298096,0.996167,162.0
21840,-6.6332607,8.520126,-6.3396416,-12.819544,-1.2298096,0.996167,162.0
21841,-6.6332607,8.520126,-6.3396416,-11.192542,-2.4266968,1.3731812,162.0
21842,-3.305461,11.919678,-2.8109474,-11.192542,-2.4266968,1.3731812,162.0
21843,-3.305461,11.919678,-2.8109474,-8.458923,-2.4266968,1.0821899,162.0
21844,-0.19396591,14.040428,1.3658066,-8.458923,-2.4266968,1.0821899,162.0
21845,-0.19396591,14.040428,1.3658066,-3.9921021,-2.1781862,-0.046728518,162.0
21846,0.6471348,12.148972,3.8357735,-3.9921021,-2.1781862,-0.046728518,162.0
21847,0.6471348,12.148972,3.8357735,-0.31860352,-1.4613281,0.4991455,162.0
21848,0.5072341,7.590233,3.4225998,-0.31860352,-1.4613281,0.4991455,162.0
21849,0.5072341,7.590233,3.4225998,0.45560303,-0.115759276,0.4343628,162.0
21850,1.0479136,6.2535934,0.7187691,0.45560303,-0.115759276,0.4343628,162.0
21851,1.0479136,6.2535934,0.7187691,1.3699951,1.2298096,-2.3651001,162.0
21852,2.1409066,7.768509,-2.2143173,1.3699951,1.2298096,-2.3651001,162.0
21853,2.1409066,7.768509,-2.2143173,2.2429688,2.0464966,-2.4256349,162.0
21854,2.1409066,7.768509,-2.2143173,2.8366334,3.1573608,-1.5091187,162.0
21855,3.197613,5.1237106,-3.6855278,2.8366334,3.1573608,-1.5091187,162.0
21856,1.3833714,-26.047112,-6.00095,2.8366334,3.1573608,-1.5091187,162.0
21857,1.3833714,-26.047112,-6.00095,3.9474976,3.4706542,-1.171399,162.0
21858,1.3833714,-26.047112,-6.00095,3.1063843,2.5891845,-3.979358,162.0
21859,1.3833714,-26.047112,-6.00095,1.2329956,2.9205322,-5.2134156,162.0
21860,2.2041945,-24.320175,0.20151138,1.2329956,2.9205322,-5.2134156,162.0
21861,2.2041945,-24.320175,0.20151138,-3.8243043,3.3920655,-2.9300904,162.0
21862,4.5668592,-19.38031,5.7621956,-3.8243043,3.3920655,-2.9300904,162.0
21863,4.5668592,-19.38031,5.7621956,-5.0434937,3.43136,-1.2765381,162.0
21864,3.69974,-13.137558,2.902298,-5.0434937,3.43136,-1.2765381,162.0
21865,3.69974,-13.137558,2.902298,-0.9589966,1.5930176,0.06690674,162.0
21866,-0.51139957,-5.465828,-4.8241806,-0.9589966,1.5930176,0.06690674,162.0
21867,-0.51139957,-5.465828,-4.8241806,1.5664673,1.4868164,0.58623046,162.0
21868,-4.195277,2.1000366,-8.503887,1.5664673,1.4868164,0.58623046,162.0
21869,-4.195277,2.1000366,-8.503887,1.6514282,1.6716064,0.58410645,162.0
21870,-5.6133504,8.050728,-6.5954666,1.6514282,1.6716064,0.58410645,162.0
21871,-5.6133504,8.050728,-6.5954666,0.79332274,1.5282348,0.33771974,162.0
21872,-5.352509,11.606186,-3.0786572,0.79332274,1.5282348,0.33771974,162.0
21873,-5.352509,11.606186,-3.0786572,-0.20284425,1.2106934,-0.098767094,162.0
21874,-5.276795,13.194641,0.3349266,-0.20284425,1.2106934,-0.098767094,162.0
21875,-5.276795,13.194641,0.3349266,-1.4167236,0.8007569,-0.3706421,162.0
21876,-6.6991215,14.048317,3.8429413,-1.4167236,0.8007569,-0.3706421,162.0
21877,-6.6991215,14.048317,3.8429413,-2.156946,-0.10620117,-0.50233155,162.0
21878,-9.283638,14.2413025,6.0061398,-2.156946,-0.10620117,-0.50233155,162.0
21879,-9.283638,14.2413025,6.0061398,-1.7045288,-0.40356445,-0.4619751,162.0
21880,-11.086456,12.120117,5.2555466,-1.7045288,-0.40356445,-0.4619751,162.0
21881,-11.086456,12.120117,5.2555466,-1.3976074,-0.56817627,-0.9451904,162.0
21882,-9.648499,7.0371475,2.167511,-1.3976074,-0.56817627,-0.9451904,162.0
21883,-9.648499,7.0371475,2.167511,-0.4694092,-1.5993897,-0.38444826,162.0
21884,-5.2707644,1.0368118,-1.2487068,-0.4694092,-1.5993897,-0.38444826,162.0
21885,-5.2707644,1.0368118,-1.2487068,0.9589966,-2.241907,0.2262085,162.0
21886,-1.1437969,-2.9980392,-3.5389786,0.9589966,-2.241907,0.2262085,162.0
21887,-1.1437969,-2.9980392,-3.5389786,2.3651001,-2.6571534,0.38232422,162.0
21888,0.79278755,-4.9960175,-4.9381046,2.3651001,-2.6571534,0.38232422,162.0
21889,0.79278755,-4.9960175,-4.9381046,3.5800416,-2.4182007,-0.33665773,162.0
21890,1.366127,-12.43502,-6.878853,3.5800416,-2.4182007,-0.33665773,162.0
21891,1.366127,-12.43502,-6.878853,5.407764,-1.6917847,-1.5717773,162.0
21892,5.781684,-27.635735,-8.251837,5.407764,-1.6917847,-1.5717773,162.0
21893,5.781684,-27.635735,-8.251837,11.324231,0.19328614,1.7884277,162.0
21894,16.647392,-35.65036,-1.9489784,11.324231,0.19328614,1.7884277,162.0
21895,16.647392,-35.65036,-1.9489784,16.130896,-1.4528321,4.321326,162.0
21896,24.063826,-24.148476,11.955978,16.130896,-1.4528321,4.321326,162.0
21897,24.063826,-24.148476,11.955978,7.054944,-4.061133,3.359143,162.0
21898,18.62639,-2.9780426,15.616283,7.054944,-4.061133,3.359143,162.0
21899,18.62639,-2.9780426,15.616283,-8.629908,2.7899048,3.4133058,162.0
21900,5.41144,8.650566,5.1381683,-8.629908,2.7899048,3.4133058,162.0
21901,5.41144,8.650566,5.1381683,-14.86073,3.725537,3.5619874,162.0
21902,-4.0981064,8.139008,-4.429344,-14.86073,3.725537,3.5619874,162.0
21903,-4.0981064,8.139008,-4.429344,-10.98014,0.052038576,2.9354005,162.0
21904,-6.579279,6.6532974,-6.413227,-10.98014,0.052038576,2.9354005,162.0
21905,-6.579279,6.6532974,-6.413227,-3.7489014,-2.529712,2.8812377,162.0
21906,-5.286812,9.452339,-3.68931,-3.7489014,-2.529712,2.8812377,162.0
21907,-5.286812,9.452339,-3.68931,0.3058594,-3.1446168,2.727246,162.0
21908,-2.7742248,13.620239,-0.4641571,0.3058594,-3.1446168,2.727246,162.0
21909,-2.7742248,13.620239,-0.4641571,1.3901733,-3.0968263,2.809021,162.0
21910,-0.33156228,16.298782,1.443737,1.3901733,-3.0968263,2.809021,162.0
21911,-0.33156228,16.298782,1.443737,0.44710693,-3.0288575,2.456433,162.0
21912,1.4713225,16.705185,2.1113129,0.44710693,-3.0288575,2.456433,162.0
21913,1.4713225,16.705185,2.1113129,-1.442212,-1.6206299,1.8914429,162.0
21914,1.8702954,15.47303,2.5826302,-1.442212,-1.6206299,1.8914429,162.0
21915,1.8702954,15.47303,2.5826302,-2.1197755,-0.15186767,-0.83686525,162.0
21916,0.8606285,13.622505,2.9968796,-2.1197755,-0.15186767,-0.83686525,162.0
21917,0.8606285,13.622505,2.9968796,-1.806482,1.1544068,-2.5700684,162.0
21918,0.70477474,9.7812195,2.4674988,-1.806482,1.1544068,-2.5700684,162.0
21919,0.70477474,9.7812195,2.4674988,-1.1586548,2.6582153,-3.3665771,162.0
21920,1.9496474,3.9982452,1.0395622,-1.1586548,2.6582153,-3.3665771,162.0
21921,1.9496474,3.9982452,1.0395622,0.3440918,3.0607178,-4.088745,162.0
21922,2.6273084,-1.2713089,-0.90862274,0.3440918,3.0607178,-4.088745,162.0
21923,2.6273084,-1.2713089,-0.90862274,1.9551636,3.158423,-4.5772705,162.0
21924,2.6273084,-1.2713089,-0.90862274,4.088745,4.0420165,-4.7418823,162.0
21925,2.6808019,-8.257736,-3.269291,4.088745,4.0420165,-4.7418823,162.0
21926,2.6406498,-30.407509,-1.5333176,4.088745,4.0420165,-4.7418823,162.0
21927,2.6406498,-30.407509,-1.5333176,4.088745,4.0420165,-4.7418823,164.0
21928,2.6406498,-30.407509,-1.5333176,1.6163819,2.0985353,-6.9912233,164.0
21929,2.6406498,-30.407509,-1.5333176,-1.9530395,2.524402,-5.6276,164.0
21930,2.6406498,-30.407509,-1.5333176,-4.596387,2.6773317,-2.2068603,164.0
21931,6.9938555,-28.70259,2.3667793,-4.596387,2.6773317,-2.2068603,164.0
21932,-7.122555,-6.5877533,-7.7493362,-4.596387,2.6773317,-2.2068603,164.0
21933,-7.122555,-6.5877533,-7.7493362,-3.63208,1.8893188,-1.1172364,164.0
21934,-7.122555,-6.5877533,-7.7493362,-0.5012695,0.99510497,-0.3079834,164.0
21935,-7.122555,-6.5877533,-7.7493362,1.3721192,1.4528321,0.54587406,164.0
21936,-10.023228,3.7011108,-6.1271305,1.3721192,1.4528321,0.54587406,164.0
21937,-10.023228,3.7011108,-6.1271305,1.4369019,1.3986695,0.63933104,164.0
21938,-8.375174,9.017082,-3.2298908,1.4369019,1.3986695,0.63933104,164.0
21939,-8.375174,9.017082,-3.2298908,0.5140137,1.3816773,0.29736328,164.0
21940,-6.0509324,10.8407135,-0.42225456,0.5140137,1.3816773,0.29736328,164.0
21941,-6.0509324,10.8407135,-0.42225456,-0.67437744,0.7349121,0.29523927,164.0
21942,-5.573742,11.089157,2.5800667,-0.67437744,0.7349121,0.29523927,164.0
21943,-5.573742,11.089157,2.5800667,-1.6408081,0.7784546,0.14124756,164.0
21944,-7.7795753,11.098473,4.940298,-1.6408081,0.7784546,0.14124756,164.0
21945,-7.7795753,11.098473,4.940298,-1.4761963,0.6956177,0.060534667,164.0
21946,-11.557743,10.369499,4.6922283,-1.4761963,0.6956177,0.060534667,164.0
21947,-11.557743,10.369499,4.6922283,-0.541626,0.7317261,-0.26656494,164.0
21948,-12.243448,7.0679398,1.6121063,-0.541626,0.7317261,-0.26656494,164.0
21949,-12.243448,7.0679398,1.6121063,0.0021240234,-0.54906005,-0.33984375,164.0
21950,-7.1715164,1.9891052,-1.3531742,0.0021240234,-0.54906005,-0.33984375,164.0
21951,-7.1715164,1.9891052,-1.3531742,0.74659425,-1.5537232,0.33771974,164.0
21952,-0.90737915,-1.2977905,-1.909298,0.74659425,-1.5537232,0.33771974,164.0
21953,-0.90737915,-1.2977905,-1.909298,1.8213501,-1.9572877,0.69136965,164.0
21954,-0.90737915,-1.2977905,-1.909298,2.442627,-2.2281005,0.019116212,164.0
21955,1.6683846,-2.6880112,-1.6548691,2.442627,-2.2281005,0.019116212,164.0
21956,6.1704254,-29.863663,-4.308014,2.442627,-2.2281005,0.019116212,164.0
21957,6.1704254,-29.863663,-4.308014,1.5781494,-1.6609863,-0.73597413,164.0
21958,6.1704254,-29.863663,-4.308014,6.057715,1.3094605,1.6078857,164.0
21959,6.1704254,-29.863663,-4.308014,6.880774,-1.5579712,4.874634,164.0
21960,19.415894,-38.63707,-1.5804691,6.880774,-1.5579712,4.874634,164.0
21961,12.529968,-4.9270325,-0.89143753,6.880774,-1.5579712,4.874634,164.0
21962,12.529968,-4.9270325,-0.89143753,-0.6064087,-1.4953126,3.80094,164.0
21963,12.529968,-4.9270325,-0.89143753,-5.7539797,1.2053833,5.0190673,164.0
21964,12.529968,-4.9270325,-0.89143753,-4.868262,-0.544812,4.873572,164.0
21965,3.5549812,2.5387268,-1.1414566,-4.868262,-0.544812,4.873572,164.0
21966,3.5549812,2.5387268,-1.1414566,-1.6057618,-2.6040528,4.160962,164.0
21967,1.2471709,7.182663,0.20505905,-1.6057618,-2.6040528,4.160962,164.0
21968,1.2471709,7.182663,0.20505905,-0.13487549,-3.1520507,3.7350953,164.0
21969,1.6379104,10.379471,1.0237026,-0.13487549,-3.1520507,3.7350953,164.0
21970,1.6379104,10.379471,1.0237026,-0.18160401,-3.155237,3.240198,164.0
21971,2.3706312,12.11673,0.7577801,-0.18160401,-3.155237,3.240198,164.0
21972,2.3706312,12.11673,0.7577801,-1.1629028,-2.980005,2.8430054,164.0
21973,3.131417,13.751045,0.10920334,-1.1629028,-2.980005,2.8430054,164.0
21974,3.131417,13.751045,0.10920334,-1.7884277,-2.4585571,1.7077149,164.0
21975,2.985334,15.528595,0.28376198,-1.7884277,-2.4585571,1.7077149,164.0
21976,2.985334,15.528595,0.28376198,-1.4570801,-1.717273,0.05522461,164.0
21977,1.1372418,14.654457,1.2664623,-1.4570801,-1.717273,0.05522461,164.0
21978,1.1372418,14.654457,1.2664623,-0.9876709,-0.60109866,-0.6680054,164.0
21979,0.04054284,9.863327,2.2931137,-0.9876709,-0.60109866,-0.6680054,164.0
21980,0.04054284,9.863327,2.2931137,-0.32709962,0.7827026,-2.5870607,164.0
21981,1.3147585,4.2018814,2.9305344,-0.32709962,0.7827026,-2.5870607,164.0
21982,1.3147585,4.2018814,2.9305344,0.090270996,1.442212,-3.6979249,164.0
21983,2.9427247,0.4657669,2.5345764,0.090270996,1.442212,-3.6979249,164.0
21984,2.9427247,0.4657669,2.5345764,-0.52888185,1.9307374,-4.405225,164.0
21985,3.4855154,-1.692482,0.6736069,-0.52888185,1.9307374,-4.405225,164.0
21986,3.4855154,-1.692482,0.6736069,-0.77739257,2.8801758,-4.8703856,164.0
21987,3.4855154,-1.692482,0.6736069,1.1459106,3.989978,-4.2767215,164.0
21988,4.402841,-7.6194,-2.7962952,1.1459106,3.989978,-4.2767215,164.0
21989,7.4474926,-35.198486,-1.1278324,1.1459106,3.989978,-4.2767215,164.0
21990,7.4474926,-35.198486,-1.1278324,0.76358646,4.262915,-6.006738,164.0
21991,7.4474926,-35.198486,-1.1278324,-1.5993897,2.3300538,-4.800293,164.0
21992,7.3186874,-33.27507,1.1668262,-1.5993897,2.3300538,-4.800293,164.0
21993,7.3186874,-33.27507,1.1668262,-3.6543825,2.179248,-1.8139161,164.0
21994,4.2108703,-22.743301,-0.9736309,-3.6543825,2.179248,-1.8139161,164.0
21995,4.2108703,-22.743301,-0.9736309,-1.5526612,1.8319702,-0.74022216,164.0
21996,-3.0836601,-7.929161,-2.7417107,-1.5526612,1.8319702,-0.74022216,164.0
21997,-3.0836601,-7.929161,-2.7417107,0.7965088,1.62594,-0.07540283,164.0
21998,-8.42568,3.6828537,-2.1365204,0.7965088,1.62594,-0.07540283,164.0
21999,-8.42568,3.6828537,-2.1365204,1.6917847,2.1548219,0.61278075,164.0
22000,-9.09063,9.709877,-0.71712494,1.6917847,2.1548219,0.61278075,164.0
22001,-9.09063,9.709877,-0.71712494,1.3115845,2.7113159,0.54906005,164.0
22002,-7.6986885,12.019928,-0.62272453,1.3115845,2.7113159,0.54906005,164.0
22003,-7.6986885,12.019928,-0.62272453,0.5533081,2.4808595,-0.09664307,164.0
22004,-7.3488555,13.375832,-1.3962879,0.5533081,2.4808595,-0.09664307,164.0
22005,-7.3488555,13.375832,-1.3962879,-0.7423462,2.2004883,-0.69986576,164.0
22006,-9.517195,15.991241,-0.70843697,-0.7423462,2.2004883,-0.69986576,164.0
22007,-9.517195,15.991241,-0.70843697,-2.3130615,1.3498169,-0.9791748,164.0
22008,-13.768822,17.572876,0.97234917,-2.3130615,1.3498169,-0.9791748,164.0
22009,-13.768822,17.572876,0.97234917,-2.8823,0.45560303,-0.9366943,164.0
22010,-15.784809,13.421997,2.0416126,-2.8823,0.45560303,-0.9366943,164.0
22011,-15.784809,13.421997,2.0416126,-2.7814088,-0.33771974,-0.33028564,164.0
22012,-11.897978,5.3426895,2.4011478,-2.7814088,-0.33771974,-0.33028564,164.0
22013,-11.897978,5.3426895,2.4011478,-0.40462646,-0.8506714,0.07434082,164.0
22014,-5.3531227,0.20690155,2.286251,-0.40462646,-0.8506714,0.07434082,164.0
22015,-5.3531227,0.20690155,2.286251,1.4305298,-1.7586914,0.6138428,164.0
22016,-0.6226959,-0.589386,1.4920006,1.4305298,-1.7586914,0.6138428,164.0
22017,-0.6226959,-0.589386,1.4920006,2.614673,-2.1017213,0.5171997,164.0
22018,-0.6226959,-0.589386,1.4920006,3.1435547,-2.2514648,-0.040356446,164.0
22019,1.3838005,-2.0095062,-0.6939964,3.1435547,-2.2514648,-0.040356446,164.0
22020,2.3202114,-11.476273,-4.6015587,3.1435547,-2.2514648,-0.040356446,164.0
22021,2.3202114,-11.476273,-4.6015587,2.88761,-1.6992188,-0.21983643,164.0
22022,7.304777,-28.548561,-7.4096527,2.88761,-1.6992188,-0.21983643,164.0
22023,7.304777,-28.548561,-7.4096527,2.88761,-1.6992188,-0.21983643,166.0
22024,7.304777,-28.548561,-7.4096527,6.575977,0.9133301,2.353418,166.0
22025,19.753222,-39.432358,-2.8599377,6.575977,0.9133301,2.353418,166.0
22026,19.753222,-39.432358,-2.8599377,6.685364,-1.9126831,5.505469,166.0
22027,27.826918,-31.355759,2.8004646,6.685364,-1.9126831,5.505469,166.0
22028,27.826918,-31.355759,2.8004646,-0.2347046,-3.0235474,5.0041995,166.0
22029,20.230896,-10.631363,1.8275528,-0.2347046,-3.0235474,5.0041995,166.0
22030,20.230896,-10.631363,1.8275528,-5.945142,1.0577637,5.9642577,166.0
22031,5.7705927,4.169136,-0.16051483,-5.945142,1.0577637,5.9642577,166.0
22032,5.7705927,4.169136,-0.16051483,-5.1337647,-1.0779419,5.7476077,166.0
22033,-2.7448297,9.7006,0.110321045,-5.1337647,-1.0779419,5.7476077,166.0
22034,-2.7448297,9.7006,0.110321045,-1.1459106,-3.3888795,5.2017336,166.0
22035,-4.6476827,13.202484,0.9579849,-1.1459106,-3.3888795,5.2017336,166.0
22036,-4.6476827,13.202484,0.9579849,0.45560303,-3.9623659,4.873572,166.0
22037,-3.3113835,15.885925,1.0681953,0.45560303,-3.9623659,4.873572,166.0
22038,-3.3113835,15.885925,1.0681953,0.08920898,-4.0229006,4.174768,166.0
22039,-0.9464334,17.443504,0.54122734,0.08920898,-4.0229006,4.174768,166.0
22040,-0.9464334,17.443504,0.54122734,-1.5611572,-3.4653442,3.3878174,166.0
22041,1.5736394,18.407242,0.052560806,-1.5611572,-3.4653442,3.3878174,166.0
22042,1.5736394,18.407242,0.052560806,-2.4266968,-2.3194337,2.1845582,166.0
22043,2.367359,18.80526,0.42699623,-2.4266968,-2.3194337,2.1845582,166.0
22044,2.367359,18.80526,0.42699623,-2.0677369,-1.5335449,0.6977417,166.0
22045,0.6102934,17.49759,1.3059158,-2.0677369,-1.5335449,0.6977417,166.0
22046,0.6102934,17.49759,1.3059158,-0.96643066,-0.31223145,-1.2393677,166.0
22047,-0.6401833,13.919838,1.7586746,-0.96643066,-0.31223145,-1.2393677,166.0
22048,-0.6401833,13.919838,1.7586746,-0.10407715,1.3158325,-3.9283814,166.0
22049,0.6658441,9.488907,1.7442818,-0.10407715,1.3158325,-3.9283814,166.0
22050,0.6658441,9.488907,1.7442818,-0.24532472,2.5456421,-5.6307864,166.0
22051,2.5424776,5.1848145,1.5342426,-0.24532472,2.5456421,-5.6307864,166.0
22052,2.5424776,5.1848145,1.5342426,-0.5097656,3.3060424,-6.4942017,166.0
22053,3.3161964,0.82385254,1.2968769,-0.5097656,3.3060424,-6.4942017,166.0
22054,3.3161964,0.82385254,1.2968769,-0.5140137,3.9198854,-7.0209594,166.0
22055,4.392142,-6.3528595,0.13856506,-0.5140137,3.9198854,-7.0209594,166.0
22056,4.392142,-6.3528595,0.13856506,0.8846558,4.8183475,-7.185571,166.0
22057,7.046795,-19.813797,-1.5763168,0.8846558,4.8183475,-7.185571,166.0
22058,7.046795,-19.813797,-1.5763168,0.27718505,4.3128295,-8.549194,166.0
22059,10.005747,-31.21035,-1.2723083,0.27718505,4.3128295,-8.549194,166.0
22060,10.005747,-31.21035,-1.2723083,-2.2928834,2.8483155,-8.318738,166.0
22061,11.866865,-34.477547,-0.54229736,-2.2928834,2.8483155,-8.318738,166.0
22062,11.866865,-34.477547,-0.54229736,-5.792212,3.000183,-3.1403687,166.0
22063,6.73236,-28.768562,-1.6232052,-5.792212,3.000183,-3.1403687,166.0
22064,6.73236,-28.768562,-1.6232052,-2.6667116,1.9551636,-1.4751343,166.0
22065,-4.88523,-12.790543,-2.8546677,-2.6667116,1.9551636,-1.4751343,166.0
22066,-4.88523,-12.790543,-2.8546677,0.80606693,0.5787964,-0.19434814,166.0
22067,-13.3110895,4.0677414,-3.1228695,0.80606693,0.5787964,-0.19434814,166.0
22068,-13.3110895,4.0677414,-3.1228695,2.0390625,0.71367186,0.15080567,166.0
22069,-14.926362,14.510323,-2.3127975,2.0390625,0.71367186,0.15080567,166.0
22070,-14.926362,14.510323,-2.3127975,1.2818482,1.2776002,0.14868164,166.0
22071,-12.375452,17.96363,-0.82466507,1.2818482,1.2776002,0.14868164,166.0
22072,-12.375452,17.96363,-0.82466507,-0.32709962,1.5590333,-0.20390625,166.0
22073,-9.973385,16.934006,0.9008522,-0.32709962,1.5590333,-0.20390625,166.0
22074,-9.973385,16.934006,0.9008522,-1.8638306,1.6546143,-0.29417726,166.0
22075,-10.299533,14.160622,2.5895042,-1.8638306,1.6546143,-0.29417726,166.0
22076,-10.299533,14.160622,2.5895042,-1.99552,1.1055542,-0.2357666,166.0
22077,-13.273843,11.519234,3.2508392,-1.99552,1.1055542,-0.2357666,166.0
22078,-13.273843,11.519234,3.2508392,-0.92926025,0.74871826,0.2262085,166.0
22079,-16.11679,9.720551,2.4911003,-0.92926025,0.74871826,0.2262085,166.0
22080,-16.11679,9.720551,2.4911003,0.5055176,-0.25700685,0.70942384,166.0
22081,-14.462854,8.232727,1.2363129,0.5055176,-0.25700685,0.70942384,166.0
22082,-14.462854,8.232727,1.2363129,1.5048707,-1.5165528,0.7349121,166.0
22083,-8.646774,6.461937,0.8516598,1.5048707,-1.5165528,0.7349121,166.0
22084,-8.646774,6.461937,0.8516598,1.5229248,-1.5940796,2.0443726,166.0
22085,-3.4628792,4.044052,1.0990887,1.5229248,-1.5940796,2.0443726,166.0
22086,-3.4628792,4.044052,1.0990887,1.3052124,-2.1006591,2.2365968,166.0
22087,-0.924284,0.54550934,0.3603363,1.3052124,-2.1006591,2.2365968,166.0
22088,-0.924284,0.54550934,0.3603363,1.2924683,-1.4528321,1.81073,166.0
22089,-0.39632416,-11.086014,-2.4850845,1.2924683,-1.4528321,1.81073,166.0
22090,-0.39632416,-11.086014,-2.4850845,3.0139892,-0.8708496,0.7678345,166.0
22091,5.1083794,-32.15628,-5.575493,3.0139892,-0.8708496,0.7678345,166.0
22092,5.1083794,-32.15628,-5.575493,10.785791,2.529712,4.8310914,166.0
22093,20.079952,-43.965622,-0.7280712,10.785791,2.529712,4.8310914,166.0
22094,20.079952,-43.965622,-0.7280712,14.25326,-1.6100098,6.588721,166.0
22095,30.06732,-30.106293,9.647888,14.25326,-1.6100098,6.588721,166.0
22096,30.06732,-30.106293,9.647888,2.627417,-1.8893188,4.591077,166.0
22097,22.657604,-5.2538223,10.460926,2.627417,-1.8893188,4.591077,166.0
22098,22.657604,-5.2538223,10.460926,-10.191065,4.636743,6.271179,166.0
22099,8.326205,5.717102,2.9935455,-10.191065,4.636743,6.271179,166.0
22100,8.326205,5.717102,2.9935455,-11.8074465,2.451123,5.881421,166.0
22101,-0.7318337,5.430725,-1.8102798,-11.8074465,2.451123,5.881421,166.0
22102,-0.7318337,5.430725,-1.8102798,-4.3022094,-2.34386,5.623352,166.0
22103,-2.9401424,8.293617,-2.0438538,-4.3022094,-2.34386,5.623352,166.0
22104,-2.9401424,8.293617,-2.0438538,0.8581055,-3.4876466,5.533081,166.0
22105,-1.4730124,14.931587,-0.9176636,0.8581055,-3.4876466,5.533081,166.0
22106,-1.4730124,14.931587,-0.9176636,1.7459472,-4.067505,4.7556887,166.0
22107,0.11931944,19.999954,-1.3753319,1.7459472,-4.067505,4.7556887,166.0
22108,0.11931944,19.999954,-1.3753319,-0.21346436,-4.0271487,4.440271,166.0
22109,0.47410536,21.52755,-3.6309776,-0.21346436,-4.0271487,4.440271,166.0
22110,0.47410536,21.52755,-3.6309776,-2.992749,-3.2210815,4.14928,166.0
22111,-0.5783453,21.968513,-4.245615,-2.992749,-3.2210815,4.14928,166.0
22112,-0.5783453,21.968513,-4.245615,-3.2232056,-2.2833252,0.25806886,166.0
22113,-2.8127618,21.542892,-1.8989334,-3.2232056,-2.2833252,0.25806886,166.0
22114,-2.8127618,21.542892,-1.8989334,-2.5605104,-0.8782837,-2.0125122,166.0
22115,-2.5672505,15.89418,1.1203442,-2.5605104,-0.8782837,-2.0125122,166.0
22116,-2.5672505,15.89418,1.1203442,-0.7625244,1.9190552,-3.9570558,166.0
22117,0.23295498,6.194908,3.4444199,-0.7625244,1.9190552,-3.9570558,166.0
22118,0.23295498,6.194908,3.4444199,2.3587282,1.8648926,-4.5762086,166.0
22119,1.290612,-1.1007004,4.0331345,2.3587282,1.8648926,-4.5762086,166.0
22120,1.290612,-1.1007004,4.0331345,2.7304323,1.1416626,-5.6031737,166.0
22121,1.0575628,-3.5931015,2.6907883,2.7304323,1.1416626,-5.6031737,166.0
22122,1.0575628,-3.5931015,2.6907883,0.7041138,2.3767822,-6.8499756,166.0
22123,1.0575628,-3.5931015,2.6907883,-1.0524536,2.440503,-7.0283937,166.0
22124,1.8116632,-4.5577927,-0.16581345,-1.0524536,2.440503,-7.0283937,166.0
22125,10.909145,-41.485886,-2.4996567,-1.0524536,2.440503,-7.0283937,166.0
22126,10.909145,-41.485886,-2.4996567,-1.0524536,2.440503,-7.0283937,167.0
22127,10.909145,-41.485886,-2.4996567,-0.2347046,3.149927,-6.69386,167.0
22128,10.909145,-41.485886,-2.4996567,-3.882715,3.899707,-7.698523,167.0
22129,10.909145,-41.485886,-2.4996567,-9.612268,3.4164917,-4.5804567,167.0
22130,5.8799653,-34.215736,1.704731,-9.612268,3.4164917,-4.5804567,167.0
22131,5.8799653,-34.215736,1.704731,-5.6594605,2.7697265,-1.3498169,167.0
22132,-0.6386547,-19.438652,-1.9517174,-5.6594605,2.7697265,-1.3498169,167.0
