,accx,accy,accz,gyrox,gyroy,gyroz,heart rate
16705,run,run,run,run,run,run,run
16706,1.277446,0.25439453,-0.4700775,-0.78376466,-0.30479738,0.12319336,57.0
16707,1.277446,0.25439453,-0.4700775,-0.1901001,0.032922365,0.09239502,57.0
16708,1.0530603,0.19026184,-0.32990646,-0.1901001,0.032922365,0.09239502,57.0
16709,0.86051464,0.14561462,-0.22592545,-0.1901001,0.032922365,0.09239502,57.0
16710,0.86051464,0.14561462,-0.22592545,-0.26444092,0.04885254,0.118945315,57.0
16711,-2.835331,1.9532585,-1.2633209,-0.26444092,0.04885254,0.118945315,57.0
16712,-2.835331,1.9532585,-1.2633209,-0.26656494,0.124255374,0.16885987,57.0
16713,-2.835331,1.9532585,-1.2633209,-0.22727051,0.1985962,0.23258057,57.0
16714,-2.02482,1.4281845,-1.1453018,-0.22727051,0.1985962,0.23258057,57.0
16715,-1.5908155,1.1096115,-0.82022095,-0.22727051,0.1985962,0.23258057,57.0
16716,-1.5908155,1.1096115,-0.82022095,-0.15823975,0.25700685,0.2803711,57.0
16717,-1.2734213,1.0264435,-0.44794846,-0.15823975,0.25700685,0.2803711,57.0
16718,-1.2734213,1.0264435,-0.44794846,-0.23682861,0.2548828,0.27506104,57.0
16719,-0.890563,1.106823,-0.21200943,-0.23682861,0.2548828,0.27506104,57.0
16720,-0.890563,1.106823,-0.21200943,-0.50870365,0.23258057,0.2357666,57.0
16721,-0.890563,1.106823,-0.21200943,-0.634021,0.21027832,0.24532472,57.0
16722,-0.47792912,0.91913605,-0.10967255,-0.634021,0.21027832,0.24532472,57.0
16723,-0.18904495,0.36532593,-0.027412415,-0.634021,0.21027832,0.24532472,57.0
16724,-0.18904495,0.36532593,-0.027412415,-0.4895874,0.271875,0.29630128,57.0
16725,-0.18102121,-0.031066895,0.0913887,-0.4895874,0.271875,0.29630128,57.0
16726,-0.18102121,-0.031066895,0.0913887,-0.30479738,0.3090454,0.35152587,57.0
16727,-0.31962156,-0.011096954,0.12071991,-0.30479738,0.3090454,0.35152587,57.0
16728,-0.31962156,-0.011096954,0.12071991,-0.15186767,0.26656494,0.4163086,57.0
16729,-0.318295,0.19919205,-0.10695267,-0.15186767,0.26656494,0.4163086,57.0
16730,-0.318295,0.19919205,-0.10695267,-0.07434082,0.2548828,0.45666504,57.0
16731,-0.11322975,0.22073364,-0.590847,-0.07434082,0.2548828,0.45666504,57.0
16732,-0.11322975,0.22073364,-0.590847,0.08602295,0.2357666,0.4991455,57.0
16733,0.17369843,-0.0666008,-1.1844177,0.08602295,0.2357666,0.4991455,57.0
16734,0.17369843,-0.0666008,-1.1844177,0.37382814,0.3345337,0.48640138,57.0
16735,0.30377817,-0.3531456,-1.6421623,0.37382814,0.3345337,0.48640138,57.0
16736,0.30377817,-0.3531456,-1.6421623,0.72960204,0.48640138,0.452417,57.0
16737,0.18804216,-0.40842056,-1.8954201,0.72960204,0.48640138,0.452417,57.0
16738,0.18804216,-0.40842056,-1.8954201,1.1236085,0.68287355,0.3971924,57.0
16739,0.18804216,-0.40842056,-1.8954201,1.717273,0.8857178,0.38657227,57.0
16740,-0.035625935,-0.38358307,-2.2124176,1.717273,0.8857178,0.38657227,57.0
16741,-0.31298542,-0.4659233,-2.8533783,1.717273,0.8857178,0.38657227,57.0
16742,-0.31298542,-0.4659233,-2.8533783,2.443689,1.2468017,0.25063476,57.0
16743,-0.8747659,-0.5054283,-3.8549805,2.443689,1.2468017,0.25063476,57.0
16744,-0.8747659,-0.5054283,-3.8549805,3.2731202,1.6896607,0.038232423,57.0
16745,-1.9414268,-0.30458832,-4.9631195,3.2731202,1.6896607,0.038232423,57.0
16746,-1.9414268,-0.30458832,-4.9631195,4.0515747,2.1834962,-0.33878174,57.0
16747,-1.9414268,-0.30458832,-4.9631195,4.9988894,2.6645875,-0.85704345,57.0
16748,-3.3765054,-0.04404831,-5.77837,4.9988894,2.6645875,-0.85704345,57.0
16749,-4.7854085,0.10387421,-6.235306,4.9988894,2.6645875,-0.85704345,57.0
16750,-4.7854085,0.10387421,-6.235306,5.9228396,3.0543458,-1.5739014,57.0
16751,-5.7857,0.20024872,-6.7542725,5.9228396,3.0543458,-1.5739014,57.0
16752,-5.7857,0.20024872,-6.7542725,5.9239016,3.4897707,-2.5881226,57.0
16753,-6.7980547,-0.8412895,-7.749695,5.9239016,3.4897707,-2.5881226,57.0
16754,-6.7980547,-0.8412895,-7.749695,6.4878297,3.8274903,-3.4695923,57.0
16755,-8.630877,-3.2544518,-8.82534,6.4878297,3.8274903,-3.4695923,57.0
16756,-8.630877,-3.2544518,-8.82534,8.215723,3.8561647,-4.358496,57.0
16757,-11.184865,-3.7486305,-9.096844,8.215723,3.8561647,-4.358496,57.0
16758,-11.184865,-3.7486305,-9.096844,8.302808,3.359143,-5.629724,57.0
16759,-13.263786,-0.56352997,-7.9838486,8.302808,3.359143,-5.629724,57.0
16760,-13.263786,-0.56352997,-7.9838486,5.147571,2.71875,-6.68324,57.0
16761,-13.875103,1.7182808,-6.3894825,5.147571,2.71875,-6.68324,57.0
16762,-13.875103,1.7182808,-6.3894825,3.1095703,2.5859985,-6.761829,57.0
16763,-14.45089,2.4661674,-5.2995987,3.1095703,2.5859985,-6.761829,57.0
16764,-14.45089,2.4661674,-5.2995987,2.3980224,3.0458496,-6.597217,57.0
16765,-14.45089,2.4661674,-5.2995987,1.3976074,3.359143,-5.169873,57.0
16766,-16.426472,7.287533,-3.4368973,1.3976074,3.359143,-5.169873,57.0
16767,-16.235378,13.193783,1.8146172,1.3976074,3.359143,-5.169873,57.0
16768,-16.235378,13.193783,1.8146172,2.4893556,4.460449,-3.1520507,57.0
16769,-11.107822,14.70023,8.540487,2.4893556,4.460449,-3.1520507,57.0
16770,-11.107822,14.70023,8.540487,4.236365,4.4593873,-1.2744141,57.0
16771,-2.5305328,14.088455,11.006851,4.236365,4.4593873,-1.2744141,57.0
16772,-2.5305328,14.088455,11.006851,3.3729494,3.355957,0.5331299,57.0
16773,6.6441154,12.588528,8.594749,3.3729494,3.355957,0.5331299,57.0
16774,6.6441154,12.588528,8.594749,3.2986085,1.5112427,1.8224121,57.0
16775,13.923325,8.128853,7.2426834,3.2986085,1.5112427,1.8224121,57.0
16776,13.923325,8.128853,7.2426834,5.6467166,-0.631897,2.8260133,57.0
16777,20.474524,2.868637,9.874859,5.6467166,-0.631897,2.8260133,57.0
16778,20.474524,2.868637,9.874859,8.001197,-1.898877,2.9598267,57.0
16779,29.352787,1.5019302,12.045822,8.001197,-1.898877,2.9598267,57.0
16780,29.352787,1.5019302,12.045822,5.156067,-2.179248,4.2023807,57.0
16781,37.430473,2.1477737,10.099144,5.156067,-2.179248,4.2023807,57.0
16782,37.430473,2.1477737,10.099144,1.6397461,-1.7470093,5.0902224,57.0
16783,35.214737,2.3689384,5.611637,1.6397461,-1.7470093,5.0902224,57.0
16784,35.214737,2.3689384,5.611637,-0.9526245,-1.7799317,7.1653934,57.0
16785,21.224342,3.0404892,1.1696777,-0.9526245,-1.7799317,7.1653934,57.0
16786,21.224342,3.0404892,1.1696777,-3.1191285,-1.992334,8.841248,57.0
16787,4.0242376,5.0863,-2.8827744,-3.1191285,-1.992334,8.841248,57.0
16788,4.0242376,5.0863,-2.8827744,-3.6076539,-2.4638672,9.528369,57.0
16789,-9.018135,11.567745,-5.4430847,-3.6076539,-2.4638672,9.528369,57.0
16790,-9.018135,11.567745,-5.4430847,-2.3013794,-2.7198122,9.999903,57.0
16791,-17.399225,25.402464,-3.2319107,-2.3013794,-2.7198122,9.999903,57.0
16792,-17.399225,25.402464,-3.2319107,-1.1119263,-2.2068603,12.070826,57.0
16793,-27.149849,39.39961,1.0233574,-1.1119263,-2.2068603,12.070826,57.0
16794,-27.149849,39.39961,1.0233574,-2.4097047,-2.6497192,13.835889,57.0
16795,-35.313828,38.746605,1.175766,-2.4097047,-2.6497192,13.835889,57.0
16796,-35.313828,38.746605,1.175766,-4.2852173,-2.4022706,13.005396,57.0
16797,-36.131577,20.614044,-3.0470238,-4.2852173,-2.4022706,13.005396,57.0
16798,-36.131577,20.614044,-3.0470238,-4.162024,-1.1331666,12.312964,57.0
16799,-32.82489,-7.32627,-11.0452385,-4.162024,-1.1331666,12.312964,57.0
16800,-32.82489,-7.32627,-11.0452385,-3.1987793,0.5246338,10.053003,57.0
16801,-26.185925,-35.74061,-22.113548,-3.1987793,0.5246338,10.053003,57.0
16802,-26.185925,-35.74061,-22.113548,-2.2238526,3.4632204,6.6418214,57.0
16803,-18.810333,-52.46442,-28.551594,-2.2238526,3.4632204,6.6418214,57.0
16804,-18.810333,-52.46442,-28.551594,-4.9988894,6.9009523,2.2057984,57.0
16805,-11.145554,-55.246307,-28.58035,-4.9988894,6.9009523,2.2057984,57.0
16806,-11.145554,-55.246307,-28.58035,-6.343396,7.9003053,-2.0178223,57.0
16807,-2.1706161,-51.198685,-26.68208,-6.343396,7.9003053,-2.0178223,57.0
16808,-2.1706161,-51.198685,-26.68208,0.3993164,8.0596075,-5.584058,57.0
16809,1.8222618,-40.74382,-20.943125,0.3993164,8.0596075,-5.584058,57.0
16810,1.8222618,-40.74382,-20.943125,5.1804934,8.560877,-9.700416,57.0
16811,-3.152176,-23.198303,-10.846077,5.1804934,8.560877,-9.700416,57.0
16812,-3.152176,-23.198303,-10.846077,6.1862183,9.319153,-13.369666,57.0
16813,-13.628677,-4.298546,-1.2511048,6.1862183,9.319153,-13.369666,57.0
16814,-13.628677,-4.298546,-1.2511048,4.9192386,10.047693,-14.902148,57.0
16815,-27.411022,14.123077,5.248787,4.9192386,10.047693,-14.902148,57.0
16816,-27.411022,14.123077,5.248787,2.9449584,10.477808,-14.713111,57.0
16817,-37.158997,36.419323,13.767889,2.9449584,10.477808,-14.713111,57.0
16818,-37.158997,36.419323,13.767889,2.6571534,10.197436,-10.501172,57.0
16819,-27.823952,52.511253,24.610687,2.6571534,10.197436,-10.501172,57.0
16820,-27.823952,52.511253,24.610687,2.8355713,7.4871826,-4.36062,57.0
16821,-0.3649826,46.724895,29.86991,2.8355713,7.4871826,-4.36062,57.0
16822,-0.3649826,46.724895,29.86991,3.4695923,4.321326,0.20072022,57.0
16823,26.988754,23.420126,30.535759,3.4695923,4.321326,0.20072022,57.0
16824,26.988754,23.420126,30.535759,4.786487,2.1537597,1.6068238,57.0
16825,43.134815,0.61229706,32.277374,4.786487,2.1537597,1.6068238,57.0
16826,43.134815,0.61229706,32.277374,5.3854613,-1.0067872,1.2213135,57.0
16827,54.53976,-9.873665,32.08479,5.3854613,-1.0067872,1.2213135,57.0
16828,54.53976,-9.873665,32.08479,5.347229,-4.072815,2.7962768,57.0
16829,64.009094,-8.819294,28.099545,5.347229,-4.072815,2.7962768,57.0
16830,64.009094,-8.819294,28.099545,3.4281738,-3.3071046,3.810498,57.0
16831,57.89762,-1.8410187,20.920227,3.4281738,-3.3071046,3.810498,57.0
16832,57.89762,-1.8410187,20.920227,0.1263794,-4.9893312,6.2701173,57.0
16833,36.383354,3.709179,9.42234,0.1263794,-4.9893312,6.2701173,57.0
16834,36.383354,3.709179,9.42234,-1.7884277,-5.4109497,7.231238,57.0
16835,12.867123,6.477743,-4.023613,-1.7884277,-5.4109497,7.231238,57.0
16836,12.867123,6.477743,-4.023613,-1.3264526,-5.3801513,7.8525147,57.0
16837,-6.190018,10.521698,-12.963558,-1.3264526,-5.3801513,7.8525147,57.0
16838,-6.190018,10.521698,-12.963558,-1.002539,-4.7503786,9.748206,57.0
16839,-20.12715,15.387024,-14.065613,-1.002539,-4.7503786,9.748206,57.0
16840,-20.12715,15.387024,-14.065613,-1.084314,-5.5628176,10.802783,57.0
16841,-27.518993,17.50089,-10.411694,-1.084314,-5.5628176,10.802783,57.0
16842,-27.518993,17.50089,-10.411694,-0.9451904,-5.5606933,10.629676,57.0
16843,-26.22784,12.910282,-7.2170486,-0.9451904,-5.5606933,10.629676,57.0
16844,-26.22784,12.910282,-7.2170486,-0.52038574,-4.8587036,11.276441,57.0
16845,-20.179123,3.621561,-6.356369,-0.52038574,-4.8587036,11.276441,57.0
16846,-20.179123,3.621561,-6.356369,-1.2574219,-3.4037476,10.916419,57.0
16847,-16.45393,-5.539837,-6.938797,-1.2574219,-3.4037476,10.916419,57.0
16848,-16.45393,-5.539837,-6.938797,-2.360852,-1.5611572,9.4370365,57.0
16849,-16.829464,-15.284494,-10.865284,-2.360852,-1.5611572,9.4370365,57.0
16850,-16.829464,-15.284494,-10.865284,-2.7028198,0.09770508,7.6496706,57.0
16851,-15.883762,-28.170929,-16.735538,-2.7028198,0.09770508,7.6496706,57.0
16852,-15.883762,-28.170929,-16.735538,-2.2450929,3.0532837,5.1242065,57.0
16853,-9.530239,-37.953796,-18.795265,-2.2450929,3.0532837,5.1242065,57.0
16854,-9.530239,-37.953796,-18.795265,-5.3036866,4.731262,1.0301514,57.0
16855,0.7179489,-40.38998,-19.029097,-5.3036866,4.731262,1.0301514,57.0
16856,0.7179489,-40.38998,-19.029097,-4.626123,4.9362307,-2.360852,57.0
16857,9.343391,-37.857765,-19.234667,-4.626123,4.9362307,-2.360852,57.0
16858,9.343391,-37.857765,-19.234667,0.19753419,5.889917,-4.8544555,57.0
16859,10.65527,-29.54116,-15.03047,0.19753419,5.889917,-4.8544555,57.0
16860,10.65527,-29.54116,-15.03047,2.0454347,6.8351073,-7.150525,57.0
16861,5.6939316,-17.008652,-6.9925156,2.0454347,6.8351073,-7.150525,57.0
16862,5.6939316,-17.008652,-6.9925156,2.5955567,7.322571,-9.494385,57.0
16863,0.07793808,-5.552101,0.12057495,2.5955567,7.322571,-9.494385,57.0
16864,0.07793808,-5.552101,0.12057495,2.7686646,7.6719728,-10.598877,57.0
16865,-4.0833893,3.361702,3.9511719,2.7686646,7.6719728,-10.598877,57.0
16866,-4.0833893,3.361702,3.9511719,1.9997681,7.388416,-10.699768,57.0
16867,-7.6232414,13.214142,6.872547,1.9997681,7.388416,-10.699768,57.0
16868,-7.6232414,13.214142,6.872547,-0.29205322,6.8478518,-9.980786,57.0
16869,-10.5977745,22.437344,11.326492,-0.29205322,6.8478518,-9.980786,57.0
16870,-10.5977745,22.437344,11.326492,0.81031495,5.9525757,-7.5827637,57.0
16871,-10.095886,26.489143,14.517822,0.81031495,5.9525757,-7.5827637,57.0
16872,-10.095886,26.489143,14.517822,5.228284,4.1163573,-4.997827,57.0
16873,-4.2290497,25.57513,13.032019,5.228284,4.1163573,-4.997827,57.0
16874,-4.2290497,25.57513,13.032019,7.76012,2.241907,-3.2009034,57.0
16875,4.141773,22.990818,10.534466,7.76012,2.241907,-3.2009034,57.0
16876,4.141773,22.990818,10.534466,5.058362,0.93775636,-2.4585571,57.0
16877,11.130047,18.29269,11.694153,5.058362,0.93775636,-2.4585571,57.0
16878,11.130047,18.29269,11.694153,2.5148437,-0.4630371,-0.7880127,57.0
16879,15.781307,8.8700905,13.998146,2.5148437,-0.4630371,-0.7880127,57.0
16880,15.781307,8.8700905,13.998146,2.4543092,-2.073047,1.537793,57.0
16881,17.834103,-1.4741058,12.68145,2.4543092,-2.073047,1.537793,57.0
16882,17.834103,-1.4741058,12.68145,2.3385499,-3.893335,3.0490358,57.0
16883,16.944881,-7.8426514,7.7619324,2.3385499,-3.893335,3.0490358,57.0
16884,16.944881,-7.8426514,7.7619324,2.0029542,-5.6775146,3.5025146,57.0
16885,14.967648,-9.525707,3.092434,2.0029542,-5.6775146,3.5025146,57.0
16886,14.967648,-9.525707,3.092434,1.5643433,-6.272241,3.4334838,57.0
16887,13.496212,-7.198433,0.43466568,1.5643433,-6.272241,3.4334838,57.0
16888,13.496212,-7.198433,0.43466568,0.94625247,-5.770972,3.7648315,57.0
16889,12.256649,-2.610794,-1.2925987,0.94625247,-5.770972,3.7648315,57.0
16890,12.256649,-2.610794,-1.2925987,-0.9547486,-5.060486,4.7726808,57.0
16891,10.582224,1.0118256,-3.190796,-0.9547486,-5.060486,4.7726808,57.0
16892,10.582224,1.0118256,-3.190796,-3.5152588,-4.099365,5.5468874,57.0
16893,7.2735786,2.3976593,-4.8062134,-3.5152588,-4.099365,5.5468874,57.0
16894,7.2735786,2.3976593,-4.8062134,-4.9171143,-3.260376,5.8346925,57.0
16895,2.1487093,3.0546875,-5.5126343,-4.9171143,-3.260376,5.8346925,57.0
16896,2.1487093,3.0546875,-5.5126343,-5.3769655,-2.6624634,6.143738,57.0
16897,-3.487831,4.8326187,-5.9764786,-5.3769655,-2.6624634,6.143738,57.0
16898,-3.487831,4.8326187,-5.9764786,-5.7433596,-1.9456055,6.1957765,57.0
16899,-9.252911,7.212799,-6.7243233,-5.7433596,-1.9456055,6.1957765,57.0
16900,-9.252911,7.212799,-6.7243233,-5.79115,-2.18562,5.5702515,57.0
16901,-13.973545,7.460705,-8.904301,-5.79115,-2.18562,5.5702515,57.0
16902,-13.973545,7.460705,-8.904301,-4.2098145,-2.3905885,4.827905,57.0
16903,-16.018595,3.4630203,-11.901516,-4.2098145,-2.3905885,4.827905,57.0
16904,-16.018595,3.4630203,-11.901516,-2.1240234,-2.0433106,4.158838,57.0
16905,-13.898212,-4.6189156,-13.01915,-2.1240234,-2.0433106,4.158838,57.0
16906,-13.898212,-4.6189156,-13.01915,-0.94625247,-1.4379638,3.623584,57.0
16907,-7.244072,-13.941498,-11.254969,-0.94625247,-1.4379638,3.623584,57.0
16908,-7.244072,-13.941498,-11.254969,-0.5129517,-0.37701416,2.9789429,57.0
16909,0.3927536,-21.128185,-7.303438,-0.5129517,-0.37701416,2.9789429,57.0
16910,0.3927536,-21.128185,-7.303438,-0.46834716,0.77314454,2.3003175,57.0
16911,4.712883,-24.529182,-2.7407494,-0.46834716,0.77314454,2.3003175,57.0
16912,4.712883,-24.529182,-2.7407494,-0.40037844,1.9827759,1.3402588,57.0
16913,4.263836,-25.034866,1.1144447,-0.40037844,1.9827759,1.3402588,57.0
16914,4.263836,-25.034866,1.1144447,0.13699952,2.3948364,-0.081774905,57.0
16915,1.9001198,-22.464844,3.9426422,0.13699952,2.3948364,-0.081774905,57.0
16916,1.9001198,-22.464844,3.9426422,0.47896728,2.0974731,-1.8861328,57.0
16917,0.74671936,-16.736572,4.6963863,0.47896728,2.0974731,-1.8861328,57.0
16918,0.74671936,-16.736572,4.6963863,1.2053833,1.8755127,-3.6034057,57.0
16919,0.34942627,-8.278992,3.4361248,1.2053833,1.8755127,-3.6034057,57.0
16920,0.34942627,-8.278992,3.4361248,1.7055908,2.0029542,-5.053052,57.0
16921,-1.2936764,2.54702,2.3161602,1.7055908,2.0029542,-5.053052,57.0
16922,-1.2936764,2.54702,2.3161602,1.7438233,2.7591064,-6.2223268,57.0
16923,-4.8960133,14.160347,2.616539,1.7438233,2.7591064,-6.2223268,57.0
16924,-4.8960133,14.160347,2.616539,2.9460206,3.7265992,-6.4039307,57.0
16925,-8.130203,24.402435,3.453888,2.9460206,3.7265992,-6.4039307,57.0
16926,-8.130203,24.402435,3.453888,4.9351687,4.0398927,-4.9935794,57.0
16927,-6.628504,29.814064,4.1154175,4.9351687,4.0398927,-4.9935794,57.0
16928,-6.628504,29.814064,4.1154175,4.4190307,3.7860718,-3.3825073,57.0
16929,0.8146286,27.306828,5.7231216,4.4190307,3.7860718,-3.3825073,57.0
16930,0.8146286,27.306828,5.7231216,3.25188,3.3910034,-2.066675,57.0
16931,10.113422,17.628593,9.71463,3.25188,3.3910034,-2.066675,57.0
16932,10.113422,17.628593,9.71463,3.2784302,2.698572,-1.3954834,57.0
16933,17.824697,7.1252365,14.679283,3.2784302,2.698572,-1.3954834,57.0
16934,17.824697,7.1252365,14.679283,2.8833618,1.0694458,-0.99298096,57.0
16935,17.824697,7.1252365,14.679283,2.8833618,1.0694458,-0.99298096,0.0
16936,24.377825,1.8065605,17.423359,2.8833618,1.0694458,-0.99298096,0.0
16937,24.377825,1.8065605,17.423359,1.1087402,0.7041138,0.46516114,0.0
16938,26.265125,1.5095177,18.005463,1.1087402,0.7041138,0.46516114,0.0
16939,26.265125,1.5095177,18.005463,-1.8925049,1.0577637,2.0061402,0.0
16940,18.80828,2.0449295,16.752869,-1.8925049,1.0577637,2.0061402,0.0
16941,18.80828,2.0449295,16.752869,-5.506531,0.04885254,3.6490724,0.0
16942,6.6119075,-0.3356514,11.176136,-5.506531,0.04885254,3.6490724,0.0
16943,6.6119075,-0.3356514,11.176136,-7.880127,-1.1214844,4.2926517,0.0
16944,-3.7427983,-4.079628,1.5366592,-7.880127,-1.1214844,4.2926517,0.0
16945,-3.7427983,-4.079628,1.5366592,-6.7554564,-2.1866822,3.9464357,0.0
16946,-12.515662,-3.2977371,-7.3018646,-6.7554564,-2.1866822,3.9464357,0.0
16947,-12.515662,-3.2977371,-7.3018646,-3.2667482,-2.2790773,2.608301,0.0
16948,-21.70396,5.4380913,-12.881836,-3.2667482,-2.2790773,2.608301,0.0
16949,-21.70396,5.4380913,-12.881836,-2.4489992,-1.364685,2.0029542,0.0
16950,-25.151438,14.789291,-15.477562,-2.4489992,-1.364685,2.0029542,0.0
16951,-25.151438,14.789291,-15.477562,-5.79646,-0.7742066,2.7633545,0.0
16952,-19.668648,14.692896,-15.010994,-5.79646,-0.7742066,2.7633545,0.0
16953,-19.668648,14.692896,-15.010994,-6.3869386,-0.58198243,3.9039552,0.0
16954,-10.361748,4.5024853,-12.747246,-6.3869386,-0.58198243,3.9039552,0.0
16955,-10.361748,4.5024853,-12.747246,-3.0224855,-0.6860596,4.3043337,0.0
16956,-0.33789825,-8.624683,-9.995731,-3.0224855,-0.6860596,4.3043337,0.0
16957,-0.33789825,-8.624683,-9.995731,-0.544812,-0.49277344,4.1832643,0.0
16958,7.88509,-17.30856,-7.11277,-0.544812,-0.49277344,4.1832643,0.0
16959,7.88509,-17.30856,-7.11277,-1.5165528,0.011682129,3.6395142,0.0
16960,12.305374,-21.84375,-4.9862366,-1.5165528,0.011682129,3.6395142,0.0
16961,12.305374,-21.84375,-4.9862366,-2.7782228,0.44604492,3.1244385,0.0
16962,12.616859,-25.894455,-5.122303,-2.7782228,0.44604492,3.1244385,0.0
16963,12.616859,-25.894455,-5.122303,-2.4086425,0.7126099,2.4691772,0.0
16964,10.646784,-29.821838,-7.337576,-2.4086425,0.7126099,2.4691772,0.0
16965,10.646784,-29.821838,-7.337576,-0.90058595,0.8750977,0.96643066,0.0
16966,9.013386,-29.857162,-8.110807,-0.90058595,0.8750977,0.96643066,0.0
16967,9.013386,-29.857162,-8.110807,0.80181885,1.634436,-1.2478638,0.0
16968,7.387748,-22.920921,-4.9626694,0.80181885,1.634436,-1.2478638,0.0
16969,7.387748,-22.920921,-4.9626694,1.084314,2.8823,-2.9704468,0.0
16970,4.132806,-11.694199,-0.25668335,1.084314,2.8823,-2.9704468,0.0
16971,4.132806,-11.694199,-0.25668335,0.6903076,3.62677,-3.9241333,0.0
16972,-0.35485172,-1.3939667,2.9257202,0.6903076,3.62677,-3.9241333,0.0
16973,-0.35485172,-1.3939667,2.9257202,0.81881106,4.218311,-4.528418,0.0
16974,-4.954878,5.903,4.170555,0.81881106,4.218311,-4.528418,0.0
16975,-4.954878,5.903,4.170555,0.8591675,4.341504,-4.9171143,0.0
16976,-9.191783,13.108498,5.6466255,0.8591675,4.341504,-4.9171143,0.0
16977,-9.191783,13.108498,5.6466255,-0.6595093,4.879944,-5.164563,0.0
16978,-13.533688,20.608135,8.375858,-0.6595093,4.879944,-5.164563,0.0
16979,-13.533688,20.608135,8.375858,-1.0046631,4.4137206,-3.533313,0.0
16980,-16.076817,24.363083,9.600613,-1.0046631,4.4137206,-3.533313,0.0
16981,-16.076817,24.363083,9.600613,2.0539308,2.5775025,-0.61278075,0.0
16982,-13.307095,23.85553,8.694298,2.0539308,2.5775025,-0.61278075,0.0
16983,-13.307095,23.85553,8.694298,4.2140627,0.8315552,1.8542725,0.0
16984,-5.8449554,19.3088,8.023125,4.2140627,0.8315552,1.8542725,0.0
16985,-5.8449554,19.3088,8.023125,3.805188,0.23895264,3.2444458,0.0
16986,2.6535645,11.226971,7.9635315,3.805188,0.23895264,3.2444458,0.0
16987,2.6535645,11.226971,7.9635315,4.2926517,-0.19222413,3.7340333,0.0
16988,10.283325,2.2197113,7.9616814,4.2926517,-0.19222413,3.7340333,0.0
16989,10.283325,2.2197113,7.9616814,5.9812503,-1.4156617,3.797754,0.0
16990,18.070936,-2.9875946,7.850704,5.9812503,-1.4156617,3.797754,0.0
16991,18.070936,-2.9875946,7.850704,5.9971805,-2.4808595,3.0893922,0.0
16992,27.916235,-1.7307968,7.745907,5.9971805,-2.4808595,3.0893922,0.0
16993,27.916235,-1.7307968,7.745907,2.4766114,-1.9551636,3.7648315,0.0
16994,33.596817,1.0839081,6.484627,2.4766114,-1.9551636,3.7648315,0.0
16995,33.596817,1.0839081,6.484627,1.8330323,-1.0673218,3.3602052,0.0
16996,28.84861,2.5584564,2.475788,1.8330323,-1.0673218,3.3602052,0.0
16997,28.84861,2.5584564,2.475788,3.703235,-1.4857544,4.7567506,0.0
16998,19.22934,6.2378426,-4.363571,3.703235,-1.4857544,4.7567506,0.0
16999,19.22934,6.2378426,-4.363571,3.9591796,-0.16885987,6.513318,0.0
17000,9.938454,13.378384,-11.793835,3.9591796,-0.16885987,6.513318,0.0
17001,9.938454,13.378384,-11.793835,-0.43117675,1.7958618,8.532203,0.0
17002,0.6259947,18.240135,-17.31977,-0.43117675,1.7958618,8.532203,0.0
17003,0.6259947,18.240135,-17.31977,-3.4504762,3.0108032,10.373731,0.0
17004,-7.7892437,16.791035,-20.059956,-3.4504762,3.0108032,10.373731,0.0
17005,-7.7892437,16.791035,-20.059956,-1.9116211,3.5641115,11.94657,0.0
17006,-13.1355095,14.250517,-19.13456,-1.9116211,3.5641115,11.94657,0.0
17007,-13.1355095,14.250517,-19.13456,-0.24957275,4.608069,11.147937,0.0
17008,-17.812521,12.776072,-13.506378,-0.24957275,4.608069,11.147937,0.0
17009,-17.812521,12.776072,-13.506378,-0.62977296,7.3714232,8.54176,0.0
17010,-26.793255,5.38995,-5.699194,-0.62977296,7.3714232,8.54176,0.0
17011,-26.793255,5.38995,-5.699194,-2.7803466,5.27926,4.7854247,0.0
17012,-30.089573,-11.22543,0.625227,-2.7803466,5.27926,4.7854247,0.0
17013,-30.089573,-11.22543,0.625227,-3.3825073,2.8769898,3.180725,0.0
17014,-19.596207,-27.173239,3.8331776,-3.3825073,2.8769898,3.180725,0.0
17015,-19.596207,-27.173239,3.8331776,-4.262915,3.9071412,2.2875733,0.0
17016,-7.571314,-35.505524,2.3459358,-4.262915,3.9071412,2.2875733,0.0
17017,-7.571314,-35.505524,2.3459358,-4.602759,4.6324954,2.075171,0.0
17018,-4.6054153,-39.67334,-2.2014008,-4.602759,4.6324954,2.075171,0.0
17019,-4.6054153,-39.67334,-2.2014008,-3.3071046,4.7461305,0.727478,0.0
17020,-7.8971252,-40.100975,-5.8065796,-3.3071046,4.7461305,0.727478,0.0
17021,-7.8971252,-40.100975,-5.8065796,-0.29948732,3.3272827,-1.3062744,0.0
17022,-8.90675,-33.299698,-6.3521366,-0.29948732,3.3272827,-1.3062744,0.0
17023,-8.90675,-33.299698,-6.3521366,1.0312134,2.162256,-3.43136,0.0
17024,-5.168844,-20.748734,-3.688179,1.0312134,2.162256,-3.43136,0.0
17025,-5.168844,-20.748734,-3.688179,1.3476928,1.3009644,-4.816223,0.0
17026,-0.067092896,-7.8939743,1.4846001,1.3476928,1.3009644,-4.816223,0.0
17027,-0.067092896,-7.8939743,1.4846001,2.788843,0.62552494,-5.623352,0.0
17028,4.168665,3.0397415,7.1120205,2.788843,0.62552494,-5.623352,0.0
17029,4.168665,3.0397415,7.1120205,3.883777,0.032922365,-6.220203,0.0
17030,7.64299,15.151497,11.641449,3.883777,0.032922365,-6.220203,0.0
17031,7.64299,15.151497,11.641449,3.3166625,-0.083898924,-6.53031,0.0
17032,11.029358,29.796444,16.621254,3.3166625,-0.083898924,-6.53031,0.0
17033,11.029358,29.796444,16.621254,1.6769165,0.1709839,-5.4566164,0.0
17034,14.881811,40.81423,21.817913,1.6769165,0.1709839,-5.4566164,0.0
17035,14.881811,40.81423,21.817913,1.6588624,-1.3030884,-2.805835,0.0
17036,14.881811,40.81423,21.817913,1.6588624,-1.3030884,-2.805835,0.0
17037,21.022417,40.98835,21.15754,1.6588624,-1.3030884,-2.805835,0.0
17038,21.022417,40.98835,21.15754,2.7006958,-3.1955934,0.635083,0.0
17039,31.558643,29.551044,14.450947,2.7006958,-3.1955934,0.635083,0.0
17040,31.558643,29.551044,14.450947,1.4400879,-0.5894165,2.626355,0.0
17041,33.556107,11.990677,10.672623,1.4400879,-0.5894165,2.626355,0.0
17042,33.556107,11.990677,10.672623,-1.622754,1.6907227,3.5609252,0.0
17043,19.049526,-6.9603043,10.586075,-1.622754,1.6907227,3.5609252,0.0
17044,19.049526,-6.9603043,10.586075,-1.9647217,0.45878908,3.712793,0.0
17045,1.8990316,-22.04847,7.995018,-1.9647217,0.45878908,3.712793,0.0
17046,1.8990316,-22.04847,7.995018,-1.8574585,0.36639404,2.721936,0.0
17047,-8.464491,-29.807343,1.9227257,-1.8574585,0.36639404,2.721936,0.0
17048,-8.464491,-29.807343,1.9227257,-0.9696167,-0.04248047,1.1257324,0.0
17049,-12.124607,-28.59573,-3.117836,-0.9696167,-0.04248047,1.1257324,0.0
17050,-12.124607,-28.59573,-3.117836,0.7497803,-0.70305175,0.9420044,0.0
17051,-10.652177,-18.91655,-4.4999924,0.7497803,-0.70305175,0.9420044,0.0
17052,-10.652177,-18.91655,-4.4999924,1.4177856,-1.9381714,1.5059327,0.0
17053,-5.229517,-8.244553,-3.581173,1.4177856,-1.9381714,1.5059327,0.0
17054,-5.229517,-8.244553,-3.581173,0.94412845,-2.0156982,1.5834595,0.0
17055,1.1921918,-1.1363792,-1.7287827,0.94412845,-2.0156982,1.5834595,0.0
17056,1.1921918,-1.1363792,-1.7287827,-0.0722168,-1.8510865,2.2206666,0.0
17057,5.14173,3.1870499,1.0965157,-0.0722168,-1.8510865,2.2206666,0.0
17058,5.14173,3.1870499,1.0965157,-0.36427003,-2.0571167,3.521631,0.0
17059,5.116411,6.855999,3.9087296,-0.36427003,-2.0571167,3.521631,0.0
17060,5.116411,6.855999,3.9087296,-0.94412845,-2.160132,4.9096804,0.0
17061,1.2824357,10.433968,3.9616165,-0.94412845,-2.160132,4.9096804,0.0
17062,1.2824357,10.433968,3.9616165,-2.895044,-2.2886353,6.1012573,0.0
17063,-3.343851,10.579144,-0.06808472,-2.895044,-2.2886353,6.1012573,0.0
17064,-3.343851,10.579144,-0.06808472,-5.254834,-2.1282716,6.8510375,0.0
17065,-5.2865434,4.418171,-7.0933113,-5.254834,-2.1282716,6.8510375,0.0
17066,-5.2865434,4.418171,-7.0933113,-6.797937,-1.2266235,7.1770754,0.0
17067,-5.6472893,-7.3782196,-15.901356,-6.797937,-1.2266235,7.1770754,0.0
17068,-5.6472893,-7.3782196,-15.901356,-5.45874,0.06265869,5.971692,0.0
17069,-6.376376,-22.220531,-24.924835,-5.45874,0.06265869,5.971692,0.0
17070,-6.376376,-22.220531,-24.924835,-2.5934327,2.1420777,2.5987427,0.0
17071,-7.6181545,-29.35012,-29.701672,-2.5934327,2.1420777,2.5987427,0.0
17072,-7.6181545,-29.35012,-29.701672,-3.0723999,5.892041,-0.42799073,0.0
17073,-10.938885,-23.26342,-30.208408,-3.0723999,5.892041,-0.42799073,0.0
17074,-10.938885,-23.26342,-30.208408,-5.4396243,8.439807,-3.2763062,0.0
17075,-15.549984,-12.436653,-28.057535,-5.4396243,8.439807,-3.2763062,0.0
17076,-15.549984,-12.436653,-28.057535,-2.5254638,9.530494,-3.169043,0.0
17077,-18.729013,-3.4321213,-22.05085,-2.5254638,9.530494,-3.169043,0.0
17078,-18.729013,-3.4321213,-22.05085,2.3969605,9.874585,-2.972571,0.0
17079,-20.987642,2.9470673,-12.8611765,2.3969605,9.874585,-2.972571,0.0
17080,-20.987642,2.9470673,-12.8611765,5.0509276,9.832105,-3.7669556,0.0
17081,-22.441494,6.144165,-2.755702,5.0509276,9.832105,-3.7669556,0.0
17082,-22.441494,6.144165,-2.755702,5.689197,9.831042,-5.3079348,0.0
17083,-22.65129,6.639763,5.063822,5.689197,9.831042,-5.3079348,0.0
17084,-22.65129,6.639763,5.063822,6.8521,10.064685,-6.440039,0.0
17085,-24.289917,9.695053,9.307026,6.8521,10.064685,-6.440039,0.0
17086,-24.289917,9.695053,9.307026,6.9561768,10.013709,-6.87334,0.0
17087,-29.60918,18.54065,12.743156,6.9561768,10.013709,-6.87334,0.0
17088,-29.60918,18.54065,12.743156,5.869739,9.160913,-5.701941,0.0
17089,-33.639954,30.103638,18.456306,5.869739,9.160913,-5.701941,0.0
17090,-33.639954,30.103638,18.456306,5.2643924,8.322986,-3.25188,0.0
17091,-30.015831,37.549877,23.811665,5.2643924,8.322986,-3.25188,0.0
17092,-30.015831,37.549877,23.811665,6.5749145,6.8213015,-0.6669434,0.0
17093,-16.309258,36.167526,25.538467,6.5749145,6.8213015,-0.6669434,0.0
17094,-16.309258,36.167526,25.538467,8.154126,5.2006717,1.273352,0.0
17095,3.6687698,27.395435,26.276405,8.154126,5.2006717,1.273352,0.0
17096,3.6687698,27.395435,26.276405,9.703601,3.1255004,2.1580079,0.0
17097,23.930344,15.460564,30.07148,9.703601,3.1255004,2.1580079,0.0
17098,23.930344,15.460564,30.07148,10.580823,-0.32072756,1.7746216,0.0
17099,45.603016,7.43692,33.39598,10.580823,-0.32072756,1.7746216,0.0
17100,45.603016,7.43692,33.39598,6.5664186,-3.3049805,2.4171388,0.0
17101,63.735344,4.370678,30.125404,6.5664186,-3.3049805,2.4171388,0.0
17102,63.735344,4.370678,30.125404,2.631665,-1.6365601,3.80094,0.0
17103,62.49588,0.80973816,19.553452,2.631665,-1.6365601,3.80094,0.0
17104,62.49588,0.80973816,19.553452,1.3689331,-3.620398,5.493787,0.0
17105,42.782215,-2.1505241,5.728073,1.3689331,-3.620398,5.493787,0.0
17106,42.782215,-2.1505241,5.728073,0.16142578,-4.239551,6.591907,0.0
17107,19.84329,-0.41044617,-5.6691055,0.16142578,-4.239551,6.591907,0.0
17108,19.84329,-0.41044617,-5.6691055,-1.8171021,-4.796045,7.512671,0.0
17109,2.8145125,6.4371567,-12.641937,-1.8171021,-4.796045,7.512671,0.0
17110,2.8145125,6.4371567,-12.641937,-0.69136965,-4.7450686,8.980371,0.0
17111,-6.035756,16.83554,-14.034557,-0.69136965,-4.7450686,8.980371,0.0
17112,-6.035756,16.83554,-14.034557,0.6053467,-3.8200562,12.007105,0.0
17113,-12.188224,27.554981,-9.970238,0.6053467,-3.8200562,12.007105,0.0
17114,-12.188224,27.554981,-9.970238,-1.2542359,-2.9258423,14.358398,0.0
17115,-19.244183,29.432816,-4.361458,-1.2542359,-2.9258423,14.358398,0.0
17116,-19.244183,29.432816,-4.361458,-3.1424928,-2.4192626,15.482007,0.0
17117,-25.430882,18.392872,-1.6725273,-3.1424928,-2.4192626,15.482007,0.0
17118,-25.430882,18.392872,-1.6725273,-4.8576417,-1.2765381,15.660425,0.0
17119,-30.052822,-0.24914312,-3.548458,-4.8576417,-1.2765381,15.660425,0.0
17120,-30.052822,-0.24914312,-3.548458,-6.343396,-0.33984375,13.430201,0.0
17121,-30.618587,-23.42113,-11.968506,-6.343396,-0.33984375,13.430201,0.0
17122,-30.618587,-23.42113,-11.968506,-5.0403075,0.541626,9.204455,0.0
17123,-23.2243,-46.112,-24.0849,-5.0403075,0.541626,9.204455,0.0
17124,-23.2243,-46.112,-24.0849,-2.0029542,2.4904175,4.952161,0.0
17125,-14.628269,-57.06775,-34.17157,-2.0029542,2.4904175,4.952161,0.0
17126,-14.628269,-57.06775,-34.17157,-2.1898682,4.987207,0.6488892,0.0
17127,-11.519936,-55.643448,-40.33966,-2.1898682,4.987207,0.6488892,0.0
17128,-11.519936,-55.643448,-40.33966,-2.7856567,5.784778,-2.456433,0.0
17129,-9.967659,-48.584106,-38.452625,-2.7856567,5.784778,-2.456433,0.0
17130,-9.967659,-48.584106,-38.452625,0.815625,6.245691,-5.3843994,0.0
17131,-6.8246155,-37.326286,-27.106974,0.815625,6.245691,-5.3843994,0.0
17132,-6.8246155,-37.326286,-27.106974,5.4799805,7.6231203,-9.686609,0.0
17133,-6.9762573,-22.543777,-13.313741,5.4799805,7.6231203,-9.686609,0.0
17134,-6.9762573,-22.543777,-13.313741,7.7261353,8.600171,-13.619239,0.0
17135,-16.079605,-6.7050934,-4.5574255,7.7261353,8.600171,-13.619239,0.0
17136,-16.079605,-6.7050934,-4.5574255,8.633094,9.138611,-15.776184,0.0
17137,-34.69358,13.577957,1.598176,8.633094,9.138611,-15.776184,0.0
17138,-34.69358,13.577957,1.598176,5.5638795,9.954236,-15.806983,0.0
17139,-54.098213,46.47426,12.803224,5.5638795,9.954236,-15.806983,0.0
17140,-54.098213,46.47426,12.803224,3.359143,12.048523,-12.851404,0.0
17141,-51.908203,74.48844,25.914356,3.359143,12.048523,-12.851404,0.0
17142,-51.908203,74.48844,25.914356,3.359143,12.048523,-12.851404,0.0
17143,-51.908203,74.48844,25.914356,4.5422244,10.016894,-5.605298,0.0
17144,-20.190826,69.84695,32.428215,4.5422244,10.016894,-5.605298,0.0
17145,-20.190826,69.84695,32.428215,5.7433596,5.6530886,-0.64782715,0.0
17146,20.619606,37.01453,33.203045,5.7433596,5.6530886,-0.64782715,0.0
17147,20.619606,37.01453,33.203045,7.8344607,3.0076172,0.83686525,0.0
17148,50.407173,2.664896,33.03431,7.8344607,3.0076172,0.83686525,0.0
17149,50.407173,2.664896,33.03431,9.574036,-1.3137085,0.5097656,0.0
17150,69.0929,-12.346319,31.835236,9.574036,-1.3137085,0.5097656,0.0
17151,69.0929,-12.346319,31.835236,8.429187,-2.622107,2.1091554,0.0
17152,77.329414,-9.566399,28.07698,8.429187,-2.622107,2.1091554,0.0
17153,77.329414,-9.566399,28.07698,4.713208,-3.0224855,1.5823975,0.0
17154,69.71089,-1.5324898,19.519363,4.713208,-3.0224855,1.5823975,0.0
17155,69.71089,-1.5324898,19.519363,2.5806885,-3.4950807,3.9156373,0.0
17156,54.16852,2.0044155,11.85881,2.5806885,-3.4950807,3.9156373,0.0
17157,54.16852,2.0044155,11.85881,1.355127,-3.3347168,4.905432,0.0
17158,22.713333,9.130999,-3.4815521,1.355127,-3.3347168,4.905432,0.0
17159,22.713333,9.130999,-3.4815521,-2.8313234,-3.2168336,8.321924,0.0
17160,11.0064335,8.168569,-6.5013275,-2.8313234,-3.2168336,8.321924,0.0
17161,11.0064335,8.168569,-6.5013275,-3.25188,-3.4249878,9.445533,0.0
17162,-5.93864,10.162126,-13.365711,-3.25188,-3.4249878,9.445533,0.0
17163,-5.93864,10.162126,-13.365711,-2.3183715,-3.6427002,12.777063,0.0
17164,-6.3128996,9.845936,-12.389275,-2.3183715,-3.6427002,12.777063,0.0
17165,-6.3128996,9.845936,-12.389275,-1.6652344,-3.1297486,14.083338,0.0
17166,-16.849491,25.467325,-9.715008,-1.6652344,-3.1297486,14.083338,0.0
17167,-16.849491,25.467325,-9.715008,-4.1216674,-2.2950075,16.83501,0.0
17168,-20.987099,24.612226,-7.549324,-4.1216674,-2.2950075,16.83501,0.0
17169,-20.987099,24.612226,-7.549324,-5.1985474,-2.6380372,16.679956,0.0
17170,-40.047226,15.4819565,-8.794708,-5.1985474,-2.6380372,16.679956,0.0
17171,-40.047226,15.4819565,-8.794708,-4.426465,-1.8457764,13.5640135,0.0
17172,-37.13425,-0.24356031,-11.047329,-4.426465,-1.8457764,13.5640135,0.0
17173,-37.13425,-0.24356031,-11.047329,-3.4164917,-0.84111327,11.684253,0.0
17174,-27.690983,-50.1593,-26.8629,-3.4164917,-0.84111327,11.684253,0.0
17175,-27.690983,-50.1593,-26.8629,-2.5679443,4.7503786,5.549011,0.0
17176,-19.98753,-54.974037,-26.941929,-2.5679443,4.7503786,5.549011,0.0
17177,-19.98753,-54.974037,-26.941929,-3.979358,6.553674,3.4706542,0.0
17178,-14.188416,-69.35798,-33.876457,-3.979358,6.553674,3.4706542,0.0
17179,-14.188416,-69.35798,-33.876457,-3.8317382,8.804077,-1.629126,0.0
17180,-11.052956,-59.078056,-29.568388,-3.8317382,8.804077,-1.629126,0.0
17181,-11.052956,-59.078056,-29.568388,0.007434082,8.2167845,-3.454724,0.0
17182,-7.561798,-44.256866,-23.403904,0.007434082,8.2167845,-3.454724,0.0
17183,-7.561798,-44.256866,-23.403904,6.8149295,7.957654,-10.380103,0.0
17184,-6.3509407,-28.105103,-14.359562,6.8149295,7.957654,-10.380103,0.0
17185,-6.3509407,-28.105103,-14.359562,6.349768,8.521583,-12.545545,0.0
17186,-11.989311,-7.2602158,-4.1705112,6.349768,8.521583,-12.545545,0.0
17187,-11.989311,-7.2602158,-4.1705112,6.315784,9.943616,-15.117737,0.0
17188,-25.779861,9.2621155,0.5977583,6.315784,9.943616,-15.117737,0.0
17189,-25.779861,9.2621155,0.5977583,6.70979,10.464002,-15.292969,0.0
17190,-43.800392,35.120644,8.894283,6.70979,10.464002,-15.292969,0.0
17191,-43.800392,35.120644,8.894283,6.1235595,11.688501,-12.910876,0.0
17192,-46.699615,65.77312,23.993052,6.1235595,11.688501,-12.910876,0.0
17193,-46.699615,65.77312,23.993052,5.803894,9.836352,-7.2907104,0.0
17194,-8.139938,67.64034,40.45932,5.803894,9.836352,-7.2907104,0.0
17195,-8.139938,67.64034,40.45932,2.8642457,5.1008425,-0.30161133,0.0
17196,9.618698,44.37645,35.698086,2.8642457,5.1008425,-0.30161133,0.0
17197,9.618698,44.37645,35.698086,4.404163,3.703235,0.9133301,0.0
17198,51.853554,-6.2372704,36.846924,4.404163,3.703235,0.9133301,0.0
17199,51.853554,-6.2372704,36.846924,9.478455,-2.2111084,1.177771,0.0
17200,54.95513,-12.922068,31.9094,9.478455,-2.2111084,1.177771,0.0
17201,54.95513,-12.922068,31.9094,9.489075,-3.9071412,1.5622193,0.0
17202,80.923065,-12.527559,34.74539,9.489075,-3.9071412,1.5622193,0.0
17203,80.923065,-12.527559,34.74539,3.3718872,-3.7520874,1.7735596,0.0
17204,71.35553,-6.608938,27.271706,3.3718872,-3.7520874,1.7735596,0.0
17205,71.35553,-6.608938,27.271706,2.0932252,-4.258667,3.1106324,0.0
17206,54.92124,2.0532913,13.794258,2.0932252,-4.258667,3.1106324,0.0
17207,54.92124,2.0532913,13.794258,-0.14974366,-3.9241333,4.89375,0.0
17208,28.83045,8.4638,-1.1984558,-0.14974366,-3.9241333,4.89375,0.0
17209,28.83045,8.4638,-1.1984558,-2.4553711,-3.796692,6.790503,0.0
17210,4.3362226,13.443256,-11.2632065,-2.4553711,-3.796692,6.790503,0.0
17211,4.3362226,13.443256,-11.2632065,-2.4999757,-3.7850099,9.228882,0.0
17212,-9.671805,17.211489,-14.497154,-2.4999757,-3.7850099,9.228882,0.0
17213,-9.671805,17.211489,-14.497154,-1.8510865,-4.3946047,12.211011,0.0
17214,-15.749334,21.028275,-11.850128,-1.8510865,-4.3946047,12.211011,0.0
17215,-15.749334,21.028275,-11.850128,-2.1346436,-4.254419,14.52301,0.0
17216,-22.126554,24.683239,-6.863804,-2.1346436,-4.254419,14.52301,0.0
17217,-22.126554,24.683239,-6.863804,-3.161609,-4.3924804,16.052307,0.0
17218,-30.304882,22.79227,-5.1005898,-3.161609,-4.3924804,16.052307,0.0
17219,-30.304882,22.79227,-5.1005898,-4.252295,-4.2841554,15.637061,0.0
17220,-34.194164,10.000284,-7.9975853,-4.252295,-4.2841554,15.637061,0.0
17221,-34.194164,10.000284,-7.9975853,-4.224683,-2.5137818,14.504956,0.0
17222,-31.452522,-11.881597,-14.540524,-4.224683,-2.5137818,14.504956,0.0
17223,-31.452522,-11.881597,-14.540524,-4.445581,-0.58623046,11.5727415,0.0
17224,-22.861374,-37.281963,-23.28762,-4.445581,-0.58623046,11.5727415,0.0
17225,-22.861374,-37.281963,-23.28762,-2.3268678,2.0369384,8.190234,0.0
17226,-15.356556,-56.2557,-29.67641,-2.3268678,2.0369384,8.190234,0.0
17227,-15.356556,-56.2557,-29.67641,-3.1403687,5.0243773,3.9103272,0.0
17228,-12.640556,-62.14411,-33.888016,-3.1403687,5.0243773,3.9103272,0.0
17229,-12.640556,-62.14411,-33.888016,-5.4852905,6.0927615,-0.42268068,0.0
17230,-9.809135,-57.846577,-36.660767,-5.4852905,6.0927615,-0.42268068,0.0
17231,-9.809135,-57.846577,-36.660767,0.27718505,6.140552,-4.244861,0.0
17232,-5.978462,-44.92724,-32.038464,0.27718505,6.140552,-4.244861,0.0
17233,-5.978462,-44.92724,-32.038464,5.9175296,7.2907104,-8.54176,0.0
17234,-5.0943413,-25.434624,-18.690914,5.9175296,7.2907104,-8.54176,0.0
17235,-5.0943413,-25.434624,-18.690914,5.7433596,8.507776,-12.518994,0.0
17236,-10.850204,-6.497223,-5.465745,5.7433596,8.507776,-12.518994,0.0
17237,-10.850204,-6.497223,-5.465745,5.974878,9.807678,-14.511329,0.0
17238,-23.113136,10.63961,2.9586544,5.974878,9.807678,-14.511329,0.0
17239,-23.113136,10.63961,2.9586544,5.988684,9.77157,-14.423182,0.0
17240,-38.16098,36.400543,12.713921,5.988684,9.77157,-14.423182,0.0
17241,-38.16098,36.400543,12.713921,6.896704,10.3578005,-12.531738,0.0
17242,-41.284576,64.86397,24.36888,6.896704,10.3578005,-12.531738,0.0
17243,-41.284576,64.86397,24.36888,7.3236327,9.200208,-8.262451,0.0
17244,-22.247223,71.45213,31.20913,7.3236327,9.200208,-8.262451,0.0
17245,-22.247223,71.45213,31.20913,5.7550416,7.755872,-3.5120728,0.0
17246,9.447159,47.831715,32.2393,5.7550416,7.755872,-3.5120728,0.0
17247,9.447159,47.831715,32.2393,5.082788,5.2208495,-0.34727785,0.0
17248,37.305298,10.337333,31.220577,5.082788,5.2208495,-0.34727785,0.0
17249,37.305298,10.337333,31.220577,6.874402,1.5781494,0.93563235,0.0
17250,55.32842,-15.661945,30.341793,6.874402,1.5781494,0.93563235,0.0
17251,55.32842,-15.661945,30.341793,8.53114,-2.6741455,0.9345703,0.0
17252,69.85689,-18.966518,29.606308,8.53114,-2.6741455,0.9345703,0.0
17253,69.85689,-18.966518,29.606308,5.8400025,-2.795215,1.7066529,0.0
17254,73.34131,-8.348948,24.924782,5.8400025,-2.795215,1.7066529,0.0
17255,73.34131,-8.348948,24.924782,2.4596193,-3.6713746,2.537146,0.0
17256,58.41278,3.2108078,13.755707,2.4596193,-3.6713746,2.537146,0.0
17257,58.41278,3.2108078,13.755707,0.107263185,-3.812622,4.900122,0.0
17258,32.317947,10.9844055,1.77742,0.107263185,-3.812622,4.900122,0.0
17259,32.317947,10.9844055,1.77742,-2.9438965,-3.976172,7.185571,0.0
17260,7.2952743,14.534192,-7.134659,-2.9438965,-3.976172,7.185571,0.0
17261,7.2952743,14.534192,-7.134659,-3.6448243,-4.246985,10.019019,0.0
17262,-6.1743884,14.972813,-12.388306,-3.6448243,-4.246985,10.019019,0.0
17263,-6.1743884,14.972813,-12.388306,-3.5683594,-3.9103272,12.908752,0.0
17264,-11.5016575,16.111319,-12.573376,-3.5683594,-3.9103272,12.908752,0.0
17265,-11.5016575,16.111319,-12.573376,-4.071753,-2.8451295,15.158093,0.0
17266,-19.301178,19.561626,-9.0211525,-4.071753,-2.8451295,15.158093,0.0
17267,-19.301178,19.561626,-9.0211525,-5.9302735,-3.3028564,16.589685,0.0
17268,-31.539711,18.996286,-6.468643,-5.9302735,-3.3028564,16.589685,0.0
17269,-31.539711,18.996286,-6.468643,-6.8149295,-3.8328004,14.442298,0.0
17270,-38.650787,4.169612,-9.258873,-6.8149295,-3.8328004,14.442298,0.0
17271,-38.650787,4.169612,-9.258873,-4.432837,-2.9109743,12.79618,0.0
17272,-34.25248,-24.923233,-17.874992,-4.432837,-2.9109743,12.79618,0.0
17273,-34.25248,-24.923233,-17.874992,0.060534667,-0.29311523,9.752454,0.0
17274,-24.004562,-52.82338,-27.500202,0.060534667,-0.29311523,9.752454,0.0
17275,-24.004562,-52.82338,-27.500202,-1.5091187,3.3984375,5.508655,0.0
17276,-15.27655,-67.47502,-34.530304,-1.5091187,3.3984375,5.508655,0.0
17277,-15.27655,-67.47502,-34.530304,-6.091699,5.4799805,0.9366943,0.0
17278,-9.301147,-71.234634,-38.491783,-6.091699,5.4799805,0.9366943,0.0
17279,-9.301147,-71.234634,-38.491783,-1.725769,6.532434,-3.349585,0.0
17280,-6.5008926,-62.380356,-34.956062,-1.725769,6.532434,-3.349585,0.0
17281,-6.5008926,-62.380356,-34.956062,6.3540163,7.936414,-8.930457,0.0
17282,-9.333866,-38.650047,-21.166279,6.3540163,7.936414,-8.930457,0.0
17283,-9.333866,-38.650047,-21.166279,7.298145,8.358032,-13.457812,0.0
17284,-18.067982,-9.952217,-6.5515413,7.298145,8.358032,-13.457812,0.0
17285,-18.067982,-9.952217,-6.5515413,4.1418457,8.327234,-15.711402,0.0
17286,-30.077175,14.456024,1.9542751,4.1418457,8.327234,-15.711402,0.0
17287,-30.077175,14.456024,1.9542751,3.3771973,8.14032,-15.196326,0.0
17288,-40.069763,37.077736,9.674504,3.3771973,8.14032,-15.196326,0.0
17289,-40.069763,37.077736,9.674504,7.5721436,8.650085,-12.324646,0.0
17290,-37.579407,58.672276,21.129423,7.5721436,8.650085,-12.324646,0.0
17291,-37.579407,58.672276,21.129423,5.4789186,8.620349,-8.2167845,0.0
17292,-17.803505,62.78598,29.996826,5.4789186,8.620349,-8.2167845,0.0
17293,-17.803505,62.78598,29.996826,-0.94625247,7.4733768,-3.0808961,0.0
17294,9.074539,43.128063,30.64801,-0.94625247,7.4733768,-3.0808961,0.0
17295,9.074539,43.128063,30.64801,-0.94625247,7.4733768,-3.0808961,172.0
17296,9.074539,43.128063,30.64801,2.3767822,6.0162964,-0.542688,172.0
17297,30.84739,16.37152,29.890125,2.3767822,6.0162964,-0.542688,172.0
17298,30.84739,16.37152,29.890125,6.966797,3.5014527,1.4347779,172.0
17299,44.397293,-3.4369164,31.45501,6.966797,3.5014527,1.4347779,172.0
17300,44.397293,-3.4369164,31.45501,6.9975953,-0.6074707,2.0518067,172.0
17301,56.259705,-12.973152,31.032463,6.9975953,-0.6074707,2.0518067,172.0
17302,56.259705,-12.973152,31.032463,6.239319,-3.3697631,3.2423217,172.0
17303,65.6773,-13.220379,26.673576,6.239319,-3.3697631,3.2423217,172.0
17304,65.6773,-13.220379,26.673576,4.0908694,-3.26781,1.725769,172.0
17305,62.508892,-6.6783047,18.227509,4.0908694,-3.26781,1.725769,172.0
17306,62.508892,-6.6783047,18.227509,2.5488281,-4.2098145,3.338965,172.0
17307,46.534996,4.135397,7.418602,2.5488281,-4.2098145,3.338965,172.0
17308,46.534996,4.135397,7.418602,0.33984375,-4.2172484,5.449182,172.0
17309,24.81364,14.762041,-1.3898392,0.33984375,-4.2172484,5.449182,172.0
17310,24.81364,14.762041,-1.3898392,-2.1951783,-4.5422244,8.534327,172.0
17311,5.6490083,19.32017,-7.265007,-2.1951783,-4.5422244,8.534327,172.0
17312,5.6490083,19.32017,-7.265007,-3.3049805,-5.160315,11.759656,172.0
17313,-5.512031,15.783407,-11.099285,-3.3049805,-5.160315,11.759656,172.0
17314,-5.512031,15.783407,-11.099285,-3.1010742,-5.4045777,14.282996,172.0
17315,-11.485407,9.654827,-12.3143425,-3.1010742,-5.4045777,14.282996,172.0
17316,-11.485407,9.654827,-12.3143425,-2.4914796,-5.0328736,16.244532,172.0
17317,-16.601534,7.9142427,-10.39349,-2.4914796,-5.0328736,16.244532,172.0
17318,-16.601534,7.9142427,-10.39349,-2.7760987,-4.5719604,16.997498,172.0
17319,-21.534864,9.587022,-7.766136,-2.7760987,-4.5719604,16.997498,172.0
17320,-21.534864,9.587022,-7.766136,-3.0862062,-3.3251588,15.444837,172.0
17321,-25.356506,4.679139,-7.5892296,-3.0862062,-3.3251588,15.444837,172.0
17322,-25.356506,4.679139,-7.5892296,-1.6450561,-0.8729736,13.146644,172.0
17323,-25.870703,-14.302453,-13.086838,-1.6450561,-0.8729736,13.146644,172.0
17324,-25.870703,-14.302453,-13.086838,-0.3175415,1.6992188,8.843371,172.0
17325,-23.031681,-39.369137,-22.101368,-0.3175415,1.6992188,8.843371,172.0
17326,-23.031681,-39.369137,-22.101368,-1.4613281,4.3053956,4.7620606,172.0
17327,-19.026798,-56.00389,-28.052532,-1.4613281,4.3053956,4.7620606,172.0
17328,-19.026798,-56.00389,-28.052532,-4.9341063,5.9366455,0.033984374,172.0
17329,-15.271172,-60.32013,-31.092697,-4.9341063,5.9366455,0.033984374,172.0
17330,-15.271172,-60.32013,-31.092697,-2.8504395,6.8297973,-4.060071,172.0
17331,-12.951813,-52.854263,-31.067516,-2.8504395,6.8297973,-4.060071,172.0
17332,-12.951813,-52.854263,-31.067516,4.70365,7.502051,-8.716992,172.0
17333,-14.406799,-33.549637,-23.309153,4.70365,7.502051,-8.716992,172.0
17334,-14.406799,-33.549637,-23.309153,7.686841,8.295374,-12.83866,172.0
17335,-19.650742,-9.4189,-11.1952715,7.686841,8.295374,-12.83866,172.0
17336,-19.650742,-9.4189,-11.1952715,4.9479127,9.458277,-15.228187,172.0
17337,-26.738419,9.631645,-1.752286,4.9479127,9.458277,-15.228187,172.0
17338,-26.738419,9.631645,-1.752286,4.155652,10.629676,-15.227124,172.0
17339,-35.429703,26.433586,6.2962418,4.155652,10.629676,-15.227124,172.0
17340,-35.429703,26.433586,6.2962418,6.0885134,10.27284,-13.304883,172.0
17341,-38.78337,47.874763,18.749311,6.0885134,10.27284,-13.304883,172.0
17342,-38.78337,47.874763,18.749311,4.6707277,10.418335,-10.835706,172.0
17343,-25.657372,60.870235,30.72301,4.6707277,10.418335,-10.835706,172.0
17344,-25.657372,60.870235,30.72301,0.40993652,8.350598,-5.803894,172.0
17345,0.20428467,51.06324,33.13732,0.40993652,8.350598,-5.803894,172.0
17346,0.20428467,51.06324,33.13732,2.8801758,5.3663454,-1.2584839,172.0
17347,24.696564,24.697958,29.31784,2.8801758,5.3663454,-1.2584839,172.0
17348,24.696564,24.697958,29.31784,5.6541505,2.2440307,1.1140503,172.0
17349,41.596596,-2.4189644,24.311707,5.6541505,2.2440307,1.1140503,172.0
17350,41.596596,-2.4189644,24.311707,6.097009,-1.988086,1.7863038,172.0
17351,54.966904,-17.897621,20.639603,6.097009,-1.988086,1.7863038,172.0
17352,54.966904,-17.897621,20.639603,6.039661,-3.9145753,1.899939,172.0
17353,66.82765,-18.0654,19.426514,6.039661,-3.9145753,1.899939,172.0
17354,66.82765,-18.0654,19.426514,4.4763794,-2.5573242,0.52250975,172.0
17355,65.04179,-7.930065,15.76244,4.4763794,-2.5573242,0.52250975,172.0
17356,65.04179,-7.930065,15.76244,3.528003,-3.3432128,1.4528321,172.0
17357,46.82984,4.839493,8.806404,3.528003,-3.3432128,1.4528321,172.0
17358,46.82984,4.839493,8.806404,1.717273,-3.2285156,3.98573,172.0
17359,24.300789,13.343273,4.018051,1.717273,-3.2285156,3.98573,172.0
17360,24.300789,13.343273,4.018051,-0.5363159,-3.7404053,7.409656,172.0
17361,7.684771,13.878355,2.1221466,-0.5363159,-3.7404053,7.409656,172.0
17362,7.684771,13.878355,2.1221466,-3.1063843,-4.631433,10.324878,172.0
17363,-0.314317,9.368103,0.5831909,-3.1063843,-4.631433,10.324878,172.0
17364,-0.314317,9.368103,0.5831909,-3.5641115,-5.4725466,12.2046385,172.0
17365,-5.5363293,6.7216682,-1.1910858,-3.5641115,-5.4725466,12.2046385,172.0
17366,-5.5363293,6.7216682,-1.1910858,-2.9269044,-6.0088625,14.551684,172.0
17367,-12.889806,9.116825,-2.0690308,-2.9269044,-6.0088625,14.551684,172.0
17368,-12.889806,9.116825,-2.0690308,-4.6505494,-6.553674,15.917432,172.0
17369,-21.651493,11.854715,-2.9501343,-4.6505494,-6.553674,15.917432,172.0
17370,-21.651493,11.854715,-2.9501343,-6.119312,-6.863782,14.829932,172.0
17371,-26.332035,7.543892,-6.402649,-6.119312,-6.863782,14.829932,172.0
17372,-26.332035,7.543892,-6.402649,-4.9149904,-5.167749,12.289599,172.0
17373,-25.414408,-8.172993,-15.604931,-4.9149904,-5.167749,12.289599,172.0
17374,-25.414408,-8.172993,-15.604931,-1.1575928,-2.3746583,9.376502,172.0
17375,-21.698288,-30.102676,-28.852829,-1.1575928,-2.3746583,9.376502,172.0
17376,-21.698288,-30.102676,-28.852829,1.0354614,2.35979,5.8219485,172.0
17377,-19.509571,-45.731323,-38.84102,1.0354614,2.35979,5.8219485,172.0
17378,-19.509571,-45.731323,-38.84102,-3.8147461,6.808557,1.807544,172.0
17379,-17.705448,-52.021683,-44.361954,-3.8147461,6.808557,1.807544,172.0
17380,-17.705448,-52.021683,-44.361954,-5.3928957,8.549194,-1.5112427,172.0
17381,-12.570717,-52.437294,-44.694862,-5.3928957,8.549194,-1.5112427,172.0
17382,-12.570717,-52.437294,-44.694862,4.951099,9.246936,-5.441748,172.0
17383,-9.729595,-40.810898,-33.580025,4.951099,9.246936,-5.441748,172.0
17384,-9.729595,-40.810898,-33.580025,9.991406,10.595691,-10.585071,172.0
17385,-13.34354,-17.319992,-14.573101,9.991406,10.595691,-10.585071,172.0
17386,-13.34354,-17.319992,-14.573101,5.712561,11.535571,-13.722254,172.0
17387,-21.409573,3.1808243,-1.5572481,5.712561,11.535571,-13.722254,172.0
17388,-21.409573,3.1808243,-1.5572481,3.443042,12.610328,-13.68296,172.0
17389,-33.33706,16.625572,4.899062,3.443042,12.610328,-13.68296,172.0
17390,-33.33706,16.625572,4.899062,2.9300904,12.197205,-11.722486,172.0
17391,-44.075798,33.02166,17.37047,2.9300904,12.197205,-11.722486,172.0
17392,-44.075798,33.02166,17.37047,1.6885986,12.100562,-8.175366,172.0
17393,-39.26825,46.9863,34.10614,1.6885986,12.100562,-8.175366,172.0
17394,-39.26825,46.9863,34.10614,0.9653687,9.515625,-3.719165,172.0
17395,-15.349129,44.173527,40.415604,0.9653687,9.515625,-3.719165,172.0
17396,-15.349129,44.173527,40.415604,3.3750732,5.1815553,0.19541016,172.0
17397,14.367043,26.210184,36.565224,3.3750732,5.1815553,0.19541016,172.0
17398,14.367043,26.210184,36.565224,5.820886,2.3895264,1.7342652,172.0
17399,37.05207,5.190645,30.855736,5.820886,2.3895264,1.7342652,172.0
17400,37.05207,5.190645,30.855736,5.802832,0.04141846,2.5105958,172.0
17401,37.05207,5.190645,30.855736,5.802832,0.04141846,2.5105958,172.0
17402,50.11077,-9.093506,26.014671,5.802832,0.04141846,2.5105958,172.0
17403,50.11077,-9.093506,26.014671,6.3688846,-2.5987427,2.7484863,172.0
17404,61.23211,-13.554272,25.722076,6.3688846,-2.5987427,2.7484863,172.0
17405,61.23211,-13.554272,25.722076,5.250586,-3.5534914,3.8699708,172.0
17406,68.12224,-9.167992,26.479965,5.250586,-3.5534914,3.8699708,172.0
17407,68.12224,-9.167992,26.479965,2.8430054,-4.2937136,1.7788696,172.0
17408,60.67971,0.065021515,19.696045,2.8430054,-4.2937136,1.7788696,172.0
17409,60.67971,0.065021515,19.696045,5.0073853,-6.1278076,4.081311,172.0
17410,38.662617,10.312294,7.4514465,5.0073853,-6.1278076,4.081311,172.0
17411,38.662617,10.312294,7.4514465,2.3289917,-6.154358,6.684302,172.0
17412,12.725772,17.722223,-3.2651367,2.3289917,-6.154358,6.684302,172.0
17413,12.725772,17.722223,-3.2651367,-0.1274414,-6.401807,8.997363,172.0
17414,-4.2054906,20.359322,-10.177902,-0.1274414,-6.401807,8.997363,172.0
17415,-4.2054906,20.359322,-10.177902,0.08496094,-6.4644656,11.729919,172.0
17416,-10.425892,21.62475,-12.437073,0.08496094,-6.4644656,11.729919,172.0
17417,-10.425892,21.62475,-12.437073,-0.15717773,-5.3546634,14.397693,172.0
17418,-15.197708,25.232185,-9.014282,-0.15717773,-5.3546634,14.397693,172.0
17419,-15.197708,25.232185,-9.014282,-3.0182374,-4.781177,16.203114,172.0
17420,-24.129711,27.937885,-3.5250092,-3.0182374,-4.781177,16.203114,172.0
17421,-24.129711,27.937885,-3.5250092,-4.455139,-4.89375,15.753882,172.0
17422,-31.978745,21.823147,-1.5237656,-4.455139,-4.89375,15.753882,172.0
17423,-31.978745,21.823147,-1.5237656,-3.0341675,-3.7489014,14.513453,172.0
17424,-34.131397,1.1166359,-7.6506424,-3.0341675,-3.7489014,14.513453,172.0
17425,-34.131397,1.1166359,-7.6506424,-1.5845215,-1.0938721,13.149829,172.0
17426,-29.620937,-29.94391,-20.999336,-1.5845215,-1.0938721,13.149829,172.0
17427,-29.620937,-29.94391,-20.999336,-1.6896607,1.7937378,10.228235,172.0
17428,-23.29145,-55.887978,-35.84398,-1.6896607,1.7937378,10.228235,172.0
17429,-23.29145,-55.887978,-35.84398,-3.0862062,4.901184,5.7486696,172.0
17430,-19.476456,-67.64162,-47.736744,-3.0862062,4.901184,5.7486696,172.0
17431,-19.476456,-67.64162,-47.736744,-4.6484256,6.220203,0.89421386,172.0
17432,-14.051426,-66.69282,-51.542694,-4.6484256,6.220203,0.89421386,172.0
17433,-14.051426,-66.69282,-51.542694,-0.5097656,7.2992067,-4.855518,172.0
17434,-9.07106,-53.174957,-42.306324,-0.5097656,7.2992067,-4.855518,172.0
17435,-9.07106,-53.174957,-42.306324,8.018188,10.080615,-10.863318,172.0
17436,-12.359829,-28.653519,-24.129665,8.018188,10.080615,-10.863318,172.0
17437,-12.359829,-28.653519,-24.129665,7.985266,10.804908,-15.2175665,172.0
17438,-23.625519,-1.1747284,-8.484421,7.985266,10.804908,-15.2175665,172.0
17439,-23.625519,-1.1747284,-8.484421,3.341089,11.742663,-16.439941,172.0
17440,-38.224464,22.23407,3.0968628,3.341089,11.742663,-16.439941,172.0
17441,-38.224464,22.23407,3.0968628,3.078772,12.78556,-14.895777,172.0
17442,-50.552864,45.168396,18.035303,3.078772,12.78556,-14.895777,172.0
17443,-50.552864,45.168396,18.035303,5.6371584,12.836535,-12.015601,172.0
17444,-44.857025,63.90398,34.597603,5.6371584,12.836535,-12.015601,172.0
17445,-44.857025,63.90398,34.597603,2.437317,10.171948,-6.975293,172.0
17446,-14.927811,60.743496,42.4664,2.437317,10.171948,-6.975293,172.0
17447,-14.927811,60.743496,42.4664,2.5881226,6.502698,-0.77739257,172.0
17448,21.444397,33.741528,40.88704,2.5881226,6.502698,-0.77739257,172.0
17449,21.444397,33.741528,40.88704,4.3754883,4.2087526,1.8659546,172.0
17450,46.80491,1.960947,35.695778,4.3754883,4.2087526,1.8659546,172.0
17451,46.80491,1.960947,35.695778,5.323865,0.9685547,2.439441,172.0
17452,59.627403,-18.433062,30.643814,5.323865,0.9685547,2.439441,172.0
17453,59.627403,-18.433062,30.643814,5.1348267,-2.1091554,1.8425903,172.0
17454,69.58452,-24.126392,28.782326,5.1348267,-2.1091554,1.8425903,172.0
17455,69.58452,-24.126392,28.782326,4.1078615,-3.8253663,2.0422485,172.0
17456,74.80723,-17.49804,25.466255,4.1078615,-3.8253663,2.0422485,172.0
17457,74.80723,-17.49804,25.466255,3.5683594,-5.1072145,0.052038576,172.0
17458,66.19099,-2.7905807,14.741959,3.5683594,-5.1072145,0.052038576,172.0
17459,66.19099,-2.7905807,14.741959,4.0016603,-6.3253417,2.345984,172.0
17460,43.516914,14.220333,0.6378937,4.0016603,-6.3253417,2.345984,172.0
17461,43.516914,14.220333,0.6378937,1.7385132,-6.0778933,5.3833375,172.0
17462,16.628143,25.60825,-9.434395,1.7385132,-6.0778933,5.3833375,172.0
17463,16.628143,25.60825,-9.434395,0.23364258,-5.5691895,9.752454,172.0
17464,-2.0118532,25.515032,-12.593216,0.23364258,-5.5691895,9.752454,172.0
17465,-2.0118532,25.515032,-12.593216,-1.6365601,-5.499097,12.925745,172.0
17466,-10.773985,16.881863,-10.618935,-1.6365601,-5.499097,12.925745,172.0
17467,-10.773985,16.881863,-10.618935,-0.97067875,-5.7369876,15.302527,172.0
17468,-14.767809,8.5679655,-5.52227,-0.97067875,-5.7369876,15.302527,172.0
17469,-14.767809,8.5679655,-5.52227,-0.4980835,-5.4640503,16.57694,172.0
17470,-18.388405,7.463382,0.63207245,-0.4980835,-5.4640503,16.57694,172.0
17471,-18.388405,7.463382,0.63207245,-1.9328613,-4.8268433,16.494104,172.0
17472,-22.642487,8.408389,2.1596146,-1.9328613,-4.8268433,16.494104,172.0
17473,-22.642487,8.408389,2.1596146,-1.7448853,-3.8816528,14.8564825,172.0
17474,-26.255226,0.088051796,-5.0718307,-1.7448853,-3.8816528,14.8564825,172.0
17475,-26.255226,0.088051796,-5.0718307,-0.78376466,-1.6588624,12.894946,172.0
17476,-26.600384,-21.531977,-19.143856,-0.78376466,-1.6588624,12.894946,172.0
17477,-26.600384,-21.531977,-19.143856,-1.360437,1.44646,8.901782,172.0
17478,-24.36533,-46.32944,-34.7426,-1.360437,1.44646,8.901782,172.0
17479,-24.36533,-46.32944,-34.7426,-3.3740113,4.6781616,4.8756957,172.0
17480,-22.689629,-60.04827,-46.33993,-3.3740113,4.6781616,4.8756957,172.0
17481,-22.689629,-60.04827,-46.33993,-5.6265383,7.336377,-0.14761963,172.0
17482,-20.346931,-60.732014,-50.6994,-5.6265383,7.336377,-0.14761963,172.0
17483,-20.346931,-60.732014,-50.6994,-0.9420044,9.066394,-5.28457,172.0
17484,-16.12465,-48.869186,-43.72042,-0.9420044,9.066394,-5.28457,172.0
17485,-16.12465,-48.869186,-43.72042,7.022022,10.879249,-10.601001,172.0
17486,-16.364285,-25.436821,-25.849018,7.022022,10.879249,-10.601001,172.0
17487,-16.364285,-25.436821,-25.849018,7.434082,11.562121,-14.797009,172.0
17488,-25.138168,0.23607635,-8.231289,7.434082,11.562121,-14.797009,172.0
17489,-25.138168,0.23607635,-8.231289,3.7807617,12.045337,-15.890882,172.0
17490,-37.796814,20.483086,4.512783,3.7807617,12.045337,-15.890882,172.0
17491,-37.796814,20.483086,4.512783,3.167981,11.674695,-14.428492,172.0
17492,-48.698822,42.656075,20.608261,3.167981,11.674695,-14.428492,172.0
17493,-48.698822,42.656075,20.608261,6.36145,12.328895,-12.101624,172.0
17494,-42.204254,64.425674,37.563465,6.36145,12.328895,-12.101624,172.0
17495,-42.204254,64.425674,37.563465,3.4706542,9.918128,-6.858472,172.0
17496,-12.493042,63.549503,42.437294,3.4706542,9.918128,-6.858472,172.0
17497,-12.493042,63.549503,42.437294,2.717688,6.3858767,-0.4428589,172.0
17498,22.12716,36.380596,37.948822,2.717688,6.3858767,-0.4428589,172.0
17499,22.12716,36.380596,37.948822,4.8470216,4.3946047,1.9774659,172.0
17500,46.60012,3.1097507,33.01294,4.8470216,4.3946047,1.9774659,172.0
17501,46.60012,3.1097507,33.01294,4.766309,1.4230957,2.3162477,172.0
17502,61.29194,-19.076763,29.261131,4.766309,1.4230957,2.3162477,172.0
17503,61.29194,-19.076763,29.261131,5.136951,-1.2468017,3.1764772,172.0
17504,70.63254,-26.274693,28.365067,5.136951,-1.2468017,3.1764772,172.0
17505,70.63254,-26.274693,28.365067,3.8667848,-2.3789062,3.258252,172.0
17506,72.00311,-21.114822,27.844109,3.8667848,-2.3789062,3.258252,172.0
17507,72.00311,-21.114822,27.844109,3.8667848,-2.3789062,3.258252,172.0
17508,72.00311,-21.114822,27.844109,1.9817139,-4.3170776,2.1240234,172.0
17509,63.8276,-8.796509,19.240486,1.9817139,-4.3170776,2.1240234,172.0
17510,63.8276,-8.796509,19.240486,2.4776733,-5.6445923,3.79032,172.0
17511,44.736324,5.415123,3.3853073,2.4776733,-5.6445923,3.79032,172.0
17512,44.736324,5.415123,3.3853073,2.1091554,-5.802832,6.4665895,172.0
17513,19.142893,16.980366,-8.628059,2.1091554,-5.802832,6.4665895,172.0
17514,19.142893,16.980366,-8.628059,0.5628662,-5.6382203,9.373316,172.0
17515,-1.1824998,22.532158,-12.878777,0.5628662,-5.6382203,9.373316,172.0
17516,-1.1824998,22.532158,-12.878777,-0.7147339,-5.3950195,12.513684,172.0
17517,-12.081266,21.631891,-12.761612,-0.7147339,-5.3950195,12.513684,172.0
17518,-12.081266,21.631891,-12.761612,-2.0507448,-5.2314696,14.981799,172.0
17519,-16.246752,16.637936,-10.628685,-2.0507448,-5.2314696,14.981799,172.0
17520,-16.246752,16.637936,-10.628685,-2.6390991,-5.3652835,16.007704,172.0
17521,-17.853786,12.351034,-6.7618713,-2.6390991,-5.3652835,16.007704,172.0
17522,-17.853786,12.351034,-6.7618713,-3.258252,-4.889502,16.674646,172.0
17523,-19.78254,8.930168,-3.6782684,-3.258252,-4.889502,16.674646,172.0
17524,-19.78254,8.930168,-3.6782684,-3.4833984,-4.1312256,15.417224,172.0
17525,-20.92585,1.6149483,-5.625416,-3.4833984,-4.1312256,15.417224,172.0
17526,-20.92585,1.6149483,-5.625416,-2.7622926,-2.6529052,12.942737,172.0
17527,-20.757732,-15.805966,-15.491238,-2.7622926,-2.6529052,12.942737,172.0
17528,-20.757732,-15.805966,-15.491238,0.7720825,-0.36320803,9.948926,172.0
17529,-19.669628,-39.277245,-29.672787,0.7720825,-0.36320803,9.948926,172.0
17530,-19.669628,-39.277245,-29.672787,-0.1444336,2.8642457,5.854871,172.0
17531,-21.228699,-53.31944,-39.695297,-0.1444336,2.8642457,5.854871,172.0
17532,-21.228699,-53.31944,-39.695297,-4.629309,6.362512,0.80181885,172.0
17533,-25.62931,-54.79303,-41.74878,-4.629309,6.362512,0.80181885,172.0
17534,-25.62931,-54.79303,-41.74878,-3.341089,8.839124,-3.3761353,172.0
17535,-24.780952,-46.018505,-36.648758,-3.341089,8.839124,-3.3761353,172.0
17536,-24.780952,-46.018505,-36.648758,3.2295778,9.724841,-7.871631,172.0
17537,-19.509895,-28.986168,-25.20979,3.2295778,9.724841,-7.871631,172.0
17538,-19.509895,-28.986168,-25.20979,7.9555297,9.756701,-12.11012,172.0
17539,-18.344746,-9.320053,-11.1495695,7.9555297,9.756701,-12.11012,172.0
17540,-18.344746,-9.320053,-11.1495695,7.040076,9.139673,-15.062512,172.0
17541,-22.947563,8.797569,0.27638912,7.040076,9.139673,-15.062512,172.0
17542,-22.947563,8.797569,0.27638912,4.2087526,9.366943,-15.889819,172.0
17543,-30.193977,28.135849,10.75744,4.2087526,9.366943,-15.889819,172.0
17544,-30.193977,28.135849,10.75744,3.2444458,10.978015,-14.177856,172.0
17545,-33.528206,51.630592,25.006367,3.2444458,10.978015,-14.177856,172.0
17546,-33.528206,51.630592,25.006367,5.5628176,11.91471,-10.483118,172.0
17547,-23.890457,66.51608,37.422794,5.5628176,11.91471,-10.483118,172.0
17548,-23.890457,66.51608,37.422794,4.7737427,9.087634,-5.7327394,172.0
17549,-0.2084732,57.447098,40.892044,4.7737427,9.087634,-5.7327394,172.0
17550,-0.2084732,57.447098,40.892044,4.7238283,5.528833,-1.2414917,172.0
17551,27.516388,26.949682,37.769066,4.7238283,5.528833,-1.2414917,172.0
17552,27.516388,26.949682,37.769066,6.1097536,2.895044,0.95368654,172.0
17553,50.721634,-5.8243,33.071564,6.1097536,2.895044,0.95368654,172.0
17554,50.721634,-5.8243,33.071564,5.9366455,0.55543214,1.2021973,172.0
17555,69.006,-24.176481,31.364243,5.9366455,0.55543214,1.2021973,172.0
17556,69.006,-24.176481,31.364243,2.265271,-1.6662964,3.3697631,172.0
17557,76.356346,-26.717712,30.281517,2.265271,-1.6662964,3.3697631,172.0
17558,76.356346,-26.717712,30.281517,-0.94625247,-3.4079957,2.3183715,172.0
17559,68.686295,-18.767662,21.203728,-0.94625247,-3.4079957,2.3183715,172.0
17560,68.686295,-18.767662,21.203728,-0.8336792,-4.9479127,3.807312,172.0
17561,47.00572,-3.4011421,6.2568665,-0.8336792,-4.9479127,3.807312,172.0
17562,47.00572,-3.4011421,6.2568665,-1.4135376,-5.978064,6.1936526,172.0
17563,16.85035,15.554062,-5.778885,-1.4135376,-5.978064,6.1936526,172.0
17564,16.85035,15.554062,-5.778885,-2.2238526,-6.51438,9.625012,172.0
17565,-8.889202,27.788074,-12.471397,-2.2238526,-6.51438,9.625012,172.0
17566,-8.889202,27.788074,-12.471397,-3.5534914,-7.0921144,14.61222,172.0
17567,-22.900217,24.933561,-15.236008,-3.5534914,-7.0921144,14.61222,172.0
17568,-22.900217,24.933561,-15.236008,-5.425818,-8.097839,16.434631,172.0
17569,-26.402363,12.283189,-14.281982,-5.425818,-8.097839,16.434631,172.0
17570,-26.402363,12.283189,-14.281982,-4.239551,-8.818946,16.686329,172.0
17571,-24.292204,0.5621338,-10.169846,-4.239551,-8.818946,16.686329,172.0
17572,-24.292204,0.5621338,-10.169846,-1.8192261,-7.7633057,16.12771,172.0
17573,-19.907532,-7.225952,-7.611244,-1.8192261,-7.7633057,16.12771,172.0
17574,-19.907532,-7.225952,-7.611244,-0.4800293,-5.900537,14.216089,172.0
17575,-16.377674,-16.992321,-11.743168,-0.4800293,-5.900537,14.216089,172.0
17576,-16.377674,-16.992321,-11.743168,1.1321045,-3.0331056,11.470789,172.0
17577,-15.105728,-34.254562,-22.375275,1.1321045,-3.0331056,11.470789,172.0
17578,-15.105728,-34.254562,-22.375275,2.8738039,1.7565674,7.254602,172.0
17579,-16.020447,-49.856956,-32.088833,2.8738039,1.7565674,7.254602,172.0
17580,-16.020447,-49.856956,-32.088833,-1.9137452,6.140552,1.3784913,172.0
17581,-20.987194,-53.15689,-37.95775,-1.9137452,6.140552,1.3784913,172.0
17582,-20.987194,-53.15689,-37.95775,-5.8633666,8.346351,-2.7537963,172.0
17583,-26.570396,-46.037758,-38.929527,-5.8633666,8.346351,-2.7537963,172.0
17584,-26.570396,-46.037758,-38.929527,0.057348635,8.988868,-7.3172607,172.0
17585,-26.747223,-30.536499,-30.648739,0.057348635,8.988868,-7.3172607,172.0
17586,-26.747223,-30.536499,-30.648739,6.070459,9.228882,-12.362879,172.0
17587,-25.310268,-9.925331,-16.313938,6.070459,9.228882,-12.362879,172.0
17588,-25.310268,-9.925331,-16.313938,6.3094115,8.663892,-15.729456,172.0
17589,-28.129883,10.295494,-2.9868565,6.3094115,8.663892,-15.729456,172.0
17590,-28.129883,10.295494,-2.9868565,3.348523,8.539637,-16.83501,172.0
17591,-33.4209,29.802643,10.415655,3.348523,8.539637,-16.83501,172.0
17592,-33.4209,29.802643,10.415655,3.889087,10.9950075,-16.019384,172.0
17593,-36.012413,50.595387,26.25634,3.889087,10.9950075,-16.019384,172.0
17594,-36.012413,50.595387,26.25634,5.4120116,12.067639,-12.881141,172.0
17595,-27.932808,65.49395,37.599762,5.4120116,12.067639,-12.881141,172.0
17596,-27.932808,65.49395,37.599762,4.094055,9.802368,-8.332544,172.0
17597,-4.764847,60.00146,38.886147,4.094055,9.802368,-8.332544,172.0
17598,-4.764847,60.00146,38.886147,3.6565063,7.1069827,-3.1223145,172.0
17599,25.418472,32.01423,33.21893,3.6565063,7.1069827,-3.1223145,172.0
17600,25.418472,32.01423,33.21893,3.8901489,4.9542847,-0.6287109,172.0
17601,49.314003,-1.0477104,25.484825,3.8901489,4.9542847,-0.6287109,172.0
17602,49.314003,-1.0477104,25.484825,5.162439,2.6826417,-0.124255374,172.0
17603,63.802227,-21.293968,21.2975,5.162439,2.6826417,-0.124255374,172.0
17604,63.802227,-21.293968,21.2975,5.2994385,0.2081543,0.79119873,172.0
17605,70.3911,-24.932184,22.619713,5.2994385,0.2081543,0.79119873,172.0
17606,70.3911,-24.932184,22.619713,3.9751098,-2.2323487,0.6818115,172.0
17607,68.89603,-16.051998,21.322784,3.9751098,-2.2323487,0.6818115,172.0
17608,68.89603,-16.051998,21.322784,3.180725,-4.163086,2.0316284,172.0
17609,59.055275,-0.35790634,12.154381,3.180725,-4.163086,2.0316284,172.0
17610,59.055275,-0.35790634,12.154381,2.35979,-4.895874,5.1157107,172.0
17611,36.94113,13.585695,1.1748962,2.35979,-4.895874,5.1157107,172.0
17612,36.94113,13.585695,1.1748962,-1.2478638,-5.1879272,9.183215,172.0
17613,9.306322,17.379091,-7.065689,-1.2478638,-5.1879272,9.183215,172.0
17614,9.306322,17.379091,-7.065689,-4.253357,-5.9249635,12.591211,172.0
17615,-10.7441025,11.28401,-12.137741,-4.253357,-5.9249635,12.591211,172.0
17616,-10.7441025,11.28401,-12.137741,-3.700049,-6.971045,14.720545,172.0
17617,-10.7441025,11.28401,-12.137741,-3.700049,-6.971045,14.720545,170.0
17618,-19.417084,3.4746447,-12.815613,-3.700049,-6.971045,14.720545,170.0
17619,-19.417084,3.4746447,-12.815613,-2.1611938,-7.579578,16.480299,170.0
17620,-19.995533,2.2120762,-8.955849,-2.1611938,-7.579578,16.480299,170.0
17621,-19.995533,2.2120762,-8.955849,-3.435608,-7.185571,16.340113,170.0
17622,-17.84495,5.71484,-4.1896667,-3.435608,-7.185571,16.340113,170.0
17623,-17.84495,5.71484,-4.1896667,-3.2019653,-6.6736817,14.878784,170.0
17624,-16.282148,3.3554296,-3.9719086,-3.2019653,-6.6736817,14.878784,170.0
17625,-16.282148,3.3554296,-3.9719086,-2.2334106,-5.2898803,13.052124,170.0
17626,-18.108995,-10.622955,-12.549683,-2.2334106,-5.2898803,13.052124,170.0
17627,-18.108995,-10.622955,-12.549683,-0.023364259,-2.907788,10.53197,170.0
17628,-21.212307,-33.36372,-26.45514,-0.023364259,-2.907788,10.53197,170.0
17629,-21.212307,-33.36372,-26.45514,2.3183715,1.7300171,6.4952636,170.0
17630,-24.710655,-49.871704,-36.59031,2.3183715,1.7300171,6.4952636,170.0
17631,-24.710655,-49.871704,-36.59031,-1.6631104,5.8442507,1.8648926,170.0
17632,-29.509148,-52.643387,-40.113506,-1.6631104,5.8442507,1.8648926,170.0
17633,-29.509148,-52.643387,-40.113506,-4.1089234,8.189173,-2.0496826,170.0
17634,-29.720001,-45.688564,-38.71241,-4.1089234,8.189173,-2.0496826,170.0
17635,-29.720001,-45.688564,-38.71241,-0.7455322,8.568311,-7.44364,170.0
17636,-24.78181,-30.608055,-30.761396,-0.7455322,8.568311,-7.44364,170.0
17637,-24.78181,-30.608055,-30.761396,7.3841677,9.538989,-12.760071,170.0
17638,-24.029919,-9.916397,-16.407946,7.3841677,9.538989,-12.760071,170.0
17639,-24.029919,-9.916397,-16.407946,7.150525,9.736524,-16.028944,170.0
17640,-30.36377,12.160477,-0.79297066,7.150525,9.736524,-16.028944,170.0
17641,-30.36377,12.160477,-0.79297066,0.9866089,11.160682,-16.247717,170.0
17642,-37.120155,34.26007,16.828259,0.9866089,11.160682,-16.247717,170.0
17643,-37.120155,34.26007,16.828259,0.74659425,14.487964,-13.447192,170.0
17644,-36.58023,54.572083,36.3192,0.74659425,14.487964,-13.447192,170.0
17645,-36.58023,54.572083,36.3192,2.8345094,14.059974,-9.261805,170.0
17646,-21.01577,60.992264,47.866993,2.8345094,14.059974,-9.261805,170.0
17647,-21.01577,60.992264,47.866993,2.4574952,9.77157,-3.9092653,170.0
17648,7.195709,45.00398,45.729805,2.4574952,9.77157,-3.9092653,170.0
17649,7.195709,45.00398,45.729805,4.171582,6.18728,-0.8336792,170.0
17650,35.251404,16.162106,35.716034,4.171582,6.18728,-0.8336792,170.0
17651,35.251404,16.162106,35.716034,6.5791626,3.531189,0.27718505,170.0
17652,54.834,-8.851273,26.283646,6.5791626,3.531189,0.27718505,170.0
17653,54.834,-8.851273,26.283646,6.824487,0.99085695,0.71154785,170.0
17654,65.39934,-22.438148,20.927025,6.824487,0.99085695,0.71154785,170.0
17655,65.39934,-22.438148,20.927025,5.429004,-1.7363892,1.6163819,170.0
17656,67.576065,-25.534393,18.521881,5.429004,-1.7363892,1.6163819,170.0
17657,67.576065,-25.534393,18.521881,3.8551025,-3.6692505,1.1671509,170.0
17658,63.504417,-20.522606,13.955849,3.8551025,-3.6692505,1.1671509,170.0
17659,63.504417,-20.522606,13.955849,3.7329712,-5.260144,1.9700317,170.0
17660,51.88011,-9.147186,3.966507,3.7329712,-5.260144,1.9700317,170.0
17661,51.88011,-9.147186,3.966507,4.5539064,-5.900537,3.9517457,170.0
17662,30.536036,4.7773933,-6.531204,4.5539064,-5.900537,3.9517457,170.0
17663,30.536036,4.7773933,-6.531204,1.6110718,-5.6637087,6.6736817,170.0
17664,16.810299,9.544289,-9.718445,1.6110718,-5.6637087,6.6736817,170.0
17665,16.810299,9.544289,-9.718445,0.45347902,-5.704065,8.090405,170.0
17666,-6.66088,20.985321,-13.76284,0.45347902,-5.704065,8.090405,170.0
17667,-6.66088,20.985321,-13.76284,-0.40037844,-5.534143,12.331018,170.0
17668,-9.734722,18.255507,-11.705338,-0.40037844,-5.534143,12.331018,170.0
17669,-9.734722,18.255507,-11.705338,-0.86553955,-5.356787,13.766858,170.0
17670,-21.071678,21.128893,-7.741989,-0.86553955,-5.356787,13.766858,170.0
17671,-21.071678,21.128893,-7.741989,-3.3134766,-5.509717,16.340113,170.0
17672,-22.656988,16.627516,-6.62722,-3.3134766,-5.509717,16.340113,170.0
17673,-22.656988,16.627516,-6.62722,-3.4026856,-5.6870728,16.27533,170.0
17674,-28.888372,8.53806,-7.562126,-3.4026856,-5.6870728,16.27533,170.0
17675,-28.888372,8.53806,-7.562126,-2.3778443,-3.9517457,12.982032,170.0
17676,-26.32536,0.55819416,-9.004448,-2.3778443,-3.9517457,12.982032,170.0
17677,-26.32536,0.55819416,-9.004448,-1.3625611,-3.1233766,12.124988,170.0
17678,-25.55748,-31.37278,-25.6054,-1.3625611,-3.1233766,12.124988,170.0
17679,-25.55748,-31.37278,-25.6054,-0.11257324,1.3126465,7.773926,170.0
17680,-22.652943,-37.663338,-29.34195,-0.11257324,1.3126465,7.773926,170.0
17681,-22.652943,-37.663338,-29.34195,-1.5962037,2.7559204,5.9122195,170.0
17682,-25.509426,-59.73912,-45.81864,-1.5962037,2.7559204,5.9122195,170.0
17683,-25.509426,-59.73912,-45.81864,-2.3130615,7.3767333,-0.81881106,170.0
17684,-22.052193,-53.916027,-41.294525,-2.3130615,7.3767333,-0.81881106,170.0
17685,-22.052193,-53.916027,-41.294525,-0.9515625,8.32511,-3.7457154,170.0
17686,-21.603287,-44.494705,-34.69879,-0.9515625,8.32511,-3.7457154,170.0
17687,-21.603287,-44.494705,-34.69879,7.6125,11.037488,-12.658118,170.0
17688,-18.772594,-28.551147,-22.75321,7.6125,11.037488,-12.658118,170.0
17689,-18.772594,-28.551147,-22.75321,8.703186,11.398572,-14.767273,170.0
17690,-32.12226,6.1797485,-3.7947674,8.703186,11.398572,-14.767273,170.0
17691,-32.12226,6.1797485,-3.7947674,2.1272094,11.41875,-16.17019,170.0
17692,-33.31926,17.888649,4.0790176,2.1272094,11.41875,-16.17019,170.0
17693,-33.31926,17.888649,4.0790176,0.25806886,12.030469,-15.162341,170.0
17694,-42.560623,56.373356,32.820747,0.25806886,12.030469,-15.162341,170.0
17695,-42.560623,56.373356,32.820747,3.3187866,13.380286,-9.105689,170.0
17696,-32.947914,58.3215,37.97176,3.3187866,13.380286,-9.105689,170.0
17697,-32.947914,58.3215,37.97176,3.3633912,11.40282,-6.433667,170.0
17698,-8.126236,55.605858,45.0893,3.3633912,11.40282,-6.433667,170.0
17699,-8.126236,55.605858,45.0893,0.9197022,6.8425417,-1.6089478,170.0
17700,22.370049,29.790205,39.498512,0.9197022,6.8425417,-1.6089478,170.0
17701,22.370049,29.790205,39.498512,2.0964112,3.618274,0.3334717,170.0
17702,45.301437,-1.4689102,29.150093,2.0964112,3.618274,0.3334717,170.0
17703,45.301437,-1.4689102,29.150093,4.9882693,1.1639649,0.46728516,170.0
17704,59.08843,-20.920588,21.173615,4.9882693,1.1639649,0.46728516,170.0
17705,59.08843,-20.920588,21.173615,5.338733,-0.81031495,1.1862671,170.0
17706,59.08843,-20.920588,21.173615,5.338733,-0.81031495,1.1862671,162.0
17707,72.66916,-28.763374,20.360077,5.338733,-0.81031495,1.1862671,162.0
17708,72.66916,-28.763374,20.360077,2.6104248,-2.7962768,0.75615233,162.0
17709,63.35503,-23.005219,17.630348,2.6104248,-2.7962768,0.75615233,162.0
17710,63.35503,-23.005219,17.630348,2.9640749,-3.5662353,0.9505005,162.0
17711,55.171513,-13.295189,13.827347,2.9640749,-3.5662353,0.9505005,162.0
17712,55.171513,-13.295189,13.827347,4.5379763,-5.068982,2.1962402,162.0
17713,40.212627,0.974308,5.0903473,4.5379763,-5.068982,2.1962402,162.0
17714,40.212627,0.974308,5.0903473,3.8296144,-5.6934447,4.68241,162.0
17715,20.058529,14.311966,-3.7416,3.8296144,-5.6934447,4.68241,162.0
17716,20.058529,14.311966,-3.7416,1.7597535,-6.158606,7.97146,162.0
17717,2.3658297,20.095592,-8.006294,1.7597535,-6.158606,7.97146,162.0
17718,2.3658297,20.095592,-8.006294,0.36639404,-6.615271,10.938721,162.0
17719,-8.522534,19.42623,-8.546799,0.36639404,-6.615271,10.938721,162.0
17720,-8.522534,19.42623,-8.546799,-0.42374268,-6.7214723,13.359046,162.0
17721,-14.7531595,16.066557,-8.38607,-0.42374268,-6.7214723,13.359046,162.0
17722,-14.7531595,16.066557,-8.38607,-1.7820557,-6.6917357,15.340759,162.0
17723,-18.90962,13.441357,-7.759079,-1.7820557,-6.6917357,15.340759,162.0
17724,-18.90962,13.441357,-7.759079,-3.2826784,-6.518628,15.935486,162.0
17725,-21.281958,11.471642,-7.116249,-3.2826784,-6.518628,15.935486,162.0
17726,-21.281958,11.471642,-7.116249,-3.0893922,-5.982312,14.902148,162.0
17727,-21.350101,6.4686947,-7.828827,-3.0893922,-5.982312,14.902148,162.0
17728,-21.350101,6.4686947,-7.828827,-2.4118288,-4.2225585,12.449964,162.0
17729,-20.028252,-5.8891315,-12.629372,-2.4118288,-4.2225585,12.449964,162.0
17730,-20.028252,-5.8891315,-12.629372,-0.39082032,-2.1346436,10.33656,162.0
17731,-18.28664,-26.115932,-23.106682,-0.39082032,-2.1346436,10.33656,162.0
17732,-18.28664,-26.115932,-23.106682,1.0492676,0.7189819,8.152002,162.0
17733,-19.342556,-44.54236,-34.69565,1.0492676,0.7189819,8.152002,162.0
17734,-19.342556,-44.54236,-34.69565,-1.8861328,3.5906618,4.636743,162.0
17735,-25.124092,-52.942886,-41.611794,-1.8861328,3.5906618,4.636743,162.0
17736,-25.124092,-52.942886,-41.611794,-4.631433,5.9377074,-0.541626,162.0
17737,-26.52243,-49.74109,-39.901836,-4.631433,5.9377074,-0.541626,162.0
17738,-26.52243,-49.74109,-39.901836,-0.31223145,7.8142824,-6.3476443,162.0
17739,-21.58197,-35.258446,-28.978537,-0.31223145,7.8142824,-6.3476443,162.0
17740,-21.58197,-35.258446,-28.978537,5.9090333,9.302161,-11.660889,162.0
17741,-18.82196,-14.388031,-14.199858,5.9090333,9.302161,-11.660889,162.0
17742,-18.82196,-14.388031,-14.199858,5.4916625,9.60271,-15.011536,162.0
17743,-22.508278,6.1592026,-1.8470078,5.4916625,9.60271,-15.011536,162.0
17744,-22.508278,6.1592026,-1.8470078,2.2992554,10.259033,-15.594581,162.0
17745,-28.717491,25.90245,10.668646,2.2992554,10.259033,-15.594581,162.0
17746,-28.717491,25.90245,10.668646,3.7297852,11.901965,-14.369019,162.0
17747,-31.184212,49.573795,25.84412,3.7297852,11.901965,-14.369019,162.0
17748,-31.184212,49.573795,25.84412,8.056421,11.774524,-11.757532,162.0
17749,-21.3152,66.95271,37.011345,8.056421,11.774524,-11.757532,162.0
17750,-21.3152,66.95271,37.011345,5.6583986,8.830627,-7.3820434,162.0
17751,2.6361465,59.954422,37.93747,5.6583986,8.830627,-7.3820434,162.0
17752,2.6361465,59.954422,37.93747,2.8642457,5.787964,-3.1414306,162.0
17753,29.99559,30.573448,31.172512,2.8642457,5.787964,-3.1414306,162.0
17754,29.99559,30.573448,31.172512,3.178601,3.4048097,-0.9834229,162.0
17755,50.078823,-1.5052671,23.739998,3.178601,3.4048097,-0.9834229,162.0
17756,50.078823,-1.5052671,23.739998,4.6717896,0.9409424,-0.2262085,162.0
17757,63.939243,-21.02206,21.024216,4.6717896,0.9409424,-0.2262085,162.0
17758,63.939243,-21.02206,21.024216,3.3825073,-1.4114136,1.8903809,162.0
17759,69.68894,-25.456955,22.000206,3.3825073,-1.4114136,1.8903809,162.0
17760,69.68894,-25.456955,22.000206,0.66588134,-2.9736328,0.9759888,162.0
17761,63.550255,-18.88976,18.819344,0.66588134,-2.9736328,0.9759888,162.0
17762,63.550255,-18.88976,18.819344,0.5299439,-4.2958374,2.3619142,162.0
17763,46.604256,-5.567068,8.331413,0.5299439,-4.2958374,2.3619142,162.0
17764,46.604256,-5.567068,8.331413,0.89208984,-4.8342776,4.7578125,162.0
17765,22.456596,7.9814644,-3.9565735,0.89208984,-4.8342776,4.7578125,162.0
17766,22.456596,7.9814644,-3.9565735,-0.8230591,-4.8417115,7.961902,162.0
17767,0.82662964,14.324516,-10.758743,-0.8230591,-4.8417115,7.961902,162.0
17768,0.82662964,14.324516,-10.758743,-2.885486,-5.1019044,11.454859,162.0
17769,-11.900977,11.653889,-10.607056,-2.885486,-5.1019044,11.454859,162.0
17770,-11.900977,11.653889,-10.607056,-3.3400269,-6.066211,13.464185,162.0
17771,-18.23394,5.8287754,-7.851692,-3.3400269,-6.066211,13.464185,162.0
17772,-18.23394,5.8287754,-7.851692,-2.5806885,-6.9572387,15.21438,162.0
17773,-21.541473,2.2981777,-5.50988,-2.5806885,-6.9572387,15.21438,162.0
17774,-21.541473,2.2981777,-5.50988,-2.8886719,-7.235486,15.717773,162.0
17775,-22.10415,0.9208298,-4.535179,-2.8886719,-7.235486,15.717773,162.0
17776,-22.10415,0.9208298,-4.535179,-4.0579467,-7.005029,14.30105,162.0
17777,-19.105465,-2.66679,-6.111824,-4.0579467,-7.005029,14.30105,162.0
17778,-19.105465,-2.66679,-6.111824,-3.7011108,-5.9430175,11.240333,162.0
17779,-15.075108,-12.5163555,-12.450031,-3.7011108,-5.9430175,11.240333,162.0
17780,-15.075108,-12.5163555,-12.450031,-0.9515625,-4.0059085,8.490784,162.0
17781,-13.180021,-27.95737,-24.374443,-0.9515625,-4.0059085,8.490784,162.0
17782,-13.180021,-27.95737,-24.374443,2.5615723,-0.54693604,6.044971,162.0
17783,-14.816162,-41.9116,-35.101555,2.5615723,-0.54693604,6.044971,162.0
17784,-14.816162,-41.9116,-35.101555,1.0152832,4.2735353,2.543518,162.0
17785,-21.290466,-47.738373,-37.478962,1.0152832,4.2735353,2.543518,162.0
17786,-21.290466,-47.738373,-37.478962,-3.268872,8.67876,-2.0518067,162.0
17787,-26.67036,-44.080658,-34.101845,-3.268872,8.67876,-2.0518067,162.0
17788,-26.67036,-44.080658,-34.101845,-1.63125,11.053418,-6.86272,162.0
17789,-25.817524,-31.541054,-27.410273,-1.63125,11.053418,-6.86272,162.0
17790,-25.817524,-31.541054,-27.410273,6.531372,11.706555,-11.519641,162.0
17791,-25.550774,-12.992767,-16.507257,6.531372,11.706555,-11.519641,162.0
17792,-25.550774,-12.992767,-16.507257,9.883081,10.019019,-14.852234,162.0
17793,-29.117363,7.126816,-3.2323685,9.883081,10.019019,-14.852234,162.0
17794,-29.117363,7.126816,-3.2323685,4.279907,8.566187,-16.082045,162.0
17795,-31.030533,28.395897,11.286457,4.279907,8.566187,-16.082045,162.0
17796,-31.030533,28.395897,11.286457,1.0545777,9.850159,-14.352027,162.0
17797,-26.510597,49.268246,25.060955,1.0545777,9.850159,-14.352027,162.0
17798,-26.510597,49.268246,25.060955,5.077478,9.907508,-10.651978,162.0
17799,-13.917465,61.756527,32.335495,5.077478,9.907508,-10.651978,162.0
17800,-13.917465,61.756527,32.335495,7.683655,6.68855,-6.605713,162.0
17801,6.1443253,57.024754,31.439453,7.683655,6.68855,-6.605713,162.0
17802,6.1443253,57.024754,31.439453,5.369531,4.321326,-3.6947389,162.0
17803,28.231346,34.49289,26.43983,5.369531,4.321326,-3.6947389,162.0
17804,28.231346,34.49289,26.43983,3.347461,2.9672608,-1.5271729,162.0
17805,43.834198,5.90388,20.366978,3.347461,2.9672608,-1.5271729,162.0
17806,43.834198,5.90388,20.366978,3.8402345,1.1862671,-0.013806152,162.0
17807,52.65303,-15.353666,16.17725,3.8402345,1.1862671,-0.013806152,162.0
17808,52.65303,-15.353666,16.17725,3.793506,-0.2824951,1.8330323,162.0
17809,56.243263,-25.138365,15.304691,3.793506,-0.2824951,1.8330323,162.0
17810,56.243263,-25.138365,15.304691,2.0518067,-1.7151489,1.4294678,162.0
17811,54.025223,-25.029808,14.89341,2.0518067,-1.7151489,1.4294678,162.0
17812,54.025223,-25.029808,14.89341,2.4957275,-3.068152,1.2266235,162.0
17813,47.993774,-17.555351,11.81562,2.4957275,-3.068152,1.2266235,162.0
17814,47.993774,-17.555351,11.81562,4.448767,-4.34469,2.1962402,162.0
17815,47.993774,-17.555351,11.81562,4.448767,-4.34469,2.1962402,164.0
17816,36.475002,-6.2229195,4.9337616,4.448767,-4.34469,2.1962402,164.0
17817,36.475002,-6.2229195,4.9337616,4.0069704,-4.8406496,4.3107057,164.0
17818,19.448288,4.0471535,-2.2531357,4.0069704,-4.8406496,4.3107057,164.0
17819,19.448288,4.0471535,-2.2531357,0.9568726,-4.977649,6.373132,164.0
17820,4.1598263,10.268997,-6.075371,0.9568726,-4.977649,6.373132,164.0
17821,4.1598263,10.268997,-6.075371,-0.5129517,-5.169873,8.657519,164.0
17822,-4.6569047,12.914076,-7.1844788,-0.5129517,-5.169873,8.657519,164.0
17823,-4.6569047,12.914076,-7.1844788,0.1985962,-4.8459597,10.887744,164.0
17824,-9.714843,13.500412,-6.992729,0.1985962,-4.8459597,10.887744,164.0
17825,-9.714843,13.500412,-6.992729,-0.7338501,-4.1131716,13.363294,164.0
17826,-15.143297,13.397902,-6.4234657,-0.7338501,-4.1131716,13.363294,164.0
17827,-15.143297,13.397902,-6.4234657,-3.4271119,-3.705359,14.913831,164.0
17828,-20.687943,12.314587,-6.5230865,-3.4271119,-3.705359,14.913831,164.0
17829,-20.687943,12.314587,-6.5230865,-3.891211,-3.9050171,14.787452,164.0
17830,-22.650352,7.260483,-6.5422134,-3.891211,-3.9050171,14.787452,164.0
17831,-22.650352,7.260483,-6.5422134,-2.7506104,-2.5966187,13.01814,164.0
17832,-21.048944,-3.1832523,-6.8806953,-2.7506104,-2.5966187,13.01814,164.0
17833,-21.048944,-3.1832523,-6.8806953,-2.4118288,-1.1618408,10.623303,164.0
17834,-18.68481,-19.133076,-11.469032,-2.4118288,-1.1618408,10.623303,164.0
17835,-18.68481,-19.133076,-11.469032,-1.1629028,-0.03717041,8.320862,164.0
17836,-17.227646,-35.831203,-21.540352,-1.1629028,-0.03717041,8.320862,164.0
17837,-17.227646,-35.831203,-21.540352,-0.79226077,1.1023682,5.9462037,164.0
17838,-21.146814,-45.49973,-31.506088,-0.79226077,1.1023682,5.9462037,164.0
17839,-21.146814,-45.49973,-31.506088,-0.7104859,3.7435913,2.1187134,164.0
17840,-26.765327,-46.518887,-35.959084,-0.7104859,3.7435913,2.1187134,164.0
17841,-26.765327,-46.518887,-35.959084,-0.94731444,6.162854,-2.7739747,164.0
17842,-24.920517,-39.04988,-33.06035,-0.94731444,6.162854,-2.7739747,164.0
17843,-24.920517,-39.04988,-33.06035,2.0061402,8.249707,-7.710205,164.0
17844,-18.494644,-24.92833,-23.832298,2.0061402,8.249707,-7.710205,164.0
17845,-18.494644,-24.92833,-23.832298,6.0364747,9.837415,-11.699121,164.0
17846,-16.66061,-8.530083,-12.649933,6.0364747,9.837415,-11.699121,164.0
17847,-16.66061,-8.530083,-12.649933,6.780945,9.93512,-14.088648,164.0
17848,-21.665352,8.680801,-1.6537228,6.780945,9.93512,-14.088648,164.0
17849,-21.665352,8.680801,-1.6537228,3.2210815,10.07212,-14.429553,164.0
17850,-27.986053,29.595764,13.087582,3.2210815,10.07212,-14.429553,164.0
17851,-27.986053,29.595764,13.087582,2.0985353,11.2477665,-12.6793585,164.0
17852,-29.017845,52.26653,29.892075,2.0985353,11.2477665,-12.6793585,164.0
17853,-29.017845,52.26653,29.892075,9.567664,9.429603,-9.378626,164.0
17854,-18.81762,66.39904,37.830605,9.567664,9.429603,-9.378626,164.0
17855,-18.81762,66.39904,37.830605,12.331018,5.26333,-6.7151003,164.0
17856,4.1287613,58.68348,35.098457,12.331018,5.26333,-6.7151003,164.0
17857,4.1287613,58.68348,35.098457,6.0375366,3.0384157,-3.256128,164.0
17858,30.021553,29.272394,27.652374,6.0375366,3.0384157,-3.256128,164.0
17859,30.021553,29.272394,27.652374,1.0428956,2.0316284,-0.6616333,164.0
17860,47.381184,-3.3259687,19.050148,1.0428956,2.0316284,-0.6616333,164.0
17861,47.381184,-3.3259687,19.050148,1.2266235,0.7497803,0.5256958,164.0
17862,54.888554,-23.608406,14.114655,1.2266235,0.7497803,0.5256958,164.0
17863,54.888554,-23.608406,14.114655,1.899939,-0.7434082,1.3869873,164.0
17864,56.201614,-28.727802,14.583229,1.899939,-0.7434082,1.3869873,164.0
17865,56.201614,-28.727802,14.583229,1.6185058,-2.1197755,1.0333375,164.0
17866,54.314575,-22.394241,15.292084,1.6185058,-2.1197755,1.0333375,164.0
17867,54.314575,-22.394241,15.292084,2.071985,-3.810498,1.718335,164.0
17868,46.205067,-9.64669,10.683334,2.071985,-3.810498,1.718335,164.0
17869,46.205067,-9.64669,10.683334,2.619983,-5.176245,3.717041,164.0
17870,28.879742,2.9713554,1.6306763,2.619983,-5.176245,3.717041,164.0
17871,28.879742,2.9713554,1.6306763,1.6068238,-5.6722045,6.819177,164.0
17872,10.019197,9.023422,-5.988388,1.6068238,-5.6722045,6.819177,164.0
17873,10.019197,9.023422,-5.988388,-0.2899292,-5.7369876,10.074244,164.0
17874,-2.4025006,8.158655,-8.887344,-0.2899292,-5.7369876,10.074244,164.0
17875,-2.4025006,8.158655,-8.887344,-2.3852785,-5.615918,12.423413,164.0
17876,-9.416556,4.8148518,-8.7402725,-2.3852785,-5.615918,12.423413,164.0
17877,-9.416556,4.8148518,-8.7402725,-2.5923707,-5.9154053,14.15343,164.0
17878,-13.912408,3.100586,-7.217045,-2.5923707,-5.9154053,14.15343,164.0
17879,-13.912408,3.100586,-7.217045,-2.1367676,-5.979126,15.206946,164.0
17880,-15.719526,4.3993053,-4.2862244,-2.1367676,-5.979126,15.206946,164.0
17881,-15.719526,4.3993053,-4.2862244,-2.076233,-5.6881347,14.483716,164.0
17882,-14.06267,5.325609,-1.9039536,-2.076233,-5.6881347,14.483716,164.0
17883,-14.06267,5.325609,-1.9039536,-1.9806519,-4.7556887,12.504127,164.0
17884,-11.924122,0.81217194,-3.398079,-1.9806519,-4.7556887,12.504127,164.0
17885,-11.924122,0.81217194,-3.398079,-1.9084351,-2.996997,9.909632,164.0
17886,-13.627689,-11.397442,-11.099789,-1.9084351,-2.996997,9.909632,164.0
17887,-13.627689,-11.397442,-11.099789,-0.3058594,-0.7519043,7.76012,164.0
17888,-17.870218,-28.33746,-22.051376,-0.3058594,-0.7519043,7.76012,164.0
17889,-17.870218,-28.33746,-22.051376,1.3413209,2.4787354,4.9362307,164.0
17890,-23.242758,-39.750427,-29.670876,1.3413209,2.4787354,4.9362307,164.0
17891,-23.242758,-39.750427,-29.670876,-0.8092529,5.5352054,1.5590333,164.0
17892,-29.618134,-41.32152,-31.905636,-0.8092529,5.5352054,1.5590333,164.0
17893,-29.618134,-41.32152,-31.905636,-1.6174439,7.7080812,-2.3077514,164.0
17894,-31.515736,-35.824577,-29.975975,-1.6174439,7.7080812,-2.3077514,164.0
17895,-31.515736,-35.824577,-29.975975,1.4135376,8.891162,-6.879712,164.0
17896,-26.471195,-23.70745,-23.683723,1.4135376,8.891162,-6.879712,164.0
17897,-26.471195,-23.70745,-23.683723,5.900537,9.833167,-11.248828,164.0
17898,-21.457596,-7.9991913,-14.007854,5.900537,9.833167,-11.248828,164.0
17899,-21.457596,-7.9991913,-14.007854,6.4644656,10.298327,-13.879432,164.0
17900,40.672768,-0.15401459,17.504423,6.4644656,10.298327,-13.879432,164.0
17901,40.672768,-0.15401459,17.504423,3.4855225,10.4948,-14.570801,164.0
17902,-40.01413,25.658127,3.645031,3.4855225,10.4948,-14.570801,164.0
17903,-40.01413,25.658127,3.645031,2.6444092,11.583362,-13.410022,164.0
17904,-40.754494,46.450867,21.132504,2.6444092,11.583362,-13.410022,164.0
17905,-40.754494,46.450867,21.132504,6.943433,11.065101,-10.673218,164.0
17906,-31.709953,62.836502,33.89526,6.943433,11.065101,-10.673218,164.0
17907,-31.709953,62.836502,33.89526,10.07743,7.148401,-7.5774536,164.0
17908,-9.680489,61.074745,34.55903,10.07743,7.148401,-7.5774536,164.0
17909,-9.680489,61.074745,34.55903,8.86886,4.056885,-4.1917605,164.0
17910,18.0915,37.688713,27.170464,8.86886,4.056885,-4.1917605,164.0
17911,18.0915,37.688713,27.170464,5.9175296,2.4224489,-1.6609863,164.0
17912,39.594234,6.2222614,17.799763,5.9175296,2.4224489,-1.6609863,164.0
17913,39.594234,6.2222614,17.799763,4.5868287,1.2021973,-0.20072022,164.0
17914,50.219368,-15.396179,11.551884,4.5868287,1.2021973,-0.20072022,164.0
17915,50.219368,-15.396179,11.551884,3.9889162,-0.15080567,1.447522,164.0
17916,47.745712,-28.004322,6.3648376,3.9889162,-0.15080567,1.447522,164.0
17917,47.745712,-28.004322,6.3648376,2.1091554,-1.6376221,1.8362182,164.0
17918,49.34137,-19.092094,11.665749,2.1091554,-1.6376221,1.8362182,164.0
17919,49.34137,-19.092094,11.665749,0.31223145,-2.9269044,2.1144655,164.0
17920,44.1516,-12.338604,8.773079,0.31223145,-2.9269044,2.1144655,164.0
17921,44.1516,-12.338604,8.773079,1.6949707,-3.972986,3.1626709,164.0
17922,33.729984,-3.5434647,2.4360123,1.6949707,-3.972986,3.1626709,164.0
17923,33.729984,-3.5434647,2.4360123,2.258899,-4.3818603,5.510779,164.0
17924,18.195377,3.6985054,-3.662056,2.258899,-4.3818603,5.510779,164.0
17925,18.195377,3.6985054,-3.662056,0.67437744,-4.4986815,8.054297,164.0
17926,4.510244,6.596756,-6.8282623,0.67437744,-4.4986815,8.054297,164.0
17927,4.510244,6.596756,-6.8282623,-1.1129884,-4.6590457,10.268592,164.0
17928,-3.8333697,6.4078617,-7.970375,-1.1129884,-4.6590457,10.268592,164.0
17929,-3.8333697,6.4078617,-7.970375,-1.1480347,-4.7471924,12.177027,164.0
17930,-9.548092,5.607149,-8.346882,-1.1480347,-4.7471924,12.177027,164.0
17931,-9.548092,5.607149,-8.346882,-0.57561034,-4.5581546,14.347778,164.0
17932,-9.548092,5.607149,-8.346882,-0.57561034,-4.5581546,14.347778,167.0
17933,-14.781211,5.633278,-8.264164,-0.57561034,-4.5581546,14.347778,167.0
17934,-14.781211,5.633278,-8.264164,-1.8479004,-4.2947755,15.394922,167.0
17935,-17.884491,5.5281925,-7.748867,-1.8479004,-4.2947755,15.394922,167.0
17936,-17.884491,5.5281925,-7.748867,-2.8408813,-3.888025,14.394507,167.0
17937,-16.560081,2.7826614,-6.5414276,-2.8408813,-3.888025,14.394507,167.0
17938,-16.560081,2.7826614,-6.5414276,-3.3867555,-2.1994264,12.058082,167.0
17939,-13.667146,-4.130352,-6.194336,-3.3867555,-2.1994264,12.058082,167.0
17940,-13.667146,-4.130352,-6.194336,-3.976172,-0.7168579,9.300036,167.0
17941,-12.928894,-16.54282,-10.551403,-3.976172,-0.7168579,9.300036,167.0
17942,-12.928894,-16.54282,-10.551403,-2.1399536,0.8442993,7.1664553,167.0
17943,-13.005177,-31.46177,-19.410141,-2.1399536,0.8442993,7.1664553,167.0
17944,-13.005177,-31.46177,-19.410141,0.07646485,2.430945,5.2123537,167.0
17945,-15.950138,-40.109516,-27.180992,0.07646485,2.430945,5.2123537,167.0
17946,-15.950138,-40.109516,-27.180992,-0.53100586,4.902246,1.988086,167.0
17947,-22.29496,-40.400677,-29.819256,-0.53100586,4.902246,1.988086,167.0
17948,-22.29496,-40.400677,-29.819256,-0.8602295,6.8340454,-2.2822633,167.0
17949,-24.322617,-34.85714,-27.513584,-0.8602295,6.8340454,-2.2822633,167.0
17950,-24.322617,-34.85714,-27.513584,1.6854126,7.507361,-6.412427,167.0
17951,-19.653614,-24.306335,-20.359451,1.6854126,7.507361,-6.412427,167.0
17952,-19.653614,-24.306335,-20.359451,5.9525757,7.822778,-10.049817,167.0
17953,-15.046318,-10.614807,-9.486536,5.9525757,7.822778,-10.049817,167.0
17954,-15.046318,-10.614807,-9.486536,6.4442873,7.534973,-12.518994,167.0
17955,-14.860931,3.6763763,1.0773239,6.4442873,7.534973,-12.518994,167.0
17956,-14.860931,3.6763763,1.0773239,4.257605,7.1197267,-13.438697,167.0
17957,-16.90681,19.828918,11.6975765,4.257605,7.1197267,-13.438697,167.0
17958,-16.90681,19.828918,11.6975765,2.3820922,7.881189,-12.655993,167.0
17959,-16.596004,37.84568,23.44284,2.3820922,7.881189,-12.655993,167.0
17960,-16.596004,37.84568,23.44284,3.609778,7.9119873,-10.175135,167.0
17961,-10.979965,50.14155,30.80376,3.609778,7.9119873,-10.175135,167.0
17962,-10.979965,50.14155,30.80376,5.6414065,5.7561035,-7.0315795,167.0
17963,0.76169586,49.235527,29.675014,5.6414065,5.7561035,-7.0315795,167.0
17964,0.76169586,49.235527,29.675014,5.794336,3.1945312,-4.3850465,167.0
17965,16.110271,33.732258,23.519127,5.794336,3.1945312,-4.3850465,167.0
17966,16.110271,33.732258,23.519127,5.0965943,1.6429322,-2.7346802,167.0
17967,28.822289,10.273441,18.13221,5.0965943,1.6429322,-2.7346802,167.0
17968,28.822289,10.273441,18.13221,4.069629,-0.007434082,-1.4007934,167.0
17969,36.54461,-9.810886,14.978889,4.069629,-0.007434082,-1.4007934,167.0
17970,36.54461,-9.810886,14.978889,2.8706176,-2.3364258,-0.72004396,167.0
17971,41.856647,-19.654179,13.1877365,2.8706176,-2.3364258,-0.72004396,167.0
17972,41.856647,-19.654179,13.1877365,1.9498535,-3.9496217,-0.16885987,167.0
17973,43.151237,-20.058098,11.286972,1.9498535,-3.9496217,-0.16885987,167.0
17974,43.151237,-20.058098,11.286972,2.5753784,-5.148633,-1.0163453,167.0
17975,37.960003,-13.592133,6.766342,2.5753784,-5.148633,-1.0163453,167.0
17976,37.960003,-13.592133,6.766342,3.7265992,-6.149048,-0.007434082,167.0
17977,26.728806,-3.0827866,0.15063477,3.7265992,-6.149048,-0.007434082,167.0
17978,26.728806,-3.0827866,0.15063477,3.2093995,-6.768201,2.1070313,167.0
17979,12.666078,5.223175,-4.9607773,3.2093995,-6.768201,2.1070313,167.0
17980,12.666078,5.223175,-4.9607773,1.3052124,-6.8722777,5.131641,167.0
17981,2.3172371,6.6282463,-6.647564,1.3052124,-6.8722777,5.131641,167.0
17982,2.3172371,6.6282463,-6.647564,-1.99552,-6.7204103,7.4924927,167.0
17983,-2.4889836,2.7514114,-7.2853355,-1.99552,-6.7204103,7.4924927,167.0
17984,-2.4889836,2.7514114,-7.2853355,-3.9697998,-6.6248293,8.740356,167.0
17985,-4.6952887,-1.8634338,-9.285656,-3.9697998,-6.6248293,8.740356,167.0
17986,-4.6952887,-1.8634338,-9.285656,-4.082373,-6.68324,9.832105,167.0
17987,-6.3323784,-4.2950325,-11.988205,-4.082373,-6.68324,9.832105,167.0
17988,-6.3323784,-4.2950325,-11.988205,-3.6416383,-6.608899,10.672156,167.0
17989,-6.1687717,-3.8876495,-13.153599,-3.6416383,-6.608899,10.672156,167.0
17990,-6.1687717,-3.8876495,-13.153599,-3.3687012,-6.2010865,9.648376,167.0
17991,-3.4536695,-1.5975723,-10.834217,-3.3687012,-6.2010865,9.648376,167.0
17992,-3.4536695,-1.5975723,-10.834217,-2.005078,-4.0866213,7.692151,167.0
17993,-3.6412683,-2.4720764,-7.4481964,-2.005078,-4.0866213,7.692151,167.0
17994,-3.6412683,-2.4720764,-7.4481964,0.18266602,-1.7576294,6.626953,167.0
17995,-6.65497,-8.221485,-7.631092,0.18266602,-1.7576294,6.626953,167.0
17996,-6.65497,-8.221485,-7.631092,1.5855836,0.124255374,5.3270507,167.0
17997,-6.9696426,-13.032108,-10.937088,1.5855836,0.124255374,5.3270507,167.0
17998,-6.9696426,-13.032108,-10.937088,1.7438233,2.5084717,5.0265017,167.0
17999,-7.1752996,-14.253468,-14.521118,1.7438233,2.5084717,5.0265017,167.0
18000,-7.1752996,-14.253468,-14.521118,1.2967163,5.0095096,5.4969726,167.0
18001,-12.339788,-15.252117,-17.51527,1.2967163,5.0095096,5.4969726,167.0
18002,-12.339788,-15.252117,-17.51527,0.36320803,7.1866336,4.8194094,167.0
18003,-18.955328,-18.496529,-18.16804,0.36320803,7.1866336,4.8194094,167.0
18004,-18.955328,-18.496529,-18.16804,0.7051758,6.988037,3.0840821,167.0
18005,-18.565947,-20.217842,-15.44582,0.7051758,6.988037,3.0840821,167.0
18006,-18.565947,-20.217842,-15.44582,3.9273193,7.5774536,0.5161377,167.0
18007,-12.806616,-17.218735,-10.565884,3.9273193,7.5774536,0.5161377,167.0
18008,-12.806616,-17.218735,-10.565884,4.8247194,7.506299,-1.3965454,167.0
18009,-7.38328,-12.048378,-4.0346146,4.8247194,7.506299,-1.3965454,167.0
18010,-7.38328,-12.048378,-4.0346146,3.9581177,7.1653934,-2.8015869,167.0
18011,-3.8541946,-7.0811462,2.9043636,3.9581177,7.1653934,-2.8015869,167.0
18012,-3.8541946,-7.0811462,2.9043636,3.6926148,7.213184,-4.1758304,167.0
18013,-2.8033504,-3.1325226,8.542156,3.6926148,7.213184,-4.1758304,167.0
18014,-2.8033504,-3.1325226,8.542156,4.0749393,6.692798,-5.2697024,167.0
18015,-3.138115,-0.258461,12.44857,4.0749393,6.692798,-5.2697024,167.0
18016,-3.138115,-0.258461,12.44857,5.331299,5.3950195,-5.7518554,167.0
18017,-3.138115,-0.258461,12.44857,5.331299,5.3950195,-5.7518554,163.0
18018,-4.4193535,4.169258,15.903244,5.331299,5.3950195,-5.7518554,163.0
18019,-4.4193535,4.169258,15.903244,7.4616942,3.5800416,-6.006738,163.0
18020,-6.2877655,12.735481,19.98037,7.4616942,3.5800416,-6.006738,163.0
18021,-6.2877655,12.735481,19.98037,9.885205,0.6159668,-5.810266,163.0
18022,-8.625099,25.471077,23.670807,9.885205,0.6159668,-5.810266,163.0
18023,-8.625099,25.471077,23.670807,11.641772,-2.084729,-5.8463745,163.0
18024,-9.084274,37.875664,22.793312,11.641772,-2.084729,-5.8463745,163.0
18025,-9.084274,37.875664,22.793312,11.573804,-5.572376,-4.427527,163.0
18026,-1.6445808,38.406742,15.198883,11.573804,-5.572376,-4.427527,163.0
18027,-1.6445808,38.406742,15.198883,8.640528,-7.8079104,-1.0343994,163.0
18028,11.381687,23.129871,5.628746,8.640528,-7.8079104,-1.0343994,163.0
18029,11.381687,23.129871,5.628746,3.3771973,-7.800476,1.5197388,163.0
18030,21.064066,2.0299606,-1.5154877,3.3771973,-7.800476,1.5197388,163.0
18031,21.064066,2.0299606,-1.5154877,-1.3742431,-7.3841677,1.5218629,163.0
18032,24.52602,-12.565727,-6.37484,-1.3742431,-7.3841677,1.5218629,163.0
18033,24.52602,-12.565727,-6.37484,-2.812207,-7.0283937,1.089624,163.0
18034,23.629385,-16.233734,-9.520233,-2.812207,-7.0283937,1.089624,163.0
18035,23.629385,-16.233734,-9.520233,-2.5626342,-6.51438,0.48427734,163.0
18036,20.73233,-12.641857,-10.761963,-2.5626342,-6.51438,0.48427734,163.0
18037,20.73233,-12.641857,-10.761963,-2.1941164,-6.4432254,0.49383545,163.0
18038,17.730188,-6.8019485,-10.795364,-2.1941164,-6.4432254,0.49383545,163.0
18039,17.730188,-6.8019485,-10.795364,-2.3098755,-6.3041015,1.1682129,163.0
18040,14.4522295,-2.8614197,-10.888866,-2.3098755,-6.3041015,1.1682129,163.0
18041,14.4522295,-2.8614197,-10.888866,-2.527588,-5.9419556,2.3321779,163.0
18042,9.825748,-2.2228508,-10.992378,-2.527588,-5.9419556,2.3321779,163.0
18043,9.825748,-2.2228508,-10.992378,-2.2344728,-5.9323974,3.7520874,163.0
18044,4.8439727,-3.29924,-10.292843,-2.2344728,-5.9323974,3.7520874,163.0
18045,4.8439727,-3.29924,-10.292843,-1.8330323,-5.967444,4.697278,163.0
18046,0.9126539,-4.135437,-8.757359,-1.8330323,-5.967444,4.697278,163.0
18047,0.9126539,-4.135437,-8.757359,-1.4039795,-5.6700807,5.262268,163.0
18048,-1.8364906,-4.2555046,-6.7705,-1.4039795,-5.6700807,5.262268,163.0
18049,-1.8364906,-4.2555046,-6.7705,-1.2053833,-5.4459963,5.7284913,163.0
18050,-1.8697907,-4.7595787,-4.8851624,-1.2053833,-5.4459963,5.7284913,163.0
18051,-1.8697907,-4.7595787,-4.8851624,0.18585205,-5.7444215,5.357849,163.0
18052,2.9279957,-5.0147324,-3.3083744,0.18585205,-5.7444215,5.357849,163.0
18053,2.9279957,-5.0147324,-3.3083744,3.437732,-3.787134,4.2023807,163.0
18054,6.6441665,-3.700714,-0.9075165,3.437732,-3.787134,4.2023807,163.0
18055,6.6441665,-3.700714,-0.9075165,5.008447,-0.05628662,3.725537,163.0
18056,2.8849988,-2.4221306,2.6020508,5.008447,-0.05628662,3.725537,163.0
18057,2.8849988,-2.4221306,2.6020508,4.442395,2.0826051,3.4589722,163.0
18058,-3.2643278,-3.2512512,4.0643806,4.442395,2.0826051,3.4589722,163.0
18059,-3.2643278,-3.2512512,4.0643806,3.4122436,4.0462646,3.0532837,163.0
18060,-7.273755,-5.8086395,1.5764542,3.4122436,4.0462646,3.0532837,163.0
18061,-7.273755,-5.8086395,1.5764542,3.80094,6.7766967,2.907788,163.0
18062,-12.100132,-7.3050194,-1.6438522,3.80094,6.7766967,2.907788,163.0
18063,-12.100132,-7.3050194,-1.6438522,3.255066,8.839124,2.0167603,163.0
18064,-18.754398,-7.4293823,-2.6540108,3.255066,8.839124,2.0167603,163.0
18065,-18.754398,-7.4293823,-2.6540108,2.1410158,7.6486087,0.5703003,163.0
18066,-20.00286,-7.8722763,-2.1390762,2.1410158,7.6486087,0.5703003,163.0
18067,-20.00286,-7.8722763,-2.1390762,2.0826051,6.863782,-0.19116211,163.0
18068,-13.943365,-8.075409,-0.958271,2.0826051,6.863782,-0.19116211,163.0
18069,-13.943365,-8.075409,-0.958271,2.2121704,6.874402,-1.1639649,163.0
18070,-6.688566,-7.680641,0.80835915,2.2121704,6.874402,-1.1639649,163.0
18071,-6.688566,-7.680641,0.80835915,1.9944581,5.7433596,-1.8383423,163.0
18072,-0.5647812,-7.0870285,2.6219788,1.9944581,5.7433596,-1.8383423,163.0
18073,-0.5647812,-7.0870285,2.6219788,2.5605104,5.1804934,-2.9577026,163.0
18074,3.2439995,-5.9342957,4.0124016,2.5605104,5.1804934,-2.9577026,163.0
18075,3.2439995,-5.9342957,4.0124016,2.986377,5.0785403,-4.1535277,163.0
18076,3.6334448,-3.9428558,5.3556747,2.986377,5.0785403,-4.1535277,163.0
18077,3.6334448,-3.9428558,5.3556747,4.1195436,5.245276,-5.053052,163.0
18078,-1.2694283,1.0832901,7.5600777,4.1195436,5.245276,-5.053052,163.0
18079,-1.2694283,1.0832901,7.5600777,6.931751,5.7518554,-6.6418214,163.0
18080,-13.541885,10.664848,10.235367,6.931751,5.7518554,-6.6418214,163.0
18081,-13.541885,10.664848,10.235367,11.108643,2.8430054,-6.8393555,163.0
18082,-25.530773,22.269245,11.448963,11.108643,2.8430054,-6.8393555,163.0
18083,-25.530773,22.269245,11.448963,16.653406,-0.5278198,-4.36593,163.0
18084,-21.91964,29.633842,8.483585,16.653406,-0.5278198,-4.36593,163.0
18085,-21.91964,29.633842,8.483585,18.006409,-2.6582153,-2.1888063,163.0
18086,-3.755806,28.24776,3.7098656,18.006409,-2.6582153,-2.1888063,163.0
18087,-3.755806,28.24776,3.7098656,10.596753,-2.8589356,-1.544165,163.0
18088,13.492268,17.977238,1.4739838,10.596753,-2.8589356,-1.544165,163.0
18089,13.492268,17.977238,1.4739838,3.2720582,-2.8642457,-0.5787964,163.0
18090,22.419157,3.729519,0.763649,3.2720582,-2.8642457,-0.5787964,163.0
18091,22.419157,3.729519,0.763649,-0.34940186,-2.35979,-0.7327881,163.0
18092,25.366686,-5.8534813,0.12758255,-0.34940186,-2.35979,-0.7327881,163.0
18093,25.366686,-5.8534813,0.12758255,-0.93775636,-1.7640015,-1.1087402,163.0
18094,25.385012,-8.121689,-0.31432724,-0.93775636,-1.7640015,-1.1087402,163.0
18095,25.385012,-8.121689,-0.31432724,-0.4354248,-1.0365235,-1.1321045,163.0
18096,21.542984,-6.739208,-1.1333694,-0.4354248,-1.0365235,-1.1321045,163.0
18097,21.542984,-6.739208,-1.1333694,-0.61915284,-0.07434082,-1.3795532,163.0
18098,14.07135,-5.1213837,-2.475113,-0.61915284,-0.07434082,-1.3795532,163.0
18099,14.07135,-5.1213837,-2.475113,-1.3105224,0.2984253,-1.453894,163.0
18100,6.616931,-3.9137459,-3.615757,-1.3105224,0.2984253,-1.453894,163.0
18101,6.616931,-3.9137459,-3.615757,-2.3077514,0.89208984,-1.3795532,163.0
18102,0.66570055,-2.8302002,-4.2152367,-2.3077514,0.89208984,-1.3795532,163.0
18103,0.66570055,-2.8302002,-4.2152367,-2.7750366,1.5685914,-1.6801026,163.0
18104,-6.644747,-2.0737762,-4.1784286,-2.7750366,1.5685914,-1.6801026,163.0
18105,-6.644747,-2.0737762,-4.1784286,-2.0263183,3.7382812,-2.9608886,163.0
18106,-22.01697,-0.9614639,-4.380253,-2.0263183,3.7382812,-2.9608886,163.0
18107,-22.01697,-0.9614639,-4.380253,-0.25806886,4.2268066,-5.8559327,163.0
18108,-33.838806,2.0157394,-6.661148,-0.25806886,4.2268066,-5.8559327,163.0
18109,-33.838806,2.0157394,-6.661148,1.7332032,-1.4071655,-2.0135744,163.0
18110,-23.238575,4.8646545,-8.60957,1.7332032,-1.4071655,-2.0135744,163.0
18111,-23.238575,4.8646545,-8.60957,0.004248047,-0.46622315,-0.905896,163.0
18112,-3.8854885,3.016945,-6.2997894,0.004248047,-0.46622315,-0.905896,163.0
18113,-3.8854885,3.016945,-6.2997894,-1.9806519,1.2542359,1.6960328,163.0
18114,4.8417683,-2.3764343,-0.49253082,-1.9806519,1.2542359,1.6960328,163.0
18115,4.8417683,-2.3764343,-0.49253082,-1.8224121,0.3430298,3.1255004,163.0
18116,6.800844,-6.483776,3.7815857,-1.8224121,0.3430298,3.1255004,163.0
18117,6.800844,-6.483776,3.7815857,-1.4953126,-0.56392825,3.6809328,163.0
18118,8.945351,-9.783516,3.61903,-1.4953126,-0.56392825,3.6809328,163.0
18119,8.945351,-9.783516,3.61903,-0.74871826,-1.0598878,3.7350953,163.0
18120,11.865423,-14.073666,2.14122,-0.74871826,-1.0598878,3.7350953,163.0
18121,11.865423,-14.073666,2.14122,0.7943848,-1.4315919,3.175415,163.0
18122,14.114909,-16.270687,1.6353645,0.7943848,-1.4315919,3.175415,163.0
18123,14.114909,-16.270687,1.6353645,1.81073,-1.7608155,2.3682861,163.0
18124,14.202902,-14.729782,0.2547264,1.81073,-1.7608155,2.3682861,163.0
18125,14.202902,-14.729782,0.2547264,3.0065553,-1.5792115,1.2436157,163.0
18126,10.505888,-10.442795,-2.0771294,3.0065553,-1.5792115,1.2436157,163.0
18127,10.505888,-10.442795,-2.0771294,4.0260863,-1.4623902,0.2166504,163.0
18128,4.078881,-4.495178,-3.6561623,4.0260863,-1.4623902,0.2166504,163.0
18129,4.078881,-4.495178,-3.6561623,3.885901,-1.5919555,-0.18054199,163.0
18130,4.078881,-4.495178,-3.6561623,3.885901,-1.5919555,-0.18054199,159.0
18131,-2.352618,1.7203751,-4.1238327,3.885901,-1.5919555,-0.18054199,159.0
18132,-2.352618,1.7203751,-4.1238327,3.3973756,-0.7604004,-0.33984375,159.0
18133,-9.331692,6.942047,-4.0809402,3.3973756,-0.7604004,-0.33984375,159.0
18134,-9.331692,6.942047,-4.0809402,3.2879884,-0.1539917,-0.6414551,159.0
18135,-16.155832,10.071419,-3.9694633,3.2879884,-0.1539917,-0.6414551,159.0
18136,-16.155832,10.071419,-3.9694633,4.095117,-1.5887696,0.22408448,159.0
18137,-17.075788,10.665241,-3.419077,4.095117,-1.5887696,0.22408448,159.0
18138,-17.075788,10.665241,-3.419077,5.797522,-1.7501954,1.2744141,159.0
18139,-10.211559,9.378883,-0.5184288,5.797522,-1.7501954,1.2744141,159.0
18140,-10.211559,9.378883,-0.5184288,7.1972537,-1.4719483,1.9848999,159.0
18141,-0.91423035,6.761322,4.9005394,7.1972537,-1.4719483,1.9848999,159.0
18142,-0.91423035,6.761322,4.9005394,6.510132,-1.1554688,1.8818848,159.0
18143,6.001025,3.4630623,9.104965,6.510132,-1.1554688,1.8818848,159.0
18144,6.001025,3.4630623,9.104965,3.7945678,-1.4145997,1.3413209,159.0
18145,10.067325,0.4676895,8.924866,3.7945678,-1.4145997,1.3413209,159.0
18146,10.067325,0.4676895,8.924866,0.71791995,-2.084729,0.84536135,159.0
18147,12.75165,-1.7067947,5.769642,0.71791995,-2.084729,0.84536135,159.0
18148,12.75165,-1.7067947,5.769642,-1.0821899,-2.3789062,0.42692873,159.0
18149,13.8333025,-3.3524628,3.1466446,-1.0821899,-2.3789062,0.42692873,159.0
18150,13.8333025,-3.3524628,3.1466446,-1.4953126,-2.2334106,-0.1539917,159.0
18151,11.904057,-4.268238,1.6174622,-1.4953126,-2.2334106,-0.1539917,159.0
18152,11.904057,-4.268238,1.6174622,-0.631897,-2.175,-0.5246338,159.0
18153,7.520914,-3.5133095,-0.23967361,-0.631897,-2.175,-0.5246338,159.0
18154,7.520914,-3.5133095,-0.23967361,0.44923097,-2.0380006,-0.7688965,159.0
18155,2.4539871,-0.95186996,-2.7378922,0.44923097,-2.0380006,-0.7688965,159.0
18156,2.4539871,-0.95186996,-2.7378922,1.1883911,-1.2935303,-0.9834229,159.0
18157,-2.9766173,2.8073387,-4.447014,1.1883911,-1.2935303,-0.9834229,159.0
18158,-2.9766173,2.8073387,-4.447014,1.0535157,0.013806152,-1.1066163,159.0
18159,-9.550386,5.706772,-4.46994,1.0535157,0.013806152,-1.1066163,159.0
18160,-9.550386,5.706772,-4.46994,0.24744873,0.3982544,-1.6153198,159.0
18161,-16.480164,6.205738,-3.937561,0.24744873,0.3982544,-1.6153198,159.0
18162,-16.480164,6.205738,-3.937561,-0.093457036,-0.23151855,-1.3678712,159.0
18163,-17.933363,4.6315575,-3.9379768,-0.093457036,-0.23151855,-1.3678712,159.0
18164,-17.933363,4.6315575,-3.9379768,-0.039294433,-1.724707,0.24851075,159.0
18165,-10.880529,1.2311745,-4.4108315,-0.039294433,-1.724707,0.24851075,159.0
18166,-10.880529,1.2311745,-4.4108315,0.4970215,-1.5250489,1.2574219,159.0
18167,-2.8605747,-2.9091911,-4.739128,0.4970215,-1.5250489,1.2574219,159.0
18168,-2.8605747,-2.9091911,-4.739128,1.0259033,-1.537793,2.0305665,159.0
18169,0.3431568,-5.507553,-4.251728,1.0259033,-1.537793,2.0305665,159.0
18170,0.3431568,-5.507553,-4.251728,0.45772704,-1.6694825,2.1463258,159.0
18171,0.29922104,-6.2025986,-2.8297882,0.45772704,-1.6694825,2.1463258,159.0
18172,0.29922104,-6.2025986,-2.8297882,-0.75615233,-1.5027466,1.6801026,159.0
18173,-0.61833763,-6.295952,-1.1152344,-0.75615233,-1.5027466,1.6801026,159.0
18174,-0.61833763,-6.295952,-1.1152344,-1.7098389,-1.6397461,1.2531738,159.0
18175,-1.0039959,-6.265133,-0.18473053,-1.7098389,-1.6397461,1.2531738,159.0
18176,-1.0039959,-6.265133,-0.18473053,-1.991272,-1.8224121,1.0694458,159.0
18177,-0.89733696,-5.443527,-0.14760208,-1.991272,-1.8224121,1.0694458,159.0
18178,-0.89733696,-5.443527,-0.14760208,-1.814978,-1.9498535,1.0280274,159.0
18179,-0.0065174103,-4.9872665,-0.73181343,-1.814978,-1.9498535,1.0280274,159.0
18180,-0.0065174103,-4.9872665,-0.73181343,-0.99298096,-2.3183715,0.5968506,159.0
18181,-0.079042435,-3.708992,-0.78990746,-0.99298096,-2.3183715,0.5968506,159.0
18182,-0.079042435,-3.708992,-0.78990746,-0.8973999,-2.4107666,0.38657227,159.0
18183,-0.51667595,-1.575882,-0.20887756,-0.8973999,-2.4107666,0.38657227,159.0
18184,-0.51667595,-1.575882,-0.20887756,-1.0418335,-2.8557496,-0.71367186,159.0
18185,-1.045702,-0.6552582,0.012231827,-1.0418335,-2.8557496,-0.71367186,159.0
18186,-1.045702,-0.6552582,0.012231827,-1.177771,-2.986377,-1.088562,159.0
18187,-1.1767845,-0.61325836,-0.065496445,-1.177771,-2.986377,-1.088562,159.0
18188,-1.1767845,-0.61325836,-0.065496445,-0.53950197,-2.7198122,-2.4914796,159.0
18189,-1.4929161,-0.8378372,-0.074150085,-0.53950197,-2.7198122,-2.4914796,159.0
18190,-1.4929161,-0.8378372,-0.074150085,0.087084964,-2.53396,-2.9534547,159.0
18191,-3.4530983,-0.46798706,0.6274605,0.087084964,-2.53396,-2.9534547,159.0
18192,-3.4530983,-0.46798706,0.6274605,2.6783936,-2.0486207,-4.2151246,159.0
18193,-3.899479,-0.16921234,0.70477676,2.6783936,-2.0486207,-4.2151246,159.0
18194,-3.899479,-0.16921234,0.70477676,3.804126,-1.717273,-4.5432863,159.0
18195,-3.620535,2.2263718,1.0304222,3.804126,-1.717273,-4.5432863,159.0
18196,-3.620535,2.2263718,1.0304222,7.4478884,-0.38763428,-5.6817627,159.0
18197,-2.405241,1.5670319,0.94280624,7.4478884,-0.38763428,-5.6817627,159.0
18198,-2.405241,1.5670319,0.94280624,8.211474,0.021240234,-5.8633666,159.0
18199,-1.209837,1.2729874,1.0076275,8.211474,0.021240234,-5.8633666,159.0
18200,-1.209837,1.2729874,1.0076275,8.335731,0.8867798,-6.1851563,159.0
18201,-1.0882797,0.042793274,1.4091415,8.335731,0.8867798,-6.1851563,159.0
18202,-1.0882797,0.042793274,1.4091415,7.0868044,1.1915772,-6.3741946,159.0
18203,-3.2471619,3.8064117,1.6270828,7.0868044,1.1915772,-6.3741946,159.0
18204,-3.2471619,3.8064117,1.6270828,0.22302246,2.6720216,-5.94408,159.0
18205,-2.6790028,5.8307266,0.62047577,0.22302246,2.6720216,-5.94408,159.0
18206,-2.6790028,5.8307266,0.62047577,-1.6981567,3.0458496,-5.2973146,159.0
18207,-2.663807,9.786846,-2.267828,-1.6981567,3.0458496,-5.2973146,159.0
18208,-2.663807,9.786846,-2.267828,-2.5052857,2.8100832,-3.6034057,159.0
18209,-1.0746002,11.113403,-3.8976364,-2.5052857,2.8100832,-3.6034057,159.0
18210,-1.0746002,11.113403,-3.8976364,0.5883545,2.3173096,-1.8425903,159.0
18211,2.6710453,9.712341,-2.053009,0.5883545,2.3173096,-1.8425903,159.0
18212,2.6710453,9.712341,-2.053009,3.3060424,2.2206666,-0.46622315,159.0
18213,7.120882,6.2321777,1.2836685,3.3060424,2.2206666,-0.46622315,159.0
18214,7.120882,6.2321777,1.2836685,2.9481447,1.983838,0.4895874,159.0
18215,12.701906,0.7522087,5.0060616,2.9481447,1.983838,0.4895874,159.0
18216,12.701906,0.7522087,5.0060616,2.171814,1.4114136,1.6705445,159.0
18217,11.813319,-1.2159348,5.379532,2.171814,1.4114136,1.6705445,159.0
18218,11.813319,-1.2159348,5.379532,2.2015502,1.1214844,1.992334,159.0
18219,11.612972,-4.232929,6.4433594,2.2015502,1.1214844,1.992334,159.0
18220,11.612972,-4.232929,6.4433594,2.6380372,0.2793091,2.4734254,159.0
18221,10.996507,-5.8607216,6.770607,2.6380372,0.2793091,2.4734254,159.0
18222,10.996507,-5.8607216,6.770607,3.4281738,-0.67650145,2.7930908,159.0
18223,10.899061,-5.5355225,7.2799606,3.4281738,-0.67650145,2.7930908,159.0
18224,10.899061,-5.5355225,7.2799606,4.1418457,-1.5261109,3.3400269,159.0
18225,9.79138,-4.316345,8.431,4.1418457,-1.5261109,3.3400269,159.0
18226,9.79138,-4.316345,8.431,4.157776,-2.265271,3.9952881,159.0
18227,6.625182,-2.6741943,9.012733,4.157776,-2.265271,3.9952881,159.0
18228,6.625182,-2.6741943,9.012733,3.074524,-2.809021,4.798169,159.0
18229,2.1629875,-0.5951538,7.9698677,3.074524,-2.809021,4.798169,159.0
18230,2.1629875,-0.5951538,7.9698677,1.6854126,-2.9194703,5.61167,159.0
18231,-2.251043,1.663208,5.8936157,1.6854126,-2.9194703,5.61167,159.0
18232,-2.251043,1.663208,5.8936157,0.7051758,-2.88761,6.4538455,159.0
18233,-5.6261764,4.733631,3.7567139,0.7051758,-2.88761,6.4538455,159.0
18234,-5.6261764,4.733631,3.7567139,0.078588866,-2.6465333,7.2609744,159.0
18235,-7.7995615,9.596111,2.8278313,0.078588866,-2.6465333,7.2609744,159.0
18236,-7.7995615,9.596111,2.8278313,-0.2899292,-2.3895264,7.8705688,159.0
18237,-10.165724,16.0979,3.1179276,-0.2899292,-2.3895264,7.8705688,159.0
18238,-10.165724,16.0979,3.1179276,-0.5522461,-2.085791,8.585303,159.0
18239,-13.550854,20.342102,3.0167923,-0.5522461,-2.085791,8.585303,159.0
18240,-13.550854,20.342102,3.0167923,-1.8266602,-1.9286133,9.109937,159.0
18241,-16.408554,18.66072,1.7141418,-1.8266602,-1.9286133,9.109937,159.0
18242,-16.408554,18.66072,1.7141418,-3.8274903,-1.630188,8.895411,159.0
18243,-16.408554,18.66072,1.7141418,-3.8274903,-1.630188,8.895411,157.0
18244,-17.45,11.630539,-0.6768074,-3.8274903,-1.630188,8.895411,157.0
18245,-17.45,11.630539,-0.6768074,-5.538391,-1.3721192,7.881189,157.0
18246,-16.835112,0.827198,-5.2333145,-5.538391,-1.3721192,7.881189,157.0
18247,-16.835112,0.827198,-5.2333145,-5.121021,-0.97280276,6.427295,157.0
18248,-13.552795,-11.398827,-11.934517,-5.121021,-0.97280276,6.427295,157.0
18249,-13.552795,-11.398827,-11.934517,-2.884424,-0.20603028,4.690906,157.0
18250,-8.40918,-20.86596,-19.033806,-2.884424,-0.20603028,4.690906,157.0
18251,-8.40918,-20.86596,-19.033806,-0.30373535,1.536731,2.7198122,157.0
18252,-6.349415,-25.059097,-22.933918,-0.30373535,1.536731,2.7198122,157.0
18253,-6.349415,-25.059097,-22.933918,-0.5479981,3.6904907,-0.07646485,157.0
18254,-8.329437,-25.873436,-22.06973,-0.5479981,3.6904907,-0.07646485,157.0
18255,-8.329437,-25.873436,-22.06973,-2.6730835,5.6318483,-3.0585938,157.0
18256,-10.1181755,-25.143173,-19.57014,-2.6730835,5.6318483,-3.0585938,157.0
18257,-10.1181755,-25.143173,-19.57014,-1.6896607,7.224866,-5.983374,157.0
18258,-10.317928,-21.519714,-17.38326,-1.6896607,7.224866,-5.983374,157.0
18259,-10.317928,-21.519714,-17.38326,1.5898316,8.505652,-8.636279,157.0
18260,-11.047459,-14.833191,-14.410844,1.5898316,8.505652,-8.636279,157.0
18261,-11.047459,-14.833191,-14.410844,4.7641845,8.52052,-10.899426,157.0
18262,-13.672024,-6.8366547,-9.913026,4.7641845,8.52052,-10.899426,157.0
18263,-13.672024,-6.8366547,-9.913026,5.7051272,8.005445,-12.281104,157.0
18264,-18.139744,3.2480698,-2.9067392,5.7051272,8.005445,-12.281104,157.0
18265,-18.139744,3.2480698,-2.9067392,3.8200562,7.2832766,-12.384119,157.0
18266,-22.727715,20.496758,8.387133,3.8200562,7.2832766,-12.384119,157.0
18267,-22.727715,20.496758,8.387133,1.6121339,7.404346,-10.164515,157.0
18268,-21.160408,39.663677,18.78766,1.6121339,7.404346,-10.164515,157.0
18269,-21.160408,39.663677,18.78766,3.4844606,5.985498,-6.3189697,157.0
18270,-8.839897,45.53813,22.052017,3.4844606,5.985498,-6.3189697,157.0
18271,-8.839897,45.53813,22.052017,6.141614,3.4568481,-1.1044922,157.0
18272,10.009514,33.69276,21.615345,6.141614,3.4568481,-1.1044922,157.0
18273,10.009514,33.69276,21.615345,3.3803833,2.265271,1.5760254,157.0
18274,25.906502,12.076622,18.922207,3.3803833,2.265271,1.5760254,157.0
18275,25.906502,12.076622,18.922207,1.2255615,0.46622315,2.6794555,157.0
18276,35.80556,-8.452301,13.68774,1.2255615,0.46622315,2.6794555,157.0
18277,35.80556,-8.452301,13.68774,2.6815796,-0.56392825,3.612964,157.0
18278,43.050835,-20.676159,11.268883,2.6815796,-0.56392825,3.612964,157.0
18279,43.050835,-20.676159,11.268883,4.7429442,-0.7519043,4.245923,157.0
18280,44.780136,-22.693123,13.55003,4.7429442,-0.7519043,4.245923,157.0
18281,44.780136,-22.693123,13.55003,4.0282106,-1.3275146,3.6522584,157.0
18282,38.062233,-19.090118,15.737545,4.0282106,-1.3275146,3.6522584,157.0
18283,38.062233,-19.090118,15.737545,3.7489014,-2.3003175,4.1269774,157.0
18284,27.778069,-14.804794,14.381882,3.7489014,-2.3003175,4.1269774,157.0
18285,27.778069,-14.804794,14.381882,4.1885743,-3.2964845,4.895874,157.0
18286,17.453094,-9.854137,9.68483,4.1885743,-3.2964845,4.895874,157.0
18287,17.453094,-9.854137,9.68483,2.6019287,-4.1429076,5.893103,157.0
18288,7.269202,-4.3758507,3.6794434,2.6019287,-4.1429076,5.893103,157.0
18289,7.269202,-4.3758507,3.6794434,0.4343628,-4.6632934,6.4495974,157.0
18290,-1.5107,0.41308975,-1.5770378,0.4343628,-4.6632934,6.4495974,157.0
18291,-1.5107,0.41308975,-1.5770378,-0.6988037,-5.0211916,6.784131,157.0
18292,-6.9606843,4.5759544,-5.336788,-0.6988037,-5.0211916,6.784131,157.0
18293,-6.9606843,4.5759544,-5.336788,-0.31223145,-5.04137,6.981665,157.0
18294,-9.597259,8.341843,-7.275631,-0.31223145,-5.04137,6.981665,157.0
18295,-9.597259,8.341843,-7.275631,0.31010744,-4.6611695,7.693213,157.0
18296,-10.336462,11.664295,-7.4384766,0.31010744,-4.6611695,7.693213,157.0
18297,-10.336462,11.664295,-7.4384766,-0.3069214,-3.9751098,7.800476,157.0
18298,-9.432976,16.394741,-5.7337265,-0.3069214,-3.9751098,7.800476,157.0
18299,-9.432976,16.394741,-5.7337265,-0.49489745,-2.9566407,7.787732,157.0
18300,-9.320587,22.806152,-2.9179764,-0.49489745,-2.9566407,7.787732,157.0
18301,-9.320587,22.806152,-2.9179764,0.77526855,-1.906311,8.73717,157.0
18302,-11.235596,27.2807,-0.82460403,0.77526855,-1.906311,8.73717,157.0
18303,-11.235596,27.2807,-0.82460403,0.6138428,-0.5214478,9.500757,157.0
18304,-14.183619,26.173023,0.36854935,0.6138428,-0.5214478,9.500757,157.0
18305,-14.183619,26.173023,0.36854935,-3.5609252,1.1108643,8.798767,157.0
18306,-16.565681,17.502956,0.5049095,-3.5609252,1.1108643,8.798767,157.0
18307,-16.565681,17.502956,0.5049095,-7.0910525,1.63125,7.516919,157.0
18308,-16.15815,1.4881687,-2.4702911,-7.0910525,1.63125,7.516919,157.0
18309,-16.15815,1.4881687,-2.4702911,-6.761829,1.3848633,6.628015,157.0
18310,-11.910736,-16.643536,-8.794666,-6.761829,1.3848633,6.628015,157.0
18311,-11.910736,-16.643536,-8.794666,-4.6463013,1.5940796,4.7408204,157.0
18312,-5.968336,-28.698776,-15.225517,-4.6463013,1.5940796,4.7408204,157.0
18313,-5.968336,-28.698776,-15.225517,-0.45560303,2.529712,2.909912,157.0
18314,-3.2067986,-32.000916,-18.910553,-0.45560303,2.529712,2.909912,157.0
18315,-3.2067986,-32.000916,-18.910553,2.6104248,4.0292726,0.021240234,157.0
18316,-5.461788,-30.075539,-19.25475,2.6104248,4.0292726,0.021240234,157.0
18317,-5.461788,-30.075539,-19.25475,1.629126,5.45343,-2.9226563,157.0
18318,-9.704735,-26.973862,-17.148808,1.629126,5.45343,-2.9226563,157.0
18319,-9.704735,-26.973862,-17.148808,0.028674318,6.8563476,-5.5606933,157.0
18320,-12.398735,-22.701149,-14.238796,0.028674318,6.8563476,-5.5606933,157.0
18321,-12.398735,-22.701149,-14.238796,-0.70942384,8.088282,-7.8185306,157.0
18322,-12.690155,-16.470901,-12.324339,-0.70942384,8.088282,-7.8185306,157.0
18323,-12.690155,-16.470901,-12.324339,1.0237793,9.030286,-9.72378,157.0
18324,-12.3810425,-9.56395,-10.347349,1.0237793,9.030286,-9.72378,157.0
18325,-12.3810425,-9.56395,-10.347349,4.056885,9.310657,-11.003504,157.0
18326,-13.465725,-2.20327,-5.545738,4.056885,9.310657,-11.003504,157.0
18327,-13.465725,-2.20327,-5.545738,4.551782,8.653272,-11.5546875,157.0
18328,-16.148212,5.3342133,2.0403385,4.551782,8.653272,-11.5546875,157.0
18329,-16.148212,5.3342133,2.0403385,2.2196045,8.587427,-11.469727,157.0
18330,-19.740128,13.346336,10.885298,2.2196045,8.587427,-11.469727,157.0
18331,-19.740128,13.346336,10.885298,-2.1951783,9.320215,-10.457629,157.0
18332,-19.842674,24.206352,20.011925,-2.1951783,9.320215,-10.457629,157.0
18333,-19.842674,24.206352,20.011925,-5.166687,10.215491,-7.167517,157.0
18334,-10.508209,31.245087,25.153572,-5.166687,10.215491,-7.167517,157.0
18335,-10.508209,31.245087,25.153572,-2.4851074,6.3773804,-2.1335816,157.0
18336,5.802208,25.44949,21.972054,-2.4851074,6.3773804,-2.1335816,157.0
18337,5.802208,25.44949,21.972054,2.9555786,1.6737305,1.4379638,157.0
18338,21.022808,11.84272,15.265827,2.9555786,1.6737305,1.4379638,157.0
18339,21.022808,11.84272,15.265827,6.3306518,-0.2782471,2.444751,157.0
18340,31.607922,0.0860672,10.494362,6.3306518,-0.2782471,2.444751,157.0
18341,31.607922,0.0860672,10.494362,6.0959473,-0.5692383,2.5583863,157.0
18342,38.21965,-7.1359177,8.594917,6.0959473,-0.5692383,2.5583863,157.0
18343,38.21965,-7.1359177,8.594917,5.356787,-0.7593384,3.6596925,157.0
18344,39.58661,-11.809662,8.356792,5.356787,-0.7593384,3.6596925,157.0
18345,39.58661,-11.809662,8.356792,4.246985,-1.3912354,4.2767215,157.0
18346,35.37732,-14.804234,8.635189,4.246985,-1.3912354,4.2767215,157.0
18347,35.37732,-14.804234,8.635189,3.0288575,-1.8840088,4.69303,157.0
18348,28.132019,-15.507278,8.513634,3.0288575,-1.8840088,4.69303,157.0
18349,28.132019,-15.507278,8.513634,1.3774292,-2.8408813,4.833215,157.0
18350,28.132019,-15.507278,8.513634,1.3774292,-2.8408813,4.833215,155.0
18351,19.77483,-14.095337,5.484867,1.3774292,-2.8408813,4.833215,155.0
