,accx,accy,accz,gyrox,gyroy,gyroz,heart rate
16790,run,run,run,run,run,run,run
16791,-0.022607803,0.0262146,0.037010193,0.008496094,0.06478272,0.020178223,131.0
16792,-0.022607803,0.0262146,0.037010193,-0.032922365,-0.03079834,-0.03079834,131.0
16793,-0.01663351,0.022033691,0.029022217,-0.032922365,-0.03079834,-0.03079834,131.0
16794,-0.01663351,0.022033691,0.029022217,-0.010620117,-0.043542482,-0.009558106,131.0
16795,-0.014698029,0.019203186,0.019664764,-0.010620117,-0.043542482,-0.009558106,131.0
16796,0.11166668,-0.7455597,-0.2843628,-0.010620117,-0.043542482,-0.009558106,131.0
16797,0.11166668,-0.7455597,-0.2843628,0.004248047,-0.057348635,0.014868164,131.0
16798,0.15283442,-0.5735016,-0.32035065,0.004248047,-0.057348635,0.014868164,131.0
16799,0.15283442,-0.5735016,-0.32035065,0.012744141,-0.057348635,0.026550293,131.0
16800,0.13985777,-0.44126892,-0.09688187,0.012744141,-0.057348635,0.026550293,131.0
16801,0.13985777,-0.44126892,-0.09688187,-0.008496094,-0.033984374,-0.0010620117,131.0
16802,0.13985777,-0.44126892,-0.09688187,-0.023364259,-0.013806152,-0.050976563,131.0
16803,0.07629061,-0.37361908,0.11230469,-0.023364259,-0.013806152,-0.050976563,131.0
16804,0.020175457,-0.3424225,0.11664963,-0.023364259,-0.013806152,-0.050976563,131.0
16805,0.020175457,-0.3424225,0.11664963,-0.008496094,-0.0053100586,-0.0541626,131.0
16806,0.03052044,-0.27573395,-0.011161804,-0.008496094,-0.0053100586,-0.0541626,131.0
16807,0.03052044,-0.27573395,-0.011161804,-0.026550293,0.0,-0.026550293,131.0
16808,0.08829594,-0.17851257,-0.06724548,-0.026550293,0.0,-0.026550293,131.0
16809,0.08829594,-0.17851257,-0.06724548,-0.0180542,0.0010620117,0.008496094,131.0
16810,0.09986019,-0.10030365,-0.040122986,-0.0180542,0.0010620117,0.008496094,131.0
16811,0.09986019,-0.10030365,-0.040122986,-0.03079834,0.008496094,-0.0010620117,131.0
16812,0.06692457,-0.07699585,-0.035442352,-0.03079834,0.008496094,-0.0010620117,131.0
16813,0.06692457,-0.07699585,-0.035442352,-0.04248047,0.012744141,-0.03186035,131.0
16814,0.041027546,-0.10484314,-0.045837402,-0.04248047,0.012744141,-0.03186035,131.0
16815,0.041027546,-0.10484314,-0.045837402,-0.021240234,0.0031860352,-0.035046387,131.0
16816,0.02151823,-0.123291016,-0.06474686,-0.021240234,0.0031860352,-0.035046387,131.0
16817,0.02151823,-0.123291016,-0.06474686,-0.02442627,0.008496094,-0.046728518,131.0
16818,0.020852089,-0.08933258,-0.062431335,-0.02442627,0.008496094,-0.046728518,131.0
16819,0.020852089,-0.08933258,-0.062431335,-0.04460449,0.011682129,-0.06796875,131.0
16820,0.07465267,-0.05445099,-0.05986786,-0.04460449,0.011682129,-0.06796875,131.0
16821,0.07465267,-0.05445099,-0.05986786,-0.014868164,-0.019116212,0.026550293,131.0
16822,0.11338425,-0.078811646,-0.0797081,-0.014868164,-0.019116212,0.026550293,131.0
16823,0.11338425,-0.078811646,-0.0797081,-0.019116212,-0.025488282,0.14655761,131.0
16824,0.07248211,-0.09664154,-0.041217804,-0.019116212,-0.025488282,0.14655761,131.0
16825,0.07248211,-0.09664154,-0.041217804,-0.013806152,-0.011682129,0.014868164,131.0
16826,0.0033106804,-0.045181274,0.04530716,-0.013806152,-0.011682129,0.014868164,131.0
16827,0.0033106804,-0.045181274,0.04530716,-0.081774905,0.016992187,0.035046387,131.0
16828,0.0033106804,-0.045181274,0.04530716,-0.10513916,0.02442627,0.035046387,131.0
16829,-0.03149414,-0.02368164,0.0758934,-0.10513916,0.02442627,0.035046387,131.0
16830,-0.032678127,-0.085121155,-0.0011634827,-0.10513916,0.02442627,0.035046387,131.0
16831,-0.032678127,-0.085121155,-0.0011634827,-0.15930176,0.011682129,0.070092775,131.0
16832,-0.011579514,-0.066604614,-0.12096405,-0.15930176,0.011682129,0.070092775,131.0
16833,-0.011579514,-0.066604614,-0.12096405,-0.18797608,0.0010620117,0.04885254,131.0
16834,0.03316784,0.09731293,-0.18482208,-0.18797608,0.0010620117,0.04885254,131.0
16835,0.03316784,0.09731293,-0.18482208,-0.14549561,-0.053100586,0.016992187,131.0
16836,0.0953331,0.18578339,-0.25774384,-0.14549561,-0.053100586,0.016992187,131.0
16837,0.0953331,0.18578339,-0.25774384,-0.29205322,-0.05522461,-0.0021240234,131.0
16838,0.09936237,0.077041626,-0.3074875,-0.29205322,-0.05522461,-0.0021240234,131.0
16839,0.09936237,0.077041626,-0.3074875,-0.11682129,-0.121069334,-0.027612304,131.0
16840,0.05716324,-0.05883789,-0.27717972,-0.11682129,-0.121069334,-0.027612304,131.0
16841,0.05716324,-0.05883789,-0.27717972,-0.115759276,-0.115759276,-0.038232423,131.0
16842,0.0077176094,-0.13938904,-0.17085266,-0.115759276,-0.115759276,-0.038232423,131.0
16843,0.0077176094,-0.13938904,-0.17085266,-0.011682129,-0.13168946,-0.033984374,131.0
16844,-0.012172699,-0.13932037,-0.025123596,-0.011682129,-0.13168946,-0.033984374,131.0
16845,-0.012172699,-0.13932037,-0.025123596,0.027612304,-0.11257324,-0.032922365,131.0
16846,-0.013803005,-0.076431274,0.13135529,0.027612304,-0.11257324,-0.032922365,131.0
16847,-0.013803005,-0.076431274,0.13135529,0.0541626,-0.08496094,-0.04248047,131.0
16848,-0.018403053,-0.0019683838,0.2425232,0.0541626,-0.08496094,-0.04248047,131.0
16849,-0.018403053,-0.0019683838,0.2425232,0.03717041,-0.04885254,-0.05522461,131.0
16850,-0.02575779,0.053993225,0.25543213,0.03717041,-0.04885254,-0.05522461,131.0
16851,-0.02575779,0.053993225,0.25543213,-0.0031860352,-0.021240234,-0.06796875,131.0
16852,-0.021082401,0.06334686,0.18305588,-0.0031860352,-0.021240234,-0.06796875,131.0
16853,-0.021082401,0.06334686,0.18305588,-0.033984374,-0.004248047,-0.06903076,131.0
16854,-0.021082401,0.06334686,0.18305588,-0.060534667,0.009558106,-0.06584473,131.0
16855,0.0055828094,0.030647278,0.037921906,-0.060534667,0.009558106,-0.06584473,131.0
16856,0.06474447,0.010673523,-0.1662674,-0.060534667,0.009558106,-0.06584473,131.0
16857,0.06474447,0.010673523,-0.1662674,-0.09133301,-0.0010620117,-0.06796875,131.0
16858,0.14336061,0.014656067,-0.3819275,-0.09133301,-0.0010620117,-0.06796875,131.0
16859,0.14336061,0.014656067,-0.3819275,-0.1444336,-0.019116212,-0.07965088,131.0
16860,0.21760559,0.005607605,-0.541626,-0.1444336,-0.019116212,-0.07965088,131.0
16861,0.21760559,0.005607605,-0.541626,-0.21983643,-0.05628662,-0.10938721,131.0
16862,0.25305176,-0.01638794,-0.6357193,-0.21983643,-0.05628662,-0.10938721,131.0
16863,0.25305176,-0.01638794,-0.6357193,-0.28568116,-0.12956543,-0.1444336,131.0
16864,0.2770753,-0.04547119,-0.6630287,-0.28568116,-0.12956543,-0.1444336,131.0
16865,0.2770753,-0.04547119,-0.6630287,-0.35789797,-0.22302246,-0.16885987,131.0
16866,0.318511,-0.09423828,-0.64852524,-0.35789797,-0.22302246,-0.16885987,131.0
16867,0.318511,-0.09423828,-0.64852524,-0.4619751,-0.3430298,-0.18160401,131.0
16868,0.3784418,-0.14385986,-0.60990906,-0.4619751,-0.3430298,-0.18160401,131.0
16869,0.3784418,-0.14385986,-0.60990906,-0.5894165,-0.48321533,-0.18691407,131.0
16870,0.4310131,-0.10783386,-0.41573715,-0.5894165,-0.48321533,-0.18691407,131.0
16871,0.4310131,-0.10783386,-0.41573715,-0.6435791,-0.5766724,-0.18585205,131.0
16872,0.3828354,0.12876129,-0.05253601,-0.6435791,-0.5766724,-0.18585205,131.0
16873,0.3828354,0.12876129,-0.05253601,-0.8421753,-0.57561034,-0.20284425,131.0
16874,0.19434214,0.4519577,0.18626785,-0.8421753,-0.57561034,-0.20284425,131.0
16875,0.19434214,0.4519577,0.18626785,-1.0981201,-0.54906005,-0.2347046,131.0
16876,-0.0017771721,0.6403122,0.0014305115,-1.0981201,-0.54906005,-0.2347046,131.0
16877,-0.0017771721,0.6403122,0.0014305115,-1.3338867,-0.5246338,-0.26868898,131.0
16878,-0.07238102,0.5858383,-0.5540428,-1.3338867,-0.5246338,-0.26868898,131.0
16879,-0.07238102,0.5858383,-0.5540428,-1.3965454,-0.56605226,-0.29736328,131.0
16880,0.007549286,0.39183807,-1.0524864,-1.3965454,-0.56605226,-0.29736328,131.0
16881,0.007549286,0.39183807,-1.0524864,-1.3232666,-0.6085327,-0.37382814,131.0
16882,0.16871023,0.15705109,-1.1937828,-1.3232666,-0.6085327,-0.37382814,131.0
16883,0.16871023,0.15705109,-1.1937828,-1.2786621,-0.62127686,-0.48321533,131.0
16884,0.30571985,-0.16311646,-1.0808296,-1.2786621,-0.62127686,-0.48321533,131.0
16885,0.30571985,-0.16311646,-1.0808296,-1.1490967,-0.6085327,-0.5915405,131.0
16886,0.35262012,-0.38032532,-0.9907875,-1.1490967,-0.6085327,-0.5915405,131.0
16887,0.35262012,-0.38032532,-0.9907875,-1.0036011,-0.58304447,-0.70092773,131.0
16888,0.25090694,-0.25242615,-1.0584412,-1.0036011,-0.58304447,-0.70092773,131.0
16889,0.25090694,-0.25242615,-1.0584412,-0.91757816,-0.5915405,-0.8071289,131.0
16890,0.13320827,0.46281433,-1.2458496,-0.91757816,-0.5915405,-0.8071289,131.0
16891,0.13320827,0.46281433,-1.2458496,-1.622754,-0.5894165,-1.2128174,131.0
16892,0.079857826,1.1220703,-1.4071541,-1.622754,-0.5894165,-1.2128174,131.0
16893,0.079857826,1.1220703,-1.4071541,-1.6726685,-0.70942384,-1.0503296,131.0
16894,0.195539,0.9727402,-1.3767853,-1.6726685,-0.70942384,-1.0503296,131.0
16895,0.195539,0.9727402,-1.3767853,-2.1091554,-0.8517334,-1.1512207,131.0
16896,0.40837193,-0.023239136,-0.9898071,-2.1091554,-0.8517334,-1.1512207,131.0
16897,0.40837193,-0.023239136,-0.9898071,-1.7427613,-1.0524536,-1.1448487,131.0
16898,0.6216192,-1.2101059,-0.5197754,-1.7427613,-1.0524536,-1.1448487,131.0
16899,0.6216192,-1.2101059,-0.5197754,-1.2446778,-1.2372437,-1.0598878,131.0
16900,0.82520056,-1.7398376,-0.3050537,-1.2446778,-1.2372437,-1.0598878,131.0
16901,0.82520056,-1.7398376,-0.3050537,-0.904834,-1.2287476,-1.1225464,131.0
16902,0.8865886,-1.3704987,-0.4375229,-0.904834,-1.2287476,-1.1225464,131.0
16903,0.8865886,-1.3704987,-0.4375229,-0.6085327,-1.1905152,-1.0535157,131.0
16904,0.9034357,-0.60459137,-0.6541214,-0.6085327,-1.1905152,-1.0535157,131.0
16905,0.9034357,-0.60459137,-0.6541214,-0.60216063,-1.0067872,-0.7975708,131.0
16906,0.9360299,-0.14955139,-0.63615036,-0.60216063,-1.0067872,-0.7975708,131.0
16907,0.9360299,-0.14955139,-0.63615036,-0.49383545,-0.85385746,-0.6860596,131.0
16908,0.9009967,0.099998474,-0.49855804,-0.49383545,-0.85385746,-0.6860596,131.0
16909,0.9009967,0.099998474,-0.49855804,-0.71367186,-0.59472656,-0.63933104,131.0
16910,0.7990322,0.54582214,-0.4875908,-0.71367186,-0.59472656,-0.63933104,131.0
16911,0.7990322,0.54582214,-0.4875908,-0.8591675,-0.53100586,-0.6180908,131.0
16912,0.7650924,1.1705322,-0.68821716,-0.8591675,-0.53100586,-0.6180908,131.0
16913,0.7650924,1.1705322,-0.68821716,-1.3137085,-0.42268068,-0.67331547,131.0
16914,0.9348521,1.3547592,-0.9084587,-1.3137085,-0.42268068,-0.67331547,131.0
16915,0.9348521,1.3547592,-0.9084587,-1.6121339,-0.33134767,-0.7391602,131.0
16916,1.170831,0.8335495,-0.931015,-1.6121339,-0.33134767,-0.7391602,131.0
16917,1.170831,0.8335495,-0.931015,-1.6418701,-0.29948732,-0.81031495,131.0
16918,1.2132517,0.5000763,-0.86556244,-1.6418701,-0.29948732,-0.81031495,131.0
16919,1.2132517,0.5000763,-0.86556244,-1.8500245,-0.24213867,-0.92713624,131.0
16920,0.9891194,0.8857193,-0.98361206,-1.8500245,-0.24213867,-0.92713624,131.0
16921,0.9891194,0.8857193,-0.98361206,-2.3704102,-0.0998291,-0.9303223,131.0
16922,0.5824821,1.445816,-1.3165283,-2.3704102,-0.0998291,-0.9303223,131.0
16923,0.5824821,1.445816,-1.3165283,-2.6698976,0.035046387,-1.1034302,131.0
16924,0.14931083,1.841896,-1.7424812,-2.6698976,0.035046387,-1.1034302,131.0
16925,0.14931083,1.841896,-1.7424812,-2.889734,0.19222413,-1.1236085,131.0
16926,-0.17022419,2.0036469,-2.1371384,-2.889734,0.19222413,-1.1236085,131.0
16927,-0.17022419,2.0036469,-2.1371384,-2.71344,0.34727785,-1.4071655,131.0
16928,-0.33622813,1.9514313,-2.4073906,-2.71344,0.34727785,-1.4071655,131.0
16929,-0.33622813,1.9514313,-2.4073906,-2.345984,0.4619751,-1.6864747,131.0
16930,-0.07869935,1.8355103,-2.5049896,-2.345984,0.4619751,-1.6864747,131.0
16931,-0.07869935,1.8355103,-2.5049896,-2.1208375,0.49171144,-1.5728394,131.0
16932,0.5508833,1.8393555,-2.3502426,-2.1208375,0.49171144,-1.5728394,131.0
16933,0.5508833,1.8393555,-2.3502426,-2.716626,0.8602295,-1.9116211,131.0
16934,1.0801476,1.8686371,-1.9355049,-2.716626,0.8602295,-1.9116211,131.0
16935,1.0801476,1.8686371,-1.9355049,-2.879114,1.1023682,-2.2185426,131.0
16936,1.3714423,1.8175049,-1.374649,-2.879114,1.1023682,-2.2185426,131.0
16937,1.3714423,1.8175049,-1.374649,-2.9311523,1.3689331,-2.5307739,131.0
16938,1.5005231,1.8959198,-0.91713715,-2.9311523,1.3689331,-2.5307739,131.0
16939,1.5005231,1.8959198,-0.91713715,-3.3124146,1.627002,-2.7750366,131.0
16940,1.6016514,1.9485474,-0.762764,-3.3124146,1.627002,-2.7750366,131.0
16941,1.6016514,1.9485474,-0.762764,-4.043079,1.81073,-2.7867188,131.0
16942,1.7415994,1.6448975,-0.80402374,-4.043079,1.81073,-2.7867188,131.0
16943,1.7415994,1.6448975,-0.80402374,-4.532666,1.9116211,-2.6295412,131.0
16944,1.7854671,1.2938232,-0.5412903,-4.532666,1.9116211,-2.6295412,131.0
16945,1.7854671,1.2938232,-0.5412903,-5.042432,2.066675,-2.3895264,131.0
16946,1.8594773,1.168251,0.2243309,-5.042432,2.066675,-2.3895264,131.0
16947,1.8594773,1.168251,0.2243309,-5.904785,2.250403,-1.9466676,131.0
16948,1.9742274,0.6256256,0.8972626,-5.904785,2.250403,-1.9466676,131.0
16949,1.9742274,0.6256256,0.8972626,-5.27395,2.2748291,-1.263794,131.0
16950,1.3662839,-0.04560852,1.1489029,-5.27395,2.2748291,-1.263794,131.0
16951,1.3662839,-0.04560852,1.1489029,-3.6607544,2.073047,-0.66269535,131.0
16952,0.04039049,0.24178314,1.310894,-3.6607544,2.073047,-0.66269535,131.0
16953,0.04039049,0.24178314,1.310894,-2.353418,1.7438233,0.011682129,131.0
16954,-0.7070675,1.41082,1.4903183,-2.353418,1.7438233,0.011682129,131.0
16955,-0.7070675,1.41082,1.4903183,-1.807544,1.5048707,0.452417,131.0
16956,-0.07839823,2.4225616,1.5755539,-1.807544,1.5048707,0.452417,131.0
16957,-0.07839823,2.4225616,1.5755539,-2.1431396,1.3922974,0.52038574,131.0
16958,1.1672008,2.1385727,1.6124077,-2.1431396,1.3922974,0.52038574,131.0
16959,1.1672008,2.1385727,1.6124077,-2.2302246,1.3147706,0.41312256,131.0
16960,1.6474082,0.8116226,1.7332268,-2.2302246,1.3147706,0.41312256,131.0
16961,1.6474082,0.8116226,1.7332268,-2.0082643,1.2372437,0.20603028,131.0
16962,0.98103714,-0.2917328,1.846653,-2.0082643,1.2372437,0.20603028,131.0
16963,0.98103714,-0.2917328,1.846653,-1.6461182,1.1852051,-0.013806152,131.0
16964,-0.2741425,-0.6807022,1.7578163,-1.6461182,1.1852051,-0.013806152,131.0
16965,-0.2741425,-0.6807022,1.7578163,-1.1246704,1.0981201,-0.1263794,131.0
16966,-1.3530543,-0.4760208,1.4986992,-1.1246704,1.0981201,-0.1263794,131.0
16967,-1.3530543,-0.4760208,1.4986992,-0.5246338,0.9855469,-0.0541626,131.0
16968,-1.7060518,0.11906433,1.2804527,-0.5246338,0.9855469,-0.0541626,131.0
16969,-1.7060518,0.11906433,1.2804527,-0.05628662,0.8963379,0.16673584,131.0
16970,-1.3559303,0.66895294,1.1371689,-0.05628662,0.8963379,0.16673584,131.0
16971,-1.3559303,0.66895294,1.1371689,0.2548828,0.8527954,0.41099855,131.0
16972,-0.67529607,0.957077,1.0060501,0.2548828,0.8527954,0.41099855,131.0
16973,-0.67529607,0.957077,1.0060501,0.21452637,0.8591675,0.5979126,131.0
16974,-0.101809144,0.85079193,1.1236153,0.21452637,0.8591675,0.5979126,131.0
16975,-0.101809144,0.85079193,1.1236153,-0.1901001,0.9388184,0.7168579,131.0
16976,0.008677125,0.2742386,1.4893837,-0.1901001,0.9388184,0.7168579,131.0
16977,0.008677125,0.2742386,1.4893837,-0.53737795,0.99510497,0.8400513,131.0
16978,-0.1774211,-0.55856323,1.6569862,-0.53737795,0.99510497,0.8400513,131.0
16979,-0.1774211,-0.55856323,1.6569862,-0.5150757,0.9451904,0.96218264,131.0
16980,-0.2992611,-1.286644,1.4605637,-0.5150757,0.9451904,0.96218264,131.0
16981,-0.2992611,-1.286644,1.4605637,-0.4630371,0.89102787,1.0588257,131.0
16982,-0.36105192,-1.6849747,1.1515198,-0.4630371,0.89102787,1.0588257,131.0
16983,-0.36105192,-1.6849747,1.1515198,-0.5055176,0.8442993,1.083252,131.0
16984,-0.47897828,-1.7915573,0.7471695,-0.5055176,0.8442993,1.083252,131.0
16985,-0.47897828,-1.7915573,0.7471695,-0.16567384,0.7412842,1.0694458,131.0
16986,-0.7320473,-1.5723572,0.14550018,-0.16567384,0.7412842,1.0694458,131.0
16987,-0.7320473,-1.5723572,0.14550018,0.04141846,0.57561034,0.96218264,131.0
16988,-1.1366144,-1.0164108,-0.54439163,0.04141846,0.57561034,0.96218264,131.0
16989,-1.1366144,-1.0164108,-0.54439163,0.13275146,0.2793091,0.77314454,131.0
16990,-1.5156636,-0.36774445,-1.0237465,0.13275146,0.2793091,0.77314454,131.0
16991,-1.5156636,-0.36774445,-1.0237465,0.16885987,-0.09451904,0.5692383,131.0
16992,-1.6258854,0.1327591,-1.2107811,0.16885987,-0.09451904,0.5692383,131.0
16993,-1.6258854,0.1327591,-1.2107811,0.3419678,-0.4970215,0.39506838,131.0
16994,-1.4744877,0.40387726,-1.2808571,0.3419678,-0.4970215,0.39506838,131.0
16995,-1.4744877,0.40387726,-1.2808571,0.542688,-0.91120607,0.26762697,131.0
16996,-1.0704958,0.20764923,-1.3990746,0.542688,-0.91120607,0.26762697,131.0
16997,-1.0704958,0.20764923,-1.3990746,1.0004151,-1.3094605,0.15611573,131.0
16998,-0.38942885,-0.4792633,-1.5149612,1.0004151,-1.3094605,0.15611573,131.0
16999,-0.38942885,-0.4792633,-1.5149612,1.6046997,-1.6057618,0.0722168,131.0
17000,0.46716785,-1.2883759,-1.5562057,1.6046997,-1.6057618,0.0722168,131.0
17001,0.46716785,-1.2883759,-1.5562057,2.259961,-1.9317993,0.270813,131.0
17002,1.496952,-1.6130524,-1.5409241,2.259961,-1.9317993,0.270813,131.0
17003,1.496952,-1.6130524,-1.5409241,2.8430054,-2.18031,0.48321533,131.0
17004,2.4632478,-1.0679321,-1.4294662,2.8430054,-2.18031,0.48321533,131.0
17005,2.4632478,-1.0679321,-1.4294662,3.0532837,-2.267395,0.6425171,131.0
17006,2.8091235,-0.16021729,-1.1672783,3.0532837,-2.267395,0.6425171,131.0
17007,2.8091235,-0.16021729,-1.1672783,2.9184082,-2.2185426,0.7986328,131.0
17008,2.4344082,0.49965668,-0.7380104,2.9184082,-2.2185426,0.7986328,131.0
17009,2.4344082,0.49965668,-0.7380104,2.7527344,-2.1357057,0.99298096,131.0
17010,1.5835373,1.161911,-0.20555878,2.7527344,-2.1357057,0.99298096,131.0
17011,1.5835373,1.161911,-0.20555878,2.5127199,-1.987024,1.1618408,131.0
17012,0.6493373,2.0536346,0.3494072,2.5127199,-1.987024,1.1618408,131.0
17013,0.6493373,2.0536346,0.3494072,1.8808228,-1.7661256,1.3912354,131.0
17014,-0.08123803,2.7121353,0.8578453,1.8808228,-1.7661256,1.3912354,131.0
17015,-0.08123803,2.7121353,0.8578453,1.3455689,-1.4804443,1.6046997,131.0
17016,-0.08123803,2.7121353,0.8578453,1.3455689,-1.4804443,1.6046997,0.0
17017,-0.48964858,2.8366241,1.0852013,1.3455689,-1.4804443,1.6046997,0.0
17018,-0.48964858,2.8366241,1.0852013,0.5012695,-1.2542359,1.7820557,0.0
17019,-0.48681164,2.3674316,0.8655968,0.5012695,-1.2542359,1.7820557,0.0
17020,-0.48681164,2.3674316,0.8655968,-0.37701416,-1.1236085,1.8818848,0.0
17021,-0.26889277,1.4215927,0.4158554,-0.37701416,-1.1236085,1.8818848,0.0
17022,-0.26889277,1.4215927,0.4158554,-0.68499756,-1.0970582,1.8479004,0.0
17023,-0.07924986,0.4964447,0.09752655,-0.68499756,-1.0970582,1.8479004,0.0
17024,-0.07924986,0.4964447,0.09752655,-1.0004151,-1.0110352,1.6960328,0.0
17025,0.11776471,-0.26717377,0.011127472,-1.0004151,-1.0110352,1.6960328,0.0
17026,0.11776471,-0.26717377,0.011127472,-1.0503296,-0.90270996,1.5547851,0.0
17027,0.47194624,-0.85245514,0.116947174,-1.0503296,-0.90270996,1.5547851,0.0
17028,0.47194624,-0.85245514,0.116947174,-1.0705079,-0.6223389,1.1236085,0.0
17029,0.99788165,-1.0170593,0.33558655,-1.0705079,-0.6223389,1.1236085,0.0
17030,0.99788165,-1.0170593,0.33558655,-1.2298096,-0.21983643,0.59260255,0.0
17031,1.4566061,-1.0978012,0.46348953,-1.2298096,-0.21983643,0.59260255,0.0
17032,1.4566061,-1.0978012,0.46348953,-0.9218262,0.22939454,0.14549561,0.0
17033,1.8258438,-1.4686356,0.30677795,-0.9218262,0.22939454,0.14549561,0.0
17034,1.8258438,-1.4686356,0.30677795,-0.12956543,0.6552612,-0.20390625,0.0
17035,2.2645202,-1.8889465,0.08831787,-0.12956543,0.6552612,-0.20390625,0.0
17036,2.2645202,-1.8889465,0.08831787,0.26656494,1.1915772,-0.3430298,0.0
17037,2.7232862,-2.2098007,0.11107254,0.26656494,1.1915772,-0.3430298,0.0
17038,2.7232862,-2.2098007,0.11107254,0.5883545,1.6864747,-0.17841797,0.0
17039,3.12891,-2.1900558,0.23673248,0.5883545,1.6864747,-0.17841797,0.0
17040,3.12891,-2.1900558,0.23673248,0.7805786,2.1038454,-0.010620117,0.0
17041,3.3106718,-1.8753586,0.1301918,0.7805786,2.1038454,-0.010620117,0.0
17042,3.3106718,-1.8753586,0.1301918,0.20072022,2.4606812,0.052038576,0.0
17043,2.8078394,-1.8033295,-0.24572372,0.20072022,2.4606812,0.052038576,0.0
17044,2.8078394,-1.8033295,-0.24572372,-0.87403566,2.7314942,-0.12213135,0.0
17045,1.318708,-2.225769,-0.65934753,-0.87403566,2.7314942,-0.12213135,0.0
17046,1.318708,-2.225769,-0.65934753,-1.2149414,2.6614015,-0.24320069,0.0
17047,-0.79747486,-2.7594986,-0.8557472,-1.2149414,2.6614015,-0.24320069,0.0
17048,-0.79747486,-2.7594986,-0.8557472,-0.901648,2.4872315,-0.42799073,0.0
17049,-2.7512488,-2.740982,-0.7448273,-0.901648,2.4872315,-0.42799073,0.0
17050,-2.7512488,-2.740982,-0.7448273,-0.631897,2.3077514,-0.5872925,0.0
17051,-4.0777936,-1.8058014,-0.5526619,-0.631897,2.3077514,-0.5872925,0.0
17052,-4.0777936,-1.8058014,-0.5526619,-0.5798584,2.1473877,-0.7688965,0.0
17053,-4.877677,-0.35659027,-0.38070297,-0.5798584,2.1473877,-0.7688965,0.0
17054,-4.877677,-0.35659027,-0.38070297,-0.98873293,2.0210083,-0.88040775,0.0
17055,-5.2794123,0.84980774,-0.1446724,-0.98873293,2.0210083,-0.88040775,0.0
17056,-5.2794123,0.84980774,-0.1446724,-1.3328247,1.8447144,-0.7699585,0.0
17057,-5.5785832,1.9977875,0.21103287,-1.3328247,1.8447144,-0.7699585,0.0
17058,-5.5785832,1.9977875,0.21103287,-1.7724975,1.6142578,-0.60959476,0.0
17059,-6.368543,3.2149658,0.83955383,-1.7724975,1.6142578,-0.60959476,0.0
17060,-6.368543,3.2149658,0.83955383,-1.8925049,1.3030884,-0.35789797,0.0
17061,-7.1349225,4.0145416,1.5071411,-1.8925049,1.3030884,-0.35789797,0.0
17062,-7.1349225,4.0145416,1.5071411,-1.2255615,0.8644776,-0.12000733,0.0
17063,-6.648685,4.225548,1.6618042,-1.2255615,0.8644776,-0.12000733,0.0
17064,-6.648685,4.225548,1.6618042,-0.26762697,0.2824951,0.12319336,0.0
17065,-4.7268095,3.8051682,1.2224617,-0.26762697,0.2824951,0.12319336,0.0
17066,-4.7268095,3.8051682,1.2224617,0.51188964,-0.35152587,0.43011475,0.0
17067,-2.2149925,3.0468063,0.5302162,0.51188964,-0.35152587,0.43011475,0.0
17068,-2.2149925,3.0468063,0.5302162,0.6435791,-0.9420044,0.48427734,0.0
17069,-0.06744051,1.5205841,-0.16268158,0.6435791,-0.9420044,0.48427734,0.0
17070,-0.06744051,1.5205841,-0.16268158,0.58304447,-1.5176147,0.7954468,0.0
17071,1.3750029,-1.5285187,-0.9379082,0.58304447,-1.5176147,0.7954468,0.0
17072,1.3750029,-1.5285187,-0.9379082,1.5537232,-2.075171,0.9388184,0.0
17073,2.6484766,-6.076256,-1.865303,1.5537232,-2.075171,0.9388184,0.0
17074,2.6484766,-6.076256,-1.865303,2.969385,-2.6868896,0.9866089,0.0
17075,4.343794,-10.224129,-2.2694016,2.969385,-2.6868896,0.9866089,0.0
17076,4.343794,-10.224129,-2.2694016,4.3638062,-3.180725,1.6769165,0.0
17077,5.873509,-10.191818,-1.3031921,4.3638062,-3.180725,1.6769165,0.0
17078,5.873509,-10.191818,-1.3031921,4.2735353,-3.1764772,2.0103881,0.0
17079,6.6857457,-6.0238953,0.3793831,4.2735353,-3.1764772,2.0103881,0.0
17080,6.6857457,-6.0238953,0.3793831,3.6501343,-3.2062135,2.5828125,0.0
17081,6.6776857,-0.84840393,1.0338287,3.6501343,-3.2062135,2.5828125,0.0
17082,6.6776857,-0.84840393,1.0338287,1.0864381,-2.267395,1.6068238,0.0
17083,5.4259133,2.2595673,0.37943268,1.0864381,-2.267395,1.6068238,0.0
17084,5.4259133,2.2595673,0.37943268,-1.7310791,-1.812854,1.1533448,0.0
17085,3.2233477,2.341919,-0.57764435,-1.7310791,-1.812854,1.1533448,0.0
17086,3.2233477,2.341919,-0.57764435,-1.0768799,-1.7109009,0.8995239,0.0
17087,1.2695107,2.5283356,-1.0569534,-1.0768799,-1.7109009,0.8995239,0.0
17088,1.2695107,2.5283356,-1.0569534,-0.9494385,-1.4082276,0.60322267,0.0
17089,0.1551106,4.2073135,-0.9759331,-0.9494385,-1.4082276,0.60322267,0.0
17090,0.1551106,4.2073135,-0.9759331,-1.178833,-0.97067875,0.37489015,0.0
17091,-0.2298789,6.068451,-0.695076,-1.178833,-0.97067875,0.37489015,0.0
17092,-0.2298789,6.068451,-0.695076,-1.2393677,-0.41737062,0.26019287,0.0
17093,-0.055241108,7.1819916,-0.4737854,-1.2393677,-0.41737062,0.26019287,0.0
17094,-0.055241108,7.1819916,-0.4737854,-1.3816773,0.27612305,0.07752686,0.0
17095,0.38698387,7.546982,-0.16450119,-1.3816773,0.27612305,0.07752686,0.0
17096,0.38698387,7.546982,-0.16450119,-1.8829468,1.0014771,-0.12531738,0.0
17097,0.9019699,6.907486,0.37137985,-1.8829468,1.0014771,-0.12531738,0.0
17098,0.9019699,6.907486,0.37137985,-2.0464966,1.718335,-0.24320069,0.0
17099,1.5201111,4.496826,0.87540054,-2.0464966,1.718335,-0.24320069,0.0
17100,1.5201111,4.496826,0.87540054,-1.2903442,2.2981935,-0.11469727,0.0
17101,2.28866,-0.025352478,0.8667259,-1.2903442,2.2981935,-0.11469727,0.0
17102,2.28866,-0.025352478,0.8667259,-0.17947999,2.9141603,-0.4895874,0.0
17103,3.1879592,-6.73481,0.05483246,-0.17947999,2.9141603,-0.4895874,0.0
17104,3.1879592,-6.73481,0.05483246,0.5299439,3.3124146,-0.83049315,0.0
17105,3.2148085,-12.482422,-0.26721954,0.5299439,3.3124146,-0.83049315,0.0
17106,3.2148085,-12.482422,-0.26721954,1.6662964,3.3729494,-0.16885987,0.0
17107,1.1022177,-12.279312,1.5038757,1.6662964,3.3729494,-0.16885987,0.0
17108,1.1022177,-12.279312,1.5038757,2.0624268,3.1881592,-0.33240968,0.0
17109,-1.8645272,-7.2447968,3.7841797,2.0624268,3.1881592,-0.33240968,0.0
17110,-1.8645272,-7.2447968,3.7841797,0.004248047,3.1244385,-0.5692383,0.0
17111,-4.145418,-2.6710052,3.5801506,0.004248047,3.1244385,-0.5692383,0.0
17112,-4.145418,-2.6710052,3.5801506,-2.270581,3.0150514,-0.6085327,0.0
17113,-5.5312395,-1.0176239,0.76963806,-2.270581,3.0150514,-0.6085327,0.0
17114,-5.5312395,-1.0176239,0.76963806,-2.6624634,2.5445802,-0.46516114,0.0
17115,-6.0533485,-0.51754,-1.7376366,-2.6624634,2.5445802,-0.46516114,0.0
17116,-6.0533485,-0.51754,-1.7376366,-1.8691406,1.8192261,-0.095581055,0.0
17117,-6.0533485,-0.51754,-1.7376366,-1.8691406,1.8192261,-0.095581055,0.0
17118,-6.079166,1.2115402,-1.7587128,-1.8691406,1.8192261,-0.095581055,0.0
17119,-6.079166,1.2115402,-1.7587128,-0.7975708,1.1990112,0.124255374,0.0
17120,-5.5603666,4.115341,-0.03403473,-0.7975708,1.1990112,0.124255374,0.0
17121,-5.5603666,4.115341,-0.03403473,-0.64782715,0.8442993,0.24320069,0.0
17122,-4.517104,6.764824,1.3994064,-0.64782715,0.8442993,0.24320069,0.0
17123,-4.517104,6.764824,1.3994064,-0.271875,0.44073486,0.36533204,0.0
17124,-3.3259637,8.317215,1.6860428,-0.271875,0.44073486,0.36533204,0.0
17125,-3.3259637,8.317215,1.6860428,-0.095581055,-0.0031860352,0.45135498,0.0
17126,-2.332231,8.480675,1.0734329,-0.095581055,-0.0031860352,0.45135498,0.0
17127,-2.332231,8.480675,1.0734329,-0.26656494,-0.4885254,0.29948732,0.0
17128,-1.6051159,6.7241135,0.09914017,-0.26656494,-0.4885254,0.29948732,0.0
17129,-1.6051159,6.7241135,0.09914017,-0.31116945,-1.0078491,-0.09239502,0.0
17130,-0.9061265,3.298149,-0.8679161,-0.31116945,-1.0078491,-0.09239502,0.0
17131,-0.9061265,3.298149,-0.8679161,-0.17523193,-1.6408081,-0.2899292,0.0
17132,-0.13672972,-1.8070602,-1.8613968,-0.17523193,-1.6408081,-0.2899292,0.0
17133,-0.13672972,-1.8070602,-1.8613968,0.8867798,-2.2514648,-0.070092775,0.0
17134,0.9856725,-9.042839,-3.035614,0.8867798,-2.2514648,-0.070092775,0.0
17135,0.9856725,-9.042839,-3.035614,4.2968993,-3.0320435,0.22302246,0.0
17136,1.7393439,-11.377899,-3.5506096,4.2968993,-3.0320435,0.22302246,0.0
17137,1.7393439,-11.377899,-3.5506096,5.7507935,-3.3867555,0.73597413,0.0
17138,5.040828,-11.860878,-1.8276329,5.7507935,-3.3867555,0.73597413,0.0
17139,5.040828,-11.860878,-1.8276329,4.7748046,-3.074524,2.1346436,0.0
17140,5.25787,-7.5446243,-0.76392365,4.7748046,-3.074524,2.1346436,0.0
17141,5.25787,-7.5446243,-0.76392365,2.7686646,-3.0639038,1.903125,0.0
17142,6.95488,0.14219666,2.3175125,2.7686646,-3.0639038,1.903125,0.0
17143,6.95488,0.14219666,2.3175125,-1.1066163,-1.898877,0.48640138,0.0
17144,5.172901,0.54865265,2.0723953,-1.1066163,-1.898877,0.48640138,0.0
17145,5.172901,0.54865265,2.0723953,-1.7969239,-1.6684204,0.31329346,0.0
17146,1.0140653,-0.53860474,0.8960266,-1.7969239,-1.6684204,0.31329346,0.0
17147,1.0140653,-0.53860474,0.8960266,-1.63125,-1.5048707,0.26656494,0.0
17148,-0.0073390007,-0.10510254,0.19408035,-1.63125,-1.5048707,0.26656494,0.0
17149,-0.0073390007,-0.10510254,0.19408035,-1.453894,-1.453894,0.22727051,0.0
17150,-0.69197965,3.742653,-0.68828964,-1.453894,-1.453894,0.22727051,0.0
17151,-0.69197965,3.742653,-0.68828964,-1.2967163,-1.3115845,0.06584473,0.0
17152,-0.5855174,4.718498,-0.6431961,-1.2967163,-1.3115845,0.06584473,0.0
17153,-0.5855174,4.718498,-0.6431961,-1.1469727,-1.1979493,-0.0053100586,0.0
17154,-0.123199224,8.130135,-0.20117569,-1.1469727,-1.1979493,-0.0053100586,0.0
17155,-0.123199224,8.130135,-0.20117569,-1.089624,-0.55543214,-0.22727051,0.0
17156,0.12208271,7.7396164,-0.0111579895,-1.089624,-0.55543214,-0.22727051,0.0
17157,0.12208271,7.7396164,-0.0111579895,-1.2276856,-0.21983643,-0.31223145,0.0
17158,1.1815529,8.642998,-0.014091492,-1.2276856,-0.21983643,-0.31223145,0.0
17159,1.1815529,8.642998,-0.014091492,-1.2786621,0.80606693,-0.3440918,0.0
17160,1.4102204,7.3750763,0.07614136,-1.2786621,0.80606693,-0.3440918,0.0
17161,1.4102204,7.3750763,0.07614136,-1.1639649,1.1395386,-0.36745605,0.0
17162,2.8096585,4.765503,0.2733879,-1.1639649,1.1395386,-0.36745605,0.0
17163,2.8096585,4.765503,0.2733879,0.2262085,2.2206666,-0.7582764,0.0
17164,2.9965916,2.4840317,0.47574234,0.2262085,2.2206666,-0.7582764,0.0
17165,2.9965916,2.4840317,0.47574234,0.26868898,2.6454713,-1.3232666,0.0
17166,4.9249344,-9.403526,-0.72932816,0.26868898,2.6454713,-1.3232666,0.0
17167,4.9249344,-9.403526,-0.72932816,1.3073364,3.059656,-1.2266235,0.0
17168,4.327777,-12.421074,-0.7117348,1.3073364,3.059656,-1.2266235,0.0
17169,4.327777,-12.421074,-0.7117348,3.0554078,2.9768188,-0.95368654,0.0
17170,2.3567896,-14.195869,1.1505356,3.0554078,2.9768188,-0.95368654,0.0
17171,2.3567896,-14.195869,1.1505356,2.3385499,2.7707887,-1.0397094,0.0
17172,-0.68079185,-8.537163,4.749054,2.3385499,2.7707887,-1.0397094,0.0
17173,-0.68079185,-8.537163,4.749054,-1.5144287,3.1063843,-0.56605226,0.0
17174,-4.4726243,-1.8180618,4.663147,-1.5144287,3.1063843,-0.56605226,0.0
17175,-4.4726243,-1.8180618,4.663147,-2.9269044,3.0341675,-0.3812622,0.0
17176,-4.6204457,-0.27399445,2.7509537,-2.9269044,3.0341675,-0.3812622,0.0
17177,-4.6204457,-0.27399445,2.7509537,-2.9173462,2.9300904,-0.39188233,0.0
17178,-6.6045723,1.9066086,-2.3493958,-2.9173462,2.9300904,-0.39188233,0.0
17179,-6.6045723,1.9066086,-2.3493958,-1.6461182,2.1049073,-0.033984374,0.0
17180,-6.192215,2.2993317,-2.3604355,-1.6461182,2.1049073,-0.033984374,0.0
17181,-6.192215,2.2993317,-2.3604355,-0.99510497,1.7491333,0.060534667,0.0
17182,-6.888489,5.8681107,-1.4605522,-0.99510497,1.7491333,0.060534667,0.0
17183,-6.888489,5.8681107,-1.4605522,-0.081774905,0.70092773,0.3079834,0.0
17184,-5.765247,6.4356766,-0.60398865,-0.081774905,0.70092773,0.3079834,0.0
17185,-5.765247,6.4356766,-0.60398865,-0.10513916,0.37807617,0.4248047,0.0
17186,-4.673306,8.354057,0.28319168,-0.10513916,0.37807617,0.4248047,0.0
17187,-4.673306,8.354057,0.28319168,-0.14655761,-0.19647217,0.5734863,0.0
17188,-3.4127903,8.555695,0.22115707,-0.14655761,-0.19647217,0.5734863,0.0
17189,-3.4127903,8.555695,0.22115707,-0.19434814,-0.82730716,0.49171144,0.0
17190,-2.2558792,6.5784683,-0.5221443,-0.19434814,-0.82730716,0.49171144,0.0
17191,-2.2558792,6.5784683,-0.5221443,-0.6637573,-1.4719483,0.13381349,0.0
17192,-1.2766519,2.4084702,-1.5966072,-0.6637573,-1.4719483,0.13381349,0.0
17193,-1.2766519,2.4084702,-1.5966072,-0.124255374,-2.2185426,-0.093457036,0.0
17194,-0.23599434,-3.9482727,-2.6924477,-0.124255374,-2.2185426,-0.093457036,0.0
17195,-0.23599434,-3.9482727,-2.6924477,1.6917847,-3.0012453,-0.2177124,0.0
17196,1.7337265,-12.480835,-3.9141045,1.6917847,-3.0012453,-0.2177124,0.0
17197,1.7337265,-12.480835,-3.9141045,5.2930665,-3.9666138,0.5671143,0.0
17198,4.827606,-17.185646,-3.7593956,5.2930665,-3.9666138,0.5671143,0.0
17199,4.827606,-17.185646,-3.7593956,5.5606933,-3.981482,1.7724975,0.0
17200,7.965198,-12.842468,-1.5303459,5.5606933,-3.981482,1.7724975,0.0
17201,7.965198,-12.842468,-1.5303459,4.0356445,-3.5662353,2.0082643,0.0
17202,9.484805,-4.114502,1.1918869,4.0356445,-3.5662353,2.0082643,0.0
17203,9.484805,-4.114502,1.1918869,1.1310425,-2.529712,1.7969239,0.0
17204,6.7308865,2.4954224,2.686493,1.1310425,-2.529712,1.7969239,0.0
17205,6.7308865,2.4954224,2.686493,-1.8479004,-1.7342652,1.1182984,0.0
17206,1.8850508,3.8486328,2.4263306,-1.8479004,-1.7342652,1.1182984,0.0
17207,1.8850508,3.8486328,2.4263306,-1.7374512,-1.7024049,1.1331666,0.0
17208,-0.7015662,3.1805878,1.450222,-1.7374512,-1.7024049,1.1331666,0.0
17209,-0.7015662,3.1805878,1.450222,-1.0736939,-1.6567383,1.0184692,0.0
17210,-1.0724833,4.2823715,0.4806862,-1.0736939,-1.6567383,1.0184692,0.0
17211,-1.0724833,4.2823715,0.4806862,-1.3455689,-1.3147706,0.73809814,0.0
17212,-0.6713779,6.1029205,-0.542366,-1.3455689,-1.3147706,0.73809814,0.0
17213,-0.6713779,6.1029205,-0.542366,-1.263794,-1.0906861,0.72323,0.0
17214,-0.45273972,7.2894135,-1.3749199,-1.263794,-1.0906861,0.72323,0.0
17215,-0.45273972,7.2894135,-1.3749199,-1.2531738,-0.79119873,0.50233155,0.0
17216,-0.2716279,7.7129364,-1.7279282,-1.2531738,-0.79119873,0.50233155,0.0
17217,-0.2716279,7.7129364,-1.7279282,-1.449646,-0.43011475,0.29630128,0.0
17218,0.0939281,7.320732,-1.6287422,-1.449646,-0.43011475,0.29630128,0.0
17219,0.0939281,7.320732,-1.6287422,-1.449646,-0.43011475,0.29630128,0.0
17220,0.0939281,7.320732,-1.6287422,-1.4984986,0.0063720704,0.23682861,0.0
17221,0.65614843,5.4588547,-1.2864914,-1.4984986,0.0063720704,0.23682861,0.0
17222,0.65614843,5.4588547,-1.2864914,-1.0301514,0.41099855,0.057348635,0.0
17223,1.3389201,2.0210876,-0.7884331,-1.0301514,0.41099855,0.057348635,0.0
17224,1.3389201,2.0210876,-0.7884331,0.09133301,0.8326172,-0.12213135,0.0
17225,1.821063,-2.0116959,-0.16866302,0.09133301,0.8326172,-0.12213135,0.0
17226,1.821063,-2.0116959,-0.16866302,0.7890747,1.4570801,-0.6605713,0.0
17227,2.0186424,-8.436775,-0.048992157,0.7890747,1.4570801,-0.6605713,0.0
17228,2.0186424,-8.436775,-0.048992157,2.092163,1.807544,-1.4677002,0.0
17229,1.7861667,-15.017326,0.43071747,2.092163,1.807544,-1.4677002,0.0
17230,1.7861667,-15.017326,0.43071747,2.72937,1.9148072,-1.0301514,0.0
17231,0.46383286,-15.582268,3.2790833,2.72937,1.9148072,-1.0301514,0.0
17232,0.46383286,-15.582268,3.2790833,2.884424,1.809668,-0.635083,0.0
17233,-1.1198149,-10.072723,5.76659,2.884424,1.809668,-0.635083,0.0
17234,-1.1198149,-10.072723,5.76659,3.1010742,1.8224121,-0.013806152,0.0
17235,-2.2995996,-2.2128906,4.40551,3.1010742,1.8224121,-0.013806152,0.0
17236,-2.2995996,-2.2128906,4.40551,-0.3717041,2.35979,-0.42799073,0.0
17237,-3.3288155,3.167488,0.46482468,-0.3717041,2.35979,-0.42799073,0.0
17238,-3.3288155,3.167488,0.46482468,-1.0991821,2.1006591,-0.19434814,0.0
17239,-4.0949373,5.22596,-2.5112686,-1.0991821,2.1006591,-0.19434814,0.0
17240,-4.0949373,5.22596,-2.5112686,-1.8733886,1.6524903,-0.26550293,0.0
17241,-4.654051,5.3042297,-3.231388,-1.8733886,1.6524903,-0.26550293,0.0
17242,-4.654051,5.3042297,-3.231388,-1.3243287,0.9876709,-0.37382814,0.0
17243,-4.7062726,4.6832504,-2.5840607,-1.3243287,0.9876709,-0.37382814,0.0
17244,-4.7062726,4.6832504,-2.5840607,-0.8050049,0.34727785,-0.32922363,0.0
17245,-4.107865,4.6425247,-1.7765503,-0.8050049,0.34727785,-0.32922363,0.0
17246,-4.107865,4.6425247,-1.7765503,-0.66481936,-0.271875,-0.20072022,0.0
17247,-3.1293828,5.340866,-1.3378639,-0.66481936,-0.271875,-0.20072022,0.0
17248,-3.1293828,5.340866,-1.3378639,-0.5586182,-0.93138427,-0.124255374,0.0
17249,-2.177774,5.899658,-1.1981964,-0.5586182,-0.93138427,-0.124255374,0.0
17250,-2.177774,5.899658,-1.1981964,-0.4248047,-1.5813354,-0.09133301,0.0
17251,-1.4168041,5.4148636,-1.2789192,-0.4248047,-1.5813354,-0.09133301,0.0
17252,-1.4168041,5.4148636,-1.2789192,-0.25913087,-2.253589,0.047790527,0.0
17253,-0.8170128,3.7663498,-1.6749802,-0.25913087,-2.253589,0.047790527,0.0
17254,-0.8170128,3.7663498,-1.6749802,0.033984374,-2.9566407,0.11151123,0.0
17255,-0.3667574,1.3197098,-2.205986,0.033984374,-2.9566407,0.11151123,0.0
17256,-0.3667574,1.3197098,-2.205986,0.73597413,-3.5874755,0.12000733,0.0
17257,-0.0013403893,-2.4845047,-2.8014946,0.73597413,-3.5874755,0.12000733,0.0
17258,-0.0013403893,-2.4845047,-2.8014946,1.7268311,-3.9804199,-0.39082032,0.0
17259,0.96322227,-8.754974,-3.4300385,1.7268311,-3.9804199,-0.39082032,0.0
17260,0.96322227,-8.754974,-3.4300385,3.511011,-4.228931,-0.038232423,0.0
17261,2.6988983,-12.783974,-3.2407608,3.511011,-4.228931,-0.038232423,0.0
17262,2.6988983,-12.783974,-3.2407608,3.9528077,-3.9166992,1.0959961,0.0
17263,4.4343505,-10.00882,-1.5215759,3.9528077,-3.9166992,1.0959961,0.0
17264,4.4343505,-10.00882,-1.5215759,1.8202881,-3.4026856,0.7412842,0.0
17265,4.1379714,-4.9751587,0.7634163,1.8202881,-3.4026856,0.7412842,0.0
17266,4.1379714,-4.9751587,0.7634163,-0.8241211,-2.446875,0.53950197,0.0
17267,1.4478282,-2.4282532,1.7771645,-0.8241211,-2.446875,0.53950197,0.0
17268,1.4478282,-2.4282532,1.7771645,-1.083252,-2.2939453,0.7126099,0.0
17269,-0.9216203,-1.0951767,1.432621,-1.083252,-2.2939453,0.7126099,0.0
17270,-0.9216203,-1.0951767,1.432621,-1.0386475,-2.2875733,0.8219971,0.0
17271,-1.7415565,1.0731201,0.8458023,-1.0386475,-2.2875733,0.8219971,0.0
17272,-1.7415565,1.0731201,0.8458023,-1.2404298,-2.165442,0.71579593,0.0
17273,-1.5156817,3.240181,0.4322319,-1.2404298,-2.165442,0.71579593,0.0
17274,-1.5156817,3.240181,0.4322319,-1.1246704,-1.9084351,0.52250975,0.0
17275,-1.0920742,4.6473618,0.07798767,-1.1246704,-1.9084351,0.52250975,0.0
17276,-1.0920742,4.6473618,0.07798767,-0.9228882,-1.5845215,0.31223145,0.0
17277,-0.86061007,5.645218,-0.27119064,-0.9228882,-1.5845215,0.31223145,0.0
17278,-0.86061007,5.645218,-0.27119064,-0.58198243,-1.2754761,0.18903808,0.0
17279,-0.7166009,6.5636063,-0.62568283,-0.58198243,-1.2754761,0.18903808,0.0
17280,-0.7166009,6.5636063,-0.62568283,-0.5872925,-0.9632446,0.053100586,0.0
17281,-0.46618843,6.8690643,-1.0445518,-0.5872925,-0.9632446,0.053100586,0.0
17282,-0.46618843,6.8690643,-1.0445518,-0.53525394,-0.6775635,0.023364259,0.0
17283,-0.039186,6.0959473,-1.4579697,-0.53525394,-0.6775635,0.023364259,0.0
17284,-0.039186,6.0959473,-1.4579697,-0.13168946,-0.5097656,-0.022302246,0.0
17285,0.60795784,4.586853,-1.6466751,-0.13168946,-0.5097656,-0.022302246,0.0
17286,0.60795784,4.586853,-1.6466751,0.40144044,-0.3727661,0.053100586,0.0
17287,1.3605728,2.5981903,-1.2472973,0.40144044,-0.3727661,0.053100586,0.0
17288,1.3605728,2.5981903,-1.2472973,0.84536135,-0.11363526,-0.18372802,0.0
17289,2.3363466,-1.4087524,-0.35902023,0.84536135,-0.11363526,-0.18372802,0.0
17290,2.3363466,-1.4087524,-0.35902023,1.1650269,0.39188233,-1.270166,0.0
17291,3.3271585,-8.369003,0.27854347,1.1650269,0.39188233,-1.270166,0.0
17292,3.3271585,-8.369003,0.27854347,2.6752076,0.62977296,-1.2117554,0.0
17293,3.0893025,-12.293381,1.4215393,2.6752076,0.62977296,-1.2117554,0.0
17294,3.0893025,-12.293381,1.4215393,2.8727417,0.5065796,-0.84323734,0.0
17295,1.5955875,-9.460289,3.6771355,2.8727417,0.5065796,-0.84323734,0.0
17296,1.5955875,-9.460289,3.6771355,2.800525,0.45878908,-0.76358646,0.0
17297,-0.23993623,-4.1995773,4.470089,2.800525,0.45878908,-0.76358646,0.0
17298,-0.23993623,-4.1995773,4.470089,-0.4598511,0.9324463,-0.6085327,0.0
17299,-2.2536554,-1.3939896,2.2077255,-0.4598511,0.9324463,-0.6085327,0.0
17300,-2.2536554,-1.3939896,2.2077255,-1.2191895,1.1321045,-0.47578126,0.0
17301,-3.9655223,-1.1114197,-0.9380188,-1.2191895,1.1321045,-0.47578126,0.0
17302,-3.9655223,-1.1114197,-0.9380188,-1.2075074,1.0641358,-0.1539917,0.0
17303,-4.941595,-0.84085846,-2.5849838,-1.2075074,1.0641358,-0.1539917,0.0
17304,-4.941595,-0.84085846,-2.5849838,-0.5798584,0.8400513,0.11682129,0.0
17305,-5.0163136,0.386261,-2.6135788,-0.5798584,0.8400513,0.11682129,0.0
17306,-5.0163136,0.386261,-2.6135788,-0.27718505,0.6117188,0.37489015,0.0
17307,-4.275172,2.2734756,-2.0964928,-0.27718505,0.6117188,0.37489015,0.0
17308,-4.275172,2.2734756,-2.0964928,-0.4258667,0.3791382,0.5957886,0.0
17309,-3.3309655,4.1084824,-1.4676628,-0.4258667,0.3791382,0.5957886,0.0
17310,-3.3309655,4.1084824,-1.4676628,-0.65632325,0.058410645,0.7593384,0.0
17311,-2.7924457,5.574066,-0.84552765,-0.65632325,0.058410645,0.7593384,0.0
17312,-2.7924457,5.574066,-0.84552765,-0.90802,-0.34940186,0.9568726,0.0
17313,-2.7670498,6.2824173,-0.6747246,-0.90802,-0.34940186,0.9568726,0.0
17314,-2.7670498,6.2824173,-0.6747246,-0.7858887,-0.94412845,1.0715698,0.0
17315,-2.8475266,6.0281906,-1.2094822,-0.7858887,-0.94412845,1.0715698,0.0
17316,-2.8475266,6.0281906,-1.2094822,-0.5278198,-1.725769,1.075818,0.0
17317,-2.522931,4.6575394,-2.0763512,-0.5278198,-1.725769,1.075818,0.0
17318,-2.522931,4.6575394,-2.0763512,-0.26550293,-2.6507814,1.0174073,0.0
17319,-1.7830911,2.2277145,-2.7684898,-0.26550293,-2.6507814,1.0174073,0.0
17320,-1.7830911,2.2277145,-2.7684898,0.6690674,-3.530127,0.8336792,0.0
17321,-0.94483185,-1.1600494,-3.1386185,0.6690674,-3.530127,0.8336792,0.0
17322,-0.94483185,-1.1600494,-3.1386185,1.8627685,-4.2331786,0.67437744,0.0
17323,0.27504253,-6.3153305,-3.414936,1.8627685,-4.2331786,0.67437744,0.0
17324,0.27504253,-6.3153305,-3.414936,3.2391357,-4.9298587,0.6669434,0.0
17325,2.2331443,-11.521957,-3.2311668,3.2391357,-4.9298587,0.6669434,0.0
17326,2.2331443,-11.521957,-3.2311668,4.3882327,-5.008447,1.26698,0.0
17327,3.8844156,-12.049034,-1.2742405,4.3882327,-5.008447,1.26698,0.0
17328,3.8844156,-12.049034,-1.2742405,2.5934327,-4.258667,1.8532104,0.0
17329,3.9153452,-8.4795,1.6359787,2.5934327,-4.258667,1.8532104,0.0
17330,3.9153452,-8.4795,1.6359787,0.93138427,-3.3219726,2.3810303,0.0
17331,2.7887096,-4.1997223,3.0831604,0.93138427,-3.3219726,2.3810303,0.0
17332,2.7887096,-4.1997223,3.0831604,-0.16036378,-2.4957275,1.3891114,0.0
17333,1.048851,-0.28782654,2.8029556,-0.16036378,-2.4957275,1.3891114,0.0
17334,1.048851,-0.28782654,2.8029556,-3.175415,-1.6928467,1.1289185,0.0
17335,-1.0259218,1.3511658,2.1064758,-3.175415,-1.6928467,1.1289185,0.0
17336,-1.0259218,1.3511658,2.1064758,-2.8833618,-1.540979,1.0492676,0.0
17337,-2.1230326,1.9114151,1.7264271,-2.8833618,-1.540979,1.0492676,0.0
17338,-2.1230326,1.9114151,1.7264271,-1.9987061,-1.4209718,1.1501588,0.0
17339,-1.8985481,3.9822845,1.6488914,-1.9987061,-1.4209718,1.1501588,0.0
17340,-1.8985481,3.9822845,1.6488914,-1.987024,-1.1406006,0.95793456,0.0
17341,-1.2462678,6.733444,1.718502,-1.987024,-1.1406006,0.95793456,0.0
17342,-1.2462678,6.733444,1.718502,-1.993396,-0.8612915,0.7614624,0.0
17343,-0.76998806,8.470604,1.8383884,-1.993396,-0.8612915,0.7614624,0.0
17344,-0.76998806,8.470604,1.8383884,-1.9116211,-0.5278198,0.6488892,0.0
17345,-0.3301263,8.830421,1.7644005,-1.9116211,-0.5278198,0.6488892,0.0
17346,-0.3301263,8.830421,1.7644005,-1.7905518,-0.13275146,0.6786255,0.0
17347,0.17007875,8.164009,1.2857742,-1.7905518,-0.13275146,0.6786255,0.0
17348,0.17007875,8.164009,1.2857742,-1.357251,0.42161867,0.40144044,0.0
17349,0.75337267,6.9325104,0.60689163,-1.357251,0.42161867,0.40144044,0.0
17350,0.75337267,6.9325104,0.60689163,-0.9409424,0.9685547,0.11257324,0.0
17351,1.3847904,4.717552,0.013587952,-0.9409424,0.9685547,0.11257324,0.0
17352,1.3847904,4.717552,0.013587952,-0.08602295,1.6609863,-0.18160401,0.0
17353,1.9488239,0.0398407,-0.8701744,-0.08602295,1.6609863,-0.18160401,0.0
17354,1.9488239,0.0398407,-0.8701744,0.8315552,2.1813722,-0.83898926,0.0
17355,2.472548,-7.843338,-2.222042,0.8315552,2.1813722,-0.83898926,0.0
17356,2.472548,-7.843338,-2.222042,2.6858277,2.3024414,-0.7699585,0.0
17357,2.2335317,-13.882278,-1.9823818,2.6858277,2.3024414,-0.7699585,0.0
17358,2.2335317,-13.882278,-1.9823818,4.6601076,2.156946,-0.61915284,0.0
17359,0.83372474,-12.78511,1.2077465,4.6601076,2.156946,-0.61915284,0.0
17360,0.83372474,-12.78511,1.2077465,4.1312256,2.0454347,-0.44923097,0.0
17361,-0.7389407,-7.38678,3.9216652,4.1312256,2.0454347,-0.44923097,0.0
17362,-0.7389407,-7.38678,3.9216652,1.2287476,2.2196045,-0.6956177,0.0
17363,-2.0186305,-2.8717194,2.7986488,1.2287476,2.2196045,-0.6956177,0.0
17364,-2.0186305,-2.8717194,2.7986488,-0.9653687,2.1877441,-0.80819094,0.0
17365,-3.228479,-0.8381653,-0.44709396,-0.9653687,2.1877441,-0.80819094,0.0
17366,-3.228479,-0.8381653,-0.44709396,-1.4199097,2.0072021,-0.65632325,0.0
17367,-3.228479,-0.8381653,-0.44709396,-1.4199097,2.0072021,-0.65632325,97.0
17368,-4.238447,0.49686432,-2.8887177,-1.4199097,2.0072021,-0.65632325,97.0
17369,-4.238447,0.49686432,-2.8887177,-1.2361816,1.5632813,-0.18903808,97.0
17370,-4.790648,2.448883,-3.877369,-1.2361816,1.5632813,-0.18903808,97.0
17371,-4.790648,2.448883,-3.877369,-0.9133301,1.0343994,-0.078588866,97.0
17372,-4.6905994,4.7179337,-3.7924213,-0.9133301,1.0343994,-0.078588866,97.0
17373,-4.6905994,4.7179337,-3.7924213,-0.77526855,0.39506838,0.10938721,97.0
17374,-4.044484,6.639824,-2.9501114,-0.77526855,0.39506838,0.10938721,97.0
17375,-4.044484,6.639824,-2.9501114,-0.901648,-0.24320069,0.38869628,97.0
17376,-3.2263346,7.8556824,-1.6927547,-0.901648,-0.24320069,0.38869628,97.0
17377,-3.2263346,7.8556824,-1.6927547,-0.7508423,-0.85704345,0.6117188,97.0
17378,-2.5035038,8.142288,-0.59296227,-0.7508423,-0.85704345,0.6117188,97.0
17379,-2.5035038,8.142288,-0.59296227,-0.56605226,-1.4432739,0.7338501,97.0
17380,-1.8931475,7.3537827,-0.12773895,-0.56605226,-1.4432739,0.7338501,97.0
17381,-1.8931475,7.3537827,-0.12773895,-0.6287109,-2.0687988,0.7317261,97.0
17382,-1.413126,5.1581955,-0.24584198,-0.6287109,-2.0687988,0.7317261,97.0
17383,-1.413126,5.1581955,-0.24584198,-0.42692873,-2.6529052,0.38657227,97.0
17384,-0.8918171,1.4128952,-0.6115303,-0.42692873,-2.6529052,0.38657227,97.0
17385,-0.8918171,1.4128952,-0.6115303,0.62340087,-3.3081665,0.10089111,97.0
17386,-0.5023575,-4.6237717,-1.1395187,0.62340087,-3.3081665,0.10089111,97.0
17387,-0.5023575,-4.6237717,-1.1395187,2.9736328,-3.7329712,0.22833252,97.0
17388,0.20565796,-11.937614,-1.2020435,2.9736328,-3.7329712,0.22833252,97.0
17389,0.20565796,-11.937614,-1.2020435,5.1220827,-4.134412,1.3784913,97.0
17390,2.7760868,-15.145111,0.67066574,5.1220827,-4.134412,1.3784913,97.0
17391,2.7760868,-15.145111,0.67066574,5.4767947,-4.906494,3.1966553,97.0
17392,5.046749,-11.090149,3.6219578,5.4767947,-4.906494,3.1966553,97.0
17393,5.046749,-11.090149,3.6219578,3.522693,-3.2423217,2.619983,97.0
17394,4.4884615,-3.6928482,5.3935375,3.522693,-3.2423217,2.619983,97.0
17395,4.4884615,-3.6928482,5.3935375,-4.7854247,-0.5522461,-0.2824951,97.0
17396,2.7503147,-0.4513855,5.124119,-4.7854247,-0.5522461,-0.2824951,97.0
17397,2.7503147,-0.4513855,5.124119,-0.95793456,-1.4188477,1.7724975,97.0
17398,1.1037793,1.1738815,3.0604897,-0.95793456,-1.4188477,1.7724975,97.0
17399,1.1037793,1.1738815,3.0604897,-3.3740113,-0.80181885,0.6903076,97.0
17400,-0.47721863,3.6151352,1.109169,-3.3740113,-0.80181885,0.6903076,97.0
17401,-0.47721863,3.6151352,1.109169,-3.725537,-0.48215333,0.64782715,97.0
17402,-1.2795782,4.686775,0.20892715,-3.725537,-0.48215333,0.64782715,97.0
17403,-1.2795782,4.686775,0.20892715,-3.2444458,-0.42692873,0.42374268,97.0
17404,-1.2646294,5.01947,-0.033382416,-3.2444458,-0.42692873,0.42374268,97.0
17405,-1.2646294,5.01947,-0.033382416,-2.263147,-0.34940186,0.4088745,97.0
17406,-0.64842224,5.4938354,-0.090343475,-2.263147,-0.34940186,0.4088745,97.0
17407,-0.64842224,5.4938354,-0.090343475,-1.454956,-0.16461182,0.2984253,97.0
17408,0.24696064,6.6604385,0.01108551,-1.454956,-0.16461182,0.2984253,97.0
17409,0.24696064,6.6604385,0.01108551,-0.87403566,0.28780517,0.7476563,97.0
17410,1.2029762,8.044975,0.124320984,-0.87403566,0.28780517,0.7476563,97.0
17411,1.2029762,8.044975,0.124320984,-0.68924564,0.8782837,0.3536499,97.0
17412,1.9514437,8.528999,0.04504776,-0.68924564,0.8782837,0.3536499,97.0
17413,1.9514437,8.528999,0.04504776,-0.5713623,1.5484132,0.18903808,97.0
17414,2.4234843,7.5592117,-0.08695984,-0.5713623,1.5484132,0.18903808,97.0
17415,2.4234843,7.5592117,-0.08695984,-0.4725952,2.18031,-0.12213135,97.0
17416,2.921722,4.5513153,-0.10131836,-0.4725952,2.18031,-0.12213135,97.0
17417,2.921722,4.5513153,-0.10131836,0.1720459,2.9438965,-0.47365722,97.0
17418,3.4738646,-1.7524261,-0.80200195,0.1720459,2.9438965,-0.47365722,97.0
17419,3.4738646,-1.7524261,-0.80200195,1.0864381,3.5906618,-1.7480713,97.0
17420,3.7721095,-11.35437,-2.6505737,1.0864381,3.5906618,-1.7480713,97.0
17421,3.7721095,-11.35437,-2.6505737,3.3941896,3.2763062,-1.2425537,97.0
17422,2.7173338,-17.565903,-2.4267082,3.3941896,3.2763062,-1.2425537,97.0
17423,2.7173338,-17.565903,-2.4267082,5.7571654,2.5913086,-1.3126465,97.0
17424,0.27577114,-14.672745,2.1433754,5.7571654,2.5913086,-1.3126465,97.0
17425,0.27577114,-14.672745,2.1433754,4.6335573,2.1558838,-1.9498535,97.0
17426,-2.0875006,-7.0125504,5.9491615,4.6335573,2.1558838,-1.9498535,97.0
17427,-2.0875006,-7.0125504,5.9491615,1.1809571,2.1017213,-1.3859253,97.0
17428,-3.5691824,-1.3250504,4.1389427,1.1809571,2.1017213,-1.3859253,97.0
17429,-3.5691824,-1.3250504,4.1389427,-1.2882203,2.1728761,-1.8850708,97.0
17430,-4.4008045,0.328331,-0.87807846,-1.2882203,2.1728761,-1.8850708,97.0
17431,-4.4008045,0.328331,-0.87807846,-1.3944215,1.9785279,-1.3370727,97.0
17432,-5.0638323,0.7067108,-4.625084,-1.3944215,1.9785279,-1.3370727,97.0
17433,-5.0638323,0.7067108,-4.625084,-1.2829102,1.6450561,-0.6988037,97.0
17434,-5.4333534,2.1209106,-5.4734573,-1.2829102,1.6450561,-0.6988037,97.0
17435,-5.4333534,2.1209106,-5.4734573,-0.44923097,0.90802,-0.03717041,97.0
17436,-4.763077,4.996277,-4.284355,-0.44923097,0.90802,-0.03717041,97.0
17437,-4.763077,4.996277,-4.284355,-0.22196046,0.33134767,0.4354248,97.0
17438,-3.2531624,8.141464,-2.686016,-0.22196046,0.33134767,0.4354248,97.0
17439,-3.2531624,8.141464,-2.686016,-0.5278198,-0.10513916,0.6414551,97.0
17440,-1.8781643,9.81498,-1.6499367,-0.5278198,-0.10513916,0.6414551,97.0
17441,-1.8781643,9.81498,-1.6499367,-0.81031495,-0.57454836,0.68074954,97.0
17442,-1.1133957,9.3574295,-1.1179962,-0.81031495,-0.57454836,0.68074954,97.0
17443,-1.1133957,9.3574295,-1.1179962,-1.1129884,-1.1013062,0.5692383,97.0
17444,-0.72683716,6.968193,-0.76522064,-1.1129884,-1.1013062,0.5692383,97.0
17445,-0.72683716,6.968193,-0.76522064,-1.3243287,-1.6556762,0.6042847,97.0
17446,-0.27296066,2.9633713,-0.4684372,-1.3243287,-1.6556762,0.6042847,97.0
17447,-0.27296066,2.9633713,-0.4684372,-0.49383545,-2.2482789,0.7688965,97.0
17448,-0.1960535,-1.6854553,-0.22267342,-0.49383545,-2.2482789,0.7688965,97.0
17449,-0.1960535,-1.6854553,-0.22267342,0.51082766,-2.5190918,0.3982544,97.0
17450,-0.25764847,-7.973427,-0.08819771,0.51082766,-2.5190918,0.3982544,97.0
17451,-0.25764847,-7.973427,-0.08819771,2.0390625,-2.9715087,0.8506714,97.0
17452,0.9610319,-14.52697,0.41539,2.0390625,-2.9715087,0.8506714,97.0
17453,0.9610319,-14.52697,0.41539,4.2437987,-3.4749024,1.7438233,97.0
17454,0.9610319,-14.52697,0.41539,4.2002563,-3.793506,2.360852,97.0
17455,3.7281513,-14.672379,2.136757,4.2002563,-3.793506,2.360852,97.0
17456,4.062893,-0.765831,7.425007,4.2002563,-3.793506,2.360852,97.0
17457,4.062893,-0.765831,7.425007,1.8606446,-2.6656494,2.0061402,97.0
17458,4.062893,-0.765831,7.425007,0.901648,-1.7289551,1.2797241,97.0
17459,4.062893,-0.765831,7.425007,-2.715564,-0.69136965,0.3079834,97.0
17460,1.1495457,0.67033386,4.3538475,-2.715564,-0.69136965,0.3079834,97.0
17461,1.1495457,0.67033386,4.3538475,-2.71875,-0.5787964,0.3334717,97.0
17462,-0.31804657,1.6683807,1.9376297,-2.71875,-0.5787964,0.3334717,97.0
17463,-0.31804657,1.6683807,1.9376297,-2.6805177,-0.4704712,0.3154175,97.0
17464,-0.31804657,1.6683807,1.9376297,-2.6805177,-0.4704712,0.3154175,97.0
17465,-0.610919,3.1423187,0.49834442,-2.6805177,-0.4704712,0.3154175,97.0
17466,-0.610919,3.1423187,0.49834442,-2.4192626,-0.41737062,0.362146,97.0
17467,-0.34288502,4.2539444,-0.1976738,-2.4192626,-0.41737062,0.362146,97.0
17468,-0.34288502,4.2539444,-0.1976738,-1.6471802,-0.26019287,0.5936646,97.0
17469,0.27043152,5.5880814,-0.26924896,-1.6471802,-0.26019287,0.5936646,97.0
17470,0.27043152,5.5880814,-0.26924896,-1.1321045,0.14974366,0.5055176,97.0
17471,0.99591064,7.5000076,-0.08026886,-1.1321045,0.14974366,0.5055176,97.0
17472,0.99591064,7.5000076,-0.08026886,-1.5069946,0.75296634,0.34090576,97.0
17473,1.5932493,8.872948,-0.09164429,-1.5069946,0.75296634,0.34090576,97.0
17474,1.5932493,8.872948,-0.09164429,-1.8022339,1.3307008,0.13912354,97.0
17475,2.2625027,8.581657,0.061351776,-1.8022339,1.3307008,0.13912354,97.0
17476,2.2625027,8.581657,0.061351776,-2.075171,2.171814,-0.26125488,97.0
17477,3.2828903,6.8505936,0.7500458,-2.075171,2.171814,-0.26125488,97.0
17478,3.2828903,6.8505936,0.7500458,-2.1303957,3.2699342,-0.4354248,97.0
17479,4.5127015,4.714363,1.4606438,-2.1303957,3.2699342,-0.4354248,97.0
17480,4.5127015,4.714363,1.4606438,-2.51803,4.444519,-0.815625,97.0
17481,5.763225,1.5791092,1.4098129,-2.51803,4.444519,-0.815625,97.0
17482,5.763225,1.5791092,1.4098129,-2.524402,5.506531,-1.8436524,97.0
17483,7.0434046,-5.381546,-0.26163864,-2.524402,5.506531,-1.8436524,97.0
17484,7.0434046,-5.381546,-0.26163864,-1.9827759,6.248877,-1.4666382,97.0
17485,7.0434046,-5.381546,-0.26163864,0.18903808,5.866553,-1.6652344,97.0
17486,6.5139723,-14.435219,-2.718773,0.18903808,5.866553,-1.6652344,97.0
17487,1.029598,-17.522346,-4.306988,0.18903808,5.866553,-1.6652344,97.0
17488,1.029598,-17.522346,-4.306988,-0.35152587,4.6537356,-1.5792115,97.0
17489,1.029598,-17.522346,-4.306988,-1.7565674,3.432422,-0.7508423,97.0
17490,1.029598,-17.522346,-4.306988,-4.766309,2.6996338,-0.5076416,97.0
17491,-1.0563021,-7.7862854,-5.2736797,-4.766309,2.6996338,-0.5076416,97.0
17492,-8.850706,9.366943,-9.299084,-4.766309,2.6996338,-0.5076416,97.0
17493,-8.850706,9.366943,-9.299084,-7.3916016,2.0687988,0.26019287,97.0
17494,-8.850706,9.366943,-9.299084,-7.239734,1.2850342,0.8209351,97.0
17495,-8.850706,9.366943,-9.299084,-5.267578,-0.11257324,0.6903076,97.0
17496,-8.851487,9.245079,-5.404148,-5.267578,-0.11257324,0.6903076,97.0
17497,-8.851487,9.245079,-5.404148,-2.8738039,-1.3784913,0.38657227,97.0
17498,-7.0373173,9.497406,-1.156168,-2.8738039,-1.3784913,0.38657227,97.0
17499,-7.0373173,9.497406,-1.156168,-0.62127686,-2.2780151,-0.05628662,97.0
17500,-4.449898,9.553291,2.4224052,-0.62127686,-2.2780151,-0.05628662,97.0
17501,-4.449898,9.553291,2.4224052,0.6860596,-2.9640749,-0.4333008,97.0
17502,-2.164215,8.751488,4.104244,0.6860596,-2.9640749,-0.4333008,97.0
17503,-2.164215,8.751488,4.104244,1.4974365,-3.3867555,-0.8623535,97.0
17504,-0.6245117,6.9530945,3.4566383,1.4974365,-3.3867555,-0.8623535,97.0
17505,-0.6245117,6.9530945,3.4566383,1.7586914,-3.7563355,-1.176709,97.0
17506,0.06196308,4.226509,1.3690815,1.7586914,-3.7563355,-1.176709,97.0
17507,0.06196308,4.226509,1.3690815,1.9753418,-4.1949463,-1.4931885,97.0
17508,0.43010044,1.0083046,-0.78775406,1.9753418,-4.1949463,-1.4931885,97.0
17509,0.43010044,1.0083046,-0.78775406,2.0241945,-4.6654177,-1.354065,97.0
17510,0.69032097,-3.0066452,-2.941677,2.0241945,-4.6654177,-1.354065,97.0
17511,0.69032097,-3.0066452,-2.941677,2.6677735,-4.494434,-0.88359374,97.0
17512,0.946434,-8.7341,-5.9172955,2.6677735,-4.494434,-0.88359374,97.0
17513,0.946434,-8.7341,-5.9172955,2.7760987,-4.7790527,-0.88253176,97.0
17514,0.946434,-8.7341,-5.9172955,4.7493167,-4.969153,1.7002808,97.0
17515,1.153326,-13.753357,-7.4060173,4.7493167,-4.969153,1.7002808,97.0
17516,4.0630054,-6.4175873,4.577324,4.7493167,-4.969153,1.7002808,97.0
17517,4.0630054,-6.4175873,4.577324,4.532666,-4.4742556,-0.23045655,97.0
17518,4.0630054,-6.4175873,4.577324,2.3905885,-3.1329346,0.42374268,97.0
17519,4.0630054,-6.4175873,4.577324,0.56180423,-1.6641724,0.28674316,97.0
17520,3.2504044,-5.1340714,3.6618576,0.56180423,-1.6641724,0.28674316,97.0
17521,0.58535767,-1.6931,5.1003475,0.56180423,-1.6641724,0.28674316,97.0
17522,0.58535767,-1.6931,5.1003475,-1.4135376,-0.8527954,0.37489015,97.0
17523,-1.5283084,-0.21801758,4.480047,-1.4135376,-0.8527954,0.37489015,97.0
17524,-1.5283084,-0.21801758,4.480047,-1.6694825,-0.45347902,0.4163086,97.0
17525,-1.9837065,1.2415009,3.5514202,-1.6694825,-0.45347902,0.4163086,97.0
17526,-1.9837065,1.2415009,3.5514202,-1.4815063,-0.1731079,0.44179687,97.0
17527,-1.2793846,3.2638779,3.0935783,-1.4815063,-0.1731079,0.44179687,97.0
17528,-1.2793846,3.2638779,3.0935783,-0.48533937,0.13487549,0.5894165,97.0
17529,0.024515152,5.445999,3.0554657,-0.48533937,0.13487549,0.5894165,97.0
17530,0.024515152,5.445999,3.0554657,0.10301514,0.5692383,0.66269535,97.0
17531,1.4390583,7.097,2.6894646,0.10301514,0.5692383,0.66269535,97.0
17532,1.4390583,7.097,2.6894646,0.23045655,1.2149414,0.4980835,97.0
17533,2.360414,7.3442535,1.8562584,0.23045655,1.2149414,0.4980835,97.0
17534,2.360414,7.3442535,1.8562584,-0.1083252,1.9413575,0.31435546,97.0
17535,3.0620985,5.710037,0.69475937,-0.1083252,1.9413575,0.31435546,97.0
17536,3.0620985,5.710037,0.69475937,1.7066529,2.4521852,-0.24532472,97.0
17537,3.9086146,2.404953,-0.4270897,1.7066529,2.4521852,-0.24532472,97.0
17538,3.9086146,2.404953,-0.4270897,1.9084351,2.794153,-0.04248047,97.0
17539,4.1591797,-2.895897,-1.8212395,1.9084351,2.794153,-0.04248047,97.0
17540,4.1591797,-2.895897,-1.8212395,4.5740848,3.274182,-0.7784546,97.0
17541,3.465918,-9.552406,-3.651657,4.5740848,3.274182,-0.7784546,97.0
17542,3.465918,-9.552406,-3.651657,4.6792235,3.5173829,-1.9530395,97.0
17543,1.9804735,-14.981071,-3.659937,4.6792235,3.5173829,-1.9530395,97.0
17544,1.9804735,-14.981071,-3.659937,4.4413333,3.2370117,-1.7087768,97.0
17545,1.9804735,-14.981071,-3.659937,2.524402,2.9640749,-1.9625977,97.0
17546,-0.42881703,-15.690498,-0.6522045,2.524402,2.9640749,-1.9625977,97.0
17547,-9.018932,-5.530121,-3.0253887,2.524402,2.9640749,-1.9625977,97.0
17548,-9.018932,-5.530121,-3.0253887,-0.3802002,2.6783936,-1.6535523,97.0
17549,-9.018932,-5.530121,-3.0253887,-1.264856,2.267395,-1.4294678,97.0
17550,-9.018932,-5.530121,-3.0253887,-1.3859253,1.7852417,-1.2075074,97.0
17551,-8.354635,-1.3029404,-4.968151,-1.3859253,1.7852417,-1.2075074,97.0
17552,-8.354635,-1.3029404,-4.968151,-0.57561034,1.0875,-0.48427734,97.0
17553,-6.593071,2.6712723,-4.0495205,-0.57561034,1.0875,-0.48427734,97.0
17554,-6.593071,2.6712723,-4.0495205,-0.721106,0.49064943,-0.2548828,97.0
17555,-4.7826233,6.105034,-1.4480648,-0.721106,0.49064943,-0.2548828,97.0
17556,-4.7826233,6.105034,-1.4480648,-1.0142212,-0.07327881,-0.12956543,97.0
17557,-3.3579826,7.906021,0.8701744,-1.0142212,-0.07327881,-0.12956543,97.0
17558,-3.3579826,7.906021,0.8701744,-0.6446411,-0.6000366,0.23364258,97.0
17559,-2.2556858,8.097427,2.1188812,-0.6446411,-0.6000366,0.23364258,97.0
17560,-2.2556858,8.097427,2.1188812,-0.08602295,-1.0036011,0.48533937,97.0
17561,-1.320076,7.4073944,2.1532345,-0.08602295,-1.0036011,0.48533937,97.0
17562,-1.320076,7.4073944,2.1532345,-0.2793091,-1.44115,-0.3069214,97.0
17563,-1.320076,7.4073944,2.1532345,-0.2793091,-1.44115,-0.3069214,101.0
17564,-0.8291931,5.642334,1.1315842,-0.2793091,-1.44115,-0.3069214,101.0
17565,-0.8291931,5.642334,1.1315842,0.36108398,-2.095349,0.11257324,101.0
17566,-0.40789795,2.6432953,-0.21132278,0.36108398,-2.095349,0.11257324,101.0
17567,-0.40789795,2.6432953,-0.21132278,0.69349366,-2.7750366,-0.24320069,101.0
17568,0.099853516,-1.4311447,-1.1005898,0.69349366,-2.7750366,-0.24320069,101.0
17569,0.099853516,-1.4311447,-1.1005898,1.2871583,-3.2667482,0.3717041,101.0
17570,0.5048952,-8.024101,-1.371891,1.2871583,-3.2667482,0.3717041,101.0
17571,0.5048952,-8.024101,-1.371891,2.6932619,-3.8200562,0.18372802,101.0
17572,2.0259018,-14.946381,-0.90260315,2.6932619,-3.8200562,0.18372802,101.0
17573,2.0259018,-14.946381,-0.90260315,4.422217,-4.1949463,1.0598878,101.0
17574,4.051178,-15.785782,0.7855835,4.422217,-4.1949463,1.0598878,101.0
17575,4.051178,-15.785782,0.7855835,1.6875366,-3.6373901,1.6131958,101.0
17576,4.051178,-15.785782,0.7855835,-0.4715332,-3.0564697,0.8358032,101.0
17577,5.8226194,-10.412659,2.4765987,-0.4715332,-3.0564697,0.8358032,101.0
17578,2.672903,-0.9748459,3.0974045,-0.4715332,-3.0564697,0.8358032,101.0
17579,2.672903,-0.9748459,3.0974045,-2.4139526,-2.0518067,0.31860352,101.0
17580,2.672903,-0.9748459,3.0974045,-2.6592774,-1.4910644,0.6446411,101.0
17581,-0.6535473,1.0362854,2.1814404,-2.6592774,-1.4910644,0.6446411,101.0
17582,-0.6535473,1.0362854,2.1814404,-2.1357057,-1.2117554,0.60109866,101.0
17583,-1.9943104,2.545761,2.2455807,-2.1357057,-1.2117554,0.60109866,101.0
17584,-1.9943104,2.545761,2.2455807,-1.1374146,-0.99935305,0.7986328,101.0
17585,-1.8096447,4.5439606,2.7631378,-1.1374146,-0.99935305,0.7986328,101.0
17586,-1.8096447,4.5439606,2.7631378,-0.71154785,-0.60216063,0.60216063,101.0
17587,-0.90499115,6.808937,2.585167,-0.71154785,-0.60216063,0.60216063,101.0
17588,-0.90499115,6.808937,2.585167,-0.47790527,-0.16567384,0.63826907,101.0
17589,0.21113873,8.877388,1.5349922,-0.47790527,-0.16567384,0.63826907,101.0
17590,0.21113873,8.877388,1.5349922,-0.8591675,0.3695801,0.39188233,101.0
17591,1.0344629,10.10495,0.3670311,-0.8591675,0.3695801,0.39188233,101.0
17592,1.0344629,10.10495,0.3670311,-1.3721192,0.9197022,0.26656494,101.0
17593,1.436409,9.637291,-0.427639,-1.3721192,0.9197022,0.26656494,101.0
17594,1.436409,9.637291,-0.427639,-1.183081,1.3859253,0.22089843,101.0
17595,1.9768496,7.086899,-0.9778061,-1.183081,1.3859253,0.22089843,101.0
17596,1.9768496,7.086899,-0.9778061,0.10089111,1.7416992,0.014868164,101.0
17597,3.1192732,3.0132065,-1.3005676,0.10089111,1.7416992,0.014868164,101.0
17598,3.1192732,3.0132065,-1.3005676,1.454956,2.1080933,0.12319336,101.0
17599,4.1552944,-1.9461136,-1.6205063,1.454956,2.1080933,0.12319336,101.0
17600,4.1552944,-1.9461136,-1.6205063,2.160132,2.7686646,-0.18479005,101.0
17601,4.200481,-8.690216,-2.450983,2.160132,2.7686646,-0.18479005,101.0
17602,4.200481,-8.690216,-2.450983,2.532898,2.7792847,-0.9876709,101.0
17603,4.200481,-8.690216,-2.450983,3.1435547,2.5456421,-0.22089843,101.0
17604,3.2196746,-14.188187,-1.7960052,3.1435547,2.5456421,-0.22089843,101.0
17605,-3.1821952,-10.395218,4.158081,3.1435547,2.5456421,-0.22089843,101.0
17606,-3.1821952,-10.395218,4.158081,2.0634887,2.342798,-0.4970215,101.0
17607,-3.1821952,-10.395218,4.158081,-1.2892822,2.5668824,-0.9759888,101.0
17608,-3.1821952,-10.395218,4.158081,-1.0354614,2.259961,-0.5076416,101.0
17609,-3.9656906,-5.691185,-0.16312408,-1.0354614,2.259961,-0.5076416,101.0
17610,-3.9656906,-5.691185,-0.16312408,-0.9526245,2.177124,-0.51826173,101.0
17611,-3.9957466,-1.1027908,-3.0604782,-0.9526245,2.177124,-0.51826173,101.0
17612,-3.9957466,-1.1027908,-3.0604782,-0.73809814,2.005078,-0.6860596,101.0
17613,-3.9724884,2.2690964,-3.3884087,-0.73809814,2.005078,-0.6860596,101.0
17614,-3.9724884,2.2690964,-3.3884087,-0.2793091,1.5335449,-0.5809204,101.0
17615,-3.5461302,4.7234573,-2.1955051,-0.2793091,1.5335449,-0.5809204,101.0
17616,-3.5461302,4.7234573,-2.1955051,-0.2899292,1.0535157,-0.37489015,101.0
17617,-2.3972063,6.8889465,-0.8914261,-0.2899292,1.0535157,-0.37489015,101.0
17618,-2.3972063,6.8889465,-0.8914261,-0.67331547,0.6403931,-0.19541016,101.0
17619,-1.3711586,8.421188,-0.08388138,-0.67331547,0.6403931,-0.19541016,101.0
17620,-1.3711586,8.421188,-0.08388138,-0.93775636,0.21134034,-0.23045655,101.0
17621,-1.2570705,8.334,0.250412,-0.93775636,0.21134034,-0.23045655,101.0
17622,-1.2570705,8.334,0.250412,-0.58410645,-0.35152587,-0.1444336,101.0
17623,-1.5014448,6.4405136,0.17441368,-0.58410645,-0.35152587,-0.1444336,101.0
17624,-1.5014448,6.4405136,0.17441368,-0.2357666,-0.9526245,-0.52250975,101.0
17625,-1.2725792,3.189705,-0.2605667,-0.2357666,-0.9526245,-0.52250975,101.0
17626,-1.2725792,3.189705,-0.2605667,0.3706421,-1.5420411,-0.5214478,101.0
17627,-0.5787449,-0.46096802,-0.7562065,0.3706421,-1.5420411,-0.5214478,101.0
17628,-0.5787449,-0.46096802,-0.7562065,1.536731,-2.2281005,-0.1539917,101.0
17629,-0.42497063,-2.1137314,-0.81404877,1.536731,-2.2281005,-0.1539917,101.0
17630,-0.42497063,-2.1137314,-0.81404877,1.7724975,-2.441565,0.16248779,101.0
17631,0.95416355,-10.508148,-0.7728329,1.7724975,-2.441565,0.16248779,101.0
17632,0.95416355,-10.508148,-0.7728329,3.180725,-3.5800416,0.30479738,101.0
17633,0.95416355,-10.508148,-0.7728329,3.6713746,-3.5864136,-0.0637207,101.0
17634,1.5510387,-12.678062,-0.41555786,3.6713746,-3.5864136,-0.0637207,101.0
17635,6.4794664,-8.508194,4.5672607,3.6713746,-3.5864136,-0.0637207,101.0
17636,6.4794664,-8.508194,4.5672607,0.8442993,-3.2964845,-0.004248047,101.0
17637,6.4794664,-8.508194,4.5672607,-0.27399904,-2.624231,-0.28674316,101.0
17638,6.4794664,-8.508194,4.5672607,-2.0348146,-1.1660889,-0.32178956,101.0
17639,3.5864182,-5.5147552,3.6793575,-2.0348146,-1.1660889,-0.32178956,101.0
17640,3.5864182,-5.5147552,3.6793575,-1.7045288,-1.0142212,-0.26444092,101.0
17641,-0.5552311,-0.9309845,2.0320358,-1.7045288,-1.0142212,-0.26444092,101.0
17642,-0.5552311,-0.9309845,2.0320358,-1.4581422,-0.635083,-0.07965088,101.0
17643,-0.7577343,0.7127228,1.6134453,-1.4581422,-0.635083,-0.07965088,101.0
17644,-0.7577343,0.7127228,1.6134453,-1.1151123,-0.51932377,0.14868164,101.0
17645,-0.034116745,4.7076187,1.4148521,-1.1151123,-0.51932377,0.14868164,101.0
17646,-0.034116745,4.7076187,1.4148521,-0.5012695,-0.09239502,-0.08496094,101.0
17647,0.31565094,5.1720276,1.083931,-0.5012695,-0.09239502,-0.08496094,101.0
17648,0.31565094,5.1720276,1.083931,-0.44710693,0.053100586,-0.047790527,101.0
17649,0.7706604,8.0956955,0.4197464,-0.44710693,0.053100586,-0.047790527,101.0
17650,0.7706604,8.0956955,0.4197464,-0.8092529,0.7051758,-0.48640138,101.0
17651,0.65073204,7.5919724,0.16262817,-0.8092529,0.7051758,-0.48640138,101.0
17652,0.65073204,7.5919724,0.16262817,-0.9281983,0.901648,-0.49383545,101.0
17653,0.7943039,7.198822,-0.7798691,-0.9281983,0.901648,-0.49383545,101.0
17654,0.7943039,7.198822,-0.7798691,0.05628662,1.4974365,-0.6775635,101.0
17655,1.1634579,5.347679,-1.1421814,0.05628662,1.4974365,-0.6775635,101.0
17656,1.1634579,5.347679,-1.1421814,0.6903076,1.6471802,-0.6446411,101.0
17657,2.752336,1.7916336,-1.7171631,0.6903076,1.6471802,-0.6446411,101.0
17658,2.752336,1.7916336,-1.7171631,1.4400879,2.0263183,-0.62340087,101.0
17659,2.932313,-0.13052368,-1.3905277,1.4400879,2.0263183,-0.62340087,101.0
17660,2.932313,-0.13052368,-1.3905277,1.5048707,2.2854493,-0.5957886,101.0
17661,2.932313,-0.13052368,-1.3905277,1.5048707,2.2854493,-0.5957886,104.0
17662,3.1705575,-9.424171,-1.0880203,1.5048707,2.2854493,-0.5957886,104.0
17663,3.1705575,-9.424171,-1.0880203,1.5781494,2.4999757,-1.4666382,104.0
17664,3.1514244,-11.800301,-1.0014343,1.5781494,2.4999757,-1.4666382,104.0
17665,3.1514244,-11.800301,-1.0014343,2.0358765,2.440503,-0.6818115,104.0
17666,3.006503,-14.325264,0.44892693,2.0358765,2.440503,-0.6818115,104.0
17667,3.006503,-14.325264,0.44892693,1.4560181,2.5647583,-0.2357666,104.0
17668,1.6149192,-10.8491745,3.0576038,1.4560181,2.5647583,-0.2357666,104.0
17669,1.6149192,-10.8491745,3.0576038,-1.7926759,2.6104248,-0.631897,104.0
17670,-1.3907552,-5.7171707,3.517994,-1.7926759,2.6104248,-0.631897,104.0
17671,-1.3907552,-5.7171707,3.517994,-1.9264892,2.1102173,-0.13912354,104.0
17672,-1.8515325,-3.4174728,1.7970352,-1.9264892,2.1102173,-0.13912354,104.0
17673,-1.8515325,-3.4174728,1.7970352,-1.7077149,2.076233,-0.35577393,104.0
17674,-3.5141973,0.18828583,-2.88665,-1.7077149,2.076233,-0.35577393,104.0
17675,-3.5141973,0.18828583,-2.88665,-0.8857178,1.6907227,-0.1529297,104.0
17676,-3.2028618,1.3402481,-2.9714165,-0.8857178,1.6907227,-0.1529297,104.0
17677,-3.2028618,1.3402481,-2.9714165,-0.6287109,1.5165528,-0.03717041,104.0
17678,-3.4189787,3.8280716,-2.1700401,-0.6287109,1.5165528,-0.03717041,104.0
17679,-3.4189787,3.8280716,-2.1700401,-0.6531372,1.1883911,0.029736329,104.0
17680,-3.1714745,6.170555,-0.5936241,-0.6531372,1.1883911,0.029736329,104.0
17681,-3.1714745,6.170555,-0.5936241,-0.98129886,0.8517334,0.13381349,104.0
17682,-3.2132902,9.237099,0.5824013,-0.98129886,0.8517334,0.13381349,104.0
17683,-3.2132902,9.237099,0.5824013,-1.0269654,0.060534667,0.42055663,104.0
17684,-2.9368916,8.614029,0.51252747,-1.0269654,0.060534667,0.42055663,104.0
17685,-2.9368916,8.614029,0.51252747,-0.81243896,-0.33665773,0.6796875,104.0
17686,-3.0014534,8.332535,-0.020606995,-0.81243896,-0.33665773,0.6796875,104.0
17687,-3.0014534,8.332535,-0.020606995,-0.2899292,-1.1512207,0.55968016,104.0
17688,-2.655264,6.517273,-0.9341011,-0.2899292,-1.1512207,0.55968016,104.0
17689,-2.655264,6.517273,-0.9341011,0.2782471,-1.8521484,0.1996582,104.0
17690,-1.7433643,3.533348,-1.7129059,0.2782471,-1.8521484,0.1996582,104.0
17691,-1.7433643,3.533348,-1.7129059,0.8464233,-2.535022,0.33771974,104.0
17692,-0.49620533,0.39026642,-1.8444443,0.8464233,-2.535022,0.33771974,104.0
17693,-0.49620533,0.39026642,-1.8444443,1.5770874,-3.1945312,0.817749,104.0
17694,0.34909344,-2.56279,-1.49926,1.5770874,-3.1945312,0.817749,104.0
17695,0.34909344,-2.56279,-1.49926,1.9657837,-3.5513673,0.996167,104.0
17696,0.34909344,-2.56279,-1.49926,2.355542,-3.891211,0.86553955,104.0
17697,0.8135643,-8.834755,-1.6383247,2.355542,-3.891211,0.86553955,104.0
17698,7.4351654,-18.42125,0.4582138,2.355542,-3.891211,0.86553955,104.0
17699,7.4351654,-18.42125,0.4582138,4.962781,-4.5029297,1.0524536,104.0
17700,7.4351654,-18.42125,0.4582138,1.3179566,-2.5859985,0.76358646,104.0
17701,7.842932,-8.940994,3.143097,1.3179566,-2.5859985,0.76358646,104.0
17702,7.842932,-8.940994,3.143097,-0.73703617,-1.2361816,2.079419,104.0
17703,4.977825,-5.402588,3.1889038,-0.73703617,-1.2361816,2.079419,104.0
17704,4.977825,-5.402588,3.1889038,0.14549561,-0.8952759,-0.022302246,104.0
17705,1.7523651,-0.20881653,2.5565434,0.14549561,-0.8952759,-0.022302246,104.0
17706,1.7523651,-0.20881653,2.5565434,-1.721521,-0.06584473,0.32497558,104.0
17707,-0.96136475,3.7441025,1.4241028,-1.721521,-0.06584473,0.32497558,104.0
17708,-0.96136475,3.7441025,1.4241028,-3.1244385,0.33878174,0.42905274,104.0
17709,-2.1537108,4.995323,0.38655853,-3.1244385,0.33878174,0.42905274,104.0
17710,-2.1537108,4.995323,0.38655853,-1.9509156,0.34090576,0.07540283,104.0
17711,-2.0566478,5.4395676,-0.06471634,-1.9509156,0.34090576,0.07540283,104.0
17712,-2.0566478,5.4395676,-0.06471634,-0.70092773,0.35789797,0.46409914,104.0
17713,-1.3387995,6.802452,-0.34794235,-0.70092773,0.35789797,0.46409914,104.0
17714,-1.3387995,6.802452,-0.34794235,0.08602295,0.2527588,0.19222413,104.0
17715,-0.766901,8.429695,-0.5289993,0.08602295,0.2527588,0.19222413,104.0
17716,-0.766901,8.429695,-0.5289993,-0.012744141,0.4991455,-0.27399904,104.0
17717,-0.52556896,8.822601,-0.36361694,-0.012744141,0.4991455,-0.27399904,104.0
17718,-0.52556896,8.822601,-0.36361694,-0.36533204,0.8209351,-0.83049315,104.0
17719,0.13607597,7.124222,-0.35694504,-0.36533204,0.8209351,-0.83049315,104.0
17720,0.13607597,7.124222,-0.35694504,-0.15611573,1.0736939,-1.2786621,104.0
17721,1.3854842,3.6894379,-0.9741783,-0.15611573,1.0736939,-1.2786621,104.0
17722,1.3854842,3.6894379,-0.9741783,0.97280276,1.1607789,-0.7497803,104.0
17723,2.697926,-0.14598846,-1.201622,0.97280276,1.1607789,-0.7497803,104.0
17724,2.697926,-0.14598846,-1.201622,1.6482422,1.2807862,-0.3727661,104.0
17725,2.9201088,-4.125824,-0.3275318,1.6482422,1.2807862,-0.3727661,104.0
17726,2.9201088,-4.125824,-0.3275318,1.1098022,1.7778076,-1.0864381,104.0
17727,2.9201088,-4.125824,-0.3275318,0.6244629,2.0380006,-1.3264526,104.0
17728,2.5067167,-9.824913,0.5413437,0.6244629,2.0380006,-1.3264526,104.0
17729,-0.5333109,-13.437836,3.8845139,0.6244629,2.0380006,-1.3264526,104.0
17730,-0.5333109,-13.437836,3.8845139,0.813501,2.3077514,-0.29736328,104.0
17731,-0.5333109,-13.437836,3.8845139,-0.7147339,2.250403,-0.25913087,104.0
17732,-0.5333109,-13.437836,3.8845139,-1.0959961,2.3130615,0.15505372,104.0
17733,-1.6882453,-9.0596695,2.1876526,-1.0959961,2.3130615,0.15505372,104.0
17734,-1.6882453,-9.0596695,2.1876526,-0.93775636,2.3852785,0.095581055,104.0
17735,-2.2568588,-5.5758514,-0.8100586,-0.93775636,2.3852785,0.095581055,104.0
17736,-2.2568588,-5.5758514,-0.8100586,-0.5586182,2.1420777,0.38763428,104.0
17737,-2.4090881,-2.0289307,-2.2988281,-0.5586182,2.1420777,0.38763428,104.0
17738,-2.4090881,-2.0289307,-2.2988281,-0.16567384,1.8871949,0.5872925,104.0
17739,-2.2942019,1.99617,-1.9394169,-0.16567384,1.8871949,0.5872925,104.0
17740,-2.2942019,1.99617,-1.9394169,-0.37807617,1.6779785,0.50445557,104.0
17741,-1.9548807,5.0193253,-1.1132889,-0.37807617,1.6779785,0.50445557,104.0
17742,-1.9548807,5.0193253,-1.1132889,-0.80181885,1.3880494,0.362146,104.0
17743,-1.4826794,6.4513016,-0.43930054,-0.80181885,1.3880494,0.362146,104.0
17744,-1.4826794,6.4513016,-0.43930054,-0.65844727,0.9674927,0.4959595,104.0
17745,-1.1332502,7.003372,-0.031227112,-0.65844727,0.9674927,0.4959595,104.0
17746,-1.1332502,7.003372,-0.031227112,-0.078588866,0.38869628,0.6573853,104.0
17747,-0.9965172,7.227516,-0.13650513,-0.078588866,0.38869628,0.6573853,104.0
17748,-0.9965172,7.227516,-0.13650513,0.14549561,-0.24957275,0.634021,104.0
17749,-0.88350487,6.6548843,-0.69267464,0.14549561,-0.24957275,0.634021,104.0
17750,-0.88350487,6.6548843,-0.69267464,0.3090454,-0.90058595,0.33240968,104.0
17751,-0.6899586,4.6758347,-1.4037495,0.3090454,-0.90058595,0.33240968,104.0
17752,-0.6899586,4.6758347,-1.4037495,1.0014771,-1.5515991,0.17947999,104.0
17753,-0.52264595,1.8202591,-1.961195,1.0014771,-1.5515991,0.17947999,104.0
17754,-0.52264595,1.8202591,-1.961195,1.6546143,-2.2875733,0.34090576,104.0
17755,-0.51827526,-0.9262619,-1.7700806,1.6546143,-2.2875733,0.34090576,104.0
17756,-0.51827526,-0.9262619,-1.7700806,2.6019287,-3.0065553,0.48746338,104.0
17757,-0.51827526,-0.9262619,-1.7700806,3.2263916,-3.3071046,0.6966797,104.0
17758,-0.8739338,-4.043907,-0.74282265,3.2263916,-3.3071046,0.6966797,104.0
17759,-0.20521355,-20.58944,1.7150421,3.2263916,-3.3071046,0.6966797,104.0
17760,-0.20521355,-20.58944,1.7150421,3.2263916,-3.3071046,0.6966797,106.0
17761,-0.20521355,-20.58944,1.7150421,5.5766234,-3.7786376,0.84536135,106.0
17762,-0.20521355,-20.58944,1.7150421,8.289001,-3.972986,1.5537232,106.0
17763,2.0500984,-17.312881,4.7358017,8.289001,-3.972986,1.5537232,106.0
17764,2.0500984,-17.312881,4.7358017,5.053052,-4.528418,3.0479736,106.0
17765,4.0137234,-7.9507065,7.5846863,5.053052,-4.528418,3.0479736,106.0
17766,4.0137234,-7.9507065,7.5846863,1.5675293,-2.170752,0.5012695,106.0
17767,2.8666182,-1.0173187,7.5163574,1.5675293,-2.170752,0.5012695,106.0
17768,2.8666182,-1.0173187,7.5163574,-2.7028198,-0.8995239,0.4354248,106.0
17769,-0.16581154,1.109726,5.024452,-2.7028198,-0.8995239,0.4354248,106.0
17770,-0.16581154,1.109726,5.024452,-3.717041,-0.6616333,0.46409914,106.0
17771,-2.1661453,1.254715,1.9239922,-3.717041,-0.6616333,0.46409914,106.0
17772,-2.1661453,1.254715,1.9239922,-3.1743531,-0.7168579,0.7412842,106.0
17773,-2.2358828,2.8271027,-0.35583878,-3.1743531,-0.7168579,0.7412842,106.0
17774,-2.2358828,2.8271027,-0.35583878,-2.2111084,-0.7975708,0.9515625,106.0
17775,-1.2045879,5.42791,-1.7874794,-2.2111084,-0.7975708,0.9515625,106.0
17776,-1.2045879,5.42791,-1.7874794,-1.6185058,-0.7805786,0.8464233,106.0
17777,-0.01879692,7.635414,-2.7874527,-1.6185058,-0.7805786,0.8464233,106.0
17778,-0.01879692,7.635414,-2.7874527,-1.6514282,-0.5246338,0.54906005,106.0
17779,0.8409443,8.754608,-3.2812805,-1.6514282,-0.5246338,0.54906005,106.0
17780,0.8409443,8.754608,-3.2812805,-1.987024,-0.15611573,0.1709839,106.0
17781,1.350441,8.855942,-3.1899529,-1.987024,-0.15611573,0.1709839,106.0
17782,1.350441,8.855942,-3.1899529,-2.2812011,0.32922363,-0.35895997,106.0
17783,1.8564758,7.684494,-2.844551,-2.2812011,0.32922363,-0.35895997,106.0
17784,1.8564758,7.684494,-2.844551,-2.5891845,0.77314454,-0.45347902,106.0
17785,2.7740479,4.1967926,-2.4430733,-2.5891845,0.77314454,-0.45347902,106.0
17786,2.7740479,4.1967926,-2.4430733,-1.721521,1.1597168,-0.39294434,106.0
17787,3.542151,-1.5390015,-1.6071205,-1.721521,1.1597168,-0.39294434,106.0
17788,3.542151,-1.5390015,-1.6071205,0.12000733,1.5208008,-0.5968506,106.0
17789,3.6778007,-7.988083,0.21442413,0.12000733,1.5208008,-0.5968506,106.0
17790,3.6778007,-7.988083,0.21442413,0.6552612,1.8319702,-1.1331666,106.0
17791,3.326335,-11.611816,3.0700645,0.6552612,1.8319702,-1.1331666,106.0
17792,3.326335,-11.611816,3.0700645,-0.19541016,2.447937,-1.0864381,106.0
17793,3.326335,-11.611816,3.0700645,-1.0237793,2.7198122,-1.1724609,106.0
17794,1.9589562,-10.863564,5.8866806,-1.0237793,2.7198122,-1.1724609,106.0
17795,-1.9703593,-7.361397,5.0997505,-1.0237793,2.7198122,-1.1724609,106.0
17796,-1.9703593,-7.361397,5.0997505,-1.0269654,2.6794555,-0.6669434,106.0
17797,-1.9703593,-7.361397,5.0997505,-2.3311157,3.0065553,-0.62552494,106.0
17798,-4.022308,-3.7554016,-0.6153755,-2.3311157,3.0065553,-0.62552494,106.0
17799,-4.022308,-3.7554016,-0.6153755,-1.4942505,2.6667116,-0.44923097,106.0
17800,-5.0805902,-0.07785034,-4.4358673,-1.4942505,2.6667116,-0.44923097,106.0
17801,-5.0805902,-0.07785034,-4.4358673,-1.1172364,2.3767822,-0.2262085,106.0
17802,-4.663789,3.1511536,-5.1587296,-1.1172364,2.3767822,-0.2262085,106.0
17803,-4.663789,3.1511536,-5.1587296,-0.6287109,1.9116211,0.050976563,106.0
17804,-3.8383312,5.764206,-4.264019,-0.6287109,1.9116211,0.050976563,106.0
17805,-3.8383312,5.764206,-4.264019,-0.1731079,1.2563599,0.36745605,106.0
17806,-3.0989122,8.090538,-3.0275612,-0.1731079,1.2563599,0.36745605,106.0
17807,-3.0989122,8.090538,-3.0275612,-0.29523927,0.5501221,0.56180423,106.0
17808,-2.6315956,9.704842,-1.9071922,-0.29523927,0.5501221,0.56180423,106.0
17809,-2.6315956,9.704842,-1.9071922,-0.32391357,-0.18797608,0.71367186,106.0
17810,-2.3412752,9.950165,-1.2179527,-0.32391357,-0.18797608,0.71367186,106.0
17811,-2.3412752,9.950165,-1.2179527,-0.28355715,-0.8729736,0.5703003,106.0
17812,-2.0630836,8.591087,-1.0752907,-0.28355715,-0.8729736,0.5703003,106.0
17813,-2.0630836,8.591087,-1.0752907,-0.047790527,-1.539917,0.07965088,106.0
17814,-1.807766,5.6651764,-1.1851234,-0.047790527,-1.539917,0.07965088,106.0
17815,-1.807766,5.6651764,-1.1851234,0.019116212,-2.166504,0.0180542,106.0
17816,-1.7072716,1.6414566,-1.317482,0.019116212,-2.166504,0.0180542,106.0
17817,-1.7072716,1.6414566,-1.317482,1.269104,-2.7814088,-0.33984375,106.0
17818,-1.532712,-3.205368,-1.5718937,1.269104,-2.7814088,-0.33984375,106.0
17819,-1.532712,-3.205368,-1.5718937,2.2450929,-3.3315308,0.19753419,106.0
17820,-0.5961895,-10.907791,-1.5024872,2.2450929,-3.3315308,0.19753419,106.0
17821,-0.5961895,-10.907791,-1.5024872,4.0229006,-3.893335,-0.1709839,106.0
17822,1.4688988,-18.450096,0.108875275,4.0229006,-3.893335,-0.1709839,106.0
17823,1.4688988,-18.450096,0.108875275,5.237842,-3.9474976,2.3289917,106.0
17824,2.7383633,-17.269913,3.1159458,5.237842,-3.9474976,2.3289917,106.0
17825,2.7383633,-17.269913,3.1159458,-0.0180542,-2.0082643,3.5067627,106.0
17826,3.4950733,-10.142189,4.6853943,-0.0180542,-2.0082643,3.5067627,106.0
17827,3.4950733,-10.142189,4.6853943,-2.5222778,-2.6433473,2.3778443,106.0
17828,3.7131004,-3.6842194,3.1870346,-2.5222778,-2.6433473,2.3778443,106.0
17829,3.7131004,-3.6842194,3.1870346,-3.894397,-1.1044922,2.3215578,106.0
17830,2.5297823,1.6846466,1.2711735,-3.894397,-1.1044922,2.3215578,106.0
17831,2.5297823,1.6846466,1.2711735,-3.7425294,-1.1267945,2.270581,106.0
17832,1.7317362,5.1546173,1.0679283,-3.7425294,-1.1267945,2.270581,106.0
17833,1.7317362,5.1546173,1.0679283,-2.6327271,-1.273352,1.5112427,106.0
17834,1.373951,7.8135834,2.1812248,-2.6327271,-1.273352,1.5112427,106.0
17835,1.373951,7.8135834,2.1812248,-1.6376221,-1.2064453,0.9515625,106.0
17836,1.3686428,9.755501,2.9333572,-1.6376221,-1.2064453,0.9515625,106.0
17837,1.3686428,9.755501,2.9333572,-1.2510499,-0.77314454,0.15930176,106.0
17838,1.4375048,10.476738,2.4635544,-1.2510499,-0.77314454,0.15930176,106.0
17839,1.4375048,10.476738,2.4635544,-1.1533448,-0.15186767,-0.4333008,106.0
17840,1.5084753,10.270416,1.2590637,-1.1533448,-0.15186767,-0.4333008,106.0
17841,1.5084753,10.270416,1.2590637,-0.6754395,0.46622315,-0.5692383,106.0
17842,1.6544733,8.904396,-0.12674332,-0.6754395,0.46622315,-0.5692383,106.0
17843,1.6544733,8.904396,-0.12674332,1.532483,1.2021973,-1.0205933,106.0
17844,2.151618,6.4797287,-1.0073509,1.532483,1.2021973,-1.0205933,106.0
17845,2.151618,6.4797287,-1.0073509,1.8691406,1.8595825,-1.7024049,106.0
17846,3.3696346,2.9312897,-1.0523643,1.8691406,1.8595825,-1.7024049,106.0
17847,3.3696346,2.9312897,-1.0523643,2.3916504,2.628479,-1.8245362,106.0
17848,4.480168,-3.2332916,-1.1772804,2.3916504,2.628479,-1.8245362,106.0
17849,4.480168,-3.2332916,-1.1772804,3.2317016,3.3039186,-2.1261475,106.0
17850,5.0093174,-11.938217,-1.4616623,3.2317016,3.3039186,-2.1261475,106.0
17851,5.0093174,-11.938217,-1.4616623,3.2986085,3.4536622,-2.6592774,106.0
17852,3.9426835,-17.632889,0.51700974,3.2986085,3.4536622,-2.6592774,106.0
17853,3.9426835,-17.632889,0.51700974,1.7555054,3.2614381,-1.8532104,106.0
17854,1.0464077,-15.856651,3.7922325,1.7555054,3.2614381,-1.8532104,106.0
17855,1.0464077,-15.856651,3.7922325,-0.97386473,3.2327638,-1.9264892,106.0
17856,1.0464077,-15.856651,3.7922325,-1.9222412,3.1127565,-1.7002808,106.0
17857,-2.3540726,-10.156631,3.6290627,-1.9222412,3.1127565,-1.7002808,106.0
17858,-9.768256,-1.4392548,-4.356064,-1.9222412,3.1127565,-1.7002808,106.0
17859,-9.768256,-1.4392548,-4.356064,-0.3812622,2.6900756,-0.71579593,106.0
17860,-9.768256,-1.4392548,-4.356064,0.35471192,2.2397828,-0.45135498,106.0
17861,-9.768256,-1.4392548,-4.356064,0.3164795,1.9541016,-0.4715332,106.0
17862,-8.838324,3.1902618,-5.977539,0.3164795,1.9541016,-0.4715332,106.0
17863,-5.0471725,13.288841,-3.3947525,0.3164795,1.9541016,-0.4715332,106.0
17864,-5.0471725,13.288841,-3.3947525,-0.18903808,1.5579712,-0.2888672,106.0
17865,-5.0471725,13.288841,-3.3947525,-0.48427734,1.2351197,-0.0998291,106.0
17866,-5.0471725,13.288841,-3.3947525,-0.45772704,0.8241211,0.16036378,106.0
17867,-3.9788027,11.809158,-2.0163765,-0.45772704,0.8241211,0.16036378,106.0
17868,-3.9788027,11.809158,-2.0163765,-0.16461182,0.22408448,0.27612305,106.0
17869,-3.3287697,9.846687,-1.5839138,-0.16461182,0.22408448,0.27612305,106.0
17870,-3.3287697,9.846687,-1.5839138,-0.32709962,-0.5331299,0.14018555,106.0
17871,-2.3219395,6.9062424,-1.6650314,-0.32709962,-0.5331299,0.14018555,106.0
17872,-2.3219395,6.9062424,-1.6650314,-0.541626,-1.3965454,0.028674318,106.0
17873,-1.2102365,2.6537933,-1.7514458,-0.541626,-1.3965454,0.028674318,106.0
17874,-1.2102365,2.6537933,-1.7514458,0.65632325,-2.156946,0.17416993,106.0
17875,-0.6103525,-2.064148,-1.3674164,0.65632325,-2.156946,0.17416993,106.0
17876,-0.6103525,-2.064148,-1.3674164,1.8542725,-2.8366334,0.8028809,106.0
17877,-0.36837292,-8.400589,-0.27291107,1.8542725,-2.8366334,0.8028809,106.0
17878,-0.36837292,-8.400589,-0.27291107,3.248694,-3.3920655,0.99085695,106.0
17879,0.9525795,-15.279053,1.4243088,3.248694,-3.3920655,0.99085695,106.0
17880,0.9525795,-15.279053,1.4243088,3.248694,-3.3920655,0.99085695,111.0
17881,0.9525795,-15.279053,1.4243088,4.2119384,-4.0165286,2.5159059,111.0
17882,3.419815,-15.639137,3.4225883,4.2119384,-4.0165286,2.5159059,111.0
17883,3.419815,-15.639137,3.4225883,0.31860352,-2.619983,2.439441,111.0
17884,4.76886,-9.648468,5.3652077,0.31860352,-2.619983,2.439441,111.0
17885,4.76886,-9.648468,5.3652077,-1.4050416,-2.6295412,2.18562,111.0
17886,3.9977903,-2.955658,5.361904,-1.4050416,-2.6295412,2.18562,111.0
17887,3.9977903,-2.955658,5.361904,-1.0651978,-1.6652344,1.7894897,111.0
17888,2.0106592,2.1464233,2.8955917,-1.0651978,-1.6652344,1.7894897,111.0
17889,2.0106592,2.1464233,2.8955917,-3.2062135,-0.9770508,0.9505005,111.0
17890,0.25470638,4.548424,0.50271606,-3.2062135,-0.9770508,0.9505005,111.0
17891,0.25470638,4.548424,0.50271606,-2.3884645,-0.8358032,1.0163453,111.0
17892,-0.36825657,6.1291122,-0.30168533,-2.3884645,-0.8358032,1.0163453,111.0
17893,-0.36825657,6.1291122,-0.30168533,-2.3980224,-0.7880127,0.78164065,111.0
17894,0.069664955,7.186943,-0.28546524,-2.3980224,-0.7880127,0.78164065,111.0
17895,0.069664955,7.186943,-0.28546524,-1.6769165,-0.71791995,0.4885254,111.0
17896,0.73711586,8.268631,-0.5828018,-1.6769165,-0.71791995,0.4885254,111.0
17897,0.73711586,8.268631,-0.5828018,-1.1055542,-0.48109132,0.3536499,111.0
17898,1.1746664,9.687927,-1.195221,-1.1055542,-0.48109132,0.3536499,111.0
17899,1.1746664,9.687927,-1.195221,-1.0492676,-0.2357666,0.40993652,111.0
17900,1.3855095,10.265549,-1.6700783,-1.0492676,-0.2357666,0.40993652,111.0
17901,1.3855095,10.265549,-1.6700783,-0.1539917,0.31223145,-0.38869628,111.0
17902,1.5285735,9.43351,-1.6065445,-0.1539917,0.31223145,-0.38869628,111.0
17903,1.5285735,9.43351,-1.6065445,-0.2803711,0.89102787,-0.94731444,111.0
17904,1.9872875,7.0327682,-1.3203087,-0.2803711,0.89102787,-0.94731444,111.0
17905,1.9872875,7.0327682,-1.3203087,0.14124756,1.536731,-1.6609863,111.0
17906,2.8332748,3.1335373,-1.0238228,0.14124756,1.536731,-1.6609863,111.0
17907,2.8332748,3.1335373,-1.0238228,1.1501588,1.9477295,-1.5813354,111.0
17908,3.4036927,-1.778122,-0.5483208,1.1501588,1.9477295,-1.5813354,111.0
17909,3.4036927,-1.778122,-0.5483208,2.2026124,2.5116577,-1.3445069,111.0
17910,3.0047169,-8.79335,-0.40324402,2.2026124,2.5116577,-1.3445069,111.0
17911,3.0047169,-8.79335,-0.40324402,2.9789429,2.794153,-2.0486207,111.0
17912,2.0861707,-15.894081,0.17487717,2.9789429,2.794153,-2.0486207,111.0
17913,2.0861707,-15.894081,0.17487717,2.3842163,2.7707887,-1.4369019,111.0
17914,2.0861707,-15.894081,0.17487717,1.2967163,3.0054932,-1.2011353,111.0
17915,0.504117,-17.397842,2.9300385,1.2967163,3.0054932,-1.2011353,111.0
17916,-7.4385276,-5.5669174,-0.080078125,1.2967163,3.0054932,-1.2011353,111.0
17917,-7.4385276,-5.5669174,-0.080078125,-1.3391968,2.8780518,-1.358313,111.0
17918,-7.4385276,-5.5669174,-0.080078125,-1.6599244,2.6635253,-0.66481936,111.0
17919,-7.4385276,-5.5669174,-0.080078125,-1.1862671,2.3077514,-0.632959,111.0
17920,-5.950822,-4.453537,-0.064064026,-1.1862671,2.3077514,-0.632959,111.0
17921,-4.819459,7.5546875,-4.2182446,-1.1862671,2.3077514,-0.632959,111.0
17922,-4.819459,7.5546875,-4.2182446,-0.8442993,1.7937378,0.08814698,111.0
17923,-4.819459,7.5546875,-4.2182446,-0.6903076,1.3030884,0.37382814,111.0
17924,-4.819459,7.5546875,-4.2182446,-0.7890747,0.8496094,0.40462646,111.0
17925,-3.4558363,9.72496,-1.9534531,-0.7890747,0.8496094,0.40462646,111.0
17926,-3.4558363,9.72496,-1.9534531,-1.1331666,0.44816896,0.5798584,111.0
17927,-2.6218586,10.167221,-0.6596985,-1.1331666,0.44816896,0.5798584,111.0
17928,-2.6218586,10.167221,-0.6596985,-1.0407715,-0.04141846,0.67650145,111.0
17929,-2.152894,9.258278,-0.38748932,-1.0407715,-0.04141846,0.67650145,111.0
17930,-2.152894,9.258278,-0.38748932,-1.1140503,-0.5331299,0.19647217,111.0
17931,-1.6440802,6.824898,-0.78305054,-1.1140503,-0.5331299,0.19647217,111.0
17932,-1.6440802,6.824898,-0.78305054,-1.0227174,-1.2106934,-0.23258057,111.0
17933,-1.0296555,2.9857101,-1.3398304,-1.0227174,-1.2106934,-0.23258057,111.0
17934,-1.0296555,2.9857101,-1.3398304,-0.26444092,-1.9859619,-0.3175415,111.0
17935,-0.37810612,-1.0570755,-1.4547977,-0.26444092,-1.9859619,-0.3175415,111.0
17936,-0.37810612,-1.0570755,-1.4547977,0.87615967,-2.7198122,-0.13381349,111.0
17937,0.16993904,-6.1419144,-1.1065502,0.87615967,-2.7198122,-0.13381349,111.0
17938,0.16993904,-6.1419144,-1.1065502,2.4649293,-3.2189577,0.10513916,111.0
17939,1.2696304,-13.08876,-0.3439331,2.4649293,-3.2189577,0.10513916,111.0
17940,1.2696304,-13.08876,-0.3439331,4.269287,-3.9697998,1.0004151,111.0
17941,3.2732725,-15.952774,0.97097015,4.269287,-3.9697998,1.0004151,111.0
17942,3.2732725,-15.952774,0.97097015,3.516321,-3.6586304,1.4804443,111.0
17943,4.7607327,-11.606644,2.6518745,3.516321,-3.6586304,1.4804443,111.0
17944,4.7607327,-11.606644,2.6518745,2.0167603,-3.258252,1.6949707,111.0
17945,3.954997,-4.592102,3.7696304,2.0167603,-3.258252,1.6949707,111.0
17946,3.954997,-4.592102,3.7696304,-0.77739257,-1.6992188,0.26550293,111.0
17947,0.8054042,0.25736237,3.3376274,-0.77739257,-1.6992188,0.26550293,111.0
17948,0.8054042,0.25736237,3.3376274,-2.427759,-0.998291,-0.0637207,111.0
17949,-2.1664438,1.7479095,2.0567856,-2.427759,-0.998291,-0.0637207,111.0
17950,-2.1664438,1.7479095,2.0567856,-1.6418701,-0.904834,0.3451538,111.0
17951,-3.0188732,3.1948853,1.2220154,-1.6418701,-0.904834,0.3451538,111.0
17952,-3.0188732,3.1948853,1.2220154,-1.1034302,-0.7062378,0.6042847,111.0
17953,-2.0600815,5.962364,0.76533127,-1.1034302,-0.7062378,0.6042847,111.0
17954,-2.0600815,5.962364,0.76533127,-0.9611206,-0.3430298,0.47684327,111.0
17955,-0.51073647,8.839897,-0.24956512,-0.9611206,-0.3430298,0.47684327,111.0
17956,-0.51073647,8.839897,-0.24956512,-1.3232666,0.028674318,0.34940186,111.0
17957,0.66434765,10.553169,-1.5669136,-1.3232666,0.028674318,0.34940186,111.0
17958,0.66434765,10.553169,-1.5669136,-1.806482,0.28674316,0.083898924,111.0
17959,1.2033529,10.482346,-2.2678375,-1.806482,0.28674316,0.083898924,111.0
17960,1.2033529,10.482346,-2.2678375,-1.8712647,0.6085327,0.040356446,111.0
17961,1.4181023,8.679115,-2.155285,-1.8712647,0.6085327,0.040356446,111.0
17962,1.4181023,8.679115,-2.155285,-1.2478638,0.9494385,-0.32709962,111.0
17963,2.0622158,5.154915,-1.8139744,-1.2478638,0.9494385,-0.32709962,111.0
17964,2.0622158,5.154915,-1.8139744,0.23151855,1.1225464,-0.42268068,111.0
17965,3.3845873,1.094902,-1.632515,0.23151855,1.1225464,-0.42268068,111.0
17966,3.3845873,1.094902,-1.632515,1.453894,1.364685,-0.18479005,111.0
17967,4.313212,-2.8404846,-1.2032166,1.453894,1.364685,-0.18479005,111.0
17968,4.313212,-2.8404846,-1.2032166,1.6365601,1.7661256,-0.25913087,111.0
17969,3.9621177,-8.675209,-0.10590744,1.6365601,1.7661256,-0.25913087,111.0
17970,3.9621177,-8.675209,-0.10590744,1.4443359,2.1919923,-1.3455689,111.0
17971,2.8112469,-14.359726,2.0936317,1.4443359,2.1919923,-1.3455689,111.0
17972,2.8112469,-14.359726,2.0936317,1.1469727,2.2482789,-0.31860352,111.0
17973,2.8112469,-14.359726,2.0936317,1.1469727,2.2482789,-0.31860352,107.0
17974,0.79092884,-14.752968,5.225136,1.1469727,2.2482789,-0.31860352,107.0
17975,0.79092884,-14.752968,5.225136,-0.053100586,2.2790773,-0.86766356,107.0
17976,-1.5828452,-11.23761,6.635456,-0.053100586,2.2790773,-0.86766356,107.0
17977,-1.5828452,-11.23761,6.635456,-0.66588134,2.073047,-0.34090576,107.0
17978,-3.3509445,-6.7437363,3.505436,-0.66588134,2.073047,-0.34090576,107.0
17979,-3.3509445,-6.7437363,3.505436,-0.5968506,2.066675,-0.32178956,107.0
17980,-4.5332584,-1.9149017,-1.5000839,-0.5968506,2.066675,-0.32178956,107.0
17981,-4.5332584,-1.9149017,-1.5000839,-0.7497803,1.9275513,-0.48640138,107.0
17982,-4.7184277,2.011963,-4.110592,-0.7497803,1.9275513,-0.48640138,107.0
17983,-4.7184277,2.011963,-4.110592,-0.011682129,1.5176147,0.046728518,107.0
17984,-4.0447254,5.423706,-4.099922,-0.011682129,1.5176147,0.046728518,107.0
17985,-4.0447254,5.423706,-4.099922,0.0053100586,1.1172364,0.16461182,107.0
17986,-2.9771385,8.166145,-3.1299858,0.0053100586,1.1172364,0.16461182,107.0
17987,-2.9771385,8.166145,-3.1299858,-0.270813,0.6053467,0.2516968,107.0
17988,-1.8791227,9.6445465,-2.2378025,-0.270813,0.6053467,0.2516968,107.0
17989,-1.8791227,9.6445465,-2.2378025,-0.63614506,0.11151123,0.35895997,107.0
17990,-1.1029568,10.189705,-1.5674763,-0.63614506,0.11151123,0.35895997,107.0
17991,-1.1029568,10.189705,-1.5674763,-0.8750977,-0.39294434,0.43754885,107.0
17992,-0.86835194,9.899162,-1.1145515,-0.8750977,-0.39294434,0.43754885,107.0
17993,-0.86835194,9.899162,-1.1145515,-0.8889038,-0.93775636,0.27506104,107.0
17994,-0.9449501,8.285736,-0.9890766,-0.8889038,-0.93775636,0.27506104,107.0
17995,-0.9449501,8.285736,-0.9890766,-0.5936646,-1.5664673,-0.060534667,107.0
17996,-0.8698149,5.158272,-1.1524315,-0.5936646,-1.5664673,-0.060534667,107.0
17997,-0.8698149,5.158272,-1.1524315,-0.052038576,-2.2323487,-0.1901001,107.0
17998,-0.71829987,1.4829636,-1.3900604,-0.052038576,-2.2323487,-0.1901001,107.0
17999,-0.71829987,1.4829636,-1.3900604,0.73703617,-2.8207033,-0.12319336,107.0
18000,-0.55062866,-1.5171356,-1.3513546,0.73703617,-2.8207033,-0.12319336,107.0
18001,-0.55062866,-1.5171356,-1.3513546,1.1204224,-3.3400269,0.21877442,107.0
18002,-0.5745487,-4.7495346,-0.7984772,1.1204224,-3.3400269,0.21877442,107.0
18003,-0.5745487,-4.7495346,-0.7984772,1.6524903,-3.615088,0.6000366,107.0
18004,-0.78466415,-10.856232,0.12733078,1.6524903,-3.615088,0.6000366,107.0
18005,-0.78466415,-10.856232,0.12733078,2.616797,-3.987854,0.91120607,107.0
18006,0.22925186,-16.079811,1.3637791,2.616797,-3.987854,0.91120607,107.0
18007,0.22925186,-16.079811,1.3637791,3.5099487,-3.8274903,1.8925049,107.0
18008,2.0007849,-13.791695,2.8556213,3.5099487,-3.8274903,1.8925049,107.0
18009,2.0007849,-13.791695,2.8556213,-1.6206299,-1.4921265,1.0875,107.0
18010,3.225994,-7.379982,3.2867794,-1.6206299,-1.4921265,1.0875,107.0
18011,3.225994,-7.379982,3.2867794,0.51082766,-1.8181641,1.1522827,107.0
18012,2.7011929,-1.4601593,2.5432053,0.51082766,-1.8181641,1.1522827,107.0
18013,2.7011929,-1.4601593,2.5432053,-3.4802125,-0.54375,0.04248047,107.0
18014,0.21440887,1.2626724,2.0706367,-3.4802125,-0.54375,0.04248047,107.0
18015,0.21440887,1.2626724,2.0706367,-2.5307739,-0.50870365,0.45560303,107.0
18016,-1.2162781,2.946701,2.1697426,-2.5307739,-0.50870365,0.45560303,107.0
18017,-1.2162781,2.946701,2.1697426,-1.6131958,-0.5564942,0.76677245,107.0
18018,-1.2852049,5.576515,2.172989,-1.6131958,-0.5564942,0.76677245,107.0
18019,-1.2852049,5.576515,2.172989,-1.2383057,-0.41524658,0.541626,107.0
18020,-0.80136967,7.604439,1.283802,-1.2383057,-0.41524658,0.541626,107.0
18021,-0.80136967,7.604439,1.283802,-0.9600586,-0.23895264,0.39613038,107.0
18022,-0.05103302,8.635422,0.033195496,-0.9600586,-0.23895264,0.39613038,107.0
18023,-0.05103302,8.635422,0.033195496,-0.8219971,0.021240234,0.30267334,107.0
18024,0.7996769,9.302101,-0.7618599,-0.8219971,0.021240234,0.30267334,107.0
18025,0.7996769,9.302101,-0.7618599,-0.5586182,0.35577393,0.08814698,107.0
18026,1.4251423,9.200676,-1.1874809,-0.5586182,0.35577393,0.08814698,107.0
18027,1.4251423,9.200676,-1.1874809,-0.35683593,0.7890747,-0.33665773,107.0
18028,1.8459358,7.583664,-1.7275238,-0.35683593,0.7890747,-0.33665773,107.0
18029,1.8459358,7.583664,-1.7275238,0.0637207,1.0949341,-0.6796875,107.0
18030,2.5364046,4.397278,-2.3095932,0.0637207,1.0949341,-0.6796875,107.0
18031,2.5364046,4.397278,-2.3095932,0.7317261,1.1650269,-0.6775635,107.0
18032,3.2736187,0.2004776,-2.021246,0.7317261,1.1650269,-0.6775635,107.0
18033,3.2736187,0.2004776,-2.021246,1.2914063,1.364685,-0.42268068,107.0
18034,3.139989,-5.987587,-0.76207733,1.2914063,1.364685,-0.42268068,107.0
18035,3.139989,-5.987587,-0.76207733,1.717273,1.8340943,-1.3211426,107.0
18036,2.5216227,-12.858719,0.85744095,1.717273,1.8340943,-1.3211426,107.0
18037,2.5216227,-12.858719,0.85744095,1.8330323,1.7788696,-0.8230591,107.0
18038,1.2860236,-14.548111,3.344864,1.8330323,1.7788696,-0.8230591,107.0
18039,1.2860236,-14.548111,3.344864,0.6966797,2.0316284,-0.7657105,107.0
18040,-0.7263937,-11.330887,5.562855,0.6966797,2.0316284,-0.7657105,107.0
18041,-0.7263937,-11.330887,5.562855,-0.5150757,2.0061402,-0.86341554,107.0
18042,-2.5133414,-7.579666,4.420109,-0.5150757,2.0061402,-0.86341554,107.0
18043,-2.5133414,-7.579666,4.420109,-0.6435791,2.1962402,-0.19647217,107.0
18044,-3.644682,-3.4072723,0.1365776,-0.6435791,2.1962402,-0.19647217,107.0
18045,-3.644682,-3.4072723,0.1365776,-1.0503296,2.348108,-0.3802002,107.0
18046,-4.0801497,0.974823,-3.5432892,-1.0503296,2.348108,-0.3802002,107.0
18047,-4.0801497,0.974823,-3.5432892,-0.78164065,2.1888063,-0.31435546,107.0
18048,-4.0317955,4.381508,-4.4808006,-0.78164065,2.1888063,-0.31435546,107.0
18049,-4.0317955,4.381508,-4.4808006,-0.5703003,1.9328613,-0.25913087,107.0
18050,-3.4388885,6.3958206,-3.5840683,-0.5703003,1.9328613,-0.25913087,107.0
18051,-3.4388885,6.3958206,-3.5840683,-0.10513916,1.531421,-0.015930176,107.0
18052,-2.393238,7.443405,-2.1481514,-0.10513916,1.531421,-0.015930176,107.0
18053,-2.393238,7.443405,-2.1481514,-0.2442627,1.1947632,0.20921631,107.0
18054,-1.236721,8.275269,-0.9081459,-0.2442627,1.1947632,0.20921631,107.0
18055,-1.236721,8.275269,-0.9081459,-0.44923097,0.83474123,0.5246338,107.0
18056,-0.5183563,8.8650055,-0.3637371,-0.44923097,0.83474123,0.5246338,107.0
18057,-0.5183563,8.8650055,-0.3637371,-0.50445557,0.34090576,0.6287109,107.0
18058,-0.34097862,8.626511,-0.6670761,-0.50445557,0.34090576,0.6287109,107.0
18059,-0.34097862,8.626511,-0.6670761,-0.49064943,-0.20603028,0.16673584,107.0
18060,-0.36775303,6.840355,-1.3235302,-0.49064943,-0.20603028,0.16673584,107.0
18061,-0.36775303,6.840355,-1.3235302,-0.6839356,-0.81031495,-0.29099122,107.0
18062,-0.39041805,3.3312607,-1.8311272,-0.6839356,-0.81031495,-0.29099122,107.0
18063,-0.39041805,3.3312607,-1.8311272,-0.35683593,-1.4921265,-0.40037844,107.0
18064,-0.44695282,-0.7603073,-1.9486542,-0.35683593,-1.4921265,-0.40037844,107.0
18065,-0.44695282,-0.7603073,-1.9486542,0.5384399,-2.1845582,-0.37701416,107.0
18066,-0.54000854,-5.460602,-1.5944595,0.5384399,-2.1845582,-0.37701416,107.0
18067,-0.54000854,-5.460602,-1.5944595,1.8563966,-2.6815796,-0.19753419,107.0
18068,0.03376484,-11.795898,-0.82321167,1.8563966,-2.6815796,-0.19753419,107.0
18069,0.03376484,-11.795898,-0.82321167,3.6841187,-3.3665771,0.6860596,107.0
18070,1.7449312,-14.755005,0.6355839,3.6841187,-3.3665771,0.6860596,107.0
18071,1.7449312,-14.755005,0.6355839,3.6692505,-3.341089,1.4124756,107.0
18072,3.2210674,-10.236923,2.2381897,3.6692505,-3.341089,1.4124756,107.0
18073,3.2210674,-10.236923,2.2381897,0.033984374,-2.5753784,0.5501221,107.0
18074,3.2210674,-10.236923,2.2381897,0.033984374,-2.5753784,0.5501221,118.0
18075,3.092785,-4.6826324,3.0229492,0.033984374,-2.5753784,0.5501221,118.0
18076,3.092785,-4.6826324,3.0229492,-2.9120362,-1.5303589,-0.3717041,118.0
18077,1.3376923,-2.8534164,2.3505745,-2.9120362,-1.5303589,-0.3717041,118.0
18078,1.3376923,-2.8534164,2.3505745,-1.0609497,-1.3625611,0.1901001,118.0
18079,-0.5295162,-1.3751144,1.3044472,-1.0609497,-1.3625611,0.1901001,118.0
18080,-0.5295162,-1.3751144,1.3044472,-1.3126465,-1.2032593,0.3717041,118.0
18081,-1.3994551,1.2857666,1.3382492,-1.3126465,-1.2032593,0.3717041,118.0
18082,-1.3994551,1.2857666,1.3382492,-1.088562,-1.0524536,0.5766724,118.0
18083,-1.2524872,4.3533096,1.7201729,-1.088562,-1.0524536,0.5766724,118.0
18084,-1.2524872,4.3533096,1.7201729,-0.9366943,-0.8464233,0.5649902,118.0
18085,-0.5193844,6.613159,1.353653,-0.9366943,-0.8464233,0.5649902,118.0
18086,-0.5193844,6.613159,1.353653,-0.7412842,-0.5734863,0.50233155,118.0
18087,0.33544445,8.209305,0.38721848,-0.7412842,-0.5734863,0.50233155,118.0
18088,0.33544445,8.209305,0.38721848,-0.9154541,-0.23364258,0.39613038,118.0
18089,1.010128,9.504562,-0.43421936,-0.9154541,-0.23364258,0.39613038,118.0
18090,1.010128,9.504562,-0.43421936,-1.6535523,0.16992188,0.1720459,118.0
18091,1.4619722,10.101395,-0.8821411,-1.6535523,0.16992188,0.1720459,118.0
18092,1.4619722,10.101395,-0.8821411,-2.2546508,0.5777344,-0.093457036,118.0
18093,1.9592018,9.047447,-1.3259392,-2.2546508,0.5777344,-0.093457036,118.0
18094,1.9592018,9.047447,-1.3259392,-1.902063,0.9122681,-0.34090576,118.0
18095,2.8708038,5.5831985,-1.9029503,-1.902063,0.9122681,-0.34090576,118.0
18096,2.8708038,5.5831985,-1.9029503,-1.0683838,1.081128,-0.2262085,118.0
18097,3.6047974,0.25681305,-2.0516453,-1.0683838,1.081128,-0.2262085,118.0
18098,3.6047974,0.25681305,-2.0516453,0.68712157,1.3498169,-0.007434082,118.0
18099,3.4094973,-6.173691,-1.4247513,0.68712157,1.3498169,-0.007434082,118.0
18100,3.4094973,-6.173691,-1.4247513,1.5664673,1.8309082,-0.6818115,118.0
18101,2.7216043,-11.780983,-0.29346275,1.5664673,1.8309082,-0.6818115,118.0
18102,2.7216043,-11.780983,-0.29346275,1.8181641,2.0677369,-0.22408448,118.0
18103,1.4987316,-12.940781,1.8360443,1.8181641,2.0677369,-0.22408448,118.0
18104,1.4987316,-12.940781,1.8360443,0.5171997,2.342798,-0.27399904,118.0
18105,-0.30540895,-11.125549,4.4588013,0.5171997,2.342798,-0.27399904,118.0
18106,-0.30540895,-11.125549,4.4588013,0.038232423,2.3831544,-0.56605226,118.0
18107,-1.9802771,-8.616318,4.7684097,0.038232423,2.3831544,-0.56605226,118.0
18108,-1.9802771,-8.616318,4.7684097,-0.0361084,2.4904175,0.16142578,118.0
18109,-3.5169,-4.452484,1.2778244,-0.0361084,2.4904175,0.16142578,118.0
18110,-3.5169,-4.452484,1.2778244,-0.47365722,2.6826417,0.11044922,118.0
18111,-4.4201603,0.35946655,-2.955391,-0.47365722,2.6826417,0.11044922,118.0
18112,-4.4201603,0.35946655,-2.955391,-0.20603028,2.4691772,0.26868898,118.0
18113,-4.0792437,4.262497,-4.5476265,-0.20603028,2.4691772,0.26868898,118.0
18114,-4.0792437,4.262497,-4.5476265,0.095581055,2.18031,0.36427003,118.0
18115,-3.024784,6.960167,-3.7531643,0.095581055,2.18031,0.36427003,118.0
18116,-3.024784,6.960167,-3.7531643,0.12956543,1.8298463,0.3451538,118.0
18117,-1.9510775,8.395103,-2.30048,0.12956543,1.8298463,0.3451538,118.0
18118,-1.9510775,8.395103,-2.30048,-0.04248047,1.3402588,0.4248047,118.0
18119,-1.1386824,8.952095,-1.15032,-0.04248047,1.3402588,0.4248047,118.0
18120,-1.1386824,8.952095,-1.15032,-0.30161133,0.7986328,0.5065796,118.0
18121,-0.65325546,8.846474,-0.4474163,-0.30161133,0.7986328,0.5065796,118.0
18122,-0.65325546,8.846474,-0.4474163,-0.3706421,0.22833252,0.42161867,118.0
18123,-0.4577856,8.000702,-0.2589836,-0.3706421,0.22833252,0.42161867,118.0
18124,-0.4577856,8.000702,-0.2589836,-0.37595215,-0.32922363,-0.07646485,118.0
18125,-0.4237604,6.4872894,-0.3041954,-0.37595215,-0.32922363,-0.07646485,118.0
18126,-0.4237604,6.4872894,-0.3041954,-0.39613038,-0.630835,-0.2824951,118.0
18127,-0.18313694,2.8656082,-0.9237995,-0.39613038,-0.630835,-0.2824951,118.0
18128,-0.18313694,2.8656082,-0.9237995,0.72854006,-1.719397,-0.49489745,118.0
18129,-0.27841854,0.72686005,-0.96183014,0.72854006,-1.719397,-0.49489745,118.0
18130,-0.27841854,0.72686005,-0.96183014,1.5473511,-2.0464966,-0.271875,118.0
18131,-0.5252867,-5.49617,-0.69945526,1.5473511,-2.0464966,-0.271875,118.0
18132,-0.5252867,-5.49617,-0.69945526,4.0027223,-2.6051147,0.025488282,118.0
18133,-0.8531275,-8.456749,-0.46964645,4.0027223,-2.6051147,0.025488282,118.0
18134,-0.8531275,-8.456749,-0.46964645,5.194299,-2.89292,0.38657227,118.0
18135,0.60490036,-18.315292,1.432167,5.194299,-2.89292,0.38657227,118.0
18136,0.60490036,-18.315292,1.432167,8.267761,-3.4812744,0.99085695,118.0
18137,0.7820406,-17.11647,2.58786,8.267761,-3.4812744,0.99085695,118.0
18138,0.7820406,-17.11647,2.58786,8.52052,-3.1021364,0.65844727,118.0
18139,3.3966408,-7.9975815,6.823803,8.52052,-3.1021364,0.65844727,118.0
18140,3.3966408,-7.9975815,6.823803,2.2111084,-1.5261109,1.2436157,118.0
18141,3.4353905,-3.336441,6.396126,2.2111084,-1.5261109,1.2436157,118.0
18142,3.4353905,-3.336441,6.396126,0.35046387,-0.7975708,0.32922363,118.0
18143,1.4777555,1.9241028,5.534893,0.35046387,-0.7975708,0.32922363,118.0
18144,1.4777555,1.9241028,5.534893,-1.3498169,-0.96643066,0.362146,118.0
18145,0.39336205,2.5105667,4.021164,-1.3498169,-0.96643066,0.362146,118.0
18146,0.39336205,2.5105667,4.021164,-1.5813354,-1.0057251,0.48215333,118.0
18147,-0.5343952,3.7715454,1.9108887,-1.5813354,-1.0057251,0.48215333,118.0
18148,-0.5343952,3.7715454,1.9108887,-1.725769,-1.0768799,0.6138428,118.0
18149,-0.41709137,4.8091965,-0.25441742,-1.725769,-1.0768799,0.6138428,118.0
18150,-0.41709137,4.8091965,-0.25441742,-1.5069946,-1.0142212,0.84748536,118.0
18151,0.9335995,7.587471,-3.1335258,-1.5069946,-1.0142212,0.84748536,118.0
18152,0.9335995,7.587471,-3.1335258,-2.2684572,-0.2793091,0.76464844,118.0
18153,1.2769575,8.120369,-3.3633385,-2.2684572,-0.2793091,0.76464844,118.0
18154,1.2769575,8.120369,-3.3633385,-3.0352294,0.07327881,0.5957886,118.0
18155,1.9755945,10.7795105,-4.0868607,-3.0352294,0.07327881,0.5957886,118.0
18156,1.9755945,10.7795105,-4.0868607,-4.8693237,1.0354614,0.1985962,118.0
18157,1.8322697,9.425354,-3.2232246,-4.8693237,1.0354614,0.1985962,118.0
18158,1.8322697,9.425354,-3.2232246,-4.8236575,1.3275146,0.043542482,118.0
18159,2.2645092,6.2511826,-2.0656395,-4.8236575,1.3275146,0.043542482,118.0
18160,2.2645092,6.2511826,-2.0656395,-4.1301637,1.8850708,-0.29311523,118.0
18161,3.367015,0.8515091,-0.8588829,-4.1301637,1.8850708,-0.29311523,118.0
18162,3.367015,0.8515091,-0.8588829,-1.9456055,2.627417,-0.43967286,118.0
18163,4.0231895,-9.475525,0.14015198,-1.9456055,2.627417,-0.43967286,118.0
18164,4.0231895,-9.475525,0.14015198,2.2089844,2.9269044,-1.4645141,118.0
18165,3.5396943,-11.211624,0.20949554,2.2089844,2.9269044,-1.4645141,118.0
18166,3.5396943,-11.211624,0.20949554,2.8780518,2.8610597,-1.2372437,118.0
18167,1.3073535,-13.411049,3.455864,2.8780518,2.8610597,-1.2372437,118.0
18168,1.3073535,-13.411049,3.455864,1.6631104,2.5498903,-1.9774659,118.0
18169,0.3476405,-10.647415,4.658928,1.6631104,2.5498903,-1.9774659,118.0
18170,0.3476405,-10.647415,4.658928,0.58304447,2.444751,-2.1378295,118.0
18171,0.3476405,-10.647415,4.658928,0.58304447,2.444751,-2.1378295,113.0
18172,-1.2725592,-7.1896744,5.815666,0.58304447,2.444751,-2.1378295,113.0
18173,-1.2725592,-7.1896744,5.815666,-1.1395386,2.6943238,-1.5685914,113.0
18174,-2.9090142,-3.7496033,1.6325874,-1.1395386,2.6943238,-1.5685914,113.0
18175,-2.9090142,-3.7496033,1.6325874,-2.1080933,2.9651368,-1.5993897,113.0
18176,-5.6110983,0.7555542,-6.60997,-2.1080933,2.9651368,-1.5993897,113.0
18177,-5.6110983,0.7555542,-6.60997,-1.3721192,2.3258057,-0.5055176,113.0
18178,-5.0882435,2.418068,-6.7555313,-1.3721192,2.3258057,-0.5055176,113.0
18179,-5.0882435,2.418068,-6.7555313,-1.2988404,1.9625977,-0.31010744,113.0
18180,-5.0552015,5.9578323,-6.2945023,-1.2988404,1.9625977,-0.31010744,113.0
18181,-5.0552015,5.9578323,-6.2945023,-1.174585,1.2499878,0.029736329,113.0
18182,-4.4206266,8.63047,-4.0212097,-1.174585,1.2499878,0.029736329,113.0
18183,-4.4206266,8.63047,-4.0212097,-0.9122681,0.4970215,0.27506104,113.0
18184,-3.4825706,9.786697,-1.6404057,-0.9122681,0.4970215,0.27506104,113.0
18185,-3.4825706,9.786697,-1.6404057,-0.51188964,-0.1359375,0.60216063,113.0
18186,-2.5983734,9.75116,-0.260334,-0.51188964,-0.1359375,0.60216063,113.0
18187,-2.5983734,9.75116,-0.260334,-0.4364868,-0.7763306,0.6690674,113.0
18188,-1.7945681,8.561623,-0.023439407,-0.4364868,-0.7763306,0.6690674,113.0
18189,-1.7945681,8.561623,-0.023439407,-0.5033936,-1.4369019,0.44179687,113.0
18190,-0.85767555,6.1045227,-0.39492416,-0.5033936,-1.4369019,0.44179687,113.0
18191,-0.85767555,6.1045227,-0.39492416,-0.65419924,-2.1548219,0.118945315,113.0
18192,0.114458084,2.5238647,-0.7574196,-0.65419924,-2.1548219,0.118945315,113.0
18193,0.114458084,2.5238647,-0.7574196,0.40356445,-2.7909667,0.22408448,113.0
18194,0.53186226,-1.312851,-0.85920715,0.40356445,-2.7909667,0.22408448,113.0
18195,0.53186226,-1.312851,-0.85920715,1.442212,-3.2954223,0.7327881,113.0
18196,0.2329731,-10.567184,-1.0916367,1.442212,-3.2954223,0.7327881,113.0
18197,0.2329731,-10.567184,-1.0916367,3.6947389,-3.6310182,1.0131592,113.0
18198,0.36496735,-13.558693,-0.9362488,3.6947389,-3.6310182,1.0131592,113.0
18199,0.36496735,-13.558693,-0.9362488,5.0965943,-4.6845336,0.94625247,113.0
18200,3.5744076,-17.721565,1.0525646,5.0965943,-4.6845336,0.94625247,113.0
18201,3.5744076,-17.721565,1.0525646,6.7331543,-4.8417115,2.7484863,113.0
18202,5.9627857,-11.957817,4.0762806,6.7331543,-4.8417115,2.7484863,113.0
18203,5.9627857,-11.957817,4.0762806,1.6482422,-2.5764406,1.7533814,113.0
18204,4.7484884,-2.7317886,5.9276752,1.6482422,-2.5764406,1.7533814,113.0
18205,4.7484884,-2.7317886,5.9276752,-3.815808,-0.2793091,4.3276978,113.0
18206,2.3695307,1.5098343,5.0146866,-3.815808,-0.2793091,4.3276978,113.0
18207,2.3695307,1.5098343,5.0146866,-1.4071655,-1.264856,-0.8878418,113.0
18208,0.26708412,3.6477356,2.5026436,-1.4071655,-1.264856,-0.8878418,113.0
18209,0.26708412,3.6477356,2.5026436,-3.42074,-0.5607422,0.0541626,113.0
18210,-1.4734297,4.9351196,0.89045715,-3.42074,-0.5607422,0.0541626,113.0
18211,-1.4734297,4.9351196,0.89045715,-3.0044312,-0.28355715,0.49171144,113.0
18212,-1.4734297,4.9351196,0.89045715,-1.6684204,-0.33028564,0.07646485,113.0
18213,-1.8646326,5.5655136,0.46261978,-1.6684204,-0.33028564,0.07646485,113.0
18214,-1.1173038,6.5814133,0.4284706,-1.6684204,-0.33028564,0.07646485,113.0
18215,-1.1173038,6.5814133,0.4284706,-0.7434082,-0.081774905,0.17735596,113.0
18216,0.26070976,8.361099,-0.015487671,-0.7434082,-0.081774905,0.17735596,113.0
18217,0.26070976,8.361099,-0.015487671,-0.49171144,0.41737062,0.057348635,113.0
18218,1.7503157,9.492966,-0.85705566,-0.49171144,0.41737062,0.057348635,113.0
18219,1.7503157,9.492966,-0.85705566,0.32285157,1.0078491,-0.631897,113.0
18220,2.6534386,8.987122,-1.3199463,0.32285157,1.0078491,-0.631897,113.0
18221,2.6534386,8.987122,-1.3199463,0.3154175,1.8670167,-0.72004396,113.0
18222,3.1918674,6.49778,-1.4164543,0.3154175,1.8670167,-0.72004396,113.0
18223,3.1918674,6.49778,-1.4164543,0.4715332,2.4819214,-0.9759888,113.0
18224,4.135464,1.8266525,-1.5370331,0.4715332,2.4819214,-0.9759888,113.0
18225,4.135464,1.8266525,-1.5370331,1.8850708,2.8451295,-1.2829102,113.0
18226,4.71865,-5.022896,-1.4869156,1.8850708,2.8451295,-1.2829102,113.0
18227,4.71865,-5.022896,-1.4869156,2.6592774,3.2614381,-1.7640015,113.0
18228,4.0006523,-12.334091,-0.64910126,2.6592774,3.2614381,-1.7640015,113.0
18229,4.0006523,-12.334091,-0.64910126,2.902478,3.1520507,-1.7650635,113.0
18230,1.800827,-15.393127,2.011444,2.902478,3.1520507,-1.7650635,113.0
18231,1.800827,-15.393127,2.011444,2.071985,3.2083375,-1.6238159,113.0
18232,-1.2869749,-12.408112,5.3310814,2.071985,3.2083375,-1.6238159,113.0
18233,-1.2869749,-12.408112,5.3310814,-0.20072022,2.8366334,-1.7406372,113.0
18234,-3.6449609,-7.1967316,5.200386,-0.20072022,2.8366334,-1.7406372,113.0
18235,-3.6449609,-7.1967316,5.200386,-1.3657471,2.8483155,-1.2276856,113.0
18236,-4.7361593,-2.6835403,0.7310982,-1.3657471,2.8483155,-1.2276856,113.0
18237,-4.7361593,-2.6835403,0.7310982,-1.7799317,2.71875,-1.3530029,113.0
18238,-5.003783,0.37197876,-4.0007553,-1.7799317,2.71875,-1.3530029,113.0
18239,-5.003783,0.37197876,-4.0007553,-1.1310425,2.1484497,-0.8230591,113.0
18240,-4.697668,2.735283,-5.8687553,-1.1310425,2.1484497,-0.8230591,113.0
18241,-4.697668,2.735283,-5.8687553,-0.36851808,1.5229248,-0.46728516,113.0
18242,-3.9999561,5.4818115,-5.0071125,-0.36851808,1.5229248,-0.46728516,113.0
18243,-3.9999561,5.4818115,-5.0071125,-0.2166504,0.9420044,-0.21983643,113.0
18244,-3.0386248,7.743004,-3.0468884,-0.2166504,0.9420044,-0.21983643,113.0
18245,-3.0386248,7.743004,-3.0468884,-0.30479738,0.4343628,-0.0021240234,113.0
18246,-2.0433998,8.898148,-1.4717999,-0.30479738,0.4343628,-0.0021240234,113.0
18247,-2.0433998,8.898148,-1.4717999,-0.38657227,-0.081774905,0.28568116,113.0
18248,-1.4541903,9.041756,-0.78308105,-0.38657227,-0.081774905,0.28568116,113.0
18249,-1.4541903,9.041756,-0.78308105,-0.3695801,-0.65632325,0.5299439,113.0
18250,-1.3420506,8.16481,-0.8693981,-0.3695801,-0.65632325,0.5299439,113.0
18251,-1.3420506,8.16481,-0.8693981,-0.23364258,-1.270166,0.3175415,113.0
18252,-1.4019976,6.1206207,-1.3236065,-0.23364258,-1.270166,0.3175415,113.0
18253,-1.4019976,6.1206207,-1.3236065,-0.0637207,-1.9424194,0.023364259,113.0
18254,-1.1912031,2.7956772,-1.7240467,-0.0637207,-1.9424194,0.023364259,113.0
18255,-1.1912031,2.7956772,-1.7240467,0.47471926,-2.626355,0.16354981,113.0
18256,-0.7567959,-1.356453,-1.8349152,0.47471926,-2.626355,0.16354981,113.0
18257,-0.7567959,-1.356453,-1.8349152,1.2234375,-3.2317016,0.9568726,113.0
18258,-0.5087204,-7.459015,-1.6582775,1.2234375,-3.2317016,0.9568726,113.0
18259,-0.5087204,-7.459015,-1.6582775,3.3230348,-3.5588014,1.0290893,113.0
18260,0.5672426,-15.185425,-0.33265305,3.3230348,-3.5588014,1.0290893,113.0
18261,0.5672426,-15.185425,-0.33265305,4.2119384,-4.347876,1.535669,113.0
18262,3.4781723,-17.657837,2.6022873,4.2119384,-4.347876,1.535669,113.0
18263,3.4781723,-17.657837,2.6022873,2.7984009,-3.99635,2.6390991,113.0
18264,5.39682,-12.231712,5.7065506,2.7984009,-3.99635,2.6390991,113.0
18265,5.39682,-12.231712,5.7065506,-1.6599244,-2.1112792,2.9290283,113.0
18266,4.720166,-4.8763885,6.5954895,-1.6599244,-2.1112792,2.9290283,113.0
18267,4.720166,-4.8763885,6.5954895,-1.2563599,-1.7448853,2.6837037,113.0
18268,4.720166,-4.8763885,6.5954895,-1.2563599,-1.7448853,2.6837037,109.0
18269,2.9597263,1.212822,4.486717,-1.2563599,-1.7448853,2.6837037,109.0
18270,2.9597263,1.212822,4.486717,-3.3803833,-1.3742431,1.173523,109.0
18271,0.78461456,4.584923,1.9835739,-3.3803833,-1.3742431,1.173523,109.0
18272,0.78461456,4.584923,1.9835739,-3.0723999,-1.3328247,1.2457398,109.0
18273,-0.59310913,5.6994553,1.220562,-3.0723999,-1.3328247,1.2457398,109.0
18274,-0.59310913,5.6994553,1.220562,-2.1208375,-1.3859253,0.8857178,109.0
18275,-0.8402462,6.6237106,1.4669151,-2.1208375,-1.3859253,0.8857178,109.0
18276,-0.8402462,6.6237106,1.4669151,-0.98448485,-1.2085694,0.5065796,109.0
18277,-0.30463123,8.139526,1.0262184,-0.98448485,-1.2085694,0.5065796,109.0
18278,-0.30463123,8.139526,1.0262184,-0.7582764,-0.7986328,0.18372802,109.0
18279,0.4326992,10.053909,-0.3160019,-0.7582764,-0.7986328,0.18372802,109.0
18280,0.4326992,10.053909,-0.3160019,-1.2138795,-0.22514649,-0.14230958,109.0
18281,0.94561005,10.772896,-1.6274834,-1.2138795,-0.22514649,-0.14230958,109.0
18282,0.94561005,10.772896,-1.6274834,-0.61702883,0.32178956,-0.814563,109.0
18283,1.158514,9.25914,-2.1729584,-0.61702883,0.32178956,-0.814563,109.0
18284,1.158514,9.25914,-2.1729584,0.35683593,1.0598878,-0.6244629,109.0
18285,1.7339277,5.9527817,-2.0065918,0.35683593,1.0598878,-0.6244629,109.0
18286,1.7339277,5.9527817,-2.0065918,0.49489745,1.7809937,-1.8011719,109.0
18287,3.1410732,1.3939743,-1.6029663,0.49489745,1.7809937,-1.8011719,109.0
18288,3.1410732,1.3939743,-1.6029663,1.8054199,2.3194337,-1.6195679,109.0
18289,4.0113206,-5.6575394,-1.4468651,1.8054199,2.3194337,-1.6195679,109.0
18290,4.0113206,-5.6575394,-1.4468651,2.6826417,2.7559204,-2.2047365,109.0
18291,3.8140492,-14.063835,-0.4448471,2.6826417,2.7559204,-2.2047365,109.0
18292,3.8140492,-14.063835,-0.4448471,2.4744873,2.6040528,-1.9976441,109.0
18293,2.156818,-17.300323,3.1276665,2.4744873,2.6040528,-1.9976441,109.0
18294,2.156818,-17.300323,3.1276665,1.3211426,2.6720216,-1.8234742,109.0
18295,-0.57172585,-13.282997,6.900154,1.3211426,2.6720216,-1.8234742,109.0
18296,-0.57172585,-13.282997,6.900154,-1.1384766,2.3226197,-1.5484132,109.0
18297,-2.851851,-7.1557007,6.19223,-1.1384766,2.3226197,-1.5484132,109.0
18298,-2.851851,-7.1557007,6.19223,-1.6854126,2.357666,-0.8750977,109.0
18299,-4.4236927,-2.0435638,0.8467026,-1.6854126,2.357666,-0.8750977,109.0
18300,-4.4236927,-2.0435638,0.8467026,-1.5271729,2.2886353,-0.8326172,109.0
18301,-5.214003,1.3096085,-4.2783012,-1.5271729,2.2886353,-0.8326172,109.0
18302,-5.214003,1.3096085,-4.2783012,-0.81031495,1.9625977,-0.62977296,109.0
18303,-5.326647,3.696762,-5.9416733,-0.81031495,1.9625977,-0.62977296,109.0
18304,-5.326647,3.696762,-5.9416733,-0.16461182,1.450708,-0.18372802,109.0
18305,-4.7743053,6.263443,-4.822441,-0.16461182,1.450708,-0.18372802,109.0
18306,-4.7743053,6.263443,-4.822441,-0.22089843,1.0598878,0.004248047,109.0
18307,-3.7462635,8.543671,-2.83387,-0.22089843,1.0598878,0.004248047,109.0
18308,-3.7462635,8.543671,-2.83387,-0.46622315,0.6977417,0.2824951,109.0
18309,-2.766945,9.875977,-1.590826,-0.46622315,0.6977417,0.2824951,109.0
18310,-2.766945,9.875977,-1.590826,-0.72004396,0.2782471,0.46728516,109.0
18311,-2.2572203,9.975685,-1.5117722,-0.72004396,0.2782471,0.46728516,109.0
18312,-2.2572203,9.975685,-1.5117722,-0.7519043,-0.3175415,0.53950197,109.0
18313,-2.045535,8.608429,-2.0439396,-0.7519043,-0.3175415,0.53950197,109.0
18314,-2.045535,8.608429,-2.0439396,-0.49171144,-1.0375855,0.26337892,109.0
18315,-1.5650406,5.6369247,-2.4497147,-0.49171144,-1.0375855,0.26337892,109.0
18316,-1.5650406,5.6369247,-2.4497147,0.19328614,-1.8925049,0.26656494,109.0
18317,-0.71596146,1.7708054,-2.2063541,0.19328614,-1.8925049,0.26656494,109.0
18318,-0.71596146,1.7708054,-2.2063541,0.76677245,-2.5913086,0.5766724,109.0
18319,-0.045669556,-2.5212479,-1.3963928,0.76677245,-2.5913086,0.5766724,109.0
18320,-0.045669556,-2.5212479,-1.3963928,1.2053833,-3.0309815,0.73809814,109.0
18321,0.13181114,-9.753632,-0.36977386,1.2053833,-3.0309815,0.73809814,109.0
18322,0.13181114,-9.753632,-0.36977386,3.2901123,-3.5970337,1.3891114,109.0
18323,1.1197557,-17.457718,1.3803406,3.2901123,-3.5970337,1.3891114,109.0
18324,1.1197557,-17.457718,1.3803406,4.3807983,-3.9368775,2.546704,109.0
18325,3.821024,-16.921349,3.810339,4.3807983,-3.9368775,2.546704,109.0
18326,3.821024,-16.921349,3.810339,1.0906861,-2.8780518,2.7962768,109.0
18327,5.9103956,-9.039909,5.1936703,1.0906861,-2.8780518,2.7962768,109.0
18328,5.9103956,-9.039909,5.1936703,0.9897949,-2.70813,2.8291993,109.0
18329,4.665743,-1.21315,4.1912155,0.9897949,-2.70813,2.8291993,109.0
18330,4.665743,-1.21315,4.1912155,-3.886963,-0.5140137,1.1066163,109.0
18331,0.9510145,1.9541168,2.1228218,-3.886963,-0.5140137,1.1066163,109.0
18332,0.9510145,1.9541168,2.1228218,-3.1000123,-0.6690674,1.264856,109.0
18333,-1.5982704,2.8134384,1.0157623,-3.1000123,-0.6690674,1.264856,109.0
18334,-1.5982704,2.8134384,1.0157623,-1.6418701,-0.9154541,1.1299804,109.0
18335,-2.1455479,4.853943,1.2295914,-1.6418701,-0.9154541,1.1299804,109.0
18336,-2.1455479,4.853943,1.2295914,-1.4719483,-0.9388184,0.7593384,109.0
18337,-1.4985676,6.9050674,1.2658768,-1.4719483,-0.9388184,0.7593384,109.0
18338,-1.4985676,6.9050674,1.2658768,-1.0004151,-0.8358032,0.6403931,109.0
18339,-0.29017448,7.9811554,0.14540482,-1.0004151,-0.8358032,0.6403931,109.0
18340,-0.29017448,7.9811554,0.14540482,-0.90695804,-0.5872925,0.3451538,109.0
18341,0.9158592,8.783852,-1.2718735,-0.90695804,-0.5872925,0.3451538,109.0
18342,0.9158592,8.783852,-1.2718735,-1.0747559,-0.24638672,0.16992188,109.0
18343,1.7110815,9.21402,-2.0546799,-1.0747559,-0.24638672,0.16992188,109.0
18344,1.7110815,9.21402,-2.0546799,-0.59047854,0.124255374,0.08602295,109.0
18345,2.0112,8.6636505,-2.1137505,-0.59047854,0.124255374,0.08602295,109.0
18346,2.0112,8.6636505,-2.1137505,-0.33665773,0.7317261,-0.7072998,109.0
18347,2.1825075,6.770668,-1.7955399,-0.33665773,0.7317261,-0.7072998,109.0
18348,2.1825075,6.770668,-1.7955399,-0.14230958,1.2234375,-1.2351197,109.0
18349,2.8733253,2.8905106,-1.411747,-0.14230958,1.2234375,-1.2351197,109.0
18350,2.8733253,2.8905106,-1.411747,0.81987303,1.5027466,-0.903772,109.0
18351,3.7148838,-2.6199799,-0.71987534,0.81987303,1.5027466,-0.903772,109.0
18352,3.7148838,-2.6199799,-0.71987534,2.4797974,1.9456055,-0.901648,109.0
18353,3.593501,-9.326073,0.6122818,2.4797974,1.9456055,-0.901648,109.0
18354,3.593501,-9.326073,0.6122818,2.0932252,2.2918212,-2.0464966,109.0
18355,3.593501,-9.326073,0.6122818,1.448584,2.6040528,-1.1406006,109.0
18356,2.6783895,-14.279587,2.8027534,1.448584,2.6040528,-1.1406006,109.0
18357,-1.6497688,-13.180923,4.978958,1.448584,2.6040528,-1.1406006,109.0
18358,-1.6497688,-13.180923,4.978958,-0.09770508,2.9162843,-1.6142578,109.0
18359,-1.6497688,-13.180923,4.978958,-0.6287109,3.0118654,-1.1278565,109.0
18360,-1.6497688,-13.180923,4.978958,-0.6064087,3.0479736,-0.44179687,109.0
18361,-3.9104033,-8.9459,3.9811516,-0.6064087,3.0479736,-0.44179687,109.0
18362,-6.172928,4.475952,-6.138237,-0.6064087,3.0479736,-0.44179687,109.0
18363,-6.172928,4.475952,-6.138237,-0.7062378,2.981067,-0.42055663,109.0
18364,-6.172928,4.475952,-6.138237,-0.3079834,2.624231,-0.32178956,109.0
18365,-6.172928,4.475952,-6.138237,-0.30479738,2.2196045,-0.3164795,109.0
18366,-5.025733,7.046875,-4.953583,-0.30479738,2.2196045,-0.3164795,109.0
18367,-5.025733,7.046875,-4.953583,-0.4725952,1.7470093,-0.26550293,109.0
18368,-5.025733,7.046875,-4.953583,-0.4725952,1.7470093,-0.26550293,106.0
18369,-3.9328423,8.247681,-3.6229134,-0.4725952,1.7470093,-0.26550293,106.0
18370,-3.9328423,8.247681,-3.6229134,-0.5140137,1.0949341,-0.028674318,106.0
18371,-2.783102,8.614464,-2.420742,-0.5140137,1.0949341,-0.028674318,106.0
18372,-2.783102,8.614464,-2.420742,-0.6053467,0.41843262,0.22939454,106.0
18373,-1.7506266,8.308907,-1.4710541,-0.6053467,0.41843262,0.22939454,106.0
18374,-1.7506266,8.308907,-1.4710541,-0.5883545,-0.21240234,0.16142578,106.0
18375,-0.9687996,7.028412,-1.0611458,-0.5883545,-0.21240234,0.16142578,106.0
18376,-0.9687996,7.028412,-1.0611458,-0.84111327,-0.8857178,-0.24320069,106.0
18377,-0.48020363,4.119545,-1.2089767,-0.84111327,-0.8857178,-0.24320069,106.0
18378,-0.48020363,4.119545,-1.2089767,-0.724292,-1.6758546,-0.6053467,106.0
18379,-0.39446545,0.039505005,-1.5673027,-0.724292,-1.6758546,-0.6053467,106.0
18380,-0.39446545,0.039505005,-1.5673027,0.29417726,-2.5105958,-0.35152587,106.0
