,accx,accy,accz,gyrox,gyroy,gyroz,heart rate
17411,run,run,run,run,run,run,run
17412,-0.08244419,-0.51991653,-0.63760376,-0.5533081,-0.015930176,0.1083252,104.0
17413,-0.08244419,-0.51991653,-0.63760376,-0.07752686,-0.022302246,0.08602295,104.0
17414,-0.0702765,-0.41378403,-0.5049591,-0.07752686,-0.022302246,0.08602295,104.0
17415,-0.0702765,-0.41378403,-0.5049591,-0.081774905,0.09133301,-0.1083252,104.0
17416,-0.0702765,-0.41378403,-0.5049591,-0.107263185,0.050976563,-0.09664307,104.0
17417,-0.06110406,-0.3271942,-0.39616394,-0.107263185,0.050976563,-0.09664307,104.0
17418,1.4415953,-2.4017563,1.6821747,-0.107263185,0.050976563,-0.09664307,104.0
17419,1.4415953,-2.4017563,1.6821747,-0.08920898,0.0053100586,-0.07327881,104.0
17420,1.1640673,-2.0363235,1.4629059,-0.08920898,0.0053100586,-0.07327881,104.0
17421,1.1640673,-2.0363235,1.4629059,-0.0010620117,-0.010620117,-0.039294433,104.0
17422,0.9841957,-1.6614437,1.3175964,-0.0010620117,-0.010620117,-0.039294433,104.0
17423,0.9841957,-1.6614437,1.3175964,0.007434082,-0.02442627,0.004248047,104.0
17424,0.86246634,-1.2443161,1.1472778,0.007434082,-0.02442627,0.004248047,104.0
17425,0.86246634,-1.2443161,1.1472778,-0.058410645,-0.022302246,0.027612304,104.0
17426,0.76701164,-0.94205856,0.95692444,-0.058410645,-0.022302246,0.027612304,104.0
17427,0.76701164,-0.94205856,0.95692444,-0.06796875,-0.020178223,0.03717041,104.0
17428,0.66517186,-0.80365944,0.794754,-0.06796875,-0.020178223,0.03717041,104.0
17429,0.66517186,-0.80365944,0.794754,-0.009558106,-0.010620117,0.039294433,104.0
17430,0.55815065,-0.6301708,0.6955261,-0.009558106,-0.010620117,0.039294433,104.0
17431,0.55815065,-0.6301708,0.6955261,0.0031860352,-0.0180542,0.05628662,104.0
17432,0.48597372,-0.34638596,0.6370697,0.0031860352,-0.0180542,0.05628662,104.0
17433,0.48597372,-0.34638596,0.6370697,-0.052038576,-0.016992187,0.03079834,104.0
17434,0.46388888,-0.13988876,0.51849365,-0.052038576,-0.016992187,0.03079834,104.0
17435,0.46388888,-0.13988876,0.51849365,-0.08920898,0.025488282,-0.014868164,104.0
17436,0.38660192,-0.114486694,0.36073303,-0.08920898,0.025488282,-0.014868164,104.0
17437,0.38660192,-0.114486694,0.36073303,-0.08814698,0.06265869,-0.06159668,104.0
17438,0.24653745,-0.13961029,0.2705536,-0.08814698,0.06265869,-0.06159668,104.0
17439,0.24653745,-0.13961029,0.2705536,-0.11044922,0.07752686,-0.07752686,104.0
17440,0.10498142,-0.13554001,0.23023987,-0.11044922,0.07752686,-0.07752686,104.0
17441,0.10498142,-0.13554001,0.23023987,-0.11469727,0.06584473,-0.059472658,104.0
17442,-0.020287275,-0.16021538,0.17752075,-0.11469727,0.06584473,-0.059472658,104.0
17443,-0.020287275,-0.16021538,0.17752075,-0.08071289,0.033984374,-0.046728518,104.0
17444,-0.09942067,-0.18992615,0.10055542,-0.08071289,0.033984374,-0.046728518,104.0
17445,-0.09942067,-0.18992615,0.10055542,-0.009558106,0.019116212,-0.052038576,104.0
17446,-0.08622599,-0.14197922,0.03366089,-0.009558106,0.019116212,-0.052038576,104.0
17447,-0.08622599,-0.14197922,0.03366089,-0.015930176,0.014868164,-0.04248047,104.0
17448,-0.0071765184,-0.10964012,-0.019134521,-0.015930176,0.014868164,-0.04248047,104.0
17449,-0.0071765184,-0.10964012,-0.019134521,-0.0053100586,0.0180542,-0.019116212,104.0
17450,0.042378902,-0.13505173,-0.045181274,-0.0053100586,0.0180542,-0.019116212,104.0
17451,0.042378902,-0.13505173,-0.045181274,0.007434082,0.023364259,-0.012744141,104.0
17452,0.01767993,-0.1068573,-0.043533325,0.007434082,0.023364259,-0.012744141,104.0
17453,0.01767993,-0.1068573,-0.043533325,-0.027612304,0.015930176,0.007434082,104.0
17454,-0.042850733,-0.011133194,-0.05593872,-0.027612304,0.015930176,0.007434082,104.0
17455,-0.042850733,-0.011133194,-0.05593872,-0.0637207,-0.010620117,0.02442627,104.0
17456,-0.074136496,0.06748581,-0.0695343,-0.0637207,-0.010620117,0.02442627,104.0
17457,-0.074136496,0.06748581,-0.0695343,-0.08814698,-0.014868164,0.014868164,104.0
17458,-0.084504485,0.074287415,-0.045455933,-0.08814698,-0.014868164,0.014868164,104.0
17459,-0.084504485,0.074287415,-0.045455933,-0.095581055,0.0,0.040356446,104.0
17460,-0.14210308,0.057647705,0.016967773,-0.095581055,0.0,0.040356446,104.0
17461,-0.14210308,0.057647705,0.016967773,-0.13699952,-0.009558106,0.07434082,104.0
17462,-0.2373519,0.056921005,0.07217407,-0.13699952,-0.009558106,0.07434082,104.0
17463,-0.2373519,0.056921005,0.07217407,-0.12531738,-0.03717041,0.09451904,104.0
17464,-0.29544795,0.052444458,0.11503601,-0.12531738,-0.03717041,0.09451904,104.0
17465,-0.29544795,0.052444458,0.11503601,-0.06159668,-0.06903076,0.0998291,104.0
17466,-0.24670994,0.026695251,0.1298523,-0.06159668,-0.06903076,0.0998291,104.0
17467,-0.24670994,0.026695251,0.1298523,0.009558106,-0.09239502,0.08071289,104.0
17468,-0.24670994,0.026695251,0.1298523,-0.004248047,-0.07646485,0.08814698,104.0
17469,-0.06600809,0.07778931,0.09413147,-0.004248047,-0.07646485,0.08814698,104.0
17470,0.1493175,0.20377159,0.031463623,-0.004248047,-0.07646485,0.08814698,104.0
17471,0.1493175,0.20377159,0.031463623,-0.058410645,-0.0361084,0.10301514,104.0
17472,0.26897788,0.31261444,-0.020462036,-0.058410645,-0.0361084,0.10301514,104.0
17473,0.26897788,0.31261444,-0.020462036,-0.11151123,0.0053100586,0.07540283,104.0
17474,0.21950364,0.33535767,-0.059005737,-0.11151123,0.0053100586,0.07540283,104.0
17475,0.21950364,0.33535767,-0.059005737,-0.13062744,0.0,0.039294433,104.0
17476,0.057548642,0.26923752,-0.08432007,-0.13062744,0.0,0.039294433,104.0
17477,0.057548642,0.26923752,-0.08432007,-0.08814698,-0.03717041,0.0010620117,104.0
17478,-0.09386587,0.21520615,-0.112701416,-0.08814698,-0.03717041,0.0010620117,104.0
17479,-0.09386587,0.21520615,-0.112701416,-0.04885254,-0.07115479,-0.02442627,104.0
17480,-0.15044665,0.24187851,-0.14706421,-0.04885254,-0.07115479,-0.02442627,104.0
17481,-0.15044665,0.24187851,-0.14706421,-0.08602295,-0.12319336,-0.023364259,104.0
17482,-0.07842612,0.29302597,-0.16711426,-0.08602295,-0.12319336,-0.023364259,104.0
17483,-0.07842612,0.29302597,-0.16711426,-0.20178223,-0.19328614,-0.06584473,104.0
17484,0.22505212,0.32670593,-0.14512634,-0.20178223,-0.19328614,-0.06584473,104.0
17485,0.22505212,0.32670593,-0.14512634,-0.4428589,-0.30054933,-0.1996582,104.0
17486,0.80423605,0.32505035,-0.20832825,-0.4428589,-0.30054933,-0.1996582,104.0
17487,0.80423605,0.32505035,-0.20832825,-0.70305175,-0.3419678,-0.25700685,104.0
17488,1.3795094,0.26399612,-0.5109558,-0.70305175,-0.3419678,-0.25700685,104.0
17489,1.3795094,0.26399612,-0.5109558,-0.95793456,-0.2548828,-0.29099122,104.0
17490,1.3999699,0.06791115,-0.87184143,-0.95793456,-0.2548828,-0.29099122,104.0
17491,1.3999699,0.06791115,-0.87184143,-1.1257324,-0.20072022,-0.3430298,104.0
17492,0.8302909,-0.26252937,-1.0089874,-1.1257324,-0.20072022,-0.3430298,104.0
17493,0.8302909,-0.26252937,-1.0089874,-1.1214844,-0.25913087,-0.57561034,104.0
17494,0.43524104,-0.34046936,-0.8546295,-1.1214844,-0.25913087,-0.57561034,104.0
17495,0.43524104,-0.34046936,-0.8546295,-1.1937011,-0.3079834,-0.631897,104.0
17496,0.42319286,-0.11715126,-0.48292542,-1.1937011,-0.3079834,-0.631897,104.0
17497,0.42319286,-0.11715126,-0.48292542,-1.4369019,-0.39613038,-0.68924564,104.0
17498,0.13541707,0.02180481,0.1379242,-1.4369019,-0.39613038,-0.68924564,104.0
17499,0.13541707,0.02180481,0.1379242,-1.7693115,-0.540564,-0.6977417,104.0
17500,-0.7422035,0.0029182434,1.0240936,-1.7693115,-0.540564,-0.6977417,104.0
17501,-0.7422035,0.0029182434,1.0240936,-2.2026124,-0.87403566,-0.86978763,104.0
17502,-1.4618292,-0.11943054,1.7496033,-2.2026124,-0.87403566,-0.86978763,104.0
17503,-1.4618292,-0.11943054,1.7496033,-2.536084,-1.0163453,-1.09281,104.0
17504,-1.3538994,-0.27989388,1.9982452,-2.536084,-1.0163453,-1.09281,104.0
17505,-1.3538994,-0.27989388,1.9982452,-2.6996338,-1.1533448,-0.8867798,104.0
17506,-0.8287128,-0.58122635,1.9699097,-2.6996338,-1.1533448,-0.8867798,104.0
17507,-0.8287128,-0.58122635,1.9699097,-2.977881,-1.2563599,-1.0099732,104.0
17508,-0.33871484,-1.0790787,1.9563751,-2.977881,-1.2563599,-1.0099732,104.0
17509,-0.33871484,-1.0790787,1.9563751,-3.2348878,-1.3360108,-1.1990112,104.0
17510,0.074682474,-1.580328,1.9966888,-3.2348878,-1.3360108,-1.1990112,104.0
17511,0.074682474,-1.580328,1.9966888,-3.3920655,-1.2223755,-1.4719483,104.0
17512,0.33755362,-1.9339886,2.122696,-3.3920655,-1.2223755,-1.4719483,104.0
17513,0.33755362,-1.9339886,2.122696,-3.4738405,-1.265918,-1.4793824,104.0
17514,0.40236712,-2.295433,2.3199615,-3.4738405,-1.265918,-1.4793824,104.0
17515,0.40236712,-2.295433,2.3199615,-3.1711671,-1.2744141,-1.7066529,104.0
17516,0.5748356,-2.6351624,2.505951,-3.1711671,-1.2744141,-1.7066529,104.0
17517,0.5748356,-2.6351624,2.505951,-3.1191285,-0.9324463,-1.9148072,104.0
17518,0.8665946,-2.581005,2.8336334,-3.1191285,-0.9324463,-1.9148072,104.0
17519,0.8665946,-2.581005,2.8336334,-3.821118,-0.91864014,-1.9137452,104.0
17520,0.83338803,-2.4609222,3.4806976,-3.821118,-0.91864014,-1.9137452,104.0
17521,0.83338803,-2.4609222,3.4806976,-4.3999147,-0.9897949,-1.9657837,104.0
17522,0.54890037,-3.2391129,4.378296,-4.3999147,-0.9897949,-1.9657837,104.0
17523,0.54890037,-3.2391129,4.378296,-4.249109,-1.1554688,-2.1261475,104.0
17524,0.39143965,-4.9191113,4.9490204,-4.249109,-1.1554688,-2.1261475,104.0
17525,0.39143965,-4.9191113,4.9490204,-3.078772,-1.2075074,-2.2780151,104.0
17526,0.3139696,-6.223448,4.7950134,-3.078772,-1.2075074,-2.2780151,104.0
17527,0.3139696,-6.223448,4.7950134,-1.9169312,-1.0259033,-2.366162,104.0
17528,-0.16136095,-6.0238876,4.307205,-1.9169312,-1.0259033,-2.366162,104.0
17529,-0.16136095,-6.0238876,4.307205,-1.8563966,-0.80606693,-2.3927124,104.0
17530,-1.2950068,-4.7103214,3.9891205,-1.8563966,-0.80606693,-2.3927124,104.0
17531,-1.2950068,-4.7103214,3.9891205,-2.5541382,-0.63720703,-2.2015502,104.0
17532,-2.7966256,-3.943966,3.760971,-2.5541382,-0.63720703,-2.2015502,104.0
17533,-2.7966256,-3.943966,3.760971,-2.9640749,-0.47578126,-1.8372803,104.0
17534,-4.1536703,-4.6880703,3.273697,-2.9640749,-0.47578126,-1.8372803,104.0
17535,-4.1536703,-4.6880703,3.273697,-2.3619142,-0.39188233,-1.5059327,104.0
17536,-4.869811,-6.2459393,2.1890259,-2.3619142,-0.39188233,-1.5059327,104.0
17537,-4.869811,-6.2459393,2.1890259,-0.99722904,-0.1444336,-0.9281983,104.0
17538,-4.837194,-6.469139,0.5845642,-0.99722904,-0.1444336,-0.9281983,104.0
17539,-4.837194,-6.469139,0.5845642,-0.22196046,0.20603028,0.10301514,104.0
17540,-4.444108,-4.7969904,-0.5922241,-0.22196046,0.20603028,0.10301514,104.0
17541,-4.444108,-4.7969904,-0.5922241,-0.6988037,0.3993164,0.6531372,104.0
17542,-3.873927,-3.6380682,-0.4866333,-0.6988037,0.3993164,0.6531372,104.0
17543,-3.873927,-3.6380682,-0.4866333,-0.6818115,0.38869628,1.351941,104.0
17544,-2.5565515,-3.714056,0.28808594,-0.6818115,0.38869628,1.351941,104.0
17545,-2.5565515,-3.714056,0.28808594,0.70942384,0.5246338,2.4160767,104.0
17546,-0.30913258,-2.8987598,0.45373535,0.70942384,0.5246338,2.4160767,104.0
17547,-0.30913258,-2.8987598,0.45373535,1.1820191,1.170337,3.445166,104.0
17548,1.4016442,-0.7688732,0.48216248,1.1820191,1.170337,3.445166,104.0
17549,1.4016442,-0.7688732,0.48216248,-0.008496094,1.3806152,3.9995363,104.0
17550,1.4736104,0.052002907,0.937027,-0.008496094,1.3806152,3.9995363,104.0
17551,1.4736104,0.052002907,0.937027,-1.2191895,0.9239502,4.168396,104.0
17552,1.2932434,-1.3430042,0.75735474,-1.2191895,0.9239502,4.168396,104.0
17553,1.2932434,-1.3430042,0.75735474,0.34727785,0.45772704,4.669666,104.0
17554,2.7336426,-2.0796642,-0.18598938,0.34727785,0.45772704,4.669666,104.0
17555,2.7336426,-2.0796642,-0.18598938,2.53396,0.39188233,5.143323,104.0
17556,5.2089844,-0.23934174,-0.9077301,2.53396,0.39188233,5.143323,104.0
17557,5.2089844,-0.23934174,-0.9077301,3.3517091,0.15080567,4.626123,104.0
17558,6.6973634,2.992548,-1.1975403,3.3517091,0.15080567,4.626123,104.0
17559,6.6973634,2.992548,-1.1975403,2.6125488,-0.13168946,4.0388308,104.0
17560,6.5997243,5.7306595,-1.7815857,2.6125488,-0.13168946,4.0388308,104.0
17561,6.5997243,5.7306595,-1.7815857,0.98448485,-0.51932377,3.7350953,104.0
17562,5.9770327,6.919635,-3.128952,0.98448485,-0.51932377,3.7350953,104.0
17563,5.9770327,6.919635,-3.128952,-0.5065796,-0.6977417,3.6756227,104.0
17564,5.6873884,6.6187277,-4.831299,-0.5065796,-0.6977417,3.6756227,104.0
17565,5.6873884,6.6187277,-4.831299,-1.3859253,-0.7189819,3.062842,104.0
17566,5.677254,5.7350693,-6.017212,-1.3859253,-0.7189819,3.062842,104.0
17567,5.677254,5.7350693,-6.017212,-1.5951416,-0.6488892,2.0974731,104.0
17568,5.041901,5.221821,-6.070114,-1.5951416,-0.6488892,2.0974731,104.0
17569,5.041901,5.221821,-6.070114,-1.2223755,-0.5979126,1.2510499,104.0
17570,3.6475835,5.360941,-5.4880524,-1.2223755,-0.5979126,1.2510499,104.0
17571,3.6475835,5.360941,-5.4880524,-0.7349121,-0.53100586,0.2516968,104.0
17572,2.4625616,5.8710403,-5.016388,-0.7349121,-0.53100586,0.2516968,104.0
17573,2.4625616,5.8710403,-5.016388,-1.4517701,-0.107263185,-0.66588134,104.0
17574,1.6018486,6.00329,-4.3925323,-1.4517701,-0.107263185,-0.66588134,104.0
17575,1.6018486,6.00329,-4.3925323,-2.5052857,0.4725952,-1.4581422,104.0
17576,1.0120573,4.4904137,-2.9292603,-2.5052857,0.4725952,-1.4581422,104.0
17577,1.0120573,4.4904137,-2.9292603,-2.8207033,0.9494385,-2.3640382,104.0
17578,0.8092675,1.0773411,-0.6785126,-2.8207033,0.9494385,-2.3640382,104.0
17579,0.8092675,1.0773411,-0.6785126,-2.0475585,1.3094605,-3.2232056,104.0
17580,0.23252153,-2.7341957,1.8581543,-2.0475585,1.3094605,-3.2232056,104.0
17581,0.23252153,-2.7341957,1.8581543,-1.3487549,1.5558472,-3.8349245,104.0
17582,-1.3362851,-6.386345,4.3472595,-1.3487549,1.5558472,-3.8349245,104.0
17583,-1.3362851,-6.386345,4.3472595,-1.4666382,1.4294678,-5.2304077,104.0
17584,-2.6294408,-11.467646,6.2561493,-1.4666382,1.4294678,-5.2304077,104.0
17585,-2.6294408,-11.467646,6.2561493,-2.3088136,1.260608,-5.752918,104.0
17586,-3.081458,-15.208443,6.8568726,-2.3088136,1.260608,-5.752918,104.0
17587,-3.081458,-15.208443,6.8568726,-1.1416626,2.1346436,-4.7726808,104.0
17588,-4.2501516,-13.587006,6.219223,-1.1416626,2.1346436,-4.7726808,104.0
17589,-4.2501516,-13.587006,6.219223,-2.0454347,2.5987427,-4.179016,104.0
17590,-6.355883,-9.578565,3.9563904,-2.0454347,2.5987427,-4.179016,104.0
17591,-6.355883,-9.578565,3.9563904,-3.7297852,2.7346802,-3.7563355,104.0
17592,-8.667763,-6.818345,0.58695984,-3.7297852,2.7346802,-3.7563355,104.0
17593,-8.667763,-6.818345,0.58695984,-2.1080933,2.7739747,-2.709192,104.0
17594,-10.795649,-3.9386725,-1.794632,-2.1080933,2.7739747,-2.709192,104.0
17595,-10.795649,-3.9386725,-1.794632,0.18266602,2.6953857,-1.893567,104.0
17596,-11.793453,0.490407,-2.9301758,0.18266602,2.6953857,-1.893567,104.0
17597,-11.793453,0.490407,-2.9301758,0.9430664,2.3746583,-1.2234375,104.0
17598,-11.0585785,4.4330845,-3.942047,0.9430664,2.3746583,-1.2234375,104.0
17599,-11.0585785,4.4330845,-3.942047,0.727478,2.0911012,-0.44816896,104.0
17600,-9.177307,6.025362,-5.056839,0.727478,2.0911012,-0.44816896,104.0
17601,-9.177307,6.025362,-5.056839,0.1444336,1.7852417,0.7678345,104.0
17602,-7.1435785,5.9117203,-5.4668427,0.1444336,1.7852417,0.7678345,104.0
17603,-7.1435785,5.9117203,-5.4668427,0.058410645,1.2489258,2.085791,104.0
17604,-5.2384224,5.5282536,-4.7141113,0.058410645,1.2489258,2.085791,104.0
17605,-5.2384224,5.5282536,-4.7141113,0.49489745,0.23045655,3.075586,104.0
17606,-2.9431553,5.490658,-3.446518,0.49489745,0.23045655,3.075586,104.0
17607,-2.9431553,5.490658,-3.446518,0.47365722,-0.7699585,3.9644897,104.0
17608,-0.22678947,5.3588715,-2.2898102,0.47365722,-0.7699585,3.9644897,104.0
17609,-0.22678947,5.3588715,-2.2898102,-0.24638672,-1.2276856,4.6494875,104.0
17610,1.8727188,3.7298832,-0.8980408,-0.24638672,-1.2276856,4.6494875,104.0
17611,1.8727188,3.7298832,-0.8980408,-1.8330323,-1.1023682,5.238904,104.0
17612,1.8239565,-1.4563894,1.440918,-1.8330323,-1.1023682,5.238904,104.0
17613,1.8239565,-1.4563894,1.440918,-3.1053224,-1.080066,5.1337647,104.0
17614,-0.09592438,-11.889831,4.0893097,-3.1053224,-1.080066,5.1337647,104.0
17615,-0.09592438,-11.889831,4.0893097,-1.0875,-3.2348878,4.789673,104.0
17616,0.921258,-19.301563,4.577408,-1.0875,-3.2348878,4.789673,104.0
17617,0.921258,-19.301563,4.577408,-1.0875,-3.2348878,4.789673,0.0
17618,0.921258,-19.301563,4.577408,2.9768188,-4.0866213,5.593616,0.0
17619,7.010908,-14.509476,3.3946838,2.9768188,-4.0866213,5.593616,0.0
17620,7.010908,-14.509476,3.3946838,2.6794555,-2.4224489,5.4736085,0.0
17621,12.437877,-3.0249023,2.7615204,2.6794555,-2.4224489,5.4736085,0.0
17622,12.437877,-3.0249023,2.7615204,-1.1161743,-1.893567,4.2225585,0.0
17623,12.462082,5.19823,1.7540283,-1.1161743,-1.893567,4.2225585,0.0
17624,12.462082,5.19823,1.7540283,-2.996997,-1.6131958,3.5800416,0.0
17625,9.240185,7.4503927,-0.058181763,-2.996997,-1.6131958,3.5800416,0.0
17626,9.240185,7.4503927,-0.058181763,-1.2956543,-1.63125,3.0957642,0.0
17627,7.3576636,7.9539785,-1.7368622,-1.2956543,-1.63125,3.0957642,0.0
17628,7.3576636,7.9539785,-1.7368622,0.20496826,-1.2903442,2.2812011,0.0
17629,7.7045393,9.5425415,-2.903122,0.20496826,-1.2903442,2.2812011,0.0
17630,7.7045393,9.5425415,-2.903122,0.35046387,-0.71791995,1.3073364,0.0
17631,7.8556356,11.345057,-3.3145752,0.35046387,-0.71791995,1.3073364,0.0
17632,7.8556356,11.345057,-3.3145752,-0.19753419,-0.2177124,0.098767094,0.0
17633,6.6573358,11.759651,-2.9188538,-0.19753419,-0.2177124,0.098767094,0.0
17634,6.6573358,11.759651,-2.9188538,-0.44179687,0.20921631,-1.1278565,0.0
17635,4.6583395,10.351776,-2.022461,-0.44179687,0.20921631,-1.1278565,0.0
17636,4.6583395,10.351776,-2.022461,-0.07540283,0.60322267,-1.9222412,0.0
17637,2.6379752,8.159168,-1.1263885,-0.07540283,0.60322267,-1.9222412,0.0
17638,2.6379752,8.159168,-1.1263885,0.3791382,0.93138427,-2.9938111,0.0
17639,1.5294719,5.6173496,-0.63186646,0.3791382,0.93138427,-2.9938111,0.0
17640,1.5294719,5.6173496,-0.63186646,-0.3695801,1.44115,-3.625708,0.0
17641,1.2712216,1.977314,-0.22767639,-0.3695801,1.44115,-3.625708,0.0
17642,1.2712216,1.977314,-0.22767639,-1.1098022,2.0932252,-4.7238283,0.0
17643,-0.12722445,-3.6712132,1.1123962,-1.1098022,2.0932252,-4.7238283,0.0
17644,-0.12722445,-3.6712132,1.1123962,-1.2914063,2.4543092,-5.1911135,0.0
17645,-3.8492403,-12.159712,2.9015045,-1.2914063,2.4543092,-5.1911135,0.0
17646,-3.8492403,-12.159712,2.9015045,-1.8670167,1.6386842,-7.3777957,0.0
17647,-6.5009985,-20.84719,3.5296478,-1.8670167,1.6386842,-7.3777957,0.0
17648,-6.5009985,-20.84719,3.5296478,-0.22833252,1.4432739,-6.418799,0.0
17649,-6.43565,-22.432184,3.2360687,-0.22833252,1.4432739,-6.418799,0.0
17650,-6.43565,-22.432184,3.2360687,1.8457764,2.1909301,-4.1014895,0.0
17651,-6.3318577,-14.602803,2.5295563,1.8457764,2.1909301,-4.1014895,0.0
17652,-6.3318577,-14.602803,2.5295563,-0.817749,2.541394,-2.8366334,0.0
17653,-7.664632,-4.310563,0.6187134,-0.817749,2.541394,-2.8366334,0.0
17654,-7.664632,-4.310563,0.6187134,-4.0345826,2.9237182,-2.2206666,0.0
17655,-10.178862,0.93455744,-1.5954437,-4.0345826,2.9237182,-2.2206666,0.0
17656,-10.178862,0.93455744,-1.5954437,-2.983191,2.4744873,-1.7278931,0.0
17657,-12.187035,1.3786154,-2.3968964,-2.983191,2.4744873,-1.7278931,0.0
17658,-12.187035,1.3786154,-2.3968964,0.41524658,1.6556762,-1.0290893,0.0
17659,-10.824701,2.513256,-2.0851288,0.41524658,1.6556762,-1.0290893,0.0
17660,-10.824701,2.513256,-2.0851288,1.9795898,1.0949341,-0.50020754,0.0
17661,-6.3154736,6.677231,-2.0065918,1.9795898,1.0949341,-0.50020754,0.0
17662,-6.3154736,6.677231,-2.0065918,1.3668091,1.2011353,0.46516114,0.0
17663,-2.9629135,10.584436,-2.4307709,1.3668091,1.2011353,0.46516114,0.0
17664,-2.9629135,10.584436,-2.4307709,0.3791382,0.91757816,1.2021973,0.0
17665,-2.9807682,11.346407,-2.5404816,0.3791382,0.91757816,1.2021973,0.0
17666,-2.9807682,11.346407,-2.5404816,0.7742066,0.30161133,2.0348146,0.0
17667,-3.8790607,9.558864,-1.937439,0.7742066,0.30161133,2.0348146,0.0
17668,-3.8790607,9.558864,-1.937439,1.4061035,-0.8326172,2.6348512,0.0
17669,-2.9834738,7.421921,-1.28685,1.4061035,-0.8326172,2.6348512,0.0
17670,-2.9834738,7.421921,-1.28685,0.9632446,-2.0125122,2.7984009,0.0
17671,-0.69771576,6.0842285,-1.0577393,0.9632446,-2.0125122,2.7984009,0.0
17672,-0.69771576,6.0842285,-1.0577393,-0.5320679,-2.4001465,3.2072754,0.0
17673,1.0189638,4.4872684,-0.47885132,-0.5320679,-2.4001465,3.2072754,0.0
17674,1.0189638,4.4872684,-0.47885132,-2.809021,-2.2312868,3.4271119,0.0
17675,0.6467142,-2.4706707,0.8655243,-2.809021,-2.2312868,3.4271119,0.0
17676,0.6467142,-2.4706707,0.8655243,-4.4933715,-2.258899,4.1938844,0.0
17677,-0.5884638,-17.64674,1.6683044,-4.4933715,-2.258899,4.1938844,0.0
17678,-0.5884638,-17.64674,1.6683044,-1.992334,-4.811975,3.2497559,0.0
17679,2.5086231,-28.353659,0.66348267,-1.992334,-4.811975,3.2497559,0.0
17680,2.5086231,-28.353659,0.66348267,3.9538696,-5.0180054,3.3931274,0.0
17681,9.6454115,-21.599016,0.118515015,3.9538696,-5.0180054,3.3931274,0.0
17682,9.6454115,-21.599016,0.118515015,4.697278,-3.355957,3.5322511,0.0
17683,13.609274,-4.7102437,1.3614197,4.697278,-3.355957,3.5322511,0.0
17684,13.609274,-4.7102437,1.3614197,0.47684327,-2.6879518,4.3669925,0.0
17685,12.016375,7.208453,1.8716736,0.47684327,-2.6879518,4.3669925,0.0
17686,12.016375,7.208453,1.8716736,-1.6970948,-2.353418,4.3510623,0.0
17687,9.10569,10.570803,1.2380981,-1.6970948,-2.353418,4.3510623,0.0
17688,9.10569,10.570803,1.2380981,-0.9855469,-2.2843874,3.0564697,0.0
17689,8.036945,10.963454,0.31759644,-0.9855469,-2.2843874,3.0564697,0.0
17690,8.036945,10.963454,0.31759644,0.24213867,-1.7809937,2.0486207,0.0
17691,7.872549,11.928503,-0.6739197,0.24213867,-1.7809937,2.0486207,0.0
17692,7.872549,11.928503,-0.6739197,0.48746338,-1.1023682,1.3349488,0.0
17693,6.6189013,12.609209,-1.4880524,0.48746338,-1.1023682,1.3349488,0.0
17694,6.6189013,12.609209,-1.4880524,-0.121069334,-0.630835,0.20072022,0.0
17695,5.1243935,11.528225,-1.9690857,-0.121069334,-0.630835,0.20072022,0.0
17696,5.1243935,11.528225,-1.9690857,0.4088745,0.025488282,-0.632959,0.0
17697,3.9212189,9.484432,-1.8654022,0.4088745,0.025488282,-0.632959,0.0
17698,3.9212189,9.484432,-1.8654022,0.91014403,0.70305175,-1.9286133,0.0
17699,2.1409054,8.399754,-1.0755768,0.91014403,0.70305175,-1.9286133,0.0
17700,2.1409054,8.399754,-1.0755768,0.28568116,0.9759888,-3.2136476,0.0
17701,0.7636156,7.651676,0.20655823,0.28568116,0.9759888,-3.2136476,0.0
17702,0.7636156,7.651676,0.20655823,-0.7317261,1.0524536,-4.089807,0.0
17703,0.9090128,5.1117096,1.9189758,-0.7317261,1.0524536,-4.089807,0.0
17704,0.9090128,5.1117096,1.9189758,-1.8245362,1.2255615,-4.461511,0.0
17705,1.6342535,0.017259598,3.2484589,-1.8245362,1.2255615,-4.461511,0.0
17706,1.6342535,0.017259598,3.2484589,-2.3619142,1.6036377,-4.625061,0.0
17707,1.701592,-8.62661,3.0671844,-2.3619142,1.6036377,-4.625061,0.0
17708,1.701592,-8.62661,3.0671844,-3.6405761,2.538208,-4.8342776,0.0
17709,0.7649965,-18.85743,1.758728,-3.6405761,2.538208,-4.8342776,0.0
17710,0.7649965,-18.85743,1.758728,-2.6072388,3.6681886,-5.3727174,0.0
17711,-2.3041773,-24.375996,1.4616699,-2.6072388,3.6681886,-5.3727174,0.0
17712,-2.3041773,-24.375996,1.4616699,-0.89102787,3.454724,-4.715332,0.0
17713,-6.599824,-21.80131,2.2346191,-0.89102787,3.454724,-4.715332,0.0
17714,-6.599824,-21.80131,2.2346191,0.09451904,2.6698976,-3.9697998,0.0
17715,-8.580652,-12.957588,1.96521,0.09451904,2.6698976,-3.9697998,0.0
17716,-8.580652,-12.957588,1.96521,-1.0195312,2.3842163,-3.2157714,0.0
17717,-8.415486,-2.9815373,0.11993408,-1.0195312,2.3842163,-3.2157714,0.0
17718,-8.415486,-2.9815373,0.11993408,-1.8447144,2.536084,-2.4691772,0.0
17719,-8.534623,2.7457395,-1.986145,-1.8447144,2.536084,-2.4691772,0.0
17720,-8.534623,2.7457395,-1.986145,-1.5154908,2.4861696,-2.1919923,0.0
17721,-9.368007,3.8423314,-2.9456635,-1.5154908,2.4861696,-2.1919923,0.0
17722,-9.368007,3.8423314,-2.9456635,-0.13062744,2.3332398,-2.0592408,0.0
17723,-9.7483,4.029004,-2.5841064,-0.13062744,2.3332398,-2.0592408,0.0
17724,-9.7483,4.029004,-2.5841064,1.1915772,1.7565674,-1.5292969,0.0
17725,-8.631342,5.6492167,-1.8881073,1.1915772,1.7565674,-1.5292969,0.0
17726,-8.631342,5.6492167,-1.8881073,1.6376221,1.2839721,-0.811377,0.0
17727,-6.4867268,7.7623177,-1.7044067,1.6376221,1.2839721,-0.811377,0.0
17728,-6.4867268,7.7623177,-1.7044067,1.2393677,1.26698,-0.20921631,0.0
17729,-5.270937,8.648819,-2.1491852,1.2393677,1.26698,-0.20921631,0.0
17730,-5.270937,8.648819,-2.1491852,0.68712157,1.260608,0.4598511,0.0
17731,-5.710243,7.9714355,-2.7128448,0.68712157,1.260608,0.4598511,0.0
17732,-5.710243,7.9714355,-2.7128448,0.5299439,0.27293703,0.72960204,0.0
17733,-5.6649113,6.748267,-2.8786774,0.5299439,0.27293703,0.72960204,0.0
17734,-5.6649113,6.748267,-2.8786774,0.3971924,-0.8973999,1.4592041,0.0
17735,-3.5058784,5.643853,-2.3755188,0.3971924,-0.8973999,1.4592041,0.0
17736,-3.5058784,5.643853,-2.3755188,-0.31010744,-1.1915772,2.0826051,0.0
17737,-1.0593166,4.1879826,-1.0104828,-0.31010744,-1.1915772,2.0826051,0.0
17738,-1.0593166,4.1879826,-1.0104828,-1.8330323,-1.0821899,2.6380372,0.0
17739,-0.77062225,-0.2842331,0.6483154,-1.8330323,-1.0821899,2.6380372,0.0
17740,-0.77062225,-0.2842331,0.6483154,-3.0054932,-2.3948364,3.1520507,0.0
17741,-0.8139591,-11.637116,0.28530884,-3.0054932,-2.3948364,3.1520507,0.0
17742,-0.8139591,-11.637116,0.28530884,-1.6418701,-5.2951903,4.6781616,0.0
17743,3.6457691,-23.795265,-2.4138184,-1.6418701,-5.2951903,4.6781616,0.0
17744,3.6457691,-23.795265,-2.4138184,2.1399536,-5.2006717,3.3856933,0.0
17745,10.952235,-23.920502,-2.6894379,2.1399536,-5.2006717,3.3856933,0.0
17746,10.952235,-23.920502,-2.6894379,1.1586548,-2.6560915,3.7648315,0.0
17747,10.952235,-23.920502,-2.6894379,1.1586548,-2.6560915,3.7648315,0.0
17748,13.624948,-13.1876335,1.1736603,1.1586548,-2.6560915,3.7648315,0.0
17749,13.624948,-13.1876335,1.1736603,-1.5420411,-3.4186158,4.36593,0.0
17750,10.745283,-1.5337253,3.8004608,-1.5420411,-3.4186158,4.36593,0.0
17751,10.745283,-1.5337253,3.8004608,-1.5611572,-4.5740848,4.8300295,0.0
17752,7.993541,6.2421727,2.5795135,-1.5611572,-4.5740848,4.8300295,0.0
17753,7.993541,6.2421727,2.5795135,-0.5915405,-4.8268433,4.067505,0.0
17754,7.4754114,10.152381,0.3742218,-0.5915405,-4.8268433,4.067505,0.0
17755,7.4754114,10.152381,0.3742218,-0.13912354,-3.885901,2.9523926,0.0
17756,7.5323677,12.18709,-0.17684937,-0.13912354,-3.885901,2.9523926,0.0
17757,7.5323677,12.18709,-0.17684937,0.61278075,-3.4058716,1.9859619,0.0
17758,6.9858065,13.484133,0.62184143,0.61278075,-3.4058716,1.9859619,0.0
17759,6.9858065,13.484133,0.62184143,0.82836914,-3.0585938,1.5537232,0.0
17760,6.069053,13.787368,1.2186279,0.82836914,-3.0585938,1.5537232,0.0
17761,6.069053,13.787368,1.2186279,0.48746338,-2.532898,1.0216553,0.0
17762,5.067523,12.821875,1.1252747,0.48746338,-2.532898,1.0216553,0.0
17763,5.067523,12.821875,1.1252747,0.29736328,-1.7395753,0.2548828,0.0
17764,4.2084007,10.951813,0.865921,0.29736328,-1.7395753,0.2548828,0.0
17765,4.2084007,10.951813,0.865921,0.15186767,-0.9239502,-0.58623046,0.0
17766,3.8292084,8.558069,0.78816223,0.15186767,-0.9239502,-0.58623046,0.0
17767,3.8292084,8.558069,0.78816223,-0.05522461,-0.04460449,-1.3689331,0.0
17768,3.7472658,5.6822834,0.9943695,-0.05522461,-0.04460449,-1.3689331,0.0
17769,3.7472658,5.6822834,0.9943695,-0.23364258,0.69349366,-1.9275513,0.0
17770,3.1143284,2.6177254,1.5852356,-0.23364258,0.69349366,-1.9275513,0.0
17771,3.1143284,2.6177254,1.5852356,-1.0004151,1.2924683,-2.1357057,0.0
17772,1.6461134,-1.2759247,2.4725952,-1.0004151,1.2924683,-2.1357057,0.0
17773,1.6461134,-1.2759247,2.4725952,-2.2365968,1.725769,-2.270581,0.0
17774,0.574276,-8.179249,2.5336304,-2.2365968,1.725769,-2.270581,0.0
17775,0.574276,-8.179249,2.5336304,-3.1456788,2.3311157,-3.2784302,0.0
17776,0.11276531,-15.4573765,1.0586853,-3.1456788,2.3311157,-3.2784302,0.0
17777,0.11276531,-15.4573765,1.0586853,-2.2004883,3.0957642,-3.6087158,0.0
17778,-1.3243389,-18.638302,-0.27915955,-2.2004883,3.0957642,-3.6087158,0.0
17779,-1.3243389,-18.638302,-0.27915955,-1.6832886,3.355957,-2.617859,0.0
17780,-3.7424297,-17.326998,-0.30506897,-1.6832886,3.355957,-2.617859,0.0
17781,-3.7424297,-17.326998,-0.30506897,-0.75296634,3.076648,-2.171814,0.0
17782,-6.002672,-11.658194,0.18536377,-0.75296634,3.076648,-2.171814,0.0
17783,-6.002672,-11.658194,0.18536377,-0.5511841,2.9438965,-1.893567,0.0
17784,-7.732997,-3.526884,0.16661072,-0.5511841,2.9438965,-1.893567,0.0
17785,-7.732997,-3.526884,0.16661072,-0.7975708,2.8780518,-1.725769,0.0
17786,-8.755123,2.6886857,-0.24949646,-0.7975708,2.8780518,-1.725769,0.0
17787,-8.755123,2.6886857,-0.24949646,-0.6117188,2.6932619,-1.5537232,0.0
17788,-9.14028,5.075448,-0.37391663,-0.6117188,2.6932619,-1.5537232,0.0
17789,-9.14028,5.075448,-0.37391663,0.24638672,2.3980224,-1.4188477,0.0
17790,-9.428887,5.487934,-0.32902527,0.24638672,2.3980224,-1.4188477,0.0
17791,-9.428887,5.487934,-0.32902527,1.3413209,2.3204956,-1.3699951,0.0
17792,-9.654682,5.9268827,-0.49804688,1.3413209,2.3204956,-1.3699951,0.0
17793,-9.654682,5.9268827,-0.49804688,1.5261109,1.8914429,-1.3721192,0.0
17794,-9.379129,6.570694,-0.7923126,1.5261109,1.8914429,-1.3721192,0.0
17795,-9.379129,6.570694,-0.7923126,1.1544068,1.1682129,-0.51082766,0.0
17796,-8.7320385,6.4126463,-1.283432,1.1544068,1.1682129,-0.51082766,0.0
17797,-8.7320385,6.4126463,-1.283432,1.083252,0.43754885,0.21027832,0.0
17798,-7.734007,5.46072,-1.8358002,1.083252,0.43754885,0.21027832,0.0
17799,-7.734007,5.46072,-1.8358002,1.9604737,-0.7041138,1.4252198,0.0
17800,-5.633959,5.037216,-2.119156,1.9604737,-0.7041138,1.4252198,0.0
17801,-5.633959,5.037216,-2.119156,2.6603394,-1.8404664,2.6475952,0.0
17802,-2.5982065,5.0069456,-2.2267761,2.6603394,-1.8404664,2.6475952,0.0
17803,-2.5982065,5.0069456,-2.2267761,2.0581787,-2.5477662,2.8493774,0.0
17804,-0.40631104,4.2818747,-2.251831,2.0581787,-2.5477662,2.8493774,0.0
17805,-0.40631104,4.2818747,-2.251831,0.48746338,-3.0692139,2.969385,0.0
17806,-0.2263794,1.5050163,-2.2693787,0.48746338,-3.0692139,2.969385,0.0
17807,-0.2263794,1.5050163,-2.2693787,-1.5802735,-3.896521,2.7559204,0.0
17808,0.3794918,-6.068448,-3.2013397,-1.5802735,-3.896521,2.7559204,0.0
17809,0.3794918,-6.068448,-3.2013397,-2.6635253,-5.866553,3.799878,0.0
17810,4.102373,-16.40814,-5.3371124,-2.6635253,-5.866553,3.799878,0.0
17811,4.102373,-16.40814,-5.3371124,-0.1274414,-5.993994,3.609778,0.0
17812,9.350026,-20.708447,-6.3182526,-0.1274414,-5.993994,3.609778,0.0
17813,9.350026,-20.708447,-6.3182526,1.3774292,-5.0254397,3.4419801,0.0
17814,12.888639,-15.740329,-3.9530945,1.3774292,-5.0254397,3.4419801,0.0
17815,12.888639,-15.740329,-3.9530945,0.39082032,-4.584705,3.5980957,0.0
17816,13.264233,-5.9263573,0.41485596,0.39082032,-4.584705,3.5980957,0.0
17817,13.264233,-5.9263573,0.41485596,-0.24107666,-5.0010133,3.80625,0.0
17818,11.305344,3.3994904,3.4397125,-0.24107666,-5.0010133,3.80625,0.0
17819,11.305344,3.3994904,3.4397125,-0.86766356,-5.1178346,3.6384523,0.0
17820,9.232739,8.692968,3.872467,-0.86766356,-5.1178346,3.6384523,0.0
17821,9.232739,8.692968,3.872467,-1.5802735,-4.5496583,2.9661987,0.0
17822,8.190049,9.561724,2.8862762,-1.5802735,-4.5496583,2.9661987,0.0
17823,8.190049,9.561724,2.8862762,-1.5696534,-3.6002197,2.1091554,0.0
17824,7.723036,8.403627,1.9418488,-1.5696534,-3.6002197,2.1091554,0.0
17825,7.723036,8.403627,1.9418488,-0.77739257,-2.5721924,1.0577637,0.0
17826,7.3957505,7.659999,1.554596,-0.77739257,-2.5721924,1.0577637,0.0
17827,7.3957505,7.659999,1.554596,-0.11469727,-1.6864747,0.4959595,0.0
17828,6.7539663,7.920248,1.4440918,-0.11469727,-1.6864747,0.4959595,0.0
17829,6.7539663,7.920248,1.4440918,0.29523927,-0.9133301,-0.15080567,0.0
17830,5.480773,8.375175,1.3862,0.29523927,-0.9133301,-0.15080567,0.0
17831,5.480773,8.375175,1.3862,0.2803711,-0.34833986,-0.63826907,0.0
17832,4.107213,8.158306,1.468216,0.2803711,-0.34833986,-0.63826907,0.0
17833,4.107213,8.158306,1.468216,-0.11363526,-0.008496094,-1.0598878,0.0
17834,3.1872234,6.8486176,1.6158905,-0.11363526,-0.008496094,-1.0598878,0.0
17835,3.1872234,6.8486176,1.6158905,-0.86341554,0.36639404,-1.3402588,0.0
17836,2.4740953,4.263611,1.8536224,-0.86341554,0.36639404,-1.3402588,0.0
17837,2.4740953,4.263611,1.8536224,-1.5930176,0.88040775,-1.5940796,0.0
17838,1.5657139,0.33607292,2.1050262,-1.5930176,0.88040775,-1.5940796,0.0
17839,1.5657139,0.33607292,2.1050262,-2.0592408,1.2574219,-2.0624268,0.0
17840,0.5691967,-4.169935,1.5317383,-2.0592408,1.2574219,-2.0624268,0.0
17841,0.5691967,-4.169935,1.5317383,-2.0326905,2.0029542,-3.2136476,0.0
17842,-0.19725513,-5.7132683,0.79963684,-2.0326905,2.0029542,-3.2136476,0.0
17843,-0.19725513,-5.7132683,0.79963684,-2.1187134,2.4925416,-3.6501343,0.0
17844,-1.7313023,-12.515646,-1.6687317,-2.1187134,2.4925416,-3.6501343,0.0
17845,-1.7313023,-12.515646,-1.6687317,-2.70813,3.799878,-3.5917237,0.0
17846,-2.7354689,-13.058038,-1.2942657,-2.70813,3.799878,-3.5917237,0.0
17847,-2.7354689,-13.058038,-1.2942657,-2.70813,3.799878,-3.5917237,0.0
17848,-2.7354689,-13.058038,-1.2942657,-2.5456421,3.9432495,-3.165857,0.0
17849,-5.8520594,-15.273249,0.5871887,-2.5456421,3.9432495,-3.165857,0.0
17850,-5.8520594,-15.273249,0.5871887,-0.7688965,2.879114,-2.2387207,0.0
17851,-6.3241644,-11.21125,1.2262726,-0.7688965,2.879114,-2.2387207,0.0
17852,-6.3241644,-11.21125,1.2262726,-0.35152587,2.5127199,-2.0295045,0.0
17853,-8.756573,-1.0691228,1.4023438,-0.35152587,2.5127199,-2.0295045,0.0
17854,-8.756573,-1.0691228,1.4023438,-0.10195313,2.267395,-1.7990478,0.0
17855,-8.300938,1.686938,0.8598175,-0.10195313,2.267395,-1.7990478,0.0
17856,-8.300938,1.686938,0.8598175,0.081774905,2.1187134,-1.5632813,0.0
17857,-9.006314,6.029165,0.26792908,0.081774905,2.1187134,-1.5632813,0.0
17858,-9.006314,6.029165,0.26792908,1.447522,1.8372803,-0.8028809,0.0
17859,-8.157774,6.0226974,0.2340393,1.447522,1.8372803,-0.8028809,0.0
17860,-8.157774,6.0226974,0.2340393,1.7300171,1.812854,-0.70092773,0.0
17861,-8.488695,7.552692,0.66282654,1.7300171,1.812854,-0.70092773,0.0
17862,-8.488695,7.552692,0.66282654,2.1951783,0.9791748,-0.33984375,0.0
17863,-6.970765,7.190506,0.50393677,2.1951783,0.9791748,-0.33984375,0.0
17864,-6.970765,7.190506,0.50393677,2.257837,0.6754395,-0.16354981,0.0
17865,-4.0887704,8.800488,-0.0892334,2.257837,0.6754395,-0.16354981,0.0
17866,-4.0887704,8.800488,-0.0892334,1.6716064,-0.09133301,0.7943848,0.0
17867,-2.6365438,7.9869614,-0.40699768,1.6716064,-0.09133301,0.7943848,0.0
17868,-2.6365438,7.9869614,-0.40699768,1.2722901,-0.5734863,1.0630738,0.0
17869,-1.3486395,6.9919376,-0.69155884,1.2722901,-0.5734863,1.0630738,0.0
17870,-1.3486395,6.9919376,-0.69155884,0.32072756,-1.8638306,2.1303957,0.0
17871,-0.7381401,5.119709,-0.64701843,0.32072756,-1.8638306,2.1303957,0.0
17872,-0.7381401,5.119709,-0.64701843,-0.029736329,-2.3003175,2.3162477,0.0
17873,-1.0286102,0.30998802,-1.5780487,-0.029736329,-2.3003175,2.3162477,0.0
17874,-1.0286102,0.30998802,-1.5780487,-1.8903809,-4.049451,2.1505737,0.0
17875,-0.28830576,-2.7342968,-2.2084045,-1.8903809,-4.049451,2.1505737,0.0
17876,-0.28830576,-2.7342968,-2.2084045,-2.453247,-4.7291384,2.527588,0.0
17877,1.693696,-11.805773,-4.7499695,-2.453247,-4.7291384,2.527588,0.0
17878,1.693696,-11.805773,-4.7499695,-2.2047365,-5.6552124,3.8402345,0.0
17879,6.4010262,-20.82743,-6.056961,-2.2047365,-5.6552124,3.8402345,0.0
17880,6.4010262,-20.82743,-6.056961,0.9717407,-4.3128295,3.5492432,0.0
17881,10.4435625,-20.526764,-3.953949,0.9717407,-4.3128295,3.5492432,0.0
17882,10.4435625,-20.526764,-3.953949,1.5176147,-4.2066283,4.157776,0.0
17883,10.143632,-11.373352,-0.4950714,1.5176147,-4.2066283,4.157776,0.0
17884,10.143632,-11.373352,-0.4950714,0.15611573,-4.2331786,4.346814,0.0
17885,8.669874,1.3503902,1.8094635,0.15611573,-4.2331786,4.346814,0.0
17886,8.669874,1.3503902,1.8094635,0.31435546,-4.270349,3.3517091,0.0
17887,8.063499,3.4209373,1.0498352,0.31435546,-4.270349,3.3517091,0.0
17888,8.063499,3.4209373,1.0498352,0.4715332,-3.8635986,2.992749,0.0
17889,8.347784,6.6188912,0.12400818,0.4715332,-3.8635986,2.992749,0.0
17890,8.347784,6.6188912,0.12400818,0.64782715,-3.0554078,2.1091554,0.0
17891,7.67426,8.531112,-0.4149475,0.64782715,-3.0554078,2.1091554,0.0
17892,7.67426,8.531112,-0.4149475,0.4598511,-2.351294,1.0630738,0.0
17893,6.5297527,9.434655,-0.73742676,0.4598511,-2.351294,1.0630738,0.0
17894,6.5297527,9.434655,-0.73742676,0.35046387,-1.8054199,0.36533204,0.0
17895,5.3892813,9.534186,-1.0896912,0.35046387,-1.8054199,0.36533204,0.0
17896,5.3892813,9.534186,-1.0896912,0.53737795,-1.2436157,0.059472658,0.0
17897,4.163988,9.2009945,-1.3243713,0.53737795,-1.2436157,0.059472658,0.0
17898,4.163988,9.2009945,-1.3243713,0.17629395,-0.66588134,-0.44710693,0.0
17899,3.0942154,8.542437,-0.91122437,0.17629395,-0.66588134,-0.44710693,0.0
17900,3.0942154,8.542437,-0.91122437,-0.32922363,-0.10301514,-0.95368654,0.0
17901,2.6124573,7.1852436,0.05102539,-0.32922363,-0.10301514,-0.95368654,0.0
17902,2.6124573,7.1852436,0.05102539,-1.1660889,0.28780517,-1.7066529,0.0
17903,2.582409,5.1225967,0.83148193,-1.1660889,0.28780517,-1.7066529,0.0
17904,2.582409,5.1225967,0.83148193,-1.5579712,0.68074954,-2.3778443,0.0
17905,2.2501678,2.8968925,1.10466,-1.5579712,0.68074954,-2.3778443,0.0
17906,2.2501678,2.8968925,1.10466,-1.6015137,1.1522827,-2.89823,0.0
17907,1.1539173,0.8126316,1.1388855,-1.6015137,1.1522827,-2.89823,0.0
17908,1.1539173,0.8126316,1.1388855,-1.3222046,1.6620483,-3.5715454,0.0
17909,0.8109398,-3.644415,0.23638916,-1.3222046,1.6620483,-3.5715454,0.0
17910,0.8109398,-3.644415,0.23638916,-1.4188477,2.909912,-4.501868,0.0
17911,0.8984108,-11.222589,-0.40834045,-1.4188477,2.909912,-4.501868,0.0
17912,0.8984108,-11.222589,-0.40834045,-1.075818,4.064319,-5.3217406,0.0
17913,-1.0925026,-18.282795,1.3008118,-1.075818,4.064319,-5.3217406,0.0
17914,-1.0925026,-18.282795,1.3008118,0.38763428,3.0490358,-4.5995727,0.0
17915,-4.266018,-18.799892,3.77594,0.38763428,3.0490358,-4.5995727,0.0
17916,-4.266018,-18.799892,3.77594,0.58198243,2.4192626,-3.5991578,0.0
17917,-6.0057592,-10.993394,4.284485,0.58198243,2.4192626,-3.5991578,0.0
17918,-6.0057592,-10.993394,4.284485,-2.2493408,2.4925416,-2.3619142,0.0
17919,-7.134307,-1.4144051,2.8454742,-2.2493408,2.4925416,-2.3619142,0.0
17920,-7.134307,-1.4144051,2.8454742,-3.0447876,2.7442384,-1.5813354,0.0
17921,-8.945336,3.9941719,1.3031311,-3.0447876,2.7442384,-1.5813354,0.0
17922,-8.945336,3.9941719,1.3031311,-2.179248,2.5488281,-1.2351197,0.0
17923,-10.561176,5.4943485,0.9062195,-2.179248,2.5488281,-1.2351197,0.0
17924,-10.561176,5.4943485,0.9062195,-0.25913087,2.1505737,-1.1650269,0.0
17925,-10.614592,6.1556597,1.1974182,-0.25913087,2.1505737,-1.1650269,0.0
17926,-10.614592,6.1556597,1.1974182,0.79013675,1.5792115,-0.7083618,0.0
17927,-9.026024,7.417899,1.0032501,0.79013675,1.5792115,-0.7083618,0.0
17928,-9.026024,7.417899,1.0032501,0.6244629,1.4921265,-0.29736328,0.0
17929,-7.248065,8.408123,0.38275146,0.6244629,1.4921265,-0.29736328,0.0
17930,-7.248065,8.408123,0.38275146,0.31010744,1.2244996,-0.070092775,0.0
17931,-6.10104,8.494028,0.33622742,0.31010744,1.2244996,-0.070092775,0.0
17932,-6.10104,8.494028,0.33622742,0.31116945,0.44710693,0.5501221,0.0
17933,-4.729892,7.7828207,0.81762695,0.31116945,0.44710693,0.5501221,0.0
17934,-4.729892,7.7828207,0.81762695,0.635083,-0.3451538,1.2266235,0.0
17935,-2.5684106,6.5163803,0.80677795,0.635083,-0.3451538,1.2266235,0.0
17936,-2.5684106,6.5163803,0.80677795,0.7041138,-0.721106,2.1272094,0.0
17937,-0.6080489,4.289728,-0.20524597,0.7041138,-0.721106,2.1272094,0.0
17938,-0.6080489,4.289728,-0.20524597,-0.11044922,-1.3614991,2.5806885,0.0
17939,-0.058069944,-0.5880909,-1.7355957,-0.11044922,-1.3614991,2.5806885,0.0
17940,-0.058069944,-0.5880909,-1.7355957,-1.0195312,-2.1027832,3.0437257,0.0
17941,0.22246504,-10.21216,-2.8544617,-1.0195312,-2.1027832,3.0437257,0.0
17942,0.22246504,-10.21216,-2.8544617,-0.57242435,-3.4026856,3.9506836,0.0
17943,3.661285,-19.58672,-3.8540802,-0.57242435,-3.4026856,3.9506836,0.0
17944,3.661285,-19.58672,-3.8540802,3.7542114,-3.815808,4.004846,0.0
17945,8.879126,-19.659683,-3.9515228,3.7542114,-3.815808,4.004846,0.0
17946,8.879126,-19.659683,-3.9515228,5.0222535,-3.6989868,3.805188,0.0
17947,10.959124,-10.920191,-1.8113556,5.0222535,-3.6989868,3.805188,0.0
17948,10.959124,-10.920191,-1.8113556,2.8207033,-3.536499,4.70896,0.0
17949,10.286208,-2.1804523,0.84091187,2.8207033,-3.536499,4.70896,0.0
17950,10.286208,-2.1804523,0.84091187,0.9281983,-3.9145753,4.213001,0.0
17951,9.2973995,2.2972395,1.516983,0.9281983,-3.9145753,4.213001,0.0
17952,9.2973995,2.2972395,1.516983,0.86978763,-4.0409546,4.3574343,0.0
17953,8.51032,4.7426014,0.30854797,0.86978763,-4.0409546,4.3574343,0.0
17954,8.51032,4.7426014,0.30854797,0.72323,-3.8391724,3.2348878,0.0
17955,7.7510786,6.9822407,-1.2199707,0.72323,-3.8391724,3.2348878,0.0
17956,7.7510786,6.9822407,-1.2199707,0.85598147,-3.346399,2.6688354,0.0
17957,6.802084,8.7759905,-2.182846,0.85598147,-3.346399,2.6688354,0.0
17958,6.802084,8.7759905,-2.182846,1.081128,-2.727246,2.2981935,0.0
17959,5.424259,9.84633,-2.436325,1.081128,-2.727246,2.2981935,0.0
17960,5.424259,9.84633,-2.436325,0.7104859,-1.9572877,1.3774292,0.0
17961,3.4187412,10.3727665,-2.4926605,0.7104859,-1.9572877,1.3774292,0.0
17962,3.4187412,10.3727665,-2.4926605,0.18160401,-1.4167236,0.25806886,0.0
17963,1.3931103,10.113239,-2.9767914,0.18160401,-1.4167236,0.25806886,0.0
17964,1.3931103,10.113239,-2.9767914,-0.28355715,-0.85491943,-1.0970582,0.0
17965,0.32019997,8.785221,-3.7198486,-0.28355715,-0.85491943,-1.0970582,0.0
17966,0.32019997,8.785221,-3.7198486,0.052038576,-0.0361084,-1.9594116,0.0
17967,0.34787178,5.896841,-3.565567,0.052038576,-0.0361084,-1.9594116,0.0
17968,0.34787178,5.896841,-3.565567,0.6637573,0.85385746,-2.175,0.0
17969,0.16870308,1.9712448,-1.15979,0.6637573,0.85385746,-2.175,0.0
17970,0.16870308,1.9712448,-1.15979,1.3933594,1.0110352,-2.546704,0.0
17971,-1.3387318,-2.6909485,2.7288208,1.3933594,1.0110352,-2.546704,0.0
17972,-1.3387318,-2.6909485,2.7288208,3.1414306,0.58304447,-2.9237182,0.0
17973,-2.5707655,-7.388708,5.59169,3.1414306,0.58304447,-2.9237182,0.0
17974,-2.5707655,-7.388708,5.59169,4.168396,1.0375855,-3.606592,0.0
17975,-1.7494717,-8.730949,7.651764,4.168396,1.0375855,-3.606592,0.0
17976,-1.7494717,-8.730949,7.651764,2.4851074,1.6822265,-4.9351687,0.0
17977,-0.06841278,-6.438019,10.126236,2.4851074,1.6822265,-4.9351687,0.0
17978,-0.06841278,-6.438019,10.126236,-1.2085694,1.9084351,-3.2009034,0.0
17979,-0.06841278,-6.438019,10.126236,-3.2465699,2.3767822,-3.2359498,0.0
17980,0.459857,-4.5427494,10.757629,-3.2465699,2.3767822,-3.2359498,0.0
17981,-3.2667828,-1.4099321,4.9388123,-3.2465699,2.3767822,-3.2359498,0.0
17982,-3.2667828,-1.4099321,4.9388123,-2.992749,3.1031983,-3.2009034,0.0
17983,-3.2667828,-1.4099321,4.9388123,-2.1208375,3.087268,-2.6125488,0.0
17984,-5.6480455,1.6733599,1.3864441,-2.1208375,3.087268,-2.6125488,0.0
17985,-5.6480455,1.6733599,1.3864441,-1.3391968,2.3289917,-2.3651001,0.0
17986,-7.0984535,3.0321693,-0.4462433,-1.3391968,2.3289917,-2.3651001,0.0
17987,-7.0984535,3.0321693,-0.4462433,-0.6042847,1.8457764,-2.4978516,0.0
17988,-7.5174227,3.3127956,-1.3570862,-0.6042847,1.8457764,-2.4978516,0.0
17989,-7.5174227,3.3127956,-1.3570862,-0.2824951,1.4082276,-2.16969,0.0
17990,-7.2668314,3.954815,-1.7932739,-0.2824951,1.4082276,-2.16969,0.0
17991,-7.2668314,3.954815,-1.7932739,-0.8050049,1.1650269,-1.2595459,0.0
17992,-6.9934087,4.4925756,-1.7398682,-0.8050049,1.1650269,-1.2595459,0.0
17993,-6.9934087,4.4925756,-1.7398682,-0.6531372,1.1480347,-0.35577393,0.0
17994,-6.8073983,4.1496887,-1.411911,-0.6531372,1.1480347,-0.35577393,0.0
17995,-6.8073983,4.1496887,-1.411911,1.0609497,0.61065674,0.79332274,0.0
17996,-5.5674887,4.042919,-1.3224487,1.0609497,0.61065674,0.79332274,0.0
17997,-5.5674887,4.042919,-1.3224487,2.3937745,-0.30373535,1.7300171,0.0
17998,-3.2664785,4.6220684,-1.5366669,2.3937745,-0.30373535,1.7300171,0.0
17999,-3.2664785,4.6220684,-1.5366669,1.5717773,-0.2824951,2.901416,0.0
18000,-1.8622551,4.70277,-1.7732697,1.5717773,-0.2824951,2.901416,0.0
18001,-1.8622551,4.70277,-1.7732697,0.5957886,-0.79332274,3.2816162,0.0
18002,-1.5682098,3.0447235,-1.7684021,0.5957886,-0.79332274,3.2816162,0.0
18003,-1.5682098,3.0447235,-1.7684021,0.22196046,-1.7406372,3.9697998,0.0
18004,-1.2680444,-0.6096306,-0.934021,0.22196046,-1.7406372,3.9697998,0.0
18005,-1.2680444,-0.6096306,-0.934021,1.0906861,-2.2142944,4.1875124,0.0
18006,-0.3721137,-5.7908783,1.3353729,1.0906861,-2.2142944,4.1875124,0.0
18007,-0.3721137,-5.7908783,1.3353729,1.5282348,-2.521216,3.6936767,0.0
18008,1.7763569,-11.360474,3.6368408,1.5282348,-2.521216,3.6936767,0.0
18009,1.7763569,-11.360474,3.6368408,1.3487549,-2.5806885,3.628894,0.0
18010,1.7763569,-11.360474,3.6368408,1.3487549,-2.5806885,3.628894,195.0
18011,5.2647133,-15.505347,4.7439117,1.3487549,-2.5806885,3.628894,195.0
18012,5.2647133,-15.505347,4.7439117,1.3530029,-0.630835,4.261853,195.0
18013,8.168278,-15.26054,4.800232,1.3530029,-0.630835,4.261853,195.0
18014,8.168278,-15.26054,4.800232,1.3094605,0.14230958,4.015466,195.0
18015,8.532181,-9.23309,3.468628,1.3094605,0.14230958,4.015466,195.0
18016,8.532181,-9.23309,3.468628,0.04991455,0.11151123,3.9188232,195.0
18017,6.961109,-0.9435768,0.891037,0.04991455,0.11151123,3.9188232,195.0
18018,6.961109,-0.9435768,0.891037,-1.1586548,-0.10407715,3.8349245,195.0
18019,5.249552,4.636545,-1.7776794,-1.1586548,-0.10407715,3.8349245,195.0
18020,5.249552,4.636545,-1.7776794,-1.9997681,-0.41949463,2.4766114,195.0
18021,4.5759354,6.0570507,-3.901062,-1.9997681,-0.41949463,2.4766114,195.0
18022,4.5759354,6.0570507,-3.901062,-1.4029175,-0.42055663,1.3487549,195.0
18023,4.9243956,5.7719345,-5.225769,-1.4029175,-0.42055663,1.3487549,195.0
18024,4.9243956,5.7719345,-5.225769,-0.1178833,-0.18903808,1.1512207,195.0
18025,5.081252,6.1381893,-5.4769745,-0.1178833,-0.18903808,1.1512207,195.0
18026,5.081252,6.1381893,-5.4769745,0.64782715,-0.039294433,0.4895874,195.0
18027,4.417077,7.4168625,-5.1216736,0.64782715,-0.039294433,0.4895874,195.0
18028,4.417077,7.4168625,-5.1216736,0.5150757,0.13806152,-0.35046387,195.0
18029,3.1956005,8.870747,-4.9517517,0.5150757,0.13806152,-0.35046387,195.0
18030,3.1956005,8.870747,-4.9517517,-0.7306641,0.62127686,-0.98873293,195.0
18031,1.5665636,8.919119,-4.5651703,-0.7306641,0.62127686,-0.98873293,195.0
18032,1.5665636,8.919119,-4.5651703,-1.9466676,1.0747559,-1.4783204,195.0
18033,0.39232635,6.303875,-3.0761414,-1.9466676,1.0747559,-1.4783204,195.0
18034,0.39232635,6.303875,-3.0761414,-1.6068238,1.3827393,-3.2157714,195.0
18035,0.37239456,2.5949059,-0.5948334,-1.6068238,1.3827393,-3.2157714,195.0
18036,0.37239456,2.5949059,-0.5948334,-0.7890747,1.5685914,-4.393543,195.0
18037,0.5486736,-0.3847313,2.1585388,-0.7890747,1.5685914,-4.393543,195.0
18038,0.5486736,-0.3847313,2.1585388,-1.177771,1.532483,-4.9999514,195.0
18039,1.7714958,-5.517868,4.580017,-1.177771,1.532483,-4.9999514,195.0
18040,1.7714958,-5.517868,4.580017,-2.6592774,2.075171,-6.2679935,195.0
18041,3.2494106,-12.048925,5.9940033,-2.6592774,2.075171,-6.2679935,195.0
18042,3.2494106,-12.048925,5.9940033,-2.6635253,2.899292,-6.1118774,195.0
18043,1.8586597,-15.538872,6.186096,-2.6635253,2.899292,-6.1118774,195.0
18044,1.8586597,-15.538872,6.186096,-2.2015502,3.0224855,-3.6607544,195.0
18045,-2.5016956,-14.649786,5.2713165,-2.2015502,3.0224855,-3.6607544,195.0
18046,-2.5016956,-14.649786,5.2713165,-1.3402588,3.3400269,-3.5895996,195.0
18047,-7.2700577,-9.596623,3.4473877,-1.3402588,3.3400269,-3.5895996,195.0
18048,-7.2700577,-9.596623,3.4473877,-0.4258667,3.335779,-3.5949097,195.0
18049,-9.734002,-2.5808268,1.3798676,-0.4258667,3.335779,-3.5949097,195.0
18050,-9.734002,-2.5808268,1.3798676,-0.13168946,3.0023072,-3.0054932,195.0
18051,-9.810945,2.9380732,-0.3267212,-0.13168946,3.0023072,-3.0054932,195.0
18052,-9.810945,2.9380732,-0.3267212,-0.27718505,2.446875,-2.3215578,195.0
18053,-9.232704,5.3948555,-1.290741,-0.27718505,2.446875,-2.3215578,195.0
18054,-9.232704,5.3948555,-1.290741,-0.36320803,2.0390625,-2.1325195,195.0
18055,-8.761921,6.0641756,-1.7163544,-0.36320803,2.0390625,-2.1325195,195.0
18056,-8.761921,6.0641756,-1.7163544,-0.83686525,1.629126,-1.6885986,195.0
18057,-8.245084,6.3749247,-1.8654175,-0.83686525,1.629126,-1.6885986,195.0
18058,-8.245084,6.3749247,-1.8654175,-0.85598147,1.2871583,-1.1575928,195.0
18059,-7.7187967,6.654811,-1.8322296,-0.85598147,1.2871583,-1.1575928,195.0
18060,-7.7187967,6.654811,-1.8322296,-0.3802002,0.9759888,-0.5692383,195.0
18061,-7.1680307,6.8731165,-1.6817627,-0.3802002,0.9759888,-0.5692383,195.0
18062,-7.1680307,6.8731165,-1.6817627,0.07646485,0.29099122,0.124255374,195.0
18063,-6.210645,6.776655,-1.6024017,0.07646485,0.29099122,0.124255374,195.0
18064,-6.210645,6.776655,-1.6024017,0.090270996,-0.6425171,0.88253176,195.0
18065,-4.3923445,5.9943714,-1.6054077,0.090270996,-0.6425171,0.88253176,195.0
18066,-4.3923445,5.9943714,-1.6054077,-0.22196046,-1.5845215,1.5462891,195.0
18067,-1.8430748,4.5657616,-1.4351959,-0.22196046,-1.5845215,1.5462891,195.0
18068,-1.8430748,4.5657616,-1.4351959,-0.8071289,-2.350232,2.442627,195.0
18069,0.4565704,1.736557,-0.5611725,-0.8071289,-2.350232,2.442627,195.0
18070,0.4565704,1.736557,-0.5611725,-1.5431031,-2.9067261,3.536499,195.0
18071,1.403269,-5.2615967,0.9008179,-1.5431031,-2.9067261,3.536499,195.0
18072,1.403269,-5.2615967,0.9008179,-0.68074954,-3.6575685,4.821533,195.0
18073,3.0287433,-15.203735,1.2586823,-0.68074954,-3.6575685,4.821533,195.0
18074,3.0287433,-15.203735,1.2586823,1.5027466,-4.705774,5.06792,195.0
18075,7.0134363,-19.915663,1.174469,1.5027466,-4.705774,5.06792,195.0
18076,7.0134363,-19.915663,1.174469,1.4921265,-2.5552003,5.037122,195.0
18077,9.355513,-15.88557,2.2627258,1.4921265,-2.5552003,5.037122,195.0
18078,9.355513,-15.88557,2.2627258,0.35152587,-2.1643798,5.352539,195.0
18079,8.052867,-8.110213,3.088562,0.35152587,-2.1643798,5.352539,195.0
18080,8.052867,-8.110213,3.088562,-0.3536499,-2.4999757,5.425818,195.0
18081,6.553939,-1.3049067,1.7214508,-0.3536499,-2.4999757,5.425818,195.0
18082,6.553939,-1.3049067,1.7214508,0.0998291,-2.714502,4.5762086,195.0
18083,6.0991325,3.117659,-0.8703308,0.0998291,-2.714502,4.5762086,195.0
18084,6.0991325,3.117659,-0.8703308,-0.025488282,-2.439441,3.4090576,195.0
18085,5.821579,5.7923937,-2.9465027,-0.025488282,-2.439441,3.4090576,195.0
18086,5.821579,5.7923937,-2.9465027,-0.5256958,-2.0656128,2.0581787,195.0
18087,5.3477783,7.2010784,-4.0059967,-0.5256958,-2.0656128,2.0581787,195.0
18088,5.3477783,7.2010784,-4.0059967,-0.8612915,-1.8139161,1.2999023,195.0
18089,4.9161625,7.2582264,-4.35997,-0.8612915,-1.8139161,1.2999023,195.0
18090,4.9161625,7.2582264,-4.35997,0.06690674,-1.1809571,0.6064087,195.0
18091,4.888692,6.922634,-4.341934,0.06690674,-1.1809571,0.6064087,195.0
18092,4.888692,6.922634,-4.341934,0.9568726,-0.5713623,-0.10195313,195.0
18093,4.6489906,7.5999727,-3.9053192,0.9568726,-0.5713623,-0.10195313,195.0
18094,4.6489906,7.5999727,-3.9053192,1.7374512,0.1901001,-0.48533937,195.0
18095,3.0839882,8.938877,-2.9029083,1.7374512,0.1901001,-0.48533937,195.0
18096,3.0839882,8.938877,-2.9029083,1.2128174,0.67437744,-0.7965088,195.0
18097,0.9424095,9.425028,-1.5311584,1.2128174,0.67437744,-0.7965088,195.0
18098,0.9424095,9.425028,-1.5311584,-0.48215333,0.81668705,-1.6588624,195.0
18099,0.602499,7.517536,-0.1149292,-0.48215333,0.81668705,-1.6588624,195.0
18100,0.602499,7.517536,-0.1149292,-1.7640015,1.0259033,-2.7431762,195.0
18101,1.8838787,3.1138344,1.3118134,-1.7640015,1.0259033,-2.7431762,195.0
18102,1.8838787,3.1138344,1.3118134,-1.99552,1.3126465,-3.1435547,195.0
18103,1.8681755,-1.8044395,2.3470306,-1.99552,1.3126465,-3.1435547,195.0
18104,1.8681755,-1.8044395,2.3470306,-1.6694825,1.4337158,-3.454724,195.0
18105,0.5070286,-6.7250576,2.5593872,-1.6694825,1.4337158,-3.454724,195.0
18106,0.5070286,-6.7250576,2.5593872,-1.0174073,1.8829468,-3.9613037,195.0
18107,0.5070286,-6.7250576,2.5593872,-0.8623535,2.7537963,-4.833215,195.0
18108,-0.3788128,-11.289128,2.5201874,-0.8623535,2.7537963,-4.833215,195.0
18109,-4.21754,-16.401066,4.746765,-0.8623535,2.7537963,-4.833215,195.0
18110,-4.21754,-16.401066,4.746765,-2.3130615,2.9906251,-3.8264282,195.0
18111,-4.21754,-16.401066,4.746765,-2.5636964,3.0086792,-3.3230348,195.0
18112,-4.21754,-16.401066,4.746765,-2.0114503,2.438379,-2.7495484,195.0
18113,-6.2761316,-13.426029,4.51445,-2.0114503,2.438379,-2.7495484,195.0
18114,-11.317671,2.0610933,0.03704834,-2.0114503,2.438379,-2.7495484,195.0
18115,-11.317671,2.0610933,0.03704834,-1.1289185,2.3343017,-1.9806519,195.0
18116,-11.317671,2.0610933,0.03704834,-0.4333008,2.3035035,-1.3869873,195.0
18117,-11.317671,2.0610933,0.03704834,0.33134767,1.8595825,-1.0248413,195.0
18118,-10.708616,4.847337,0.30984497,0.33134767,1.8595825,-1.0248413,195.0
18119,-10.708616,4.847337,0.30984497,1.2754761,1.3795532,-0.6839356,195.0
18120,-9.196093,6.1128063,0.8239746,1.2754761,1.3795532,-0.6839356,195.0
18121,-9.196093,6.1128063,0.8239746,1.8500245,0.8644776,-0.45666504,195.0
18122,-6.8414693,6.937731,0.77812195,1.8500245,0.8644776,-0.45666504,195.0
18123,-6.8414693,6.937731,0.77812195,1.5951416,0.59472656,-0.14018555,195.0
18124,-4.507575,7.5111837,0.2386322,1.5951416,0.59472656,-0.14018555,195.0
18125,-4.507575,7.5111837,0.2386322,0.813501,0.55968016,0.61702883,195.0
18126,-4.507575,7.5111837,0.2386322,0.813501,0.55968016,0.61702883,145.0
18127,-3.1591485,7.491906,-0.11076355,0.813501,0.55968016,0.61702883,145.0
18128,-3.1591485,7.491906,-0.11076355,0.1709839,0.14549561,1.987024,145.0
18129,-2.5620844,6.225569,0.023376465,0.1709839,0.14549561,1.987024,145.0
18130,-2.5620844,6.225569,0.023376465,0.08602295,-0.7604004,3.2274537,145.0
18131,-1.8362887,3.5182362,0.23083496,0.08602295,-0.7604004,3.2274537,145.0
18132,-1.8362887,3.5182362,0.23083496,0.1444336,-1.4050416,3.4271119,145.0
18133,-0.8703615,0.19445992,0.28886414,0.1444336,-1.4050416,3.4271119,145.0
18134,-0.8703615,0.19445992,0.28886414,0.04991455,-1.720459,3.3729494,145.0
18135,-0.2157594,-3.1948833,0.12826538,0.04991455,-1.720459,3.3729494,145.0
18136,-0.2157594,-3.1948833,0.12826538,0.59260255,-2.262085,3.2848022,145.0
18137,-0.016809165,-7.1260242,-0.37669373,0.59260255,-2.262085,3.2848022,145.0
18138,-0.016809165,-7.1260242,-0.37669373,1.7894897,-2.6879518,3.178601,145.0
18139,1.1719531,-10.938515,-1.0811462,1.7894897,-2.6879518,3.178601,145.0
18140,1.1719531,-10.938515,-1.0811462,3.0554078,-3.059656,3.0373535,145.0
18141,4.3321667,-11.325507,-1.0001678,3.0554078,-3.059656,3.0373535,145.0
18142,4.3321667,-11.325507,-1.0001678,3.4090576,-1.8447144,2.2079225,145.0
18143,6.979479,-7.2349296,0.3271942,3.4090576,-1.8447144,2.2079225,145.0
18144,6.979479,-7.2349296,0.3271942,2.0454347,-1.3243287,2.1420777,145.0
18145,6.738161,-2.0612469,1.7029724,2.0454347,-1.3243287,2.1420777,145.0
18146,6.738161,-2.0612469,1.7029724,-0.047790527,-1.4825684,2.2546508,145.0
18147,4.9986706,1.1625261,1.6378784,-0.047790527,-1.4825684,2.2546508,145.0
18148,4.9986706,1.1625261,1.6378784,-1.1129884,-1.5218629,1.8277222,145.0
18149,3.6961288,2.3197308,0.23295593,-1.1129884,-1.5218629,1.8277222,145.0
18150,3.6961288,2.3197308,0.23295593,-0.91864014,-1.4326538,1.1650269,145.0
18151,3.3162537,3.0644398,-1.3232727,-0.91864014,-1.4326538,1.1650269,145.0
18152,3.3162537,3.0644398,-1.3232727,-0.50445557,-1.3731812,0.33665773,145.0
18153,3.8350096,4.399892,-2.2611237,-0.50445557,-1.3731812,0.33665773,145.0
18154,3.8350096,4.399892,-2.2611237,-0.35471192,-1.0821899,-0.16567384,145.0
18155,4.5848293,5.8618937,-2.5016785,-0.35471192,-1.0821899,-0.16567384,145.0
18156,4.5848293,5.8618937,-2.5016785,-0.1709839,-0.6467652,-0.12850343,145.0
18157,4.3831224,6.782777,-2.1712952,-0.1709839,-0.6467652,-0.12850343,145.0
18158,4.3831224,6.782777,-2.1712952,-0.2516968,-0.38657227,-0.39188233,145.0
18159,3.2577677,6.882618,-1.6786652,-0.2516968,-0.38657227,-0.39188233,145.0
18160,3.2577677,6.882618,-1.6786652,-0.8251831,-0.1263794,-0.62340087,145.0
18161,2.191162,5.9831085,-1.3609772,-0.8251831,-0.1263794,-0.62340087,145.0
18162,2.191162,5.9831085,-1.3609772,-1.3423828,0.37595215,-0.9420044,145.0
18163,1.529212,3.9942875,-0.97554016,-1.3423828,0.37595215,-0.9420044,145.0
18164,1.529212,3.9942875,-0.97554016,-1.1671509,0.75296634,-1.2138795,145.0
18165,1.310051,1.3392048,-0.3030243,-1.1671509,0.75296634,-1.2138795,145.0
18166,1.310051,1.3392048,-0.3030243,-0.31010744,1.1374146,-1.1342286,145.0
18167,1.1413879,-1.1701641,0.55955505,-0.31010744,1.1374146,-1.1342286,145.0
18168,1.1413879,-1.1701641,0.55955505,0.14337158,1.5006226,-1.2043213,145.0
18169,-0.0056152344,-3.3300037,1.679657,0.14337158,1.5006226,-1.2043213,145.0
18170,-0.0056152344,-3.3300037,1.679657,0.72854006,1.7278931,-1.6429322,145.0
18171,-2.2484741,-5.496767,2.5285797,0.72854006,1.7278931,-1.6429322,145.0
18172,-2.2484741,-5.496767,2.5285797,1.3190186,2.0560548,-2.2281005,145.0
18173,-2.2484741,-5.496767,2.5285797,1.0216553,2.084729,-3.2338257,145.0
18174,-3.7696533,-6.583132,2.7828217,1.0216553,2.084729,-3.2338257,145.0
18175,-6.1938963,-6.358485,4.4533844,1.0216553,2.084729,-3.2338257,145.0
18176,-6.1938963,-6.358485,4.4533844,-0.1901001,2.3682861,-2.6900756,145.0
18177,-6.1938963,-6.358485,4.4533844,-1.2106934,2.34917,-2.5541382,145.0
18178,-6.1938963,-6.358485,4.4533844,-1.6386842,2.2015502,-2.4182007,145.0
18179,-6.4675684,-5.814193,3.2780762,-1.6386842,2.2015502,-2.4182007,145.0
18180,-6.4675684,-5.814193,3.2780762,-0.9451904,2.0433106,-1.8330323,145.0
18181,-6.593488,-3.5816402,2.1280975,-0.9451904,2.0433106,-1.8330323,145.0
18182,-6.593488,-3.5816402,2.1280975,0.020178223,1.7332032,-1.3838013,145.0
18183,-6.720115,-0.16439724,1.3840637,0.020178223,1.7332032,-1.3838013,145.0
18184,-6.720115,-0.16439724,1.3840637,0.7540283,1.4432739,-0.96430665,145.0
18185,-6.3771424,3.036439,0.93074036,0.7540283,1.4432739,-0.96430665,145.0
18186,-6.3771424,3.036439,0.93074036,1.2914063,0.9122681,-0.70198977,145.0
18187,-5.1802053,5.5471325,0.4093933,1.2914063,0.9122681,-0.70198977,145.0
18188,-5.1802053,5.5471325,0.4093933,1.2829102,0.3430298,-0.18266602,145.0
18189,-3.3536978,7.47849,-0.41818237,1.2829102,0.3430298,-0.18266602,145.0
18190,-3.3536978,7.47849,-0.41818237,1.1958252,0.025488282,0.4354248,145.0
18191,-1.6543572,8.476591,-1.2425995,1.1958252,0.025488282,0.4354248,145.0
18192,-1.6543572,8.476591,-1.2425995,0.7327881,0.19116211,1.7608155,145.0
18193,-0.6340692,7.864292,-1.7125702,0.7327881,0.19116211,1.7608155,145.0
18194,-0.6340692,7.864292,-1.7125702,0.43754885,0.115759276,3.1945312,145.0
18195,-0.31388378,5.4572544,-1.5780029,0.43754885,0.115759276,3.1945312,145.0
18196,-0.31388378,5.4572544,-1.5780029,0.4163086,-0.14974366,3.5715454,145.0
18197,-0.29628527,2.4319038,-0.78009033,0.4163086,-0.14974366,3.5715454,145.0
18198,-0.29628527,2.4319038,-0.78009033,0.51082766,-0.7072998,3.3262208,145.0
18199,-0.29628527,2.4319038,-0.78009033,0.38975832,-0.80181885,2.8207033,145.0
18200,-0.5423871,-0.022958755,0.20483398,0.38975832,-0.80181885,2.8207033,145.0
18201,-0.99874127,-12.810713,1.194107,0.38975832,-0.80181885,2.8207033,145.0
18202,-0.99874127,-12.810713,1.194107,-0.095581055,-0.87403566,2.433069,145.0
18203,-0.99874127,-12.810713,1.194107,0.31860352,-2.7389283,2.721936,145.0
18204,-0.99874127,-12.810713,1.194107,1.1214844,-3.2922363,2.247217,145.0
18205,3.2479553,-12.438463,0.31762695,1.1214844,-3.2922363,2.247217,145.0
18206,3.2479553,-12.438463,0.31762695,1.4984986,-1.7098389,1.7661256,145.0
18207,5.430078,-7.7790174,0.38423157,1.4984986,-1.7098389,1.7661256,145.0
18208,5.430078,-7.7790174,0.38423157,0.5894165,-1.3423828,2.1144655,145.0
18209,4.646504,-2.6851892,0.7412262,0.5894165,-1.3423828,2.1144655,145.0
18210,4.646504,-2.6851892,0.7412262,-0.5161377,-1.4666382,1.9094971,145.0
18211,3.407474,0.5472708,0.28622437,-0.5161377,-1.4666382,1.9094971,145.0
18212,3.407474,0.5472708,0.28622437,-0.97386473,-1.5059327,1.2383057,145.0
18213,3.021377,2.503357,-0.93003845,-0.97386473,-1.5059327,1.2383057,145.0
18214,3.021377,2.503357,-0.93003845,-1.2436157,-1.7151489,0.7062378,145.0
18215,3.3281364,3.7464714,-2.2266083,-1.2436157,-1.7151489,0.7062378,145.0
18216,3.3281364,3.7464714,-2.2266083,-1.5802735,-1.7480713,0.42905274,145.0
18217,4.013754,4.1310396,-3.0375671,-1.5802735,-1.7480713,0.42905274,145.0
18218,4.013754,4.1310396,-3.0375671,-1.5919555,-1.355127,-0.16248779,145.0
18219,4.592107,3.9254246,-3.025467,-1.5919555,-1.355127,-0.16248779,145.0
18220,4.592107,3.9254246,-3.025467,-1.3009644,-0.82836914,-0.88359374,145.0
18221,4.5617104,3.2695265,-2.3044128,-1.3009644,-0.82836914,-0.88359374,145.0
18222,4.5617104,3.2695265,-2.3044128,-0.7349121,-0.64995116,-1.2521118,145.0
18223,4.5617104,3.2695265,-2.3044128,-0.7349121,-0.64995116,-1.2521118,129.0
18224,4.230691,2.0567589,-1.5283356,-0.7349121,-0.64995116,-1.2521118,129.0
18225,4.230691,2.0567589,-1.5283356,0.121069334,-0.44710693,-1.2499878,129.0
18226,3.9191236,1.2687473,-1.1945496,0.121069334,-0.44710693,-1.2499878,129.0
18227,3.9191236,1.2687473,-1.1945496,1.0057251,0.047790527,-1.2489258,129.0
18228,3.3941727,1.5931349,-0.94218445,1.0057251,0.047790527,-1.2489258,129.0
18229,3.3941727,1.5931349,-0.94218445,0.38338622,0.58410645,-1.0938721,129.0
18230,2.771515,2.042635,-0.15475464,0.38338622,0.58410645,-1.0938721,129.0
18231,2.771515,2.042635,-0.15475464,-0.6287109,1.0078491,-0.82836914,129.0
18232,1.7907715,1.114687,1.271637,-0.6287109,1.0078491,-0.82836914,129.0
18233,1.7907715,1.114687,1.271637,-1.0152832,1.1469727,-0.5968506,129.0
18234,1.7907715,1.114687,1.271637,-0.7519043,1.1193603,-1.2351197,129.0
18235,-0.0990963,-2.1605206,2.634201,-0.7519043,1.1193603,-1.2351197,129.0
18236,-3.1315594,-6.4511833,3.6735077,-0.7519043,1.1193603,-1.2351197,129.0
18237,-3.1315594,-6.4511833,3.6735077,0.46409914,1.4602661,-3.3315308,129.0
18238,-3.1315594,-6.4511833,3.6735077,0.4067505,1.7013428,-3.601282,129.0
18239,-3.1315594,-6.4511833,3.6735077,-0.61065674,1.7438233,-2.9205322,129.0
18240,-3.747898,-5.049142,4.3930206,-0.61065674,1.7438233,-2.9205322,129.0
18241,-3.747898,-5.049142,4.3930206,-1.5123047,1.7544434,-3.3379028,129.0
18242,-4.4154444,-4.661421,4.196884,-1.5123047,1.7544434,-3.3379028,129.0
18243,-4.4154444,-4.661421,4.196884,-1.910559,1.6949707,-3.0108032,129.0
18244,-5.1192207,-3.6564322,2.8044891,-1.910559,1.6949707,-3.0108032,129.0
18245,-5.1192207,-3.6564322,2.8044891,-1.2043213,1.7618774,-2.2981935,129.0
18246,-6.314945,-1.4214106,1.1945953,-1.2043213,1.7618774,-2.2981935,129.0
18247,-6.314945,-1.4214106,1.1945953,-0.4991455,1.6673584,-1.8479004,129.0
18248,-7.400089,1.1428642,0.12902832,-0.4991455,1.6673584,-1.8479004,129.0
18249,-7.400089,1.1428642,0.12902832,-0.10620117,1.2521118,-1.8192261,129.0
18250,-7.3792143,3.3531828,-0.51950073,-0.10620117,1.2521118,-1.8192261,129.0
18251,-7.3792143,3.3531828,-0.51950073,0.24638672,0.77739257,-1.531421,129.0
18252,-6.239175,5.0875397,-0.8990936,0.24638672,0.77739257,-1.531421,129.0
18253,-6.239175,5.0875397,-0.8990936,0.48215333,0.35046387,-0.93138427,129.0
18254,-4.599702,6.1457767,-1.0813141,0.48215333,0.35046387,-0.93138427,129.0
18255,-4.599702,6.1457767,-1.0813141,0.7391602,-0.010620117,0.1083252,129.0
18256,-2.9732919,6.2639236,-1.3688507,0.7391602,-0.010620117,0.1083252,129.0
18257,-2.9732919,6.2639236,-1.3688507,0.53737795,-0.12850343,1.7024049,129.0
18258,-1.8412799,5.391119,-1.820282,0.53737795,-0.12850343,1.7024049,129.0
18259,-1.8412799,5.391119,-1.820282,0.2347046,-0.4248047,2.2015502,129.0
18260,-1.1684219,3.7234058,-1.9416351,0.2347046,-0.4248047,2.2015502,129.0
18261,-1.1684219,3.7234058,-1.9416351,-0.16461182,-0.814563,2.7314942,129.0
18262,-0.6280114,1.2401505,-1.4636688,-0.16461182,-0.814563,2.7314942,129.0
18263,-0.6280114,1.2401505,-1.4636688,-0.3164795,-1.537793,3.1403687,129.0
18264,-0.6280114,1.2401505,-1.4636688,0.40993652,-2.1526978,2.994873,129.0
18265,-0.2123701,-2.3377132,-0.49575806,0.40993652,-2.1526978,2.994873,129.0
18266,7.90027,-12.47564,0.44810486,0.40993652,-2.1526978,2.994873,129.0
18267,7.90027,-12.47564,0.44810486,1.9201173,-3.3092287,2.7283082,129.0
18268,7.90027,-12.47564,0.44810486,2.8663697,-2.9470825,1.3307008,129.0
18269,7.90027,-12.47564,0.44810486,2.3863404,-1.7746216,0.74659425,129.0
18270,9.352589,-6.3748846,0.5309601,2.3863404,-1.7746216,0.74659425,129.0
18271,9.352589,-6.3748846,0.5309601,0.31329346,-1.1650269,1.7406372,129.0
18272,7.7717443,-2.1019096,0.83218384,0.31329346,-1.1650269,1.7406372,129.0
18273,7.7717443,-2.1019096,0.83218384,-1.3179566,-1.1692749,1.7767457,129.0
18274,5.310669,-0.85312176,0.3551941,-1.3179566,-1.1692749,1.7767457,129.0
18275,5.310669,-0.85312176,0.3551941,-1.5526612,-1.2213135,1.4050416,129.0
18276,3.6594725,-0.36449242,-1.0339661,-1.5526612,-1.2213135,1.4050416,129.0
18277,3.6594725,-0.36449242,-1.0339661,-1.4921265,-1.2446778,0.8050049,129.0
18278,2.8662252,0.68669033,-2.4054108,-1.4921265,-1.2446778,0.8050049,129.0
18279,2.8662252,0.68669033,-2.4054108,-1.3126465,-1.1267945,0.31860352,129.0
18280,2.6036243,1.972168,-3.0284576,-1.3126465,-1.1267945,0.31860352,129.0
18281,2.6036243,1.972168,-3.0284576,-1.177771,-0.88359374,-0.28355715,129.0
18282,2.6776266,3.0669918,-2.884079,-1.177771,-0.88359374,-0.28355715,129.0
18283,2.6776266,3.0669918,-2.884079,-0.9165161,-0.5692383,-0.6488892,129.0
18284,2.8571768,3.7383718,-2.3444214,-0.9165161,-0.5692383,-0.6488892,129.0
18285,2.8571768,3.7383718,-2.3444214,-0.6690674,-0.29630128,-0.6425171,129.0
18286,2.787365,3.8758411,-1.8603821,-0.6690674,-0.29630128,-0.6425171,129.0
18287,2.787365,3.8758411,-1.8603821,-0.5363159,-0.03079834,-0.5033936,129.0
18288,2.5671234,3.254078,-1.6119995,-0.5363159,-0.03079834,-0.5033936,129.0
18289,2.5671234,3.254078,-1.6119995,-0.50233155,0.38657227,-0.5246338,129.0
18290,2.7994385,1.7507229,-1.2564545,-0.50233155,0.38657227,-0.5246338,129.0
18291,2.7994385,1.7507229,-1.2564545,-0.37489015,1.0089111,-0.63720703,129.0
18292,3.334753,-0.022748947,-0.377182,-0.37489015,1.0089111,-0.63720703,129.0
18293,3.334753,-0.022748947,-0.377182,-0.2357666,1.5346069,-0.5586182,129.0
18294,2.627262,-1.3454456,1.1764374,-0.2357666,1.5346069,-0.5586182,129.0
18295,2.627262,-1.3454456,1.1764374,-0.30054933,1.7597535,-0.6775635,129.0
18296,0.22379494,-3.6700573,2.8669739,-0.30054933,1.7597535,-0.6775635,129.0
18297,0.22379494,-3.6700573,2.8669739,-0.52250975,1.7406372,-1.5569092,129.0
18298,-1.5678387,-6.475194,3.6625366,-0.52250975,1.7406372,-1.5569092,129.0
18299,-1.5678387,-6.475194,3.6625366,0.2623169,1.8829468,-3.4695923,129.0
18300,-1.4952984,-6.5383577,3.6062622,0.2623169,1.8829468,-3.4695923,129.0
18301,-1.4952984,-6.5383577,3.6062622,0.020178223,1.8479004,-2.989563,129.0
18302,-1.3320541,-4.5119486,3.3874207,0.020178223,1.8479004,-2.989563,129.0
18303,-1.3320541,-4.5119486,3.3874207,-0.5734863,2.088977,-2.4054565,129.0
18304,-2.3335152,-2.633522,3.0336914,-0.5734863,2.088977,-2.4054565,129.0
18305,-2.3335152,-2.633522,3.0336914,-1.6418701,2.084729,-2.6486573,129.0
18306,-3.8571444,-1.4205265,2.093811,-1.6418701,2.084729,-2.6486573,129.0
18307,-3.8571444,-1.4205265,2.093811,-1.803296,2.1548219,-2.4012086,129.0
18308,-5.4389257,-0.3919258,0.80070496,-1.803296,2.1548219,-2.4012086,129.0
18309,-5.4389257,-0.3919258,0.80070496,-1.2085694,1.9604737,-2.2429688,129.0
18310,-6.8832817,1.1421356,0.012069702,-1.2085694,1.9604737,-2.2429688,129.0
18311,-6.8832817,1.1421356,0.012069702,-0.5097656,1.5165528,-1.9700317,129.0
18312,-7.5489473,2.8252687,-0.3191986,-0.5097656,1.5165528,-1.9700317,129.0
18313,-7.5489473,2.8252687,-0.3191986,-0.1985962,1.1480347,-1.8818848,129.0
18314,-7.2696633,4.1066017,-0.6509094,-0.1985962,1.1480347,-1.8818848,129.0
18315,-7.2696633,4.1066017,-0.6509094,-0.39294434,0.84748536,-1.7671875,129.0
18316,-6.553927,4.6557283,-0.7772522,-0.39294434,0.84748536,-1.7671875,129.0
18317,-6.553927,4.6557283,-0.7772522,-0.4609131,0.4895874,-1.2255615,129.0
18318,-5.7468405,4.4684305,-0.51142883,-0.4609131,0.4895874,-1.2255615,129.0
18319,-5.7468405,4.4684305,-0.51142883,0.21240234,-0.0998291,-0.07327881,129.0
18320,-4.695739,4.1834726,-0.49345398,0.21240234,-0.0998291,-0.07327881,129.0
18321,-4.695739,4.1834726,-0.49345398,1.0503296,-0.55543214,1.1246704,129.0
18322,-3.4047968,4.2512226,-1.2715912,1.0503296,-0.55543214,1.1246704,129.0
18323,-3.4047968,4.2512226,-1.2715912,1.0354614,-0.45347902,2.3735962,129.0
18324,-2.3636446,3.89966,-2.2235718,1.0354614,-0.45347902,2.3735962,129.0
18325,-2.3636446,3.89966,-2.2235718,1.0354614,-0.45347902,2.3735962,121.0
18326,-2.3636446,3.89966,-2.2235718,0.23895264,-0.62127686,2.7516725,121.0
18327,-1.6827127,2.3812885,-2.28154,0.23895264,-0.62127686,2.7516725,121.0
18328,-1.6827127,2.3812885,-2.28154,-1.0163453,-1.2000732,3.2083375,121.0
18329,-1.4485872,-1.3966904,-0.7850342,-1.0163453,-1.2000732,3.2083375,121.0
18330,-1.4485872,-1.3966904,-0.7850342,-1.8712647,-1.6896607,3.9103272,121.0
18331,-0.8373976,-9.05661,1.0506439,-1.8712647,-1.6896607,3.9103272,121.0
18332,-0.8373976,-9.05661,1.0506439,-0.4248047,-3.803064,4.257605,121.0
18333,2.4028115,-16.922401,0.7566986,-0.4248047,-3.803064,4.257605,121.0
18334,2.4028115,-16.922401,0.7566986,3.0426636,-4.2437987,3.7765138,121.0
18335,7.531441,-17.153423,-0.33914185,3.0426636,-4.2437987,3.7765138,121.0
18336,7.531441,-17.153423,-0.33914185,3.3920655,-2.3927124,2.362976,121.0
18337,10.63072,-9.193076,0.13835144,3.3920655,-2.3927124,2.362976,121.0
18338,10.63072,-9.193076,0.13835144,1.3976074,-1.4061035,2.8716798,121.0
18339,9.695824,-0.46647263,1.112381,1.3976074,-1.4061035,2.8716798,121.0
18340,9.695824,-0.46647263,1.112381,-0.72216797,-1.3232666,3.6989868,121.0
18341,6.4234314,3.807889,0.7605591,-0.72216797,-1.3232666,3.6989868,121.0
18342,6.4234314,3.807889,0.7605591,-1.7024049,-1.6100098,3.5811036,121.0
18343,4.4306765,3.5892434,-0.22540283,-1.7024049,-1.6100098,3.5811036,121.0
18344,4.4306765,3.5892434,-0.22540283,-1.8574585,-1.9339234,3.0405395,121.0
18345,3.7825785,3.337215,-3.549759,-1.8574585,-1.9339234,3.0405395,121.0
18346,3.7825785,3.337215,-3.549759,-1.1501588,-2.0507448,1.3338867,121.0
18347,4.1303234,2.9709435,-4.0545197,-1.1501588,-2.0507448,1.3338867,121.0
18348,4.1303234,2.9709435,-4.0545197,-0.64570314,-1.6493043,0.92713624,121.0
18349,6.266637,5.8576145,-4.8769836,-0.64570314,-1.6493043,0.92713624,121.0
18350,6.266637,5.8576145,-4.8769836,0.41949463,-0.8219971,0.16036378,121.0
18351,5.46768,6.1525097,-4.081665,0.41949463,-0.8219971,0.16036378,121.0
18352,5.46768,6.1525097,-4.081665,0.50870365,-0.5671143,-0.09770508,121.0
18353,4.1935167,8.681615,-3.0497284,0.50870365,-0.5671143,-0.09770508,121.0
18354,4.1935167,8.681615,-3.0497284,-0.27718505,0.07115479,-1.6046997,121.0
18355,3.0905685,8.135588,-2.247818,-0.27718505,0.07115479,-1.6046997,121.0
18356,3.0905685,8.135588,-2.247818,-0.7423462,0.23895264,-1.7416992,121.0
18357,2.622589,7.6908913,-1.0496063,-0.7423462,0.23895264,-1.7416992,121.0
18358,2.622589,7.6908913,-1.0496063,-1.6981567,1.0609497,-2.5891845,121.0
18359,2.364624,5.6696568,-0.18946838,-1.6981567,1.0609497,-2.5891845,121.0
18360,2.364624,5.6696568,-0.18946838,-1.724707,1.3784913,-2.884424,121.0
18361,2.1967163,-1.5394821,2.109726,-1.724707,1.3784913,-2.884424,121.0
18362,2.1967163,-1.5394821,2.109726,-2.2121704,1.8903809,-3.5927856,121.0
18363,1.2801018,-4.4189873,2.5207825,-2.2121704,1.8903809,-3.5927856,121.0
18364,1.2801018,-4.4189873,2.5207825,-2.7410524,1.9583496,-4.2873416,121.0
18365,-0.10489845,-15.465525,2.2300568,-2.7410524,1.9583496,-4.2873416,121.0
18366,-0.10489845,-15.465525,2.2300568,-2.4192626,2.6900756,-3.978296,121.0
18367,-1.1560497,-15.18116,2.1915436,-2.4192626,2.6900756,-3.978296,121.0
18368,-1.1560497,-15.18116,2.1915436,-2.0581787,2.7431762,-3.3878174,121.0
18369,-5.10355,-14.556403,3.1242676,-2.0581787,2.7431762,-3.3878174,121.0
18370,-5.10355,-14.556403,3.1242676,-1.9381714,2.716626,-2.6507814,121.0
18371,-5.928933,-10.198614,3.1741028,-1.9381714,2.716626,-2.6507814,121.0
18372,-5.928933,-10.198614,3.1741028,-1.7703736,2.611487,-2.1473877,121.0
18373,-7.7880926,-3.235637,2.6900635,-1.7703736,2.611487,-2.1473877,121.0
18374,-7.7880926,-3.235637,2.6900635,-1.4443359,2.6475952,-1.8255981,121.0
18375,-8.929266,2.4313755,1.4213104,-1.4443359,2.6475952,-1.8255981,121.0
18376,-8.929266,2.4313755,1.4213104,-0.5851685,2.5796266,-1.910559,121.0
18377,-9.565007,5.287056,0.6660919,-0.5851685,2.5796266,-1.910559,121.0
18378,-9.565007,5.287056,0.6660919,0.48640138,2.2886353,-1.532483,121.0
18379,-9.397233,6.367804,0.935318,0.48640138,2.2886353,-1.532483,121.0
18380,-9.397233,6.367804,0.935318,1.5707153,1.7894897,-1.1108643,121.0
18381,-7.8996468,8.68648,1.5452423,1.5707153,1.7894897,-1.1108643,121.0
18382,-7.8996468,8.68648,1.5452423,1.6896607,1.4167236,-0.68712157,121.0
18383,-6.2303257,8.7267475,1.0762329,1.6896607,1.4167236,-0.68712157,121.0
18384,-6.2303257,8.7267475,1.0762329,1.2372437,1.3901733,-0.4694092,121.0
18385,-5.570454,10.99087,-1.022522,1.2372437,1.3901733,-0.4694092,121.0
18386,-5.570454,10.99087,-1.022522,0.31116945,1.3891114,1.4666382,121.0
18387,-5.250028,9.199703,-1.5899506,0.31116945,1.3891114,1.4666382,121.0
18388,-5.250028,9.199703,-1.5899506,0.39082032,0.8050049,1.9487915,121.0
18389,-5.651817,6.896677,-2.737915,0.39082032,0.8050049,1.9487915,121.0
18390,-5.651817,6.896677,-2.737915,-0.6042847,-1.6620483,3.4621582,121.0
18391,-3.7535582,4.4655952,-2.4058838,-0.6042847,-1.6620483,3.4621582,121.0
18392,-3.7535582,4.4655952,-2.4058838,-1.1820191,-2.0741088,3.8349245,121.0
18393,-1.3305321,-0.21278954,-1.6443634,-1.1820191,-2.0741088,3.8349245,121.0
18394,-1.3305321,-0.21278954,-1.6443634,-1.627002,-2.5700684,4.0027223,121.0
18395,-0.027243137,-7.5639935,-0.35842896,-1.627002,-2.5700684,4.0027223,121.0
18396,-0.027243137,-7.5639935,-0.35842896,-0.6244629,-3.4833984,5.246338,121.0
18397,0.7220044,-16.095432,0.25164795,-0.6244629,-3.4833984,5.246338,121.0
18398,0.7220044,-16.095432,0.25164795,1.0036011,-4.4848757,7.142029,121.0
18399,3.9334264,-22.243387,-0.27223206,1.0036011,-4.4848757,7.142029,121.0
18400,3.9334264,-22.243387,-0.27223206,1.4804443,-4.319202,6.362512,121.0
18401,8.374134,-20.0279,-0.05003357,1.4804443,-4.319202,6.362512,121.0
18402,8.374134,-20.0279,-0.05003357,0.92713624,-2.4776733,5.325989,121.0
18403,9.899173,-10.506952,1.1624756,0.92713624,-2.4776733,5.325989,121.0
18404,9.899173,-10.506952,1.1624756,0.13275146,-2.5849366,4.792859,121.0
18405,8.796047,-1.546175,1.0637054,0.13275146,-2.5849366,4.792859,121.0
18406,8.796047,-1.546175,1.0637054,-0.76464844,-3.0097413,3.9305055,121.0
18407,7.743222,3.6450303,-1.0632019,-0.76464844,-3.0097413,3.9305055,121.0
18408,7.743222,3.6450303,-1.0632019,-1.1193603,-3.0915163,2.2185426,121.0
18409,8.682249,8.042209,-4.3827972,-1.1193603,-3.0915163,2.2185426,121.0
18410,8.682249,8.042209,-4.3827972,-0.45029297,-2.71875,0.79226077,121.0
18411,8.131286,8.094448,-4.680908,-0.45029297,-2.71875,0.79226077,121.0
18412,8.131286,8.094448,-4.680908,-0.08602295,-2.3746583,0.6711914,121.0
18413,8.533886,9.906784,-5.297531,-0.08602295,-2.3746583,0.6711914,121.0
18414,8.533886,9.906784,-5.297531,-0.07965088,-1.5261109,0.2347046,121.0
18415,7.3645725,11.232593,-5.171356,-0.07965088,-1.5261109,0.2347046,121.0
18416,7.3645725,11.232593,-5.171356,-0.77951664,-0.18691407,-1.3009644,121.0
18417,4.482723,11.650967,-4.0903015,-0.77951664,-0.18691407,-1.3009644,121.0
18418,4.482723,11.650967,-4.0903015,-1.4793824,0.68287355,-2.6497192,121.0
18419,4.482723,11.650967,-4.0903015,-1.4793824,0.68287355,-2.6497192,117.0
18420,1.7169037,10.549204,-2.6006927,-1.4793824,0.68287355,-2.6497192,117.0
18421,1.7169037,10.549204,-2.6006927,-2.0518067,1.1841431,-4.1163573,117.0
18422,1.0250492,8.103523,-1.5098114,-2.0518067,1.1841431,-4.1163573,117.0
18423,1.0250492,8.103523,-1.5098114,-2.4755495,1.7629395,-5.7539797,117.0
18424,1.9902306,5.3176937,-0.25610352,-2.4755495,1.7629395,-5.7539797,117.0
18425,1.9902306,5.3176937,-0.25610352,-2.1473877,2.0072021,-6.4049926,117.0
18426,3.615244,1.5791798,2.1519623,-2.1473877,2.0072021,-6.4049926,117.0
18427,3.615244,1.5791798,2.1519623,-1.7321411,1.902063,-6.3656983,117.0
18428,5.458931,-5.5530376,4.31192,-1.7321411,1.902063,-6.3656983,117.0
18429,5.458931,-5.5530376,4.31192,-3.3729494,2.0592408,-6.3083496,117.0
18430,5.8601017,-14.660276,3.5292206,-3.3729494,2.0592408,-6.3083496,117.0
18431,5.8601017,-14.660276,3.5292206,-4.5783324,3.2986085,-6.074707,117.0
18432,5.8601017,-14.660276,3.5292206,-4.5932007,4.3096437,-3.899707,117.0
18433,3.0242634,-21.098572,1.6772919,-4.5932007,4.3096437,-3.899707,117.0
18434,-12.664318,-9.8341675,2.3023071,-4.5932007,4.3096437,-3.899707,117.0
18435,-12.664318,-9.8341675,2.3023071,-3.1148803,3.9145753,-2.3024414,117.0
18436,-12.664318,-9.8341675,2.3023071,-1.8702027,3.618274,-2.0539308,117.0
18437,-12.664318,-9.8341675,2.3023071,-0.5171997,3.3325927,-1.531421,117.0
18438,-13.534201,-1.2593622,1.4683533,-0.5171997,3.3325927,-1.531421,117.0
18439,-13.534201,-1.2593622,1.4683533,0.2548828,2.9577026,-1.3222046,117.0
18440,-12.959465,3.4841971,1.7770538,0.2548828,2.9577026,-1.3222046,117.0
18441,-12.959465,3.4841971,1.7770538,0.7678345,2.4840455,-0.89421386,117.0
18442,-12.044366,5.6620893,2.5588837,0.7678345,2.4840455,-0.89421386,117.0
18443,-12.044366,5.6620893,2.5588837,0.94731444,1.9402955,-0.45454103,117.0
18444,-10.8743725,6.59194,2.8547668,0.94731444,1.9402955,-0.45454103,117.0
18445,-10.8743725,6.59194,2.8547668,0.80394286,1.3253907,0.12956543,117.0
18446,-9.442492,7.170952,2.2799683,0.80394286,1.3253907,0.12956543,117.0
18447,-9.442492,7.170952,2.2799683,0.452417,1.088562,0.8336792,117.0
18448,-8.365358,7.292988,1.163269,0.452417,1.088562,0.8336792,117.0
18449,-8.365358,7.292988,1.163269,0.3079834,0.70092773,1.8234742,117.0
18450,-7.3487806,6.2186184,0.11087036,0.3079834,0.70092773,1.8234742,117.0
18451,-7.3487806,6.2186184,0.11087036,0.3706421,-0.42374268,2.5700684,117.0
18452,-5.207125,4.153264,-0.6639099,0.3706421,-0.42374268,2.5700684,117.0
18453,-5.207125,4.153264,-0.6639099,0.52675784,-1.4560181,2.984253,117.0
18454,-2.3322287,1.9887486,-0.92723083,0.52675784,-1.4560181,2.984253,117.0
18455,-2.3322287,1.9887486,-0.92723083,0.09451904,-2.1983643,3.440918,117.0
18456,-0.47526777,-1.4464159,-0.43211365,0.09451904,-2.1983643,3.440918,117.0
18457,-0.47526777,-1.4464159,-0.43211365,-0.4991455,-3.2232056,4.3276978,117.0
18458,0.9987409,-10.844731,-0.6291046,-0.4991455,-3.2232056,4.3276978,117.0
18459,0.9987409,-10.844731,-0.6291046,-0.5331299,-5.4969726,5.879297,117.0
18460,5.939679,-22.567059,-2.7674866,-0.5331299,-5.4969726,5.879297,117.0
18461,5.939679,-22.567059,-2.7674866,2.5530763,-4.8672,4.6728516,117.0
18462,12.081455,-23.37468,-3.235855,2.5530763,-4.8672,4.6728516,117.0
18463,12.081455,-23.37468,-3.235855,3.0192993,-2.6879518,4.1131716,117.0
18464,13.306192,-12.598755,-0.63508606,3.0192993,-2.6879518,4.1131716,117.0
18465,13.306192,-12.598755,-0.63508606,1.4156617,-2.6826417,4.2820315,117.0
18466,10.719551,-1.4084105,1.2558594,1.4156617,-2.6826417,4.2820315,117.0
18467,10.719551,-1.4084105,1.2558594,0.47471926,-3.0384157,4.1046753,117.0
18468,8.188862,4.903887,0.49620056,0.47471926,-3.0384157,4.1046753,117.0
18469,8.188862,4.903887,0.49620056,0.8729736,-2.7760987,3.090454,117.0
18470,6.7582674,8.440956,-1.5215607,0.8729736,-2.7760987,3.090454,117.0
18471,6.7582674,8.440956,-1.5215607,1.4432739,-2.1155274,2.095349,117.0
18472,5.8331404,11.821259,-2.7791443,1.4432739,-2.1155274,2.095349,117.0
18473,5.8331404,11.821259,-2.7791443,1.3668091,-1.5016845,1.0970582,117.0
18474,4.407736,14.925086,-2.5141754,1.3668091,-1.5016845,1.0970582,117.0
18475,4.407736,14.925086,-2.5141754,1.0588257,-1.3614991,0.30054933,117.0
18476,2.685955,16.23388,-2.0136566,1.0588257,-1.3614991,0.30054933,117.0
18477,2.685955,16.23388,-2.0136566,0.38338622,-1.5006226,-0.48640138,117.0
18478,1.8727379,14.8260565,-2.5781555,0.38338622,-1.5006226,-0.48640138,117.0
18479,1.8727379,14.8260565,-2.5781555,-0.6149048,-0.79119873,-1.9371094,117.0
18480,2.2937717,11.334759,-3.3531036,-0.6149048,-0.79119873,-1.9371094,117.0
18481,2.2937717,11.334759,-3.3531036,-1.270166,0.42799073,-3.720227,117.0
18482,3.491354,6.859249,-2.7409668,-1.270166,0.42799073,-3.720227,117.0
18483,3.491354,6.859249,-2.7409668,-0.994043,1.4878784,-4.5666504,117.0
18484,4.561138,1.9128151,-0.20263672,-0.994043,1.4878784,-4.5666504,117.0
18485,4.561138,1.9128151,-0.20263672,-0.5798584,2.0974731,-4.461511,117.0
18486,4.487913,-3.229477,2.7129822,-0.5798584,2.0974731,-4.461511,117.0
18487,4.487913,-3.229477,2.7129822,-1.2138795,2.3364258,-4.0749393,117.0
18488,3.21179,-8.554346,3.943283,-1.2138795,2.3364258,-4.0749393,117.0
18489,3.21179,-8.554346,3.943283,-2.5573242,2.9555786,-4.642053,117.0
18490,1.2821751,-13.855598,3.407425,-2.5573242,2.9555786,-4.642053,117.0
18491,1.2821751,-13.855598,3.407425,-3.2200196,3.6108398,-4.890564,117.0
18492,-0.86149216,-18.155231,3.1637573,-3.2200196,3.6108398,-4.890564,117.0
18493,-0.86149216,-18.155231,3.1637573,-2.456433,3.725537,-3.9220092,117.0
18494,-0.86149216,-18.155231,3.1637573,-1.9774659,3.541809,-3.3920655,117.0
18495,-3.2496433,-18.299332,4.041794,-1.9774659,3.541809,-3.3920655,117.0
18496,-15.385994,1.8370848,2.8194122,-1.9774659,3.541809,-3.3920655,117.0
18497,-15.385994,1.8370848,2.8194122,-1.9774659,3.541809,-3.3920655,117.0
18498,-15.385994,1.8370848,2.8194122,-2.5392702,3.359143,-2.4957275,117.0
18499,-15.385994,1.8370848,2.8194122,-2.5084717,3.2062135,-1.9201173,117.0
18500,-15.385994,1.8370848,2.8194122,-1.5569092,3.0639038,-2.092163,117.0
18501,-15.802447,4.3565207,1.9138184,-1.5569092,3.0639038,-2.092163,117.0
18502,-15.802447,4.3565207,1.9138184,0.16142578,2.5753784,-1.8542725,117.0
18503,-14.858217,4.999902,1.7564087,0.16142578,2.5753784,-1.8542725,117.0
18504,-14.858217,4.999902,1.7564087,1.1331666,1.9201173,-1.2351197,117.0
18505,-12.784206,5.867878,1.8003998,1.1331666,1.9201173,-1.2351197,117.0
18506,-12.784206,5.867878,1.8003998,1.3020264,1.1660889,-0.2888672,117.0
18507,-10.191891,7.0576687,1.7033234,1.3020264,1.1660889,-0.2888672,117.0
18508,-10.191891,7.0576687,1.7033234,0.65419924,0.43754885,0.92076415,117.0
18509,-7.897971,7.6376266,0.8444061,0.65419924,0.43754885,0.92076415,117.0
18510,-7.897971,7.6376266,0.8444061,0.06903076,-0.31966552,2.1962402,117.0
18511,-6.0460014,6.652423,-0.8946686,0.06903076,-0.31966552,2.1962402,117.0
18512,-6.0460014,6.652423,-0.8946686,0.29099122,-1.4910644,2.7845948,117.0
18513,-3.663681,4.2266865,-2.4754486,0.29099122,-1.4910644,2.7845948,117.0
18514,-3.663681,4.2266865,-2.4754486,1.2765381,-2.3619142,3.4972045,117.0
18515,-0.783484,1.4597797,-2.6121216,1.2765381,-2.3619142,3.4972045,117.0
18516,-0.783484,1.4597797,-2.6121216,1.6493043,-2.5817506,3.796692,117.0
18517,0.9577588,-1.7818718,-1.260025,1.6493043,-2.5817506,3.796692,117.0
18518,0.9577588,-1.7818718,-1.260025,0.90270996,-3.2242677,4.2034426,117.0
18519,1.8303428,-8.653501,-0.297287,0.90270996,-3.2242677,4.2034426,117.0
18520,1.8303428,-8.653501,-0.297287,0.53950197,-5.1900516,5.44281,117.0
18521,5.6808395,-18.53231,-1.4630432,0.53950197,-5.1900516,5.44281,117.0
18522,5.6808395,-18.53231,-1.4630432,2.4766114,-4.705774,5.609546,117.0
18523,10.93659,-21.822893,-1.7134094,2.4766114,-4.705774,5.609546,117.0
18524,10.93659,-21.822893,-1.7134094,3.0362916,-2.531836,4.815161,117.0
18525,12.306024,-15.074319,0.7533264,3.0362916,-2.531836,4.815161,117.0
18526,12.306024,-15.074319,0.7533264,1.6556762,-2.6401613,5.0456176,117.0
18527,10.654658,-4.790717,2.4947815,1.6556762,-2.6401613,5.0456176,117.0
18528,10.654658,-4.790717,2.4947815,0.19434814,-2.8801758,4.579395,117.0
18529,8.720821,3.3494818,0.9810028,0.19434814,-2.8801758,4.579395,117.0
18530,8.720821,3.3494818,0.9810028,-0.724292,-2.6295412,4.003784,117.0
18531,7.079855,7.5735188,-2.011551,-0.724292,-2.6295412,4.003784,117.0
18532,7.079855,7.5735188,-2.011551,0.0021240234,-2.163318,2.8748658,117.0
18533,5.9018364,9.858131,-3.5971832,0.0021240234,-2.163318,2.8748658,117.0
18534,5.9018364,9.858131,-3.5971832,0.9589966,-1.6875366,1.8765748,117.0
18535,5.250559,12.266607,-3.4618073,0.9589966,-1.6875366,1.8765748,117.0
18536,5.250559,12.266607,-3.4618073,0.56392825,-1.360437,1.0067872,117.0
18537,4.460823,14.197491,-2.8543549,0.56392825,-1.360437,1.0067872,117.0
18538,4.460823,14.197491,-2.8543549,-0.6042847,-1.26698,0.270813,117.0
18539,3.058796,13.965708,-2.720047,-0.6042847,-1.26698,0.270813,117.0
18540,3.058796,13.965708,-2.720047,-1.536731,-1.0004151,-1.0450195,117.0
18541,1.5811176,11.243343,-2.8602142,-1.536731,-1.0004151,-1.0450195,117.0
18542,1.5811176,11.243343,-2.8602142,-1.539917,-0.23045655,-2.885486,117.0
18543,0.7232437,7.6713467,-2.3224792,-1.539917,-0.23045655,-2.885486,117.0
18544,0.7232437,7.6713467,-2.3224792,-0.87403566,0.52888185,-4.3680544,117.0
18545,0.9414253,4.655388,-0.46730042,-0.87403566,0.52888185,-4.3680544,117.0
18546,0.9414253,4.655388,-0.46730042,-0.7147339,0.86553955,-5.0509276,117.0
18547,2.157999,1.404522,1.9114532,-0.7147339,0.86553955,-5.0509276,117.0
18548,2.157999,1.404522,1.9114532,-1.6875366,1.0620117,-5.26864,117.0
18549,4.074543,-4.237589,2.7745667,-1.6875366,1.0620117,-5.26864,117.0
18550,4.074543,-4.237589,2.7745667,-3.2465699,1.8022339,-5.3705935,117.0
18551,5.3197403,-11.63851,1.931076,-3.2465699,1.8022339,-5.3705935,117.0
18552,5.3197403,-11.63851,1.931076,-3.8699708,3.149927,-5.171997,117.0
18553,3.6097717,-17.821392,1.5467072,-3.8699708,3.149927,-5.171997,117.0
18554,3.6097717,-17.821392,1.5467072,-3.435608,3.7042968,-3.9156373,117.0
18555,-0.22050858,-19.603708,2.3891296,-3.435608,3.7042968,-3.9156373,117.0
18556,-0.22050858,-19.603708,2.3891296,-2.5424562,3.7573974,-3.5747316,117.0
18557,-4.290615,-14.502961,3.3457794,-2.5424562,3.7573974,-3.5747316,117.0
18558,-4.290615,-14.502961,3.3457794,-2.524402,4.0207763,-2.988501,117.0
18559,-8.375498,-5.083827,3.232132,-2.524402,4.0207763,-2.988501,117.0
18560,-8.375498,-5.083827,3.232132,-2.6900756,3.8635986,-2.4787354,117.0
18561,-11.4880085,2.1817179,1.9401855,-2.6900756,3.8635986,-2.4787354,117.0
18562,-11.4880085,2.1817179,1.9401855,-2.0624268,3.713855,-2.4160767,117.0
18563,-12.927918,4.663209,0.68659973,-2.0624268,3.713855,-2.4160767,117.0
18564,-12.927918,4.663209,0.68659973,-0.6074707,2.9661987,-2.162256,117.0
18565,-12.707459,5.0026984,0.50231934,-0.6074707,2.9661987,-2.162256,117.0
18566,-12.707459,5.0026984,0.50231934,0.69986576,2.2950075,-1.6429322,117.0
18567,-11.239906,6.0802836,0.932724,0.69986576,2.2950075,-1.6429322,117.0
18568,-11.239906,6.0802836,0.932724,1.0545777,1.9041871,-1.1066163,117.0
18569,-9.684015,8.0291195,0.87849426,1.0545777,1.9041871,-1.1066163,117.0
18570,-9.684015,8.0291195,0.87849426,0.66269535,1.5303589,-0.15930176,117.0
18571,-8.709224,9.282391,0.12553406,0.66269535,1.5303589,-0.15930176,117.0
18572,-8.709224,9.282391,0.12553406,0.63826907,0.49277344,1.4262818,117.0
18573,-7.6179285,9.141062,-0.6816406,0.63826907,0.49277344,1.4262818,117.0
18574,-7.6179285,9.141062,-0.6816406,0.62127686,-0.51082766,2.5658205,117.0
18575,-5.7053905,8.405123,-0.9988098,0.62127686,-0.51082766,2.5658205,117.0
18576,-5.7053905,8.405123,-0.9988098,-0.093457036,-1.2892822,3.2200196,117.0
18577,-3.5376277,7.399269,-1.0679626,-0.093457036,-1.2892822,3.2200196,117.0
18578,-3.5376277,7.399269,-1.0679626,-1.6949707,-2.2238526,3.7340333,117.0
18579,-1.9176512,4.487957,-1.1988373,-1.6949707,-2.2238526,3.7340333,117.0
18580,-1.9176512,4.487957,-1.1988373,-2.526526,-3.3262208,3.99104,117.0
18581,-0.7030175,-3.529007,-0.8590851,-2.526526,-3.3262208,3.99104,117.0
18582,-0.7030175,-3.529007,-0.8590851,-0.40356445,-4.8480835,5.2017336,117.0
18583,2.3628302,-17.485352,-0.62242126,-0.40356445,-4.8480835,5.2017336,117.0
18584,2.3628302,-17.485352,-0.62242126,1.3710572,-6.046033,5.3663454,117.0
18585,9.195403,-28.358082,-1.270813,1.3710572,-6.046033,5.3663454,117.0
18586,9.195403,-28.358082,-1.270813,2.2142944,-5.169873,2.0624268,117.0
18587,15.763561,-25.045828,-1.6285706,2.2142944,-5.169873,2.0624268,117.0
18588,15.763561,-25.045828,-1.6285706,2.0326905,-3.8646607,3.2295778,117.0
18589,16.333078,-10.439262,-1.2488403,2.0326905,-3.8646607,3.2295778,117.0
18590,16.333078,-10.439262,-1.2488403,1.083252,-3.7881958,4.516736,117.0
18591,12.045784,2.943353,-1.1170654,1.083252,-3.7881958,4.516736,117.0
18592,12.045784,2.943353,-1.1170654,0.6977417,-3.6873047,4.5708985,117.0
18593,7.711932,9.51844,-1.6212769,0.6977417,-3.6873047,4.5708985,117.0
18594,7.711932,9.51844,-1.6212769,1.0662597,-2.994873,2.4107666,117.0
18595,5.40751,12.27287,-2.5122528,1.0662597,-2.994873,2.4107666,117.0
18596,5.40751,12.27287,-2.5122528,1.1671509,-2.2812011,1.3901733,117.0
18597,4.2616405,14.389097,-3.615265,1.1671509,-2.2812011,1.3901733,117.0
18598,4.2616405,14.389097,-3.615265,0.8878418,-1.1087402,0.61915284,117.0
18599,3.0146103,15.97401,-4.224884,0.8878418,-1.1087402,0.61915284,117.0
18600,3.0146103,15.97401,-4.224884,0.64995116,0.12319336,-0.6467652,117.0
18601,1.474823,15.432029,-3.4495697,0.64995116,0.12319336,-0.6467652,117.0
18602,1.474823,15.432029,-3.4495697,0.6775635,0.5894165,-2.2737672,117.0
18603,1.0638428,12.392509,-1.9463043,0.6775635,0.5894165,-2.2737672,117.0
18604,1.0638428,12.392509,-1.9463043,0.8708496,0.79013675,-4.060071,117.0
18605,2.3066044,9.047113,-1.0249481,0.8708496,0.79013675,-4.060071,117.0
18606,2.3066044,9.047113,-1.0249481,0.4428589,1.1257324,-4.901184,117.0
18607,4.0088463,6.599531,-1.9836426E-4,0.4428589,1.1257324,-4.901184,117.0
18608,4.0088463,6.599531,-1.9836426E-4,-0.7126099,1.2340577,-5.515027,117.0
18609,5.5357513,2.7319813,2.4055176,-0.7126099,1.2340577,-5.515027,117.0
18610,5.5357513,2.7319813,2.4055176,-2.0677369,0.88040775,-5.615918,117.0
18611,6.626587,-4.1570663,4.488785,-2.0677369,0.88040775,-5.615918,117.0
18612,6.626587,-4.1570663,4.488785,-3.4186158,0.4439209,-7.2609744,117.0
18613,7.2565193,-12.401922,3.8633575,-3.4186158,0.4439209,-7.2609744,117.0
18614,7.2565193,-12.401922,3.8633575,-3.976172,1.2223755,-6.2074585,117.0
18615,6.294071,-19.408098,2.3046112,-3.976172,1.2223755,-6.2074585,117.0
18616,6.294071,-19.408098,2.3046112,-4.6378055,2.5817506,-5.2474,117.0
18617,2.1787128,-21.972439,2.1975403,-4.6378055,2.5817506,-5.2474,117.0
18618,2.1787128,-21.972439,2.1975403,-5.572376,3.2476318,-3.3602052,117.0
18619,-4.1385975,-17.284592,2.801117,-5.572376,3.2476318,-3.3602052,117.0
18620,-4.1385975,-17.284592,2.801117,-5.5129027,3.062842,-1.3445069,117.0
18621,-9.843386,-7.520215,2.6297302,-5.5129027,3.062842,-1.3445069,117.0
18622,-9.843386,-7.520215,2.6297302,-4.337256,2.7750366,0.53950197,117.0
18623,-13.508144,1.6047509,1.4254303,-4.337256,2.7750366,0.53950197,117.0
18624,-13.508144,1.6047509,1.4254303,-3.338965,3.2380738,0.3462158,117.0
18625,-15.64183,5.894397,0.21479797,-3.338965,3.2380738,0.3462158,117.0
18626,-15.64183,5.894397,0.21479797,-2.2812011,3.5609252,-0.87191164,117.0
18627,-16.590601,6.220315,0.46855164,-2.2812011,3.5609252,-0.87191164,117.0
18628,-16.590601,6.220315,0.46855164,-0.08814698,2.6104248,-0.7869507,117.0
18629,-15.076802,5.860737,2.0055084,-0.08814698,2.6104248,-0.7869507,117.0
18630,-15.076802,5.860737,2.0055084,2.0125122,1.2011353,0.57242435,117.0
18631,-11.201689,6.791934,2.978119,2.0125122,1.2011353,0.57242435,117.0
18632,-11.201689,6.791934,2.978119,2.2780151,0.93350834,0.7391602,117.0
18633,-7.932225,8.320242,2.7780914,2.2780151,0.93350834,0.7391602,117.0
18634,-7.932225,8.320242,2.7780914,1.6471802,0.903772,1.2935303,117.0
18635,-6.891398,8.6558275,2.1611023,1.6471802,0.903772,1.2935303,117.0
18636,-6.891398,8.6558275,2.1611023,1.0492676,-0.63826907,2.446875,117.0
18637,-5.8840656,6.9403114,0.8742218,1.0492676,-0.63826907,2.446875,117.0
18638,-5.8840656,6.9403114,0.8742218,1.0259033,-2.0475585,3.6533203,117.0
18639,-3.1860614,3.7248325,-1.1071472,1.0259033,-2.0475585,3.6533203,117.0
18640,-3.1860614,3.7248325,-1.1071472,1.2924683,-1.9689697,4.245923,117.0
18641,-0.25832176,0.33120918,-2.2387848,1.2924683,-1.9689697,4.245923,117.0
18642,-0.25832176,0.33120918,-2.2387848,0.8793457,-2.1134033,4.5740848,117.0
18643,1.3126786,-4.9130726,-1.5874939,0.8793457,-2.1134033,4.5740848,117.0
18644,1.3126786,-4.9130726,-1.5874939,-0.20709229,-3.160547,5.8378787,117.0
18645,3.4712367,-16.539663,-1.1208801,-0.20709229,-3.160547,5.8378787,117.0
18646,3.4712367,-16.539663,-1.1208801,0.1274414,-5.5914917,7.7441897,117.0
18647,8.932714,-27.089397,-2.6322937,0.1274414,-5.5914917,7.7441897,117.0
18648,8.932714,-27.089397,-2.6322937,2.52334,-4.2671633,5.523523,117.0
18649,14.118095,-22.789145,-3.4061584,2.52334,-4.2671633,5.523523,117.0
18650,14.118095,-22.789145,-3.4061584,3.1361206,-2.2854493,4.7525024,117.0
18651,14.737751,-8.16895,-1.6964874,3.1361206,-2.2854493,4.7525024,117.0
18652,14.737751,-8.16895,-1.6964874,2.0985353,-2.3757203,5.695569,117.0
18653,12.041861,3.6199913,0.48797607,2.0985353,-2.3757203,5.695569,117.0
18654,12.041861,3.6199913,0.48797607,1.6631104,-2.889734,5.2771363,117.0
18655,8.781169,8.985715,0.70140076,1.6631104,-2.889734,5.2771363,117.0
18656,8.781169,8.985715,0.70140076,1.4029175,-3.1828492,3.882715,117.0
18657,6.986923,10.98076,-1.247406,1.4029175,-3.1828492,3.882715,117.0
18658,6.986923,10.98076,-1.247406,1.4889405,-2.543518,2.092163,117.0
18659,6.3001347,12.943836,-3.3005066,1.4889405,-2.543518,2.092163,117.0
18660,6.3001347,12.943836,-3.3005066,1.270166,-1.359375,0.5798584,117.0
18661,4.71529,15.878397,-3.614685,1.270166,-1.359375,0.5798584,117.0
18662,4.71529,15.878397,-3.614685,0.72641605,-0.54587406,-0.3175415,117.0
18663,2.1487942,17.59399,-2.5665588,0.72641605,-0.54587406,-0.3175415,117.0
18664,2.1487942,17.59399,-2.5665588,-0.8612915,-0.45772704,-0.18372802,117.0
18665,0.12201309,15.144505,-1.9947052,-0.8612915,-0.45772704,-0.18372802,117.0
18666,0.12201309,15.144505,-1.9947052,-2.624231,0.046728518,-1.7278931,117.0
18667,0.12201309,15.144505,-1.9947052,-2.624231,0.046728518,-1.7278931,118.0
18668,-0.6077614,9.109903,-2.2870636,-2.624231,0.046728518,-1.7278931,118.0
18669,-0.6077614,9.109903,-2.2870636,-3.1233766,0.7954468,-4.0250244,118.0
18670,0.24217224,3.3591633,-2.142807,-3.1233766,0.7954468,-4.0250244,118.0
18671,0.24217224,3.3591633,-2.142807,-1.7597535,1.6078857,-5.2420897,118.0
18672,1.7894287,-0.32988167,-0.20924377,-1.7597535,1.6078857,-5.2420897,118.0
18673,1.7894287,-0.32988167,-0.20924377,-0.8867798,2.0518067,-5.5075927,118.0
18674,2.6014042,-4.4214134,2.429779,-0.8867798,2.0518067,-5.5075927,118.0
18675,2.6014042,-4.4214134,2.429779,-2.0932252,2.163318,-6.6354494,118.0
18676,3.1347237,-10.444882,3.08461,-2.0932252,2.163318,-6.6354494,118.0
18677,3.1347237,-10.444882,3.08461,-4.061133,2.5987427,-7.320447,118.0
18678,3.4853554,-17.113024,2.0579834,-4.061133,2.5987427,-7.320447,118.0
18679,3.4853554,-17.113024,2.0579834,-4.923486,3.987854,-5.03606,118.0
18680,1.0226822,-20.491226,1.7659454,-4.923486,3.987854,-5.03606,118.0
18681,1.0226822,-20.491226,1.7659454,-4.52948,4.0632567,-2.4097047,118.0
18682,-3.9079895,-17.95642,2.527832,-4.52948,4.0632567,-2.4097047,118.0
18683,-3.9079895,-17.95642,2.527832,-3.2975464,3.6650026,-1.893567,118.0
18684,-7.9851437,-9.929235,3.1476746,-3.2975464,3.6650026,-1.893567,118.0
18685,-7.9851437,-9.929235,3.1476746,-1.9317993,3.525879,-0.9494385,118.0
18686,-10.52133,0.37942666,3.2276306,-1.9317993,3.525879,-0.9494385,118.0
18687,-10.52133,0.37942666,3.2276306,-1.3933594,3.6979249,-0.7327881,118.0
18688,-12.571886,7.2373915,2.9109192,-1.3933594,3.6979249,-0.7327881,118.0
18689,-12.571886,7.2373915,2.9109192,-1.453894,3.984668,-1.0630738,118.0
18690,-14.353468,8.652437,2.7432404,-1.453894,3.984668,-1.0630738,118.0
18691,-14.353468,8.652437,2.7432404,-0.6244629,2.7760987,-1.4623902,118.0
18692,-13.900328,7.3973284,2.662033,-0.6244629,2.7760987,-1.4623902,118.0
18693,-13.900328,7.3973284,2.662033,1.1161743,0.8506714,-0.14655761,118.0
18694,-10.478186,6.6211834,2.04393,1.1161743,0.8506714,-0.14655761,118.0
18695,-10.478186,6.6211834,2.04393,2.269519,1.1161743,0.098767094,118.0
18696,-7.2116375,7.196251,1.1193848,2.269519,1.1161743,0.098767094,118.0
18697,-7.2116375,7.196251,1.1193848,2.2440307,1.5590333,-0.059472658,118.0
18698,-6.5461655,8.217499,0.7406006,2.2440307,1.5590333,-0.059472658,118.0
18699,-6.5461655,8.217499,0.7406006,1.635498,0.053100586,1.1490967,118.0
18700,-5.8973575,7.925806,0.4251709,1.635498,0.053100586,1.1490967,118.0
18701,-5.8973575,7.925806,0.4251709,0.9239502,-2.2408447,2.8610597,118.0
18702,-3.1268215,5.3638754,-0.6989441,0.9239502,-2.2408447,2.8610597,118.0
18703,-3.1268215,5.3638754,-0.6989441,0.5331299,-2.441565,3.6458862,118.0
18704,-0.3060348,1.6314201,-1.8882751,0.5331299,-2.441565,3.6458862,118.0
18705,-0.3060348,1.6314201,-1.8882751,0.53950197,-2.4638672,3.7510254,118.0
18706,0.58052623,-2.3976593,-2.1445007,0.53950197,-2.4638672,3.7510254,118.0
18707,0.58052623,-2.3976593,-2.1445007,0.016992187,-3.1955934,4.3223877,118.0
18708,0.7533859,-8.631751,-2.2767944,0.016992187,-3.1955934,4.3223877,118.0
18709,0.7533859,-8.631751,-2.2767944,-0.31860352,-4.9606566,5.9015994,118.0
18710,3.8509145,-18.179218,-3.7000732,-0.31860352,-4.9606566,5.9015994,118.0
18711,3.8509145,-18.179218,-3.7000732,1.0174073,-6.783069,6.819177,118.0
18712,9.995197,-22.369986,-4.7575073,1.0174073,-6.783069,6.819177,118.0
18713,9.995197,-22.369986,-4.7575073,3.4504762,-4.425403,3.4048097,118.0
18714,14.333059,-15.216936,-3.4503174,3.4504762,-4.425403,3.4048097,118.0
18715,14.333059,-15.216936,-3.4503174,3.2773683,-3.4833984,3.8667848,118.0
18716,14.328679,-3.8225112,-0.935791,3.2773683,-3.4833984,3.8667848,118.0
18717,14.328679,-3.8225112,-0.935791,1.9434814,-3.1488647,3.9390016,118.0
18718,11.661479,4.52777,0.473938,1.9434814,-3.1488647,3.9390016,118.0
18719,11.661479,4.52777,0.473938,1.1013062,-3.0076172,3.2380738,118.0
18720,8.28752,9.087999,-0.06933594,1.1013062,-3.0076172,3.2380738,118.0
18721,8.28752,9.087999,-0.06933594,0.69986576,-2.4596193,2.546704,118.0
18722,5.609337,11.79695,-1.4347839,0.69986576,-2.4596193,2.546704,118.0
18723,5.609337,11.79695,-1.4347839,0.58198243,-1.7714356,1.4156617,118.0
18724,3.7882023,14.057433,-2.114853,0.58198243,-1.7714356,1.4156617,118.0
18725,3.7882023,14.057433,-2.114853,-0.053100586,-1.178833,0.41737062,118.0
18726,2.2123604,15.566405,-1.9102325,-0.053100586,-1.178833,0.41737062,118.0
18727,2.2123604,15.566405,-1.9102325,-1.0705079,-0.89102787,-0.29736328,118.0
18728,1.284708,14.766321,-1.625412,-1.0705079,-0.89102787,-0.29736328,118.0
18729,1.284708,14.766321,-1.625412,-1.81604,-0.38975832,-1.5813354,118.0
18730,1.6723824,11.310322,-1.6663513,-1.81604,-0.38975832,-1.5813354,118.0
18731,1.6723824,11.310322,-1.6663513,-1.7958618,0.88040775,-3.1924074,118.0
18732,1.9242592,6.952921,-1.4440308,-1.7958618,0.88040775,-3.1924074,118.0
18733,1.9242592,6.952921,-1.4440308,-1.2977784,1.8829468,-4.066443,118.0
18734,1.6990871,3.3682575,-0.42622375,-1.2977784,1.8829468,-4.066443,118.0
18735,1.6990871,3.3682575,-0.42622375,-0.8379273,2.2822633,-4.9553466,118.0
18736,2.4529343,-0.24887657,1.4472961,-0.8379273,2.2822633,-4.9553466,118.0
18737,2.4529343,-0.24887657,1.4472961,-1.1034302,2.8812377,-5.250586,118.0
18738,3.4792538,-5.5597095,3.2067413,-1.1034302,2.8812377,-5.250586,118.0
18739,3.4792538,-5.5597095,3.2067413,-3.062842,3.1817873,-5.9302735,118.0
18740,3.6308136,-11.373195,3.2620697,-3.062842,3.1817873,-5.9302735,118.0
18741,3.6308136,-11.373195,3.2620697,-3.9549317,3.5906618,-5.4056396,118.0
18742,2.5392952,-15.586641,2.183258,-3.9549317,3.5906618,-5.4056396,118.0
18743,2.5392952,-15.586641,2.183258,-3.9198854,4.2884035,-4.3510623,118.0
18744,0.018520355,-17.448025,2.1547394,-3.9198854,4.2884035,-4.3510623,118.0
18745,0.018520355,-17.448025,2.1547394,-2.8451295,4.2841554,-3.2189577,118.0
18746,-3.0024567,-15.367648,3.2878418,-2.8451295,4.2841554,-3.2189577,118.0
18747,-3.0024567,-15.367648,3.2878418,-1.5823975,4.15459,-3.0405395,118.0
18748,-5.779505,-8.003017,3.9221802,-1.5823975,4.15459,-3.0405395,118.0
18749,-5.779505,-8.003017,3.9221802,-1.9328613,3.9262574,-1.7544434,118.0
18750,-8.610004,1.2169099,3.2188416,-1.9328613,3.9262574,-1.7544434,118.0
18751,-8.610004,1.2169099,3.2188416,-2.8185792,3.8582885,-0.87615967,118.0
18752,-11.182755,5.9112477,1.6189423,-2.8185792,3.8582885,-0.87615967,118.0
18753,-11.182755,5.9112477,1.6189423,-2.7654786,3.5980957,-0.72004396,118.0
18754,-12.791041,5.177216,0.2663269,-2.7654786,3.5980957,-0.72004396,118.0
18755,-12.791041,5.177216,0.2663269,-0.79013675,3.0469117,-0.8814697,118.0
18756,-12.835544,3.8934698,0.047058105,-0.79013675,3.0469117,-0.8814697,118.0
18757,-12.835544,3.8934698,0.047058105,1.5579712,2.885486,-1.1448487,118.0
18758,-11.425478,5.4313526,0.7604065,1.5579712,2.885486,-1.1448487,118.0
18759,-11.425478,5.4313526,0.7604065,2.2036743,2.6359131,-0.84111327,118.0
18760,-9.867909,7.9726086,1.4404602,2.2036743,2.6359131,-0.84111327,118.0
18761,-9.867909,7.9726086,1.4404602,1.5685914,2.267395,-0.32816163,118.0
18762,-9.2254925,8.81483,1.4320068,1.5685914,2.267395,-0.32816163,118.0
18763,-9.2254925,8.81483,1.4320068,0.96218264,0.991919,0.93563235,118.0
18764,-8.210887,7.7108364,0.5857544,0.96218264,0.991919,0.93563235,118.0
18765,-8.210887,7.7108364,0.5857544,0.4439209,-0.996167,2.0985353,118.0
18766,-5.1185026,5.591753,-0.71873474,0.4439209,-0.996167,2.0985353,118.0
18767,-5.1185026,5.591753,-0.71873474,0.34090576,-1.6705445,2.977881,118.0
18768,-1.6343162,3.6328506,-1.2810822,0.34090576,-1.6705445,2.977881,118.0
18769,-1.6343162,3.6328506,-1.2810822,-0.033984374,-1.7034668,3.5895996,118.0
18770,-0.6865423,1.3303041,-0.46220398,-0.033984374,-1.7034668,3.5895996,118.0
18771,-0.6865423,1.3303041,-0.46220398,-2.0199463,-2.716626,4.078125,118.0
18772,-1.0070708,-5.9176903,-0.32844543,-2.0199463,-2.716626,4.078125,118.0
18773,-1.0070708,-5.9176903,-0.32844543,-3.2168336,-5.776282,5.3111205,118.0
18774,3.792317,-19.892282,-3.0629883,-3.2168336,-5.776282,5.3111205,118.0
18775,3.792317,-19.892282,-3.0629883,0.5363159,-7.2174315,5.523523,118.0
18776,12.30673,-26.48896,-4.7963257,0.5363159,-7.2174315,5.523523,118.0
18777,12.30673,-26.48896,-4.7963257,3.8423584,-3.6830566,3.2030275,118.0
18778,16.383568,-16.658735,-2.1896057,3.8423584,-3.6830566,3.2030275,118.0
18779,16.383568,-16.658735,-2.1896057,2.6773317,-3.08833,4.3786745,118.0
18780,14.344037,-1.4401226,1.4497375,2.6773317,-3.08833,4.3786745,118.0
18781,14.344037,-1.4401226,1.4497375,0.46622315,-3.359143,4.990393,118.0
18782,10.144846,7.5350237,2.2884674,0.46622315,-3.359143,4.990393,118.0
18783,10.144846,7.5350237,2.2884674,-0.4439209,-3.7850099,3.9464357,118.0
18784,6.9643755,9.706511,0.37371826,-0.4439209,-3.7850099,3.9464357,118.0
18785,6.9643755,9.706511,0.37371826,-0.08602295,-3.2327638,2.5679443,118.0
18786,5.154825,10.098595,-2.0411377,-0.08602295,-3.2327638,2.5679443,118.0
18787,5.154825,10.098595,-2.0411377,0.53950197,-2.3969605,1.5250489,118.0
18788,3.6191483,10.755841,-2.9925385,0.53950197,-2.3969605,1.5250489,118.0
18789,3.6191483,10.755841,-2.9925385,0.54693604,-1.8765748,0.9281983,118.0
18790,2.483698,10.8905735,-2.4542084,0.54693604,-1.8765748,0.9281983,118.0
18791,2.483698,10.8905735,-2.4542084,0.3971924,-1.7576294,-0.16779785,118.0
18792,2.4398518,10.396076,-1.702179,0.3971924,-1.7576294,-0.16779785,118.0
18793,2.4398518,10.396076,-1.702179,0.009558106,-1.1119263,-1.1299804,118.0
18794,2.813551,9.794436,-1.2708893,0.009558106,-1.1119263,-1.1299804,118.0
18795,2.813551,9.794436,-1.2708893,-0.83474123,0.09770508,-1.5643433,118.0
18796,2.813551,9.794436,-1.2708893,-0.83474123,0.09770508,-1.5643433,122.0
18797,2.3751564,8.537649,-0.8430023,-0.83474123,0.09770508,-1.5643433,122.0
18798,2.3751564,8.537649,-0.8430023,-1.4708862,0.94731444,-2.2769532,122.0
18799,1.7305698,5.9142017,-0.055038452,-1.4708862,0.94731444,-2.2769532,122.0
18800,1.7305698,5.9142017,-0.055038452,-1.4687623,1.717273,-3.265686,122.0
18801,1.2460651,2.5401268,1.5455627,-1.4687623,1.717273,-3.265686,122.0
18802,1.2460651,2.5401268,1.5455627,-1.357251,1.9158691,-3.895459,122.0
18803,1.5116596,-1.2343292,3.1743011,-1.357251,1.9158691,-3.895459,122.0
18804,1.5116596,-1.2343292,3.1743011,-2.7559204,1.719397,-4.539038,122.0
18805,4.119154,-7.7863045,2.4617767,-2.7559204,1.719397,-4.539038,122.0
18806,4.119154,-7.7863045,2.4617767,-4.262915,2.8738039,-5.523523,122.0
18807,5.8646107,-15.778226,-0.03753662,-4.262915,2.8738039,-5.523523,122.0
18808,5.8646107,-15.778226,-0.03753662,-3.344275,4.674976,-4.905432,122.0
18809,3.138916,-20.022617,-0.58784485,-3.344275,4.674976,-4.905432,122.0
18810,3.138916,-20.022617,-0.58784485,-2.084729,4.800293,-3.6437624,122.0
18811,-1.8139286,-17.337967,1.43367,-2.084729,4.800293,-3.6437624,122.0
18812,-1.8139286,-17.337967,1.43367,-2.2833252,4.5708985,-2.6805177,122.0
18813,-6.384529,-8.911963,2.8600311,-2.2833252,4.5708985,-2.6805177,122.0
18814,-6.384529,-8.911963,2.8600311,-3.0044312,4.242737,-1.2234375,122.0
18815,-10.579071,-0.7023127,1.8904724,-3.0044312,4.242737,-1.2234375,122.0
18816,-10.579071,-0.7023127,1.8904724,-2.7803466,4.3977904,-1.0237793,122.0
18817,-13.71449,2.928494,0.16937256,-2.7803466,4.3977904,-1.0237793,122.0
18818,-13.71449,2.928494,0.16937256,-1.2372437,3.6522584,-1.3774292,122.0
18819,-14.043931,3.7360203,-0.16551208,-1.2372437,3.6522584,-1.3774292,122.0
18820,-14.043931,3.7360203,-0.16551208,0.6595093,2.9375246,-1.1883911,122.0
18821,-12.002064,5.148179,0.78012085,0.6595093,2.9375246,-1.1883911,122.0
18822,-12.002064,5.148179,0.78012085,1.3912354,2.9226563,-1.2722901,122.0
18823,-10.064615,7.2594366,2.056366,1.3912354,2.9226563,-1.2722901,122.0
18824,-10.064615,7.2594366,2.056366,1.4145997,2.3757203,-0.72960204,122.0
18825,-9.0553055,8.580633,2.8089752,1.4145997,2.3757203,-0.72960204,122.0
18826,-9.0553055,8.580633,2.8089752,1.5208008,1.5197388,0.29311523,122.0
18827,-8.270148,8.886968,2.4560852,1.5208008,1.5197388,0.29311523,122.0
18828,-8.270148,8.886968,2.4560852,1.3784913,0.632959,1.3168945,122.0
18829,-7.170635,8.302872,1.0845184,1.3784913,0.632959,1.3168945,122.0
18830,-7.170635,8.302872,1.0845184,0.8421753,-0.7784546,2.077295,122.0
18831,-5.1244354,6.488392,-0.7587738,0.8421753,-0.7784546,2.077295,122.0
18832,-5.1244354,6.488392,-0.7587738,0.5968506,-1.5749635,2.7495484,122.0
18833,-2.5611694,4.043045,-1.9881897,0.5968506,-1.5749635,2.7495484,122.0
18834,-2.5611694,4.043045,-1.9881897,0.51932377,-2.0295045,3.1796632,122.0
18835,-1.0896583,1.2405882,-1.5522308,0.51932377,-2.0295045,3.1796632,122.0
18836,-1.0896583,1.2405882,-1.5522308,-0.88040775,-2.8430054,3.6586304,122.0
18837,-0.39708042,-5.767417,-0.7757263,-0.88040775,-2.8430054,3.6586304,122.0
18838,-0.39708042,-5.767417,-0.7757263,-2.9438965,-5.62229,4.5762086,122.0
18839,4.093749,-19.446796,-3.3365784,-2.9438965,-5.62229,4.5762086,122.0
18840,4.093749,-19.446796,-3.3365784,-0.4439209,-7.7080812,5.0211916,122.0
18841,11.341955,-27.272757,-6.6096497,-0.4439209,-7.7080812,5.0211916,122.0
18842,11.341955,-27.272757,-6.6096497,3.5046387,-4.236365,3.0331056,122.0
18843,14.935576,-19.362492,-5.1983185,3.5046387,-4.236365,3.0331056,122.0
18844,14.935576,-19.362492,-5.1983185,2.9343383,-3.882715,4.2108765,122.0
18845,14.271545,-4.3501625,-0.81611633,2.9343383,-3.882715,4.2108765,122.0
18846,14.271545,-4.3501625,-0.81611633,1.2213135,-3.877405,4.1291018,122.0
18847,12.09054,6.387778,1.9516754,1.2213135,-3.877405,4.1291018,122.0
18848,12.09054,6.387778,1.9516754,0.0021240234,-3.4090576,3.4579103,122.0
18849,8.938497,10.4346,1.6078186,0.0021240234,-3.4090576,3.4579103,122.0
18850,8.938497,10.4346,1.6078186,0.08283692,-3.4037476,2.6826417,122.0
18851,6.653471,9.894018,0.26823425,0.08283692,-3.4037476,2.6826417,122.0
18852,6.653471,9.894018,0.26823425,0.4895874,-3.4281738,1.9944581,122.0
18853,4.508995,13.256047,-2.069809,0.4895874,-3.4281738,1.9944581,122.0
18854,4.508995,13.256047,-2.069809,0.8889038,-2.2387207,0.43011475,122.0
18855,3.6745176,12.71563,-2.0695038,0.8889038,-2.2387207,0.43011475,122.0
18856,3.6745176,12.71563,-2.0695038,0.65419924,-1.7310791,-0.1731079,122.0
18857,2.6006374,15.358662,-1.3786011,0.65419924,-1.7310791,-0.1731079,122.0
18858,2.6006374,15.358662,-1.3786011,-0.1901001,-0.6690674,-2.0231323,122.0
18859,2.0815716,13.308498,-1.125473,-0.1901001,-0.6690674,-2.0231323,122.0
18860,2.0815716,13.308498,-1.125473,-0.41099855,-0.29099122,-2.5721924,122.0
18861,2.305357,9.287008,-0.8157654,-0.41099855,-0.29099122,-2.5721924,122.0
18862,2.305357,9.287008,-0.8157654,-0.8506714,0.9674927,-3.9613037,122.0
18863,2.0180397,6.316984,-0.22535706,-0.8506714,0.9674927,-3.9613037,122.0
18864,2.0180397,6.316984,-0.22535706,-0.91120607,1.0397094,-4.4636354,122.0
18865,4.299282,-2.0572052,1.4615479,-0.91120607,1.0397094,-4.4636354,122.0
18866,4.299282,-2.0572052,1.4615479,-1.6153198,2.0252564,-4.803479,122.0
18867,4.377659,-4.3227177,2.0147247,-1.6153198,2.0252564,-4.803479,122.0
18868,4.377659,-4.3227177,2.0147247,-2.353418,2.5944946,-4.4827514,122.0
18869,4.057228,-11.845955,2.054123,-2.353418,2.5944946,-4.4827514,122.0
18870,4.057228,-11.845955,2.054123,-4.766309,3.3984375,-3.4929566,122.0
18871,1.9035206,-11.95827,1.7710724,-4.766309,3.3984375,-3.4929566,122.0
18872,1.9035206,-11.95827,1.7710724,-5.249524,3.6819947,-2.8610597,122.0
18873,-3.913597,-16.634842,0.1585083,-5.249524,3.6819947,-2.8610597,122.0
18874,-3.913597,-16.634842,0.1585083,-3.7648315,4.2087526,-1.6779785,122.0
18875,-5.8220634,-15.45896,0.26164246,-3.7648315,4.2087526,-1.6779785,122.0
18876,-5.8220634,-15.45896,0.26164246,-2.2896974,3.7244751,-2.0518067,122.0
18877,-10.01688,-10.5379925,1.1996918,-2.2896974,3.7244751,-2.0518067,122.0
18878,-10.01688,-10.5379925,1.1996918,0.36639404,3.243384,-1.8882569,122.0
18879,-9.469399,-4.4623647,1.8616943,0.36639404,3.243384,-1.8882569,122.0
18880,-9.469399,-4.4623647,1.8616943,0.16673584,3.2975464,-1.4984986,122.0
18881,-9.915546,4.3212705,2.8115997,0.16673584,3.2975464,-1.4984986,122.0
18882,-9.915546,4.3212705,2.8115997,-0.62764895,2.9598267,-1.1204224,122.0
18883,-10.373001,7.258872,2.6913757,-0.62764895,2.9598267,-1.1204224,122.0
18884,-10.373001,7.258872,2.6913757,-0.47578126,1.8829468,-0.76677245,122.0
18885,-9.8521,6.379107,1.9537964,-0.47578126,1.8829468,-0.76677245,122.0
18886,-9.8521,6.379107,1.9537964,0.14868164,1.2595459,-0.3706421,122.0
18887,-8.260952,5.7263565,1.493042,0.14868164,1.2595459,-0.3706421,122.0
18888,-8.260952,5.7263565,1.493042,0.24320069,0.96218264,0.021240234,122.0
18889,-6.6738744,7.078204,2.0337982,0.24320069,0.96218264,0.021240234,122.0
18890,-6.6738744,7.078204,2.0337982,0.3334717,0.50445557,0.89421386,122.0
18891,-5.518628,6.4512596,1.9647217,0.3334717,0.50445557,0.89421386,122.0
18892,-5.518628,6.4512596,1.9647217,0.4609131,0.3164795,1.26167,122.0
18893,-5.046165,6.797885,2.0436249,0.4609131,0.3164795,1.26167,122.0
18894,-5.046165,6.797885,2.0436249,0.7104859,-1.1937011,2.5743165,122.0
18895,-3.6877134,5.6091576,1.4302826,0.7104859,-1.1937011,2.5743165,122.0
18896,-3.6877134,5.6091576,1.4302826,0.6988037,-1.4868164,2.884424,122.0
18897,-2.0614743,4.1227875,0.5148773,0.6988037,-1.4868164,2.884424,122.0
18898,-2.0614743,4.1227875,0.5148773,0.45560303,-1.807544,3.1180665,122.0
18899,-0.89648175,1.7433224,-0.2326355,0.45560303,-1.807544,3.1180665,122.0
18900,-0.89648175,1.7433224,-0.2326355,-0.06159668,-2.5084717,3.622522,122.0
18901,-0.6896585,-2.8924885,-0.69789124,-0.06159668,-2.5084717,3.622522,122.0
18902,-0.6896585,-2.8924885,-0.69789124,-0.96218264,-3.9145753,4.1046753,122.0
18903,1.6174871,-12.172853,-2.701416,-0.96218264,-3.9145753,4.1046753,122.0
18904,1.6174871,-12.172853,-2.701416,-0.5140137,-6.2764893,5.719995,122.0
18905,7.053499,-20.763052,-5.620529,-0.5140137,-6.2764893,5.719995,122.0
18906,7.053499,-20.763052,-5.620529,2.088977,-4.3627443,4.8087893,122.0
18907,10.357862,-19.286283,-5.502884,2.088977,-4.3627443,4.8087893,122.0
18908,10.357862,-19.286283,-5.502884,2.5169678,-3.6830566,4.629309,122.0
18909,10.23634,-6.4311147,-1.2277374,2.5169678,-3.6830566,4.629309,122.0
18910,10.23634,-6.4311147,-1.2277374,1.4666382,-4.2204347,3.891211,122.0
18911,9.046884,-2.169489,-0.53767395,1.4666382,-4.2204347,3.891211,122.0
18912,9.046884,-2.169489,-0.53767395,1.2510499,-3.9092653,3.3793213,122.0
18913,8.530476,3.636406,-0.29870605,1.2510499,-3.9092653,3.3793213,122.0
18914,8.530476,3.636406,-0.29870605,0.63933104,-3.355957,2.7548585,122.0
18915,7.3362217,7.393976,-1.6484222,0.63933104,-3.355957,2.7548585,122.0
18916,7.3362217,7.393976,-1.6484222,0.23045655,-2.6932619,1.7459472,122.0
18917,6.0177326,9.6612625,-3.1333008,0.23045655,-2.6932619,1.7459472,122.0
18918,6.0177326,9.6612625,-3.1333008,0.32922363,-1.9668458,0.78164065,122.0
18919,5.0195456,11.198017,-3.304016,0.32922363,-1.9668458,0.78164065,122.0
18920,5.0195456,11.198017,-3.304016,0.32922363,-1.9668458,0.78164065,122.0
18921,5.0195456,11.198017,-3.304016,0.15080567,-0.98129886,-0.013806152,122.0
18922,4.136059,11.904898,-2.2630005,0.15080567,-0.98129886,-0.013806152,122.0
18923,4.136059,11.904898,-2.2630005,-0.5171997,-0.24107666,-0.9451904,122.0
18924,3.2929173,11.626922,-1.2057648,-0.5171997,-0.24107666,-0.9451904,122.0
18925,3.2929173,11.626922,-1.2057648,-1.4443359,0.40037844,-1.634436,122.0
18926,2.7569904,10.306652,-1.0128479,-1.4443359,0.40037844,-1.634436,122.0
18927,2.7569904,10.306652,-1.0128479,-2.6677735,1.6408081,-2.179248,122.0
18928,2.217884,7.347006,-0.9785309,-2.6677735,1.6408081,-2.179248,122.0
18929,2.217884,7.347006,-0.9785309,-2.9279664,2.9184082,-3.0723999,122.0
18930,1.0136147,0.3125038,0.9773712,-2.9279664,2.9184082,-3.0723999,122.0
18931,1.0136147,0.3125038,0.9773712,-1.5887696,3.2391357,-4.4848757,122.0
18932,0.66181946,-1.6425266,2.0647888,-1.5887696,3.2391357,-4.4848757,122.0
18933,0.66181946,-1.6425266,2.0647888,-1.6822265,3.3156006,-5.0105715,122.0
18934,1.8280525,-7.7051954,2.553543,-1.6822265,3.3156006,-5.0105715,122.0
18935,1.8280525,-7.7051954,2.553543,-3.087268,3.620398,-5.3705935,122.0
18936,3.215397,-15.136703,0.7468872,-3.087268,3.620398,-5.3705935,122.0
18937,3.215397,-15.136703,0.7468872,-2.4192626,4.4986815,-5.324927,122.0
18938,1.618351,-18.558092,-0.61076355,-2.4192626,4.4986815,-5.324927,122.0
18939,1.618351,-18.558092,-0.61076355,-1.354065,5.2197876,-3.4101198,122.0
18940,-2.9383526,-15.531862,0.55870056,-1.354065,5.2197876,-3.4101198,122.0
18941,-2.9383526,-15.531862,0.55870056,-1.9402955,4.974463,-2.1038454,122.0
18942,-7.2530994,-9.339626,2.7053375,-1.9402955,4.974463,-2.1038454,122.0
18943,-7.2530994,-9.339626,2.7053375,-2.5817506,4.342566,-1.0418335,122.0
18944,-9.865102,-2.9376798,3.4362335,-2.5817506,4.342566,-1.0418335,122.0
18945,-9.865102,-2.9376798,3.4362335,-1.896753,4.1705203,-0.7965088,122.0
18946,-11.523197,2.0564604,2.6677704,-1.896753,4.1705203,-0.7965088,122.0
18947,-11.523197,2.0564604,2.6677704,-0.9239502,3.8901489,-0.8772217,122.0
18948,-12.373599,5.2004786,1.8100128,-0.9239502,3.8901489,-0.8772217,122.0
18949,-12.373599,5.2004786,1.8100128,0.26868898,3.270996,-0.85704345,122.0
18950,-12.031851,6.993537,1.5643463,0.26868898,3.270996,-0.85704345,122.0
18951,-12.031851,6.993537,1.5643463,1.4337158,2.6943238,-0.67331547,122.0
18952,-10.820793,8.365007,1.7916565,1.4337158,2.6943238,-0.67331547,122.0
18953,-10.820793,8.365007,1.7916565,1.991272,2.1102173,-0.55755615,122.0
18954,-9.190875,9.467556,2.1477356,1.991272,2.1102173,-0.55755615,122.0
18955,-9.190875,9.467556,2.1477356,2.0433106,1.2372437,-0.04248047,122.0
18956,-7.4626,9.812302,2.0907745,2.0433106,1.2372437,-0.04248047,122.0
18957,-7.4626,9.812302,2.0907745,1.7045288,0.63614506,0.6818115,122.0
18958,-6.253662,9.349573,1.3813934,1.7045288,0.63614506,0.6818115,122.0
18959,-6.253662,9.349573,1.3813934,0.8326172,-0.24213867,1.3253907,122.0
18960,-5.054895,8.130306,0.31404114,0.8326172,-0.24213867,1.3253907,122.0
18961,-5.054895,8.130306,0.31404114,-0.6510132,-1.9371094,2.0125122,122.0
18962,-2.8577466,5.6163425,-0.5586548,-0.6510132,-1.9371094,2.0125122,122.0
18963,-2.8577466,5.6163425,-0.5586548,-1.8861328,-2.89823,2.806897,122.0
18964,-0.944376,1.328474,-0.75157166,-1.8861328,-2.89823,2.806897,122.0
18965,-0.944376,1.328474,-0.75157166,-2.913098,-3.3336549,2.972571,122.0
18966,-0.43916798,-6.7460833,-1.7115173,-2.913098,-3.3336549,2.972571,122.0
18967,-0.43916798,-6.7460833,-1.7115173,-3.180725,-5.447058,4.1152954,122.0
18968,-0.43916798,-6.7460833,-1.7115173,-0.14124756,-6.969983,5.3100586,122.0
18969,2.7712243,-20.14777,-5.727463,-0.14124756,-6.969983,5.3100586,122.0
18970,16.606567,-16.667423,-2.3758392,-0.14124756,-6.969983,5.3100586,122.0
18971,16.606567,-16.667423,-2.3758392,3.9135132,-3.9581177,3.347461,122.0
18972,16.606567,-16.667423,-2.3758392,3.4526002,-3.9273193,4.6494875,122.0
18973,16.606567,-16.667423,-2.3758392,1.5006226,-4.1301637,4.873572,122.0
18974,14.709936,-4.3722806,0.44622803,1.5006226,-4.1301637,4.873572,122.0
18975,14.709936,-4.3722806,0.44622803,-0.06903076,-4.105737,3.8572266,122.0
18976,13.422014,1.8276029,-0.348526,-0.06903076,-4.105737,3.8572266,122.0
18977,13.422014,1.8276029,-0.348526,-0.14018555,-3.3771973,2.6656494,122.0
18978,11.463661,5.445896,-1.8879547,-0.14018555,-3.3771973,2.6656494,122.0
18979,11.463661,5.445896,-1.8879547,0.45878908,-2.6837037,1.9615357,122.0
18980,8.774591,8.389834,-2.3147736,0.45878908,-2.6837037,1.9615357,122.0
18981,8.774591,8.389834,-2.3147736,0.38763428,-2.444751,0.95793456,122.0
18982,6.715803,10.327627,-1.9479675,0.38763428,-2.444751,0.95793456,122.0
18983,6.715803,10.327627,-1.9479675,-0.29417726,-1.8797607,-0.18372802,122.0
18984,5.487694,10.57564,-1.7238159,-0.29417726,-1.8797607,-0.18372802,122.0
18985,5.487694,10.57564,-1.7238159,-1.0641358,-0.7306641,-1.0545777,122.0
18986,3.9526424,9.038929,-1.4997864,-1.0641358,-0.7306641,-1.0545777,122.0
18987,3.9526424,9.038929,-1.4997864,-1.3147706,0.41206056,-2.1229615,122.0
18988,2.1592216,6.4885902,-1.0305023,-1.3147706,0.41206056,-2.1229615,122.0
18989,2.1592216,6.4885902,-1.0305023,-1.1172364,1.09281,-3.4133058,122.0
18990,1.7530365,3.496025,-0.53948975,-1.1172364,1.09281,-3.4133058,122.0
18991,1.7530365,3.496025,-0.53948975,-0.81668705,1.8585205,-4.630371,122.0
18992,2.730053,-0.23511314,0.33666992,-0.81668705,1.8585205,-4.630371,122.0
18993,2.730053,-0.23511314,0.33666992,-0.4619751,2.6465333,-5.2314696,122.0
18994,3.269125,-4.964115,1.6790009,-0.4619751,2.6465333,-5.2314696,122.0
18995,3.269125,-4.964115,1.6790009,-1.7523193,3.1010742,-5.144385,122.0
18996,2.5457802,-10.300882,2.0165863,-1.7523193,3.1010742,-5.144385,122.0
18997,2.5457802,-10.300882,2.0165863,-2.5721924,3.440918,-5.427942,122.0
18998,2.5457802,-10.300882,2.0165863,-2.340674,3.601282,-4.4827514,122.0
18999,0.86971664,-14.867476,0.93588257,-2.340674,3.601282,-4.4827514,122.0
19000,-8.500553,-13.518603,4.2447815,-2.340674,3.601282,-4.4827514,122.0
19001,-8.500553,-13.518603,4.2447815,-1.3147706,3.9347534,-3.178601,122.0
19002,-8.500553,-13.518603,4.2447815,-1.2627319,3.5003908,-2.885486,122.0
19003,-8.500553,-13.518603,4.2447815,-1.8606446,3.4175537,-1.7289551,122.0
19004,-10.535367,-4.1035423,4.0983276,-1.8606446,3.4175537,-1.7289551,122.0
19005,-10.535367,-4.1035423,4.0983276,-1.9997681,3.4855225,-1.0365235,122.0
19006,-12.337498,1.0862579,2.5998077,-1.9997681,3.4855225,-1.0365235,122.0
19007,-12.337498,1.0862579,2.5998077,-1.1873292,2.8621216,-0.95581055,122.0
19008,-12.713491,2.144434,1.4763031,-1.1873292,2.8621216,-0.95581055,122.0
19009,-12.713491,2.144434,1.4763031,0.35471192,1.8574585,-0.46622315,122.0
19010,-10.944097,2.631648,1.1165924,0.35471192,1.8574585,-0.46622315,122.0
19011,-10.944097,2.631648,1.1165924,1.4836304,1.6716064,-0.17523193,122.0
19012,-8.548405,4.543173,1.1938782,1.4836304,1.6716064,-0.17523193,122.0
19013,-8.548405,4.543173,1.1938782,1.7894897,1.5664673,0.6042847,122.0
19014,-7.152994,6.8774214,1.6295624,1.7894897,1.5664673,0.6042847,122.0
19015,-7.152994,6.8774214,1.6295624,1.4018555,0.95581055,1.6949707,122.0
19016,-6.538289,8.150717,1.8097839,1.4018555,0.95581055,1.6949707,122.0
19017,-6.538289,8.150717,1.8097839,0.37807617,-0.4704712,2.5552003,122.0
19018,-5.517423,7.470293,0.97132874,0.37807617,-0.4704712,2.5552003,122.0
19019,-5.517423,7.470293,0.97132874,-0.68287355,-1.811792,2.9279664,122.0
19020,-3.3856304,5.0288963,-0.6372986,-0.68287355,-1.811792,2.9279664,122.0
19021,-3.3856304,5.0288963,-0.6372986,-1.0195312,-2.7537963,3.4897707,122.0
19022,-0.9310019,1.8991051,-1.8276062,-1.0195312,-2.7537963,3.4897707,122.0
19023,-0.9310019,1.8991051,-1.8276062,-1.260608,-3.3400269,3.883777,122.0
19024,-0.2720965,-2.8738928,-2.1460571,-1.260608,-3.3400269,3.883777,122.0
