,accx,accy,accz,gyrox,gyroy,gyroz,heart rate
18115,run,run,run,run,run,run,run
18116,-0.3920684,0.3344574,-7.900635,0.07540283,-0.040356446,-0.004248047,104.0
18117,-0.3370433,0.28554726,-6.3032227,0.07540283,-0.040356446,-0.004248047,104.0
18118,-0.3370433,0.28554726,-6.3032227,0.13487549,-0.06265869,0.20603028,104.0
18119,-0.3370433,0.28554726,-6.3032227,0.08814698,-0.052038576,0.271875,104.0
18120,-0.30123854,0.2532177,-5.019684,0.08814698,-0.052038576,0.271875,104.0
18121,-1.2682858,-0.47467232,3.6306458,0.08814698,-0.052038576,0.271875,104.0
18122,-1.2682858,-0.47467232,3.6306458,0.19753419,-0.13062744,0.21134034,104.0
18123,-1.1062665,-0.49378872,2.9827423,0.19753419,-0.13062744,0.21134034,104.0
18124,-1.1062665,-0.49378872,2.9827423,0.16779785,-0.16673584,0.2527588,104.0
18125,-0.9799962,-0.31287766,2.545639,0.16779785,-0.16673584,0.2527588,104.0
18126,-0.9799962,-0.31287766,2.545639,0.1444336,-0.19116211,0.2899292,104.0
18127,-0.8458133,-0.121896744,2.1837463,0.1444336,-0.19116211,0.2899292,104.0
18128,-0.8458133,-0.121896744,2.1837463,0.012744141,-0.19116211,0.3525879,104.0
18129,-0.8059964,-0.07699776,1.8082733,0.012744141,-0.19116211,0.3525879,104.0
18130,-0.8059964,-0.07699776,1.8082733,0.12956543,-0.16779785,0.45029297,104.0
18131,-0.7666359,-0.12820053,1.4946442,0.12956543,-0.16779785,0.45029297,104.0
18132,-0.7666359,-0.12820053,1.4946442,0.33984375,-0.16354981,0.46728516,104.0
18133,-0.5068388,0.019191742,1.2855835,0.33984375,-0.16354981,0.46728516,104.0
18134,-0.5068388,0.019191742,1.2855835,0.21134034,-0.05522461,0.4354248,104.0
18135,-0.12840796,0.18180847,1.095047,0.21134034,-0.05522461,0.4354248,104.0
18136,-0.12840796,0.18180847,1.095047,-0.022302246,0.033984374,0.31223145,104.0
18137,0.06829405,0.12432861,0.92726135,-0.022302246,0.033984374,0.31223145,104.0
18138,0.06829405,0.12432861,0.92726135,-0.010620117,0.032922365,0.26444092,104.0
18139,-0.053604126,0.09899902,0.75894165,-0.010620117,0.032922365,0.26444092,104.0
18140,-0.053604126,0.09899902,0.75894165,0.08496094,0.010620117,0.31329346,104.0
18141,-0.35539532,0.2638178,0.45306396,0.08496094,0.010620117,0.31329346,104.0
18142,-0.35539532,0.2638178,0.45306396,0.11363526,0.010620117,0.35895997,104.0
18143,-0.6574483,0.36881733,0.12992859,0.11363526,0.010620117,0.35895997,104.0
18144,-0.6574483,0.36881733,0.12992859,0.121069334,0.004248047,0.38338622,104.0
18145,-0.79265785,0.26686764,0.09246826,0.121069334,0.004248047,0.38338622,104.0
18146,-0.79265785,0.26686764,0.09246826,0.13381349,-0.012744141,0.44710693,104.0
18147,-0.7704787,0.10775757,0.30117798,0.13381349,-0.012744141,0.44710693,104.0
18148,-0.7704787,0.10775757,0.30117798,0.1263794,0.011682129,0.5331299,104.0
18149,-0.8307266,-0.024597168,0.4431305,0.1263794,0.011682129,0.5331299,104.0
18150,-0.8307266,-0.024597168,0.4431305,0.23789063,-0.028674318,0.62340087,104.0
18151,-0.969965,-0.0851326,0.4032135,0.23789063,-0.028674318,0.62340087,104.0
18152,-0.969965,-0.0851326,0.4032135,0.33134767,-0.03717041,0.6956177,104.0
18153,-0.969965,-0.0851326,0.4032135,0.26656494,0.0063720704,0.7688965,104.0
18154,-0.9716387,0.05747986,0.24064636,0.26656494,0.0063720704,0.7688965,104.0
18155,-0.80107784,0.26389122,0.058273315,0.26656494,0.0063720704,0.7688965,104.0
18156,-0.80107784,0.26389122,0.058273315,0.17523193,0.033984374,0.83898926,104.0
18157,-0.5785818,0.41256523,-0.026535034,0.17523193,0.033984374,0.83898926,104.0
18158,-0.5785818,0.41256523,-0.026535034,0.16779785,0.04248047,0.9855469,104.0
18159,-0.3702755,0.57610893,0.0037231445,0.16779785,0.04248047,0.9855469,104.0
18160,-0.3702755,0.57610893,0.0037231445,0.19116211,0.11151123,1.1023682,104.0
18161,-0.20347118,0.6497793,0.05140686,0.19116211,0.11151123,1.1023682,104.0
18162,-0.20347118,0.6497793,0.05140686,0.107263185,0.16567384,1.1862671,104.0
18163,-0.110897064,0.42341232,0.11668396,0.107263185,0.16567384,1.1862671,104.0
18164,-0.110897064,0.42341232,0.11668396,0.16992188,0.16248779,1.2032593,104.0
18165,-0.0015964508,0.17402077,0.18832397,0.16992188,0.16248779,1.2032593,104.0
18166,-0.0015964508,0.17402077,0.18832397,0.20709229,0.24638672,1.2839721,104.0
18167,0.15400887,0.43059826,-0.103012085,0.20709229,0.24638672,1.2839721,104.0
18168,0.15400887,0.43059826,-0.103012085,0.025488282,0.41737062,1.4560181,104.0
18169,0.32904148,1.0584431,-0.9048157,0.025488282,0.41737062,1.4560181,104.0
18170,0.32904148,1.0584431,-0.9048157,-0.30373535,0.57454836,1.5802735,104.0
18171,0.32904148,1.0584431,-0.9048157,-0.49383545,0.631897,1.7321411,104.0
18172,0.5421028,1.2923107,-1.6994324,-0.49383545,0.631897,1.7321411,104.0
18173,0.7683015,0.90602875,-2.036789,-0.49383545,0.631897,1.7321411,104.0
18174,0.7683015,0.90602875,-2.036789,-0.7306641,0.62340087,1.7831177,104.0
18175,0.9403124,0.5075865,-1.9717102,-0.7306641,0.62340087,1.7831177,104.0
18176,0.9403124,0.5075865,-1.9717102,-1.1427246,0.65419924,1.8213501,104.0
18177,0.95162725,0.83174133,-1.9385223,-1.1427246,0.65419924,1.8213501,104.0
18178,0.95162725,0.83174133,-1.9385223,-1.8648926,0.71367186,1.7916138,104.0
18179,0.71777153,1.8791142,-2.2615051,-1.8648926,0.71367186,1.7916138,104.0
18180,0.71777153,1.8791142,-2.2615051,-2.8610597,0.83686525,1.7332032,104.0
18181,0.33552074,2.6309156,-2.7224426,-2.8610597,0.83686525,1.7332032,104.0
18182,0.33552074,2.6309156,-2.7224426,-3.7181032,0.96643066,1.6131958,104.0
18183,-0.113554,2.1234455,-2.9252777,-3.7181032,0.96643066,1.6131958,104.0
18184,-0.113554,2.1234455,-2.9252777,-3.989978,0.77951664,1.6822265,104.0
18185,-0.74889994,0.7119274,-2.709076,-3.989978,0.77951664,1.6822265,104.0
18186,-0.74889994,0.7119274,-2.709076,-3.7404053,0.38657227,1.6556762,104.0
18187,-1.6834946,-0.19958687,-2.2636566,-3.7404053,0.38657227,1.6556762,104.0
18188,-1.6834946,-0.19958687,-2.2636566,-3.719165,-0.078588866,1.536731,104.0
18189,-2.4096622,0.23642349,-1.9064636,-3.719165,-0.078588866,1.536731,104.0
18190,-2.4096622,0.23642349,-1.9064636,-4.1248536,-0.32816163,1.2032593,104.0
18191,-2.4022417,1.2650299,-1.7568665,-4.1248536,-0.32816163,1.2032593,104.0
18192,-2.4022417,1.2650299,-1.7568665,-4.912866,-0.5033936,0.94412845,104.0
18193,-1.8922892,1.1942863,-1.7750549,-4.912866,-0.5033936,0.94412845,104.0
18194,-1.8922892,1.1942863,-1.7750549,-5.2824464,-0.8241211,0.7943848,104.0
18195,-1.6070929,-0.2566433,-1.6946869,-5.2824464,-0.8241211,0.7943848,104.0
18196,-1.6070929,-0.2566433,-1.6946869,-4.52417,-1.6365601,0.63826907,104.0
18197,-1.9383602,-1.5871744,-1.4402313,-4.52417,-1.6365601,0.63826907,104.0
18198,-1.9383602,-1.5871744,-1.4402313,-3.6108398,-2.3682861,0.18691407,104.0
18199,-2.1867352,-1.730567,-1.2038116,-3.6108398,-2.3682861,0.18691407,104.0
18200,-2.1867352,-1.730567,-1.2038116,-3.9921021,-2.6412232,-0.4980835,104.0
18201,-1.6305647,-1.2272148,-1.0742188,-3.9921021,-2.6412232,-0.4980835,104.0
18202,-1.6305647,-1.2272148,-1.0742188,-4.7418823,-2.7484863,-1.2276856,104.0
18203,-0.6889124,-2.2341032,-1.0050812,-4.7418823,-2.7484863,-1.2276856,104.0
18204,-0.6889124,-2.2341032,-1.0050812,-4.799231,-2.809021,-1.5770874,104.0
18205,-0.51459503,-4.921646,-0.6992035,-4.799231,-2.809021,-1.5770874,104.0
18206,-0.51459503,-4.921646,-0.6992035,-3.355957,-3.5375612,-1.7767457,104.0
18207,-1.0964785,-5.8816767,-0.3725891,-3.355957,-3.5375612,-1.7767457,104.0
18208,-1.0964785,-5.8816767,-0.3725891,-2.806897,-4.077063,-1.7045288,104.0
18209,-0.92715836,-5.293684,-0.48457336,-2.806897,-4.077063,-1.7045288,104.0
18210,-0.92715836,-5.293684,-0.48457336,-4.048389,-3.880591,-1.719397,104.0
18211,0.16081238,-8.813377,0.19358826,-4.048389,-3.880591,-1.719397,104.0
18212,0.16081238,-8.813377,0.19358826,-4.0749393,-3.4823365,-0.8973999,104.0
18213,0.22464561,-15.961408,2.4876404,-4.0749393,-3.4823365,-0.8973999,104.0
18214,0.22464561,-15.961408,2.4876404,0.27506104,-4.0972414,0.8612915,104.0
18215,-0.63763046,-18.994322,3.9012146,0.27506104,-4.0972414,0.8612915,104.0
18216,-0.63763046,-18.994322,3.9012146,1.5547851,-3.4833984,3.180725,104.0
18217,0.03182602,-15.3348255,3.7846375,1.5547851,-3.4833984,3.180725,104.0
18218,0.03182602,-15.3348255,3.7846375,-0.0063720704,-2.8207033,4.3797364,104.0
18219,2.3146086,-8.368532,4.0459137,-0.0063720704,-2.8207033,4.3797364,104.0
18220,2.3146086,-8.368532,4.0459137,-0.9685547,-2.6890137,4.8353395,104.0
18221,4.5985126,-1.5963273,4.8268585,-0.9685547,-2.6890137,4.8353395,104.0
18222,4.5985126,-1.5963273,4.8268585,-1.2032593,-2.6847656,4.5878906,104.0
18223,6.2998676,3.9741101,4.931183,-1.2032593,-2.6847656,4.5878906,104.0
18224,6.2998676,3.9741101,4.931183,-0.8782837,-2.6327271,3.7786376,104.0
18225,7.3478045,9.152274,3.746704,-0.8782837,-2.6327271,3.7786376,104.0
18226,7.3478045,9.152274,3.746704,-0.84323734,-2.6008668,2.440503,104.0
18227,7.620688,14.094232,1.7908173,-0.84323734,-2.6008668,2.440503,104.0
18228,7.620688,14.094232,1.7908173,-2.2493408,-2.628479,0.7189819,104.0
18229,7.4858937,17.247395,0.11592102,-2.2493408,-2.628479,0.7189819,104.0
18230,7.4858937,17.247395,0.11592102,-4.1014895,-2.5307739,-1.1873292,104.0
18231,7.8718815,17.750553,-0.47883606,-4.1014895,-2.5307739,-1.1873292,104.0
18232,7.8718815,17.750553,-0.47883606,-3.1743531,-2.0741088,-3.3017945,104.0
18233,8.507271,15.6836815,0.40766907,-3.1743531,-2.0741088,-3.3017945,104.0
18234,8.507271,15.6836815,0.40766907,-0.8294312,-1.7077149,-4.2735353,104.0
18235,7.890106,12.259506,1.7714233,-0.8294312,-1.7077149,-4.2735353,104.0
18236,7.890106,12.259506,1.7714233,0.7742066,-1.2319336,-5.7168093,104.0
18237,6.20802,9.501343,1.8220062,0.7742066,-1.2319336,-5.7168093,104.0
18238,6.20802,9.501343,1.8220062,0.9420044,-0.8973999,-6.980603,104.0
18239,4.9972754,7.1441174,0.23800659,0.9420044,-0.8973999,-6.980603,104.0
18240,4.9972754,7.1441174,0.23800659,0.2516968,-0.540564,-7.335315,104.0
18241,4.721697,4.026182,-1.6767883,0.2516968,-0.540564,-7.335315,104.0
18242,4.721697,4.026182,-1.6767883,0.057348635,-0.043542482,-7.59657,104.0
18243,4.827235,0.59942436,-2.2392883,0.057348635,-0.043542482,-7.59657,104.0
18244,4.827235,0.59942436,-2.2392883,0.10620117,0.20496826,-7.7463136,104.0
18245,5.0161457,-2.4447403,-0.96939087,0.10620117,0.20496826,-7.7463136,104.0
18246,5.0161457,-2.4447403,-0.96939087,-0.54906005,0.270813,-7.688965,104.0
18247,5.264003,-5.8094788,0.86421204,-0.54906005,0.270813,-7.688965,104.0
18248,5.264003,-5.8094788,0.86421204,-1.9201173,0.5692383,-7.8408327,104.0
18249,5.719967,-8.7460575,1.4097748,-1.9201173,0.5692383,-7.8408327,104.0
18250,5.719967,-8.7460575,1.4097748,-2.9385865,0.544812,-7.4362063,104.0
18251,6.792185,-10.416524,0.19555664,-2.9385865,0.544812,-7.4362063,104.0
18252,6.792185,-10.416524,0.19555664,-3.9602418,0.56817627,-6.3720703,104.0
18253,9.33094,-11.887114,-0.874115,-3.9602418,0.56817627,-6.3720703,104.0
18254,9.33094,-11.887114,-0.874115,-3.9379394,0.16885987,-6.1182494,104.0
18255,11.9534,-14.051403,-0.4065094,-3.9379394,0.16885987,-6.1182494,104.0
18256,11.9534,-14.051403,-0.4065094,-2.265271,1.4262818,-3.707483,104.0
18257,11.413183,-14.999509,0.6769104,-2.265271,1.4262818,-3.707483,104.0
18258,11.413183,-14.999509,0.6769104,-1.6185058,1.080066,-2.4723632,104.0
18259,7.1148376,-13.217039,0.49479675,-1.6185058,1.080066,-2.4723632,104.0
18260,7.1148376,-13.217039,0.49479675,-1.1915772,1.3445069,0.5278198,104.0
18261,2.357067,-9.905687,-0.6940918,-1.1915772,1.3445069,0.5278198,104.0
18262,2.357067,-9.905687,-0.6940918,-1.2372437,1.6046997,1.1246704,104.0
18263,-2.9235268,-5.4194593,-1.0604706,-1.2372437,1.6046997,1.1246704,104.0
18264,-2.9235268,-5.4194593,-1.0604706,-0.6159668,1.81073,0.76677245,104.0
18265,-9.667593,-0.36239862,-1.5903015,-0.6159668,1.81073,0.76677245,104.0
18266,-9.667593,-0.36239862,-1.5903015,-0.14868164,2.2344728,-0.36745605,104.0
18267,-16.917181,3.867198,-3.1291199,-0.14868164,2.2344728,-0.36745605,104.0
18268,-16.917181,3.867198,-3.1291199,-0.9855469,2.2015502,0.56605226,104.0
18269,-21.70988,5.7550254,-4.667862,-0.9855469,2.2015502,0.56605226,104.0
18270,-21.70988,5.7550254,-4.667862,-1.5186768,1.7523193,0.69136965,104.0
18271,-21.16788,5.0416794,-5.414459,-1.5186768,1.7523193,0.69136965,104.0
18272,-21.16788,5.0416794,-5.414459,-2.3364258,1.3275146,-0.5607422,104.0
18273,-16.522305,2.885907,-4.4654236,-2.3364258,1.3275146,-0.5607422,104.0
18274,-16.522305,2.885907,-4.4654236,-2.18562,0.6180908,-0.70092773,104.0
18275,-11.457016,1.0632544,-2.938568,-2.18562,0.6180908,-0.70092773,104.0
18276,-11.457016,1.0632544,-2.938568,-1.8479004,0.26975098,-0.48215333,104.0
18277,-8.657837,0.54165566,-3.2915802,-1.8479004,0.26975098,-0.48215333,104.0
18278,-8.657837,0.54165566,-3.2915802,-1.8022339,-0.1263794,0.49064943,104.0
18279,-7.7271976,-1.668824,-4.400818,-1.8022339,-0.1263794,0.49064943,104.0
18280,-7.7271976,-1.668824,-4.400818,-1.3476928,-0.08814698,0.5957886,104.0
18281,-6.0905595,-5.6635504,-4.7250824,-1.3476928,-0.08814698,0.5957886,104.0
18282,-6.0905595,-5.6635504,-4.7250824,-2.076233,0.35152587,2.0284424,104.0
18283,-3.3559198,-7.19378,-4.7912292,-2.076233,0.35152587,2.0284424,104.0
18284,-3.3559198,-7.19378,-4.7912292,-3.1828492,-0.34940186,3.444104,104.0
18285,-0.4771433,-7.1578074,-4.437546,-3.1828492,-0.34940186,3.444104,104.0
18286,-0.4771433,-7.1578074,-4.437546,-2.1027832,-2.090039,3.524817,104.0
18287,3.5409293,-8.297144,-3.8619232,-2.1027832,-2.090039,3.524817,104.0
18288,3.5409293,-8.297144,-3.8619232,0.41843262,-3.6002197,3.80094,104.0
18289,8.98903,-10.530367,-3.6804657,0.41843262,-3.6002197,3.80094,104.0
18290,8.98903,-10.530367,-3.6804657,2.969385,-5.082788,5.520337,104.0
18291,15.546974,-13.597012,-2.81456,2.969385,-5.082788,5.520337,104.0
18292,15.546974,-13.597012,-2.81456,5.171997,-6.9795413,7.609314,104.0
18293,24.142803,-15.478916,-1.1347809,5.171997,-6.9795413,7.609314,104.0
18294,24.142803,-15.478916,-1.1347809,5.9185915,-8.607605,7.6348023,104.0
18295,29.860386,-9.934732,0.74401855,5.9185915,-8.607605,7.6348023,104.0
18296,29.860386,-9.934732,0.74401855,4.886316,-4.711084,8.582117,104.0
18297,26.019718,1.6012249,3.560028,4.886316,-4.711084,8.582117,104.0
18298,26.019718,1.6012249,3.560028,4.427527,-4.139722,8.3665285,104.0
18299,17.021938,12.27451,4.683609,4.427527,-4.139722,8.3665285,104.0
18300,17.021938,12.27451,4.683609,5.3270507,-3.3846314,6.7193484,104.0
18301,9.149424,20.715923,3.572052,5.3270507,-3.3846314,6.7193484,104.0
18302,9.149424,20.715923,3.572052,5.2537723,-2.3693483,4.3786745,104.0
18303,2.523615,26.272457,3.272873,5.2537723,-2.3693483,4.3786745,104.0
18304,2.523615,26.272457,3.272873,3.6989868,-2.447937,2.531836,104.0
18305,-3.3188763,28.194407,3.8368225,3.6989868,-2.447937,2.531836,104.0
18306,-3.3188763,28.194407,3.8368225,1.6450561,-2.0348146,1.2988404,104.0
18307,-7.317333,27.414059,4.710861,1.6450561,-2.0348146,1.2988404,104.0
18308,-7.317333,27.414059,4.710861,-0.17629395,-1.9551636,0.31329346,104.0
18309,-8.847239,24.60654,5.4385834,-0.17629395,-1.9551636,0.31329346,104.0
18310,-8.847239,24.60654,5.4385834,-1.0450195,-1.5229248,-0.27293703,104.0
18311,-9.118416,19.968729,5.195221,-1.0450195,-1.5229248,-0.27293703,104.0
18312,-9.118416,19.968729,5.195221,-1.0450195,-1.5229248,-0.27293703,0.0
18313,-9.118416,19.968729,5.195221,-0.630835,-0.9388184,-1.2213135,0.0
18314,-9.487141,13.412643,4.129669,-0.630835,-0.9388184,-1.2213135,0.0
18315,-9.487141,13.412643,4.129669,0.09451904,-1.3296387,-2.9258423,0.0
18316,-9.557571,6.7496834,3.4422302,0.09451904,-1.3296387,-2.9258423,0.0
18317,-9.557571,6.7496834,3.4422302,0.3440918,-1.6397461,-5.1284547,0.0
18318,-7.890808,2.8398094,3.6513214,0.3440918,-1.6397461,-5.1284547,0.0
18319,-7.890808,2.8398094,3.6513214,-0.9685547,-1.3891114,-6.3805666,0.0
18320,-4.704932,0.9772434,3.5028534,-0.9685547,-1.3891114,-6.3805666,0.0
18321,-4.704932,0.9772434,3.5028534,-2.5690064,-0.7423462,-6.424109,0.0
18322,-1.5453053,-1.5881386,2.0406952,-2.5690064,-0.7423462,-6.424109,0.0
18323,-1.5453053,-1.5881386,2.0406952,-2.9067261,0.07752686,-7.3172607,0.0
18324,2.1372547,-7.3634796,1.1031799,-2.9067261,0.07752686,-7.3172607,0.0
18325,2.1372547,-7.3634796,1.1031799,-1.7459472,0.29630128,-6.9253783,0.0
18326,7.861269,-16.12915,2.0335388,-1.7459472,0.29630128,-6.9253783,0.0
18327,7.861269,-16.12915,2.0335388,-3.079834,-0.93138427,-5.599988,0.0
18328,15.3638935,-20.238586,1.0107422,-3.079834,-0.93138427,-5.599988,0.0
18329,15.3638935,-20.238586,1.0107422,-5.5596313,0.4991455,-5.323865,0.0
18330,17.683474,-20.451794,-2.6496735,-5.5596313,0.4991455,-5.323865,0.0
18331,17.683474,-20.451794,-2.6496735,-8.856116,4.4827514,-2.4978516,0.0
18332,9.2693615,-21.227036,-3.8052216,-8.856116,4.4827514,-2.4978516,0.0
18333,9.2693615,-21.227036,-3.8052216,-5.6637087,2.1017213,-3.0723999,0.0
18334,-2.9983063,-17.549036,-2.5340881,-5.6637087,2.1017213,-3.0723999,0.0
18335,-2.9983063,-17.549036,-2.5340881,-3.0023072,2.3820922,-0.6616333,0.0
18336,-10.426048,-9.770504,-1.0988159,-3.0023072,2.3820922,-0.6616333,0.0
18337,-10.426048,-9.770504,-1.0988159,-2.1548219,2.165442,-0.047790527,0.0
18338,-15.096172,-3.877658,-0.11941528,-2.1548219,2.165442,-0.047790527,0.0
18339,-15.096172,-3.877658,-0.11941528,-2.8260133,2.4872315,0.88996583,0.0
18340,-22.508726,-1.5678978,-0.67214966,-2.8260133,2.4872315,0.88996583,0.0
18341,-22.508726,-1.5678978,-0.67214966,-3.3803833,3.175415,3.1286867,0.0
18342,-28.74608,-0.8388765,-2.3335266,-3.3803833,3.175415,3.1286867,0.0
18343,-28.74608,-0.8388765,-2.3335266,-1.7013428,1.4071655,1.6981567,0.0
18344,-26.550014,0.67277074,-3.6416473,-1.7013428,1.4071655,1.6981567,0.0
18345,-26.550014,0.67277074,-3.6416473,-0.17841797,1.0545777,1.8606446,0.0
18346,-19.49587,2.430221,-4.3081665,-0.17841797,1.0545777,1.8606446,0.0
18347,-19.49587,2.430221,-4.3081665,1.0715698,0.33240968,1.5919555,0.0
18348,-12.232024,2.6734493,-5.028,1.0715698,0.33240968,1.5919555,0.0
18349,-12.232024,2.6734493,-5.028,1.1618408,-0.72216797,1.4623902,0.0
18350,-4.994237,1.7016501,-6.056839,1.1618408,-0.72216797,1.4623902,0.0
18351,-4.994237,1.7016501,-6.056839,1.080066,-1.5494751,1.8946289,0.0
18352,1.2690516,0.05129811,-6.854767,1.080066,-1.5494751,1.8946289,0.0
18353,1.2690516,0.05129811,-6.854767,2.3895264,-2.5743165,2.0942872,0.0
18354,6.583149,-2.663002,-7.0910645,2.3895264,-2.5743165,2.0942872,0.0
18355,6.583149,-2.663002,-7.0910645,3.5131347,-3.3814454,3.087268,0.0
18356,12.624943,-5.8704042,-6.422943,3.5131347,-3.3814454,3.087268,0.0
18357,12.624943,-5.8704042,-6.422943,4.3053956,-4.410535,4.2830935,0.0
18358,21.321964,-8.444956,-5.3463287,4.3053956,-4.410535,4.2830935,0.0
18359,21.321964,-8.444956,-5.3463287,5.1104007,-7.2684083,4.009094,0.0
18360,31.280436,-6.913277,-5.0748444,5.1104007,-7.2684083,4.009094,0.0
18361,31.280436,-6.913277,-5.0748444,4.346814,-4.873572,3.1520507,0.0
18362,31.538912,-0.2307682,-1.4918365,4.346814,-4.873572,3.1520507,0.0
18363,31.538912,-0.2307682,-1.4918365,4.3946047,-4.0250244,4.6664796,0.0
18364,22.518423,6.5489793,4.311157,4.3946047,-4.0250244,4.6664796,0.0
18365,22.518423,6.5489793,4.311157,5.876111,-5.730615,4.3691163,0.0
18366,14.392534,12.167113,6.1830597,5.876111,-5.730615,4.3691163,0.0
18367,14.392534,12.167113,6.1830597,6.779883,-3.4504762,4.507178,0.0
18368,7.379776,17.099646,5.7484283,6.779883,-3.4504762,4.507178,0.0
18369,7.379776,17.099646,5.7484283,6.0035524,-2.7633545,4.1981325,0.0
18370,0.52789307,20.062225,5.5901794,6.0035524,-2.7633545,4.1981325,0.0
18371,0.52789307,20.062225,5.5901794,4.352124,-2.177124,4.1195436,0.0
18372,-4.4539795,20.729797,5.481491,4.352124,-2.177124,4.1195436,0.0
18373,-4.4539795,20.729797,5.481491,2.8430054,-1.9636596,3.519507,0.0
18374,-7.1206303,20.557117,4.55159,2.8430054,-1.9636596,3.519507,0.0
18375,-7.1206303,20.557117,4.55159,1.0970582,-1.5123047,2.5796266,0.0
18376,-8.34206,19.350124,3.1428528,1.0970582,-1.5123047,2.5796266,0.0
18377,-8.34206,19.350124,3.1428528,-0.052038576,-1.3041505,2.3109376,0.0
18378,-8.904079,16.333359,2.457367,-0.052038576,-1.3041505,2.3109376,0.0
18379,-8.904079,16.333359,2.457367,-0.121069334,-1.5515991,0.9568726,0.0
18380,-8.745113,12.918762,2.9634094,-0.121069334,-1.5515991,0.9568726,0.0
18381,-8.745113,12.918762,2.9634094,0.4970215,-1.4772583,-0.29736328,0.0
18382,-7.9345427,8.4348755,3.9109344,0.4970215,-1.4772583,-0.29736328,0.0
18383,-7.9345427,8.4348755,3.9109344,0.56605226,-1.4878784,-2.257837,0.0
18384,-6.0573883,3.0941887,4.424179,0.56605226,-1.4878784,-2.257837,0.0
18385,-6.0573883,3.0941887,4.424179,0.5894165,-1.1013062,-4.358496,0.0
18386,-2.9784298,-1.2901764,4.0483246,0.5894165,-1.1013062,-4.358496,0.0
18387,-2.9784298,-1.2901764,4.0483246,0.121069334,-1.1140503,-5.352539,0.0
18388,1.3337841,-7.199671,4.1025085,0.121069334,-1.1140503,-5.352539,0.0
18389,1.3337841,-7.199671,4.1025085,0.6669434,0.68924564,-5.3599734,0.0
18390,8.434446,-19.23165,6.535721,0.6669434,0.68924564,-5.3599734,0.0
18391,8.434446,-19.23165,6.535721,-1.4825684,0.42055663,-3.533313,0.0
18392,14.3404045,-28.346306,6.9513245,-1.4825684,0.42055663,-3.533313,0.0
18393,14.3404045,-28.346306,6.9513245,-2.2387207,0.3462158,-5.3982058,0.0
18394,12.6728,-27.577398,4.8050995,-2.2387207,0.3462158,-5.3982058,0.0
18395,12.6728,-27.577398,4.8050995,-8.023499,3.1541748,-2.0932252,0.0
18396,4.890888,-20.777397,2.7911987,-8.023499,3.1541748,-2.0932252,0.0
18397,4.890888,-20.777397,2.7911987,-6.3646364,3.000183,-0.60959476,0.0
18398,-4.8687344,-10.923431,1.1039886,-6.3646364,3.000183,-0.60959476,0.0
18399,-4.8687344,-10.923431,1.1039886,-2.4213867,2.986377,0.7880127,0.0
18400,-14.780668,-0.25083017,0.83117676,-2.4213867,2.986377,0.7880127,0.0
18401,-14.780668,-0.25083017,0.83117676,-0.31966552,1.7077149,1.2903442,0.0
18402,-27.4155,8.787751,1.9752655,-0.31966552,1.7077149,1.2903442,0.0
18403,-27.4155,8.787751,1.9752655,-0.34090576,1.3806152,5.78584,0.0
18404,-36.220135,13.761427,3.2899323,-0.34090576,1.3806152,5.78584,0.0
18405,-36.220135,13.761427,3.2899323,1.4358399,0.9133301,-0.36320803,0.0
18406,-32.232018,13.716503,1.9087677,1.4358399,0.9133301,-0.36320803,0.0
18407,-32.232018,13.716503,1.9087677,-0.10407715,1.263794,1.1554688,0.0
18408,-23.687553,10.081491,-4.449341,-0.10407715,1.263794,1.1554688,0.0
18409,-23.687553,10.081491,-4.449341,0.52888185,-0.18691407,0.09133301,0.0
18410,-15.151703,4.2449913,-11.522171,0.52888185,-0.18691407,0.09133301,0.0
18411,-15.151703,4.2449913,-11.522171,1.0864381,-2.0634887,-0.5384399,0.0
18412,-4.7985344,-5.5259914,-15.402725,1.0864381,-2.0634887,-0.5384399,0.0
18413,-4.7985344,-5.5259914,-15.402725,1.6854126,-3.6596925,-0.3430298,0.0
18414,6.2726593,-16.605927,-18.270279,1.6854126,-3.6596925,-0.3430298,0.0
18415,6.2726593,-16.605927,-18.270279,2.803711,-4.0282106,1.6896607,0.0
18416,16.589367,-24.610424,-20.235992,2.803711,-4.0282106,1.6896607,0.0
18417,16.589367,-24.610424,-20.235992,3.5885377,-4.1822023,5.678577,0.0
18418,24.251743,-27.444675,-17.081787,3.5885377,-4.1822023,5.678577,0.0
18419,24.251743,-27.444675,-17.081787,3.1594849,-5.1125245,6.253125,0.0
18420,29.36159,-24.032436,-8.049362,3.1594849,-5.1125245,6.253125,0.0
18421,29.36159,-24.032436,-8.049362,2.1919923,-5.528833,7.0475097,0.0
18422,31.025246,-14.475107,1.0431213,2.1919923,-5.528833,7.0475097,0.0
18423,31.025246,-14.475107,1.0431213,1.7650635,-5.525647,6.896704,0.0
18424,27.128962,-0.6588211,5.572647,1.7650635,-5.525647,6.896704,0.0
18425,27.128962,-0.6588211,5.572647,1.713025,-5.244214,6.425171,0.0
18426,19.337093,11.853875,6.390671,1.713025,-5.244214,6.425171,0.0
18427,19.337093,11.853875,6.390671,2.179248,-5.188989,5.6520267,0.0
18428,11.463913,19.12005,5.635086,2.179248,-5.188989,5.6520267,0.0
18429,11.463913,19.12005,5.635086,2.262085,-5.26864,4.9542847,0.0
18430,5.973377,20.82513,4.3624573,2.262085,-5.26864,4.9542847,0.0
18431,5.973377,20.82513,4.3624573,1.5569092,-5.3217406,2.4755495,0.0
18432,3.8934593,19.967186,3.4412384,1.5569092,-5.3217406,2.4755495,0.0
18433,3.8934593,19.967186,3.4412384,1.6822265,-3.9198854,1.7947998,0.0
18434,3.401352,18.528484,3.359848,1.6822265,-3.9198854,1.7947998,0.0
18435,3.401352,18.528484,3.359848,2.72937,-3.2773683,0.8591675,0.0
18436,2.0111198,17.16456,2.3539124,2.72937,-3.2773683,0.8591675,0.0
18437,2.0111198,17.16456,2.3539124,2.6667116,-3.7658937,-0.42374268,0.0
18438,-0.45832825,15.912788,0.1454773,2.6667116,-3.7658937,-0.42374268,0.0
18439,-0.45832825,15.912788,0.1454773,-0.47471926,-2.611487,-0.27718505,0.0
18440,-2.7725334,12.76512,-0.87635803,-0.47471926,-2.611487,-0.27718505,0.0
18441,-2.7725334,12.76512,-0.87635803,-0.47471926,-2.611487,-0.27718505,0.0
18442,-2.7725334,12.76512,-0.87635803,-2.1367676,-2.1187134,-2.9470825,0.0
18443,-4.2417946,7.923546,-0.024627686,-2.1367676,-2.1187134,-2.9470825,0.0
18444,-4.2417946,7.923546,-0.024627686,-2.532898,-2.1272094,-4.164148,0.0
18445,-4.8320103,3.942377,1.4351349,-2.532898,-2.1272094,-4.164148,0.0
18446,-4.8320103,3.942377,1.4351349,-3.0224855,-1.0577637,-5.4799805,0.0
18447,-4.7598343,1.4283028,2.4630432,-3.0224855,-1.0577637,-5.4799805,0.0
18448,-4.7598343,1.4283028,2.4630432,-3.0532837,-0.17523193,-5.9971805,0.0
18449,-3.1861877,-2.1306248,3.8441162,-3.0532837,-0.17523193,-5.9971805,0.0
18450,-3.1861877,-2.1306248,3.8441162,-1.4061035,1.4942505,-6.8361697,0.0
18451,1.7942257,-11.57579,6.8381653,-1.4061035,1.4942505,-6.8361697,0.0
18452,1.7942257,-11.57579,6.8381653,0.08496094,2.3247437,-6.4740233,0.0
18453,7.776434,-22.472473,8.707382,0.08496094,2.3247437,-6.4740233,0.0
18454,7.776434,-22.472473,8.707382,-0.6701294,1.9179932,-6.2860475,0.0
18455,9.252129,-25.66753,8.51622,-0.6701294,1.9179932,-6.2860475,0.0
18456,9.252129,-25.66753,8.51622,-6.306226,3.8497925,-4.3064575,0.0
18457,6.560871,-21.474344,7.6506195,-6.306226,3.8497925,-4.3064575,0.0
18458,6.560871,-21.474344,7.6506195,-8.062793,4.5751467,-3.2147095,0.0
18459,-3.4491558,-11.925044,1.5488129,-8.062793,4.5751467,-3.2147095,0.0
18460,-3.4491558,-11.925044,1.5488129,-2.073047,4.612317,-1.2138795,0.0
18461,-7.3563824,-6.227291,-1.109024,-2.073047,4.612317,-1.2138795,0.0
18462,-7.3563824,-6.227291,-1.109024,0.23151855,4.152466,-0.86341554,0.0
18463,-15.380772,6.736148,-6.3197937,0.23151855,4.152466,-0.86341554,0.0
18464,-15.380772,6.736148,-6.3197937,-1.448584,3.1764772,-1.6153198,0.0
18465,-14.586369,8.922195,-5.6451263,-1.448584,3.1764772,-1.6153198,0.0
18466,-14.586369,8.922195,-5.6451263,-2.707068,2.974695,-1.6588624,0.0
18467,-18.13068,13.524219,-4.409149,-2.707068,2.974695,-1.6588624,0.0
18468,-18.13068,13.524219,-4.409149,-2.2482789,1.992334,-1.3030884,0.0
18469,-16.754215,11.3365135,-2.5905762,-2.2482789,1.992334,-1.3030884,0.0
18470,-16.754215,11.3365135,-2.5905762,-0.9632446,1.4984986,-1.273352,0.0
18471,-17.78738,9.712864,-0.6240387,-0.9632446,1.4984986,-1.273352,0.0
18472,-17.78738,9.712864,-0.6240387,0.06478272,0.07965088,-0.2548828,0.0
18473,-15.851963,8.134684,-0.62680054,0.06478272,0.07965088,-0.2548828,0.0
18474,-15.851963,8.134684,-0.62680054,-0.50445557,-0.1444336,0.17416993,0.0
18475,-18.326908,7.0380936,0.32910156,-0.50445557,-0.1444336,0.17416993,0.0
18476,-18.326908,7.0380936,0.32910156,-0.8496094,-0.16142578,0.09239502,0.0
18477,-15.663271,5.3097477,0.8621521,-0.8496094,-0.16142578,0.09239502,0.0
18478,-15.663271,5.3097477,0.8621521,-1.0120972,-0.1178833,0.51082766,0.0
18479,-13.303322,1.7616043,-1.7927704,-1.0120972,-0.1178833,0.51082766,0.0
18480,-13.303322,1.7616043,-1.7927704,-0.5809204,-1.0630738,1.2956543,0.0
18481,-9.584455,-0.18902016,-2.9892883,-0.5809204,-1.0630738,1.2956543,0.0
18482,-9.584455,-0.18902016,-2.9892883,-0.32072756,-1.6832886,1.9222412,0.0
18483,-0.7510357,-9.295881,-3.1036682,-0.32072756,-1.6832886,1.9222412,0.0
18484,-0.7510357,-9.295881,-3.1036682,-0.02442627,-2.3799684,2.8812377,0.0
18485,3.0078392,-11.861693,-1.4625397,-0.02442627,-2.3799684,2.8812377,0.0
18486,3.0078392,-11.861693,-1.4625397,0.6159668,-2.3035035,4.0802493,0.0
18487,9.67706,-17.539906,0.73765564,0.6159668,-2.3035035,4.0802493,0.0
18488,9.67706,-17.539906,0.73765564,1.717273,-2.2323487,5.5606933,0.0
18489,15.151195,-20.663712,2.257309,1.717273,-2.2323487,5.5606933,0.0
18490,15.151195,-20.663712,2.257309,2.2440307,-2.0433106,8.098902,0.0
18491,18.873653,-20.321875,4.3341217,2.2440307,-2.0433106,8.098902,0.0
18492,18.873653,-20.321875,4.3341217,2.3279297,-2.5764406,8.192359,0.0
18493,22.477097,-15.5144825,5.991272,2.3279297,-2.5764406,8.192359,0.0
18494,22.477097,-15.5144825,5.991272,2.1941164,-3.4632204,7.1653934,0.0
18495,28.289833,-1.4590712,3.263794,2.1941164,-3.4632204,7.1653934,0.0
18496,28.289833,-1.4590712,3.263794,0.28674316,-3.4568481,3.170105,0.0
18497,22.561018,10.988579,-0.7107239,0.28674316,-3.4568481,3.170105,0.0
18498,22.561018,10.988579,-0.7107239,-2.6072388,-3.1116943,1.9604737,0.0
18499,13.749754,19.378998,-3.225296,-2.6072388,-3.1116943,1.9604737,0.0
18500,13.749754,19.378998,-3.225296,-3.9464357,-2.7665405,-0.5777344,0.0
18501,9.000168,19.409668,-3.3967743,-3.9464357,-2.7665405,-0.5777344,0.0
18502,9.000168,19.409668,-3.3967743,-3.0670898,-2.256775,-1.9307374,0.0
18503,4.4225826,21.54728,-2.312439,-3.0670898,-2.256775,-1.9307374,0.0
18504,4.4225826,21.54728,-2.312439,-0.4598511,-2.0486207,-4.081311,0.0
18505,2.1894817,21.995428,-0.58821106,-0.4598511,-2.0486207,-4.081311,0.0
18506,2.1894817,21.995428,-0.58821106,0.0180542,-1.8054199,-4.1099854,0.0
18507,1.3074684,19.851946,-1.0930786,0.0180542,-1.8054199,-4.1099854,0.0
18508,1.3074684,19.851946,-1.0930786,0.121069334,-1.0322754,-3.8731568,0.0
18509,0.15006256,14.303701,-2.1044006,0.121069334,-1.0322754,-3.8731568,0.0
18510,0.15006256,14.303701,-2.1044006,-0.36427003,-0.67650145,-5.0445557,0.0
18511,-1.0938301,7.2531166,-1.6004944,-0.36427003,-0.67650145,-5.0445557,0.0
18512,-1.0938301,7.2531166,-1.6004944,-1.09281,-0.45454103,-5.9249635,0.0
18513,-1.8076706,1.1594524,-0.16799927,-1.09281,-0.45454103,-5.9249635,0.0
18514,-1.8076706,1.1594524,-0.16799927,-1.7002808,-0.33665773,-5.9408937,0.0
18515,-2.346819,-2.4827156,0.39164734,-1.7002808,-0.33665773,-5.9408937,0.0
18516,-2.346819,-2.4827156,0.39164734,-2.086853,-0.0063720704,-5.4863524,0.0
18517,-2.3798103,-4.874441,0.044174194,-2.086853,-0.0063720704,-5.4863524,0.0
18518,-2.3798103,-4.874441,0.044174194,-2.5605104,0.16885987,-4.612317,0.0
18519,-0.3045311,-9.422491,0.6841278,-2.5605104,0.16885987,-4.612317,0.0
18520,-0.3045311,-9.422491,0.6841278,-3.1860352,0.5671143,-3.7648315,0.0
18521,4.0999527,-14.8269825,1.7046356,-3.1860352,0.5671143,-3.7648315,0.0
18522,4.0999527,-14.8269825,1.7046356,-2.7357423,0.7858887,-3.2348878,0.0
18523,7.2584286,-15.684486,0.92071533,-2.7357423,0.7858887,-3.2348878,0.0
18524,7.2584286,-15.684486,0.92071533,-1.9859619,2.1102173,-1.9137452,0.0
18525,4.803581,-12.701191,-0.10244751,-1.9859619,2.1102173,-1.9137452,0.0
18526,4.803581,-12.701191,-0.10244751,-1.9721558,3.0054932,-0.9451904,0.0
18527,-2.2621765,-8.720548,0.16363525,-1.9721558,3.0054932,-0.9451904,0.0
18528,-2.2621765,-8.720548,0.16363525,-1.3784913,2.3714721,-0.63826907,0.0
18529,-8.381653,-4.1398163,0.7594452,-1.3784913,2.3714721,-0.63826907,0.0
18530,-8.381653,-4.1398163,0.7594452,-1.6418701,1.8744507,-0.41737062,0.0
18531,-10.777576,0.10246563,1.0520477,-1.6418701,1.8744507,-0.41737062,0.0
18532,-10.777576,0.10246563,1.0520477,-2.9821289,1.720459,-0.29205322,0.0
18533,-11.234304,3.7531881,0.99121094,-2.9821289,1.720459,-0.29205322,0.0
18534,-11.234304,3.7531881,0.99121094,-4.5698366,1.4931885,-0.31010744,0.0
18535,-12.786943,5.8817987,1.5155792,-4.5698366,1.4931885,-0.31010744,0.0
18536,-12.786943,5.8817987,1.5155792,-4.615503,1.4878784,-0.10938721,0.0
18537,-16.22726,5.73946,2.6334991,-4.615503,1.4878784,-0.10938721,0.0
18538,-16.22726,5.73946,2.6334991,-2.1420777,1.2414917,0.90058595,0.0
18539,-20.262411,4.777506,2.808731,-2.1420777,1.2414917,0.90058595,0.0
18540,-20.262411,4.777506,2.808731,-0.65419924,1.1448487,1.270166,0.0
18541,-22.342535,4.529476,1.5704346,-0.65419924,1.1448487,1.270166,0.0
18542,-22.342535,4.529476,1.5704346,-1.9254273,1.0991821,-0.013806152,0.0
18543,-20.889275,3.2465916,0.24708557,-1.9254273,1.0991821,-0.013806152,0.0
18544,-20.889275,3.2465916,0.24708557,-3.6958008,1.5133667,-0.3727661,0.0
18545,-15.800776,-1.5919838,-0.18907166,-3.6958008,1.5133667,-0.3727661,0.0
18546,-15.800776,-1.5919838,-0.18907166,-2.2546508,0.5809204,0.8867798,0.0
18547,-9.533419,-7.411442,-0.7069397,-2.2546508,0.5809204,0.8867798,0.0
18548,-9.533419,-7.411442,-0.7069397,-0.99722904,-0.7391602,1.9657837,0.0
18549,-4.1131487,-10.959721,-2.4111786,-0.99722904,-0.7391602,1.9657837,0.0
18550,-4.1131487,-10.959721,-2.4111786,-0.6690674,-1.6556762,3.4079957,0.0
18551,1.7920256,-13.534244,-3.9493866,-0.6690674,-1.6556762,3.4079957,0.0
18552,1.7920256,-13.534244,-3.9493866,0.7327881,-3.1817873,4.716394,0.0
18553,8.900796,-16.072622,-3.7247772,0.7327881,-3.1817873,4.716394,0.0
18554,8.900796,-16.072622,-3.7247772,0.7327881,-3.1817873,4.716394,0.0
18555,8.900796,-16.072622,-3.7247772,2.005078,-3.6543825,6.090637,0.0
18556,15.956245,-18.75191,-1.80513,2.005078,-3.6543825,6.090637,0.0
18557,15.956245,-18.75191,-1.80513,1.6025757,-3.793506,8.417505,0.0
18558,21.976751,-21.88279,0.50198364,1.6025757,-3.793506,8.417505,0.0
18559,21.976751,-21.88279,0.50198364,4.150342,-4.70365,9.36482,0.0
18560,28.059406,-21.099873,1.3013458,4.150342,-4.70365,9.36482,0.0
18561,28.059406,-21.099873,1.3013458,6.2871094,-6.602527,7.0421996,0.0
18562,31.625431,-8.637466,-0.6293335,6.2871094,-6.602527,7.0421996,0.0
18563,31.625431,-8.637466,-0.6293335,5.5787477,-5.96532,4.140784,0.0
18564,28.024746,10.533093,-2.709549,5.5787477,-5.96532,4.140784,0.0
18565,28.024746,10.533093,-2.709549,3.0384157,-2.3332398,3.7319093,0.0
18566,17.750034,23.248241,-2.9321442,3.0384157,-2.3332398,3.7319093,0.0
18567,17.750034,23.248241,-2.9321442,2.543518,-1.7416992,2.1728761,0.0
18568,6.4409447,26.01871,-2.5454865,2.543518,-1.7416992,2.1728761,0.0
18569,6.4409447,26.01871,-2.5454865,2.5190918,-2.6943238,0.91757816,0.0
18570,0.24746895,25.565895,-2.7503204,2.5190918,-2.6943238,0.91757816,0.0
18571,0.24746895,25.565895,-2.7503204,0.98129886,-2.5509522,0.19541016,0.0
18572,-0.3351555,25.16098,-3.0068512,0.98129886,-2.5509522,0.19541016,0.0
18573,-0.3351555,25.16098,-3.0068512,-2.34917,-1.630188,-0.8315552,0.0
18574,0.05016136,22.593103,-2.9606934,-2.34917,-1.630188,-0.8315552,0.0
18575,0.05016136,22.593103,-2.9606934,-2.6837037,-0.55543214,-1.6418701,0.0
18576,-1.6714439,16.30516,-2.1930237,-2.6837037,-0.55543214,-1.6418701,0.0
18577,-1.6714439,16.30516,-2.1930237,-1.7544434,0.06159668,-3.622522,0.0
18578,-4.6352386,9.22323,0.20921326,-1.7544434,0.06159668,-3.622522,0.0
18579,-4.6352386,9.22323,0.20921326,-1.1363525,-0.058410645,-5.2962527,0.0
18580,-6.3762207,4.6057205,3.125763,-1.1363525,-0.058410645,-5.2962527,0.0
18581,-6.3762207,4.6057205,3.125763,-1.7109009,-0.25700685,-6.1214356,0.0
18582,-6.085083,2.718731,3.397812,-1.7109009,-0.25700685,-6.1214356,0.0
18583,-6.085083,2.718731,3.397812,-3.1435547,0.18691407,-6.237195,0.0
18584,-4.330517,1.0005703,0.7282257,-3.1435547,0.18691407,-6.237195,0.0
18585,-4.330517,1.0005703,0.7282257,-3.0511596,0.9653687,-6.4888916,0.0
18586,-0.38288116,-6.5160103,-0.34474182,-3.0511596,0.9653687,-6.4888916,0.0
18587,-0.38288116,-6.5160103,-0.34474182,-2.6762695,1.0821899,-5.250586,0.0
18588,4.4199524,-17.31702,2.9743958,-2.6762695,1.0821899,-5.250586,0.0
18589,4.4199524,-17.31702,2.9743958,-0.6064087,0.6977417,-4.9171143,0.0
18590,7.344738,-22.344206,6.2592163,-0.6064087,0.6977417,-4.9171143,0.0
18591,7.344738,-22.344206,6.2592163,-1.5898316,0.43967286,-3.2763062,0.0
18592,7.735056,-21.29414,4.5925446,-1.5898316,0.43967286,-3.2763062,0.0
18593,7.735056,-21.29414,4.5925446,-3.8338623,1.9307374,-2.6444092,0.0
18594,3.4127884,-17.533688,2.6115112,-3.8338623,1.9307374,-2.6444092,0.0
18595,3.4127884,-17.533688,2.6115112,-5.4736085,3.1860352,-1.448584,0.0
18596,-5.4022408,-11.278954,4.2270355,-5.4736085,3.1860352,-1.448584,0.0
18597,-5.4022408,-11.278954,4.2270355,-5.28457,3.2901123,-0.3451538,0.0
18598,-14.352715,-3.1386287,5.193451,-5.28457,3.2901123,-0.3451538,0.0
18599,-14.352715,-3.1386287,5.193451,-3.9400635,3.2348878,-0.047790527,0.0
18600,-20.30489,4.3552837,4.037552,-3.9400635,3.2348878,-0.047790527,0.0
18601,-20.30489,4.3552837,4.037552,-3.438794,2.714502,1.3657471,0.0
18602,-22.795425,9.006358,2.4645386,-3.438794,2.714502,1.3657471,0.0
18603,-22.795425,9.006358,2.4645386,-3.3973756,2.3714721,1.8001099,0.0
18604,-23.092651,10.232956,0.8217468,-3.3973756,2.3714721,1.8001099,0.0
18605,-23.092651,10.232956,0.8217468,-2.4670532,2.3098755,1.1406006,0.0
18606,-21.679676,9.241627,-0.76852417,-2.4670532,2.3098755,1.1406006,0.0
18607,-21.679676,9.241627,-0.76852417,-0.9770508,1.4730103,0.022302246,0.0
18608,-17.381216,7.373867,-2.525055,-0.9770508,1.4730103,0.022302246,0.0
18609,-17.381216,7.373867,-2.525055,-0.7805786,0.51826173,-0.09133301,0.0
18610,-11.33947,3.8534765,-4.496109,-0.7805786,0.51826173,-0.09133301,0.0
18611,-11.33947,3.8534765,-4.496109,-0.6945557,-0.72323,-0.90908206,0.0
18612,-5.1631174,-1.9920349,-5.2607117,-0.6945557,-0.72323,-0.90908206,0.0
18613,-5.1631174,-1.9920349,-5.2607117,-0.3695801,-1.9307374,-0.1359375,0.0
18614,1.1241326,-8.373048,-4.731476,-0.3695801,-1.9307374,-0.1359375,0.0
18615,1.1241326,-8.373048,-4.731476,1.2043213,-2.890796,2.4946656,0.0
18616,6.8041034,-12.989527,-4.241501,1.2043213,-2.890796,2.4946656,0.0
18617,6.8041034,-12.989527,-4.241501,2.6029909,-3.2327638,5.06792,0.0
18618,11.13696,-14.954439,-3.4147797,2.6029909,-3.2327638,5.06792,0.0
18619,11.13696,-14.954439,-3.4147797,3.254004,-3.6734986,6.36145,0.0
18620,14.74227,-15.668337,-0.6116791,3.254004,-3.6734986,6.36145,0.0
18621,14.74227,-15.668337,-0.6116791,1.6142578,-3.270996,7.894995,0.0
18622,19.223747,-18.028261,3.3319244,1.6142578,-3.270996,7.894995,0.0
18623,19.223747,-18.028261,3.3319244,2.989563,-4.246985,8.783899,0.0
18624,24.301985,-17.280201,4.9393463,2.989563,-4.246985,8.783899,0.0
18625,24.301985,-17.280201,4.9393463,6.4039307,-5.945142,7.2737184,0.0
18626,25.440807,-5.7801914,3.0358124,6.4039307,-5.945142,7.2737184,0.0
18627,25.440807,-5.7801914,3.0358124,6.607837,-4.2820315,5.876111,0.0
18628,19.825169,10.304167,-0.0028686523,6.607837,-4.2820315,5.876111,0.0
18629,19.825169,10.304167,-0.0028686523,3.6543825,-2.7474244,4.51355,0.0
18630,11.07123,21.312584,-2.0892944,3.6543825,-2.7474244,4.51355,0.0
18631,11.07123,21.312584,-2.0892944,1.3020264,-1.5834595,1.8372803,0.0
18632,3.4047127,23.972187,-2.4676056,1.3020264,-1.5834595,1.8372803,0.0
18633,3.4047127,23.972187,-2.4676056,1.270166,-1.1915772,1.0174073,0.0
18634,-1.6587868,21.335564,-1.9992065,1.270166,-1.1915772,1.0174073,0.0
18635,-1.6587868,21.335564,-1.9992065,2.151636,-1.9307374,-0.23895264,0.0
18636,-3.5442905,19.027092,-2.4685822,2.151636,-1.9307374,-0.23895264,0.0
18637,-3.5442905,19.027092,-2.4685822,1.0503296,-2.71875,-1.2266235,0.0
18638,-3.0818806,17.805988,-3.9505463,1.0503296,-2.71875,-1.2266235,0.0
18639,-3.0818806,17.805988,-3.9505463,-1.177771,-2.2854493,-1.9445435,0.0
18640,-2.2764301,14.340469,-4.5056305,-1.177771,-2.2854493,-1.9445435,0.0
18641,-2.2764301,14.340469,-4.5056305,-2.1165893,-1.6333741,-3.4069335,0.0
18642,-2.257557,8.477966,-2.7947083,-2.1165893,-1.6333741,-3.4069335,0.0
18643,-2.257557,8.477966,-2.7947083,-2.34386,-1.2319336,-5.063672,0.0
18644,-2.4292507,3.9815788,0.0066833496,-2.34386,-1.2319336,-5.063672,0.0
18645,-2.4292507,3.9815788,0.0066833496,-2.7113159,-0.7880127,-5.9132814,0.0
18646,-2.3931675,2.6338959,1.7671967,-2.7113159,-0.7880127,-5.9132814,0.0
18647,-2.3931675,2.6338959,1.7671967,-3.003369,-0.08071289,-5.8240724,0.0
18648,-2.1228962,1.7463379,1.8449402,-3.003369,-0.08071289,-5.8240724,0.0
18649,-2.1228962,1.7463379,1.8449402,-2.1399536,0.54693604,-6.1384277,0.0
18650,-0.6483898,-3.2845097,1.4264679,-2.1399536,0.54693604,-6.1384277,0.0
18651,-0.6483898,-3.2845097,1.4264679,-1.627002,0.22514649,-5.550073,0.0
18652,2.282753,-11.820076,2.7273712,-1.627002,0.22514649,-5.550073,0.0
18653,2.282753,-11.820076,2.7273712,-3.4154298,1.1034302,-4.158838,0.0
18654,5.8833923,-18.908028,5.225708,-3.4154298,1.1034302,-4.158838,0.0
18655,5.8833923,-18.908028,5.225708,-1.9817139,1.535669,-3.9634278,0.0
18656,9.1574955,-23.336395,4.3536377,-1.9817139,1.535669,-3.9634278,0.0
18657,9.1574955,-23.336395,4.3536377,0.57561034,1.7937378,-3.0554078,0.0
18658,7.2098217,-21.445215,1.8052826,0.57561034,1.7937378,-3.0554078,0.0
18659,7.2098217,-21.445215,1.8052826,-1.3838013,3.6034057,-1.4836304,0.0
18660,-1.3558979,-12.230293,1.9310608,-1.3838013,3.6034057,-1.4836304,0.0
18661,-1.3558979,-12.230293,1.9310608,-5.9398317,3.248694,-0.4333008,0.0
18662,-10.484316,-2.6041317,2.5786133,-5.9398317,3.248694,-0.4333008,0.0
18663,-10.484316,-2.6041317,2.5786133,-5.9472656,2.9470825,0.21240234,0.0
18664,-16.243801,4.5001907,2.5034943,-5.9472656,2.9470825,0.21240234,0.0
18665,-16.243801,4.5001907,2.5034943,-4.2873416,2.1941164,0.5883545,0.0
18666,-19.308653,9.938715,2.2264252,-4.2873416,2.1941164,0.5883545,0.0
18667,-19.308653,9.938715,2.2264252,-2.974695,2.0603027,2.0741088,0.0
18668,-21.6307,12.819441,1.9403229,-2.974695,2.0603027,2.0741088,0.0
18669,-21.6307,12.819441,1.9403229,-2.085791,2.5966187,2.814331,0.0
18670,-23.610859,12.990429,1.6115265,-2.085791,2.5966187,2.814331,0.0
18671,-23.610859,12.990429,1.6115265,-1.3126465,2.6932619,0.94731444,0.0
18672,-23.284538,10.898764,0.3118286,-1.3126465,2.6932619,0.94731444,0.0
18673,-23.284538,10.898764,0.3118286,-1.5590333,2.3013794,-0.9260742,0.0
18674,-20.643757,6.70977,-1.9374847,-1.5590333,2.3013794,-0.9260742,0.0
18675,-20.643757,6.70977,-1.9374847,-1.5335449,1.3190186,-2.2801392,0.0
18676,-16.188248,1.7052193,-3.808197,-1.5335449,1.3190186,-2.2801392,0.0
18677,-16.188248,1.7052193,-3.808197,-3.8604126,0.40356445,-0.2347046,0.0
18678,-9.791224,-6.4987144,-5.369522,-3.8604126,0.40356445,-0.2347046,0.0
18679,-9.791224,-6.4987144,-5.369522,-3.3846314,-1.4570801,-0.10301514,0.0
18680,-0.40475655,-19.071495,-6.8632965,-3.3846314,-1.4570801,-0.10301514,0.0
18681,-0.40475655,-19.071495,-6.8632965,1.1151123,-3.615088,3.1244385,0.0
18682,10.464171,-28.473492,-7.431732,1.1151123,-3.615088,3.1244385,0.0
18683,10.464171,-28.473492,-7.431732,3.9952881,-4.3223877,6.5547366,0.0
18684,18.477636,-29.3447,-5.6442413,3.9952881,-4.3223877,6.5547366,0.0
18685,18.477636,-29.3447,-5.6442413,4.3914185,-4.7503786,8.975061,0.0
18686,23.970903,-27.602016,-0.8549957,4.3914185,-4.7503786,8.975061,0.0
18687,23.970903,-27.602016,-0.8549957,3.7627075,-5.43219,10.847388,0.0
18688,29.166933,-23.82108,3.6659698,3.7627075,-5.43219,10.847388,0.0
18689,29.166933,-23.82108,3.6659698,5.0211916,-8.139258,9.770508,0.0
18690,30.903713,-10.001102,3.6571503,5.0211916,-8.139258,9.770508,0.0
18691,30.903713,-10.001102,3.6571503,4.0186524,-6.442163,6.8478518,0.0
18692,25.405857,9.856259,0.6703186,4.0186524,-6.442163,6.8478518,0.0
18693,25.405857,9.856259,0.6703186,1.2191895,-3.0224855,5.05199,0.0
18694,15.303654,23.582993,-1.6272888,1.2191895,-3.0224855,5.05199,0.0
18695,15.303654,23.582993,-1.6272888,1.632312,-1.8808228,2.8716798,0.0
18696,6.544243,26.912733,-2.3597412,1.632312,-1.8808228,2.8716798,0.0
18697,6.544243,26.912733,-2.3597412,3.6490724,-1.8489624,1.5250489,0.0
18698,1.9896431,25.885815,-1.9654083,3.6490724,-1.8489624,1.5250489,0.0
18699,1.9896431,25.885815,-1.9654083,2.698572,-1.6015137,-0.7434082,0.0
18700,1.0133324,25.328465,-1.4971161,2.698572,-1.6015137,-0.7434082,0.0
18701,1.0133324,25.328465,-1.4971161,-0.060534667,-2.438379,-0.540564,0.0
18702,1.3167324,22.878422,-2.3610382,-0.060534667,-2.438379,-0.540564,0.0
18703,1.3167324,22.878422,-2.3610382,-1.5962037,-1.5919555,-1.5632813,0.0
18704,1.3167324,22.878422,-2.3610382,-1.5962037,-1.5919555,-1.5632813,151.0
18705,0.48334312,16.846378,-3.5395966,-1.5962037,-1.5919555,-1.5632813,151.0
18706,0.48334312,16.846378,-3.5395966,-1.4103516,-1.0492676,-4.3850465,151.0
18707,-1.2465534,10.240116,-2.6971436,-1.4103516,-1.0492676,-4.3850465,151.0
18708,-1.2465534,10.240116,-2.6971436,-1.2510499,-0.6053467,-5.8410645,151.0
18709,-2.433157,6.2240143,-0.06690979,-1.2510499,-0.6053467,-5.8410645,151.0
18710,-2.433157,6.2240143,-0.06690979,-2.617859,-0.7062378,-7.179199,151.0
18711,-2.9876995,4.751026,1.3357697,-2.617859,-0.7062378,-7.179199,151.0
18712,-2.9876995,4.751026,1.3357697,-3.530127,-0.45347902,-7.5817018,151.0
18713,-2.897068,3.5674095,0.47909546,-3.530127,-0.45347902,-7.5817018,151.0
18714,-2.897068,3.5674095,0.47909546,-3.4780884,-0.08496094,-8.207227,151.0
18715,0.058834076,-2.6958275,-0.2619934,-3.4780884,-0.08496094,-8.207227,151.0
18716,0.058834076,-2.6958275,-0.2619934,-4.884192,-1.0174073,-6.9052005,151.0
18717,5.8478355,-14.926376,0.5814667,-4.884192,-1.0174073,-6.9052005,151.0
18718,5.8478355,-14.926376,0.5814667,-5.504407,2.4086425,-6.0056763,151.0
18719,8.246555,-24.03601,3.35672,-5.504407,2.4086425,-6.0056763,151.0
18720,8.246555,-24.03601,3.35672,0.06478272,3.0277956,-6.1798463,151.0
18721,6.065567,-25.61178,4.171646,0.06478272,3.0277956,-6.1798463,151.0
18722,6.065567,-25.61178,4.171646,0.63933104,0.7880127,-3.8625367,151.0
18723,1.4615135,-19.890461,2.696289,0.63933104,0.7880127,-3.8625367,151.0
18724,1.4615135,-19.890461,2.696289,-6.066211,2.9587648,-1.8829468,151.0
18725,-5.378702,-10.838822,3.5878448,-6.066211,2.9587648,-1.8829468,151.0
18726,-5.378702,-10.838822,3.5878448,-10.83783,3.7542114,-0.68074954,151.0
18727,-13.56263,-4.536805,5.0552063,-10.83783,3.7542114,-0.68074954,151.0
18728,-13.56263,-4.536805,5.0552063,-6.660938,3.1520507,-0.35789797,151.0
18729,-20.937202,0.89290714,4.8456116,-6.660938,3.1520507,-0.35789797,151.0
18730,-20.937202,0.89290714,4.8456116,-1.9551636,2.1781862,1.09281,151.0
18731,-25.703022,7.736067,4.070938,-1.9551636,2.1781862,1.09281,151.0
18732,-25.703022,7.736067,4.070938,-1.2489258,2.1526978,2.622107,151.0
18733,-26.970083,12.722069,3.5331726,-1.2489258,2.1526978,2.622107,151.0
18734,-26.970083,12.722069,3.5331726,-0.9505005,2.3013794,1.7884277,151.0
18735,-25.83831,14.206525,1.5152283,-0.9505005,2.3013794,1.7884277,151.0
18736,-25.83831,14.206525,1.5152283,-1.7565674,2.453247,1.5972656,151.0
18737,-23.582111,11.919138,-1.1019287,-1.7565674,2.453247,1.5972656,151.0
18738,-23.582111,11.919138,-1.1019287,-2.3980224,1.1119263,-0.47578126,151.0
18739,-18.402273,6.8501053,-1.4169312,-2.3980224,1.1119263,-0.47578126,151.0
18740,-18.402273,6.8501053,-1.4169312,-2.7612305,0.5278198,-1.7055908,151.0
18741,-10.036162,0.8658867,-1.3869171,-2.7612305,0.5278198,-1.7055908,151.0
18742,-10.036162,0.8658867,-1.3869171,-2.7782228,-0.89421386,-0.57454836,151.0
18743,-2.7244377,-7.102359,-3.6991882,-2.7782228,-0.89421386,-0.57454836,151.0
18744,-2.7244377,-7.102359,-3.6991882,-1.1554688,-2.804773,-0.3695801,151.0
18745,4.9427156,-16.874441,-6.211426,-1.1554688,-2.804773,-0.3695801,151.0
18746,4.9427156,-16.874441,-6.211426,2.0496826,-4.168396,2.6571534,151.0
18747,14.1211405,-24.21519,-6.36882,2.0496826,-4.168396,2.6571534,151.0
18748,14.1211405,-24.21519,-6.36882,6.605713,-4.595325,7.354431,151.0
18749,20.51426,-25.537033,-3.598236,6.605713,-4.595325,7.354431,151.0
18750,20.51426,-25.537033,-3.598236,6.407117,-4.619751,8.191297,151.0
18751,25.840815,-23.444508,1.9245453,6.407117,-4.619751,8.191297,151.0
18752,25.840815,-23.444508,1.9245453,5.97594,-6.078955,9.570849,151.0
18753,32.955246,-17.48848,4.343033,5.97594,-6.078955,9.570849,151.0
18754,32.955246,-17.48848,4.343033,7.8440185,-9.268176,7.145215,151.0
18755,33.875122,-2.0885134,1.6318512,7.8440185,-9.268176,7.145215,151.0
18756,33.875122,-2.0885134,1.6318512,5.5532594,-1.6609863,6.8839602,151.0
18757,23.504982,15.50259,-1.072403,5.5532594,-1.6609863,6.8839602,151.0
18758,23.504982,15.50259,-1.072403,2.0284424,-0.3525879,5.809204,151.0
18759,9.04599,24.782589,-2.29216,2.0284424,-0.3525879,5.809204,151.0
18760,9.04599,24.782589,-2.29216,-0.12956543,-0.09770508,3.6639404,151.0
18761,-0.8782959,25.572643,-2.5305176,-0.12956543,-0.09770508,3.6639404,151.0
18762,-0.8782959,25.572643,-2.5305176,-0.42055663,-0.97067875,1.5887696,151.0
18763,-4.114868,22.58746,-1.6822357,-0.42055663,-0.97067875,1.5887696,151.0
18764,-4.114868,22.58746,-1.6822357,0.5586182,-1.2425537,0.14655761,151.0
18765,-2.5414677,20.623251,-1.2358856,0.5586182,-1.2425537,0.14655761,151.0
18766,-2.5414677,20.623251,-1.2358856,-0.40250245,-1.718335,-0.9568726,151.0
18767,-0.0019111633,20.955658,-2.3199768,-0.40250245,-1.718335,-0.9568726,151.0
18768,-0.0019111633,20.955658,-2.3199768,-0.8028809,-1.350879,-1.4687623,151.0
18769,0.5139141,19.205677,-4.1335907,-0.8028809,-1.350879,-1.4687623,151.0
18770,0.5139141,19.205677,-4.1335907,-1.1905152,-1.1554688,-2.8918579,151.0
18771,-1.0709991,12.996513,-3.886856,-1.1905152,-1.1554688,-2.8918579,151.0
18772,-1.0709991,12.996513,-3.886856,-1.002539,-0.025488282,-5.6722045,151.0
18773,-2.7571163,6.6297417,-0.7413025,-1.002539,-0.025488282,-5.6722045,151.0
18774,-2.7571163,6.6297417,-0.7413025,-1.5229248,-0.3802002,-7.0475097,151.0
18775,-3.0163002,2.6485806,2.589798,-1.5229248,-0.3802002,-7.0475097,151.0
18776,-3.0163002,2.6485806,2.589798,-2.1006591,-0.16354981,-7.608252,151.0
18777,-1.1666546,-2.2388992,3.4836578,-2.1006591,-0.16354981,-7.608252,151.0
18778,-1.1666546,-2.2388992,3.4836578,-1.713025,-0.095581055,-7.4882445,151.0
18779,2.978115,-12.058685,3.3839264,-1.713025,-0.095581055,-7.4882445,151.0
18780,2.978115,-12.058685,3.3839264,-1.4039795,0.6701294,-6.215955,151.0
18781,6.553623,-22.447496,4.8923645,-1.4039795,0.6701294,-6.215955,151.0
18782,6.553623,-22.447496,4.8923645,-0.6573853,1.2542359,-5.544763,151.0
18783,7.397135,-26.575588,5.1736755,-0.6573853,1.2542359,-5.544763,151.0
18784,7.397135,-26.575588,5.1736755,-3.5120728,0.81668705,-4.252295,151.0
18785,4.162031,-24.347847,3.7045746,-3.5120728,0.81668705,-4.252295,151.0
18786,4.162031,-24.347847,3.7045746,-6.4750857,3.0054932,-2.7336183,151.0
18787,-3.5419827,-17.016682,3.9229584,-6.4750857,3.0054932,-2.7336183,151.0
18788,-3.5419827,-17.016682,3.9229584,-6.5589843,2.7357423,-1.4326538,151.0
18789,-11.5935955,-6.9497714,4.4429626,-6.5589843,2.7357423,-1.4326538,151.0
18790,-11.5935955,-6.9497714,4.4429626,-3.4887085,2.3332398,-0.5235718,151.0
18791,-16.74707,2.712534,3.5711365,-3.4887085,2.3332398,-0.5235718,151.0
18792,-16.74707,2.712534,3.5711365,-1.8786987,1.9233032,0.31435546,151.0
18793,-18.80371,10.15909,2.1347961,-1.8786987,1.9233032,0.31435546,151.0
18794,-18.80371,10.15909,2.1347961,-2.0082643,1.450708,0.7062378,151.0
18795,-19.218067,13.625978,1.088501,-2.0082643,1.450708,0.7062378,151.0
18796,-19.218067,13.625978,1.088501,-2.9821289,1.713025,0.9834229,151.0
18797,-20.480045,13.096084,1.1455383,-2.9821289,1.713025,0.9834229,151.0
18798,-20.480045,13.096084,1.1455383,-2.8812377,2.272705,1.3285767,151.0
18799,-22.532473,10.352929,2.218277,-2.8812377,2.272705,1.3285767,151.0
18800,-22.532473,10.352929,2.218277,-1.5855836,2.337488,-0.06265869,151.0
18801,-22.251211,6.8433056,2.5534668,-1.5855836,2.337488,-0.06265869,151.0
18802,-22.251211,6.8433056,2.5534668,-1.3848633,2.34386,-1.716211,151.0
18803,-18.870342,2.6648674,0.5182953,-1.3848633,2.34386,-1.716211,151.0
18804,-18.870342,2.6648674,0.5182953,-3.0373535,1.6705445,-0.050976563,151.0
18805,-14.2276945,-2.11829,-2.41745,-3.0373535,1.6705445,-0.050976563,151.0
18806,-14.2276945,-2.11829,-2.41745,-4.231055,0.6796875,0.29630128,151.0
18807,-7.703945,-9.471219,-4.2054596,-4.231055,0.6796875,0.29630128,151.0
18808,-7.703945,-9.471219,-4.2054596,-0.9876709,-1.8415283,1.4645141,151.0
18809,0.6742821,-17.22235,-5.5011444,-0.9876709,-1.8415283,1.4645141,151.0
18810,0.6742821,-17.22235,-5.5011444,2.9290283,-3.902893,3.5205688,151.0
18811,8.584542,-20.1521,-6.784439,2.9290283,-3.902893,3.5205688,151.0
18812,8.584542,-20.1521,-6.784439,4.528418,-4.6494875,5.9918704,151.0
18813,14.965778,-20.37998,-6.1671753,4.528418,-4.6494875,5.9918704,151.0
18814,14.965778,-20.37998,-6.1671753,5.3546634,-4.7588744,8.816821,151.0
18815,21.91652,-21.917315,-2.585022,5.3546634,-4.7588744,8.816821,151.0
18816,21.91652,-21.917315,-2.585022,6.3826904,-5.500159,9.6897955,151.0
18817,29.25951,-21.113966,1.2536469,6.3826904,-5.500159,9.6897955,151.0
18818,29.25951,-21.113966,1.2536469,7.169641,-7.3576174,8.502466,151.0
18819,32.70972,-10.97567,0.81578064,7.169641,-7.3576174,8.502466,151.0
18820,32.70972,-10.97567,0.81578064,6.885022,-6.537744,5.878235,151.0
18821,28.74545,6.118866,-3.044571,6.885022,-6.537744,5.878235,151.0
18822,28.74545,6.118866,-3.044571,2.3789062,-2.0284424,4.442395,151.0
18823,18.543259,20.377758,-4.9579773,2.3789062,-2.0284424,4.442395,151.0
18824,18.543259,20.377758,-4.9579773,-1.0004151,0.29205322,3.08302,151.0
18825,6.951441,25.183897,-3.2436523,-1.0004151,0.29205322,3.08302,151.0
18826,6.951441,25.183897,-3.2436523,-0.8623535,-0.1731079,1.5431031,151.0
18827,-0.04043579,24.701366,-1.4792023,-0.8623535,-0.1731079,1.5431031,151.0
18828,-0.04043579,24.701366,-1.4792023,1.6907227,-2.6815796,0.62340087,151.0
18829,-0.27750206,25.187021,-2.1988983,1.6907227,-2.6815796,0.62340087,151.0
18830,-0.27750206,25.187021,-2.1988983,1.3285767,-0.9717407,-0.7540283,151.0
18831,1.4709549,25.001816,-3.3193054,1.3285767,-0.9717407,-0.7540283,151.0
18832,1.4709549,25.001816,-3.3193054,-0.30373535,-1.4061035,-0.97492677,151.0
18833,0.66472626,19.827795,-2.8473206,-0.30373535,-1.4061035,-0.97492677,151.0
18834,0.66472626,19.827795,-2.8473206,-0.96643066,-1.0673218,-3.1116943,151.0
18835,-1.8946953,11.556595,-0.819458,-0.96643066,-1.0673218,-3.1116943,151.0
18836,-1.8946953,11.556595,-0.819458,-1.3137085,-1.4177856,-5.3026247,151.0
18837,-3.0912209,6.0591316,1.1755676,-1.3137085,-1.4177856,-5.3026247,151.0
18838,-3.0912209,6.0591316,1.1755676,-2.3651001,-1.62594,-6.3869386,151.0
18839,-2.2763329,3.8225613,1.4921875,-2.3651001,-1.62594,-6.3869386,151.0
18840,-2.2763329,3.8225613,1.4921875,-3.0692139,-0.40037844,-6.49845,151.0
18841,-1.1375351,0.37156105,1.6493683,-3.0692139,-0.40037844,-6.49845,151.0
18842,-1.1375351,0.37156105,1.6493683,-2.0252564,0.060534667,-6.8149295,151.0
18843,-1.1375351,0.37156105,1.6493683,-2.0252564,0.060534667,-6.8149295,148.0
18844,0.27573967,-6.0239296,2.8535156,-2.0252564,0.060534667,-6.8149295,148.0
18845,0.27573967,-6.0239296,2.8535156,-1.4592041,-0.33665773,-6.967859,148.0
18846,2.9092407,-13.136856,4.448395,-1.4592041,-0.33665773,-6.967859,148.0
18847,2.9092407,-13.136856,4.448395,-2.5987427,0.0722168,-6.080017,148.0
18848,6.922144,-19.709229,4.8780365,-2.5987427,0.0722168,-6.080017,148.0
18849,6.922144,-19.709229,4.8780365,-3.6458862,0.7720825,-5.9260254,148.0
18850,9.111067,-24.39297,3.9237976,-3.6458862,0.7720825,-5.9260254,148.0
18851,9.111067,-24.39297,3.9237976,-5.374841,2.7824707,-4.2841554,148.0
18852,4.3252907,-22.881039,3.8487701,-5.374841,2.7824707,-4.2841554,148.0
18853,4.3252907,-22.881039,3.8487701,-7.5827637,2.6805177,-2.1558838,148.0
18854,-5.8010216,-14.016489,4.204712,-7.5827637,2.6805177,-2.1558838,148.0
18855,-5.8010216,-14.016489,4.204712,-7.3469973,3.1456788,-0.34940186,148.0
18856,-14.958153,-2.671333,3.797699,-7.3469973,3.1456788,-0.34940186,148.0
18857,-14.958153,-2.671333,3.797699,-4.34469,2.7516725,0.12850343,148.0
18858,-20.173212,6.1122622,3.8274994,-4.34469,2.7516725,0.12850343,148.0
18859,-20.173212,6.1122622,3.8274994,-2.151636,2.4978516,0.54693604,148.0
18860,-21.608906,10.322464,3.8459625,-2.151636,2.4978516,0.54693604,148.0
18861,-21.608906,10.322464,3.8459625,-1.9360474,2.541394,0.5511841,148.0
18862,-22.403324,10.932581,2.1512756,-1.9360474,2.541394,0.5511841,148.0
18863,-22.403324,10.932581,2.1512756,-2.618921,2.9003541,1.538855,148.0
18864,-25.358608,9.806282,-0.12580872,-2.618921,2.9003541,1.538855,148.0
18865,-25.358608,9.806282,-0.12580872,-2.3343017,2.4989135,0.4704712,148.0
18866,-25.767063,7.533038,-0.69659424,-2.3343017,2.4989135,0.4704712,148.0
18867,-25.767063,7.533038,-0.69659424,-1.5006226,1.5282348,-1.0821899,148.0
18868,-20.828152,4.198427,-1.304596,-1.5006226,1.5282348,-1.0821899,148.0
18869,-20.828152,4.198427,-1.304596,-2.7739747,2.2057984,-0.8326172,148.0
18870,-15.066746,0.6445942,-3.9508667,-2.7739747,2.2057984,-0.8326172,148.0
18871,-15.066746,0.6445942,-3.9508667,-2.7569826,0.10301514,0.24320069,148.0
18872,-8.852505,-4.024645,-6.1637726,-2.7569826,0.10301514,0.24320069,148.0
18873,-8.852505,-4.024645,-6.1637726,0.5320679,-2.7283082,1.1034302,148.0
18874,-0.45104694,-10.686477,-6.339493,0.5320679,-2.7283082,1.1034302,148.0
18875,-0.45104694,-10.686477,-6.339493,1.5176147,-3.8795288,2.714502,148.0
18876,7.674344,-17.377966,-6.647583,1.5176147,-3.8795288,2.714502,148.0
18877,7.674344,-17.377966,-6.647583,2.3162477,-5.3737793,4.871448,148.0
18878,14.736143,-23.212273,-6.5582733,2.3162477,-5.3737793,4.871448,148.0
18879,14.736143,-23.212273,-6.5582733,2.896106,-4.923486,8.009692,148.0
18880,22.36356,-28.30462,-3.4023743,2.896106,-4.923486,8.009692,148.0
18881,22.36356,-28.30462,-3.4023743,4.2671633,-5.610608,10.680652,148.0
18882,31.16121,-29.246529,0.74331665,4.2671633,-5.610608,10.680652,148.0
18883,31.16121,-29.246529,0.74331665,6.961487,-7.868445,10.305762,148.0
18884,37.206482,-18.507881,1.8987427,6.961487,-7.868445,10.305762,148.0
18885,37.206482,-18.507881,1.8987427,7.9311037,-7.7133913,7.615686,148.0
18886,34.46724,2.302948,0.04573059,7.9311037,-7.7133913,7.615686,148.0
18887,34.46724,2.302948,0.04573059,4.595325,-2.362976,6.502698,148.0
18888,22.343384,20.878479,-1.3413391,4.595325,-2.362976,6.502698,148.0
18889,22.343384,20.878479,-1.3413391,0.61915284,-0.6680054,4.5379763,148.0
18890,7.141382,28.355482,-0.0693512,0.61915284,-0.6680054,4.5379763,148.0
18891,7.141382,28.355482,-0.0693512,-0.8973999,-1.175647,2.6359131,148.0
18892,-2.7175465,26.839207,2.177765,-0.8973999,-1.175647,2.6359131,148.0
18893,-2.7175465,26.839207,2.177765,-0.081774905,-2.352356,0.49171144,148.0
18894,-3.701662,23.361576,2.2169342,-0.081774905,-2.352356,0.49171144,148.0
18895,-3.701662,23.361576,2.2169342,1.2340577,-3.4929566,-0.9855469,148.0
18896,0.96774864,22.403446,-0.98091125,1.2340577,-3.4929566,-0.9855469,148.0
18897,0.96774864,22.403446,-0.98091125,1.1427246,-1.8415283,-0.725354,148.0
18898,3.3610992,21.475101,-4.458252,1.1427246,-1.8415283,-0.725354,148.0
18899,3.3610992,21.475101,-4.458252,0.008496094,-0.22408448,-1.3073364,148.0
18900,-0.5225582,16.88992,-4.7562103,0.008496094,-0.22408448,-1.3073364,148.0
18901,-0.5225582,16.88992,-4.7562103,0.21346436,0.10089111,-3.2306397,148.0
18902,-5.941681,11.242746,-1.7424164,0.21346436,0.10089111,-3.2306397,148.0
18903,-5.941681,11.242746,-1.7424164,-0.7072998,-0.6818115,-6.3030396,148.0
18904,-7.199585,7.5015106,1.6232605,-0.7072998,-0.6818115,-6.3030396,148.0
18905,-7.199585,7.5015106,1.6232605,-2.5605104,-0.542688,-7.608252,148.0
18906,-4.596363,4.9591312,2.2550354,-2.5605104,-0.542688,-7.608252,148.0
18907,-4.596363,4.9591312,2.2550354,-3.2922363,0.17735596,-8.086158,148.0
18908,-1.714653,2.5048294,0.54000854,-3.2922363,0.17735596,-8.086158,148.0
18909,-1.714653,2.5048294,0.54000854,-2.8355713,0.84323734,-8.71593,148.0
18910,-1.714653,2.5048294,0.54000854,-2.8355713,0.84323734,-8.71593,148.0
18911,1.3734436,-3.171259,0.37960815,-2.8355713,0.84323734,-8.71593,148.0
18912,1.3734436,-3.171259,0.37960815,-2.7198122,0.050976563,-8.452552,148.0
18913,7.7471924,-15.188801,2.6828156,-2.7198122,0.050976563,-8.452552,148.0
18914,7.7471924,-15.188801,2.6828156,-5.338733,-0.6605713,-7.1781373,148.0
18915,15.296886,-24.985977,2.8492432,-5.338733,-0.6605713,-7.1781373,148.0
18916,15.296886,-24.985977,2.8492432,-5.4959106,2.7346802,-6.6917357,148.0
18917,14.636814,-28.391762,1.8329315,-5.4959106,2.7346802,-6.6917357,148.0
18918,14.636814,-28.391762,1.8329315,-4.2172484,3.1966553,-3.6342041,148.0
18919,3.4364777,-23.892645,2.825348,-4.2172484,3.1966553,-3.6342041,148.0
18920,3.4364777,-23.892645,2.825348,-2.709192,3.161609,-2.257837,148.0
18921,-9.553688,-11.498552,3.8135986,-2.709192,3.161609,-2.257837,148.0
18922,-9.553688,-11.498552,3.8135986,-2.9683228,3.449414,-1.2595459,148.0
18923,-19.185017,-0.09321427,3.876114,-2.9683228,3.449414,-1.2595459,148.0
18924,-19.185017,-0.09321427,3.876114,-3.4865844,2.6061769,-1.5951416,148.0
18925,-25.470316,6.5009413,4.1871643,-3.4865844,2.6061769,-1.5951416,148.0
18926,-25.470316,6.5009413,4.1871643,-4.0452027,2.360852,-0.813501,148.0
18927,-29.103134,8.960409,3.7365417,-4.0452027,2.360852,-0.813501,148.0
18928,-29.103134,8.960409,3.7365417,-4.1046753,2.913098,0.6000366,148.0
18929,-30.510048,8.498626,0.79000854,-4.1046753,2.913098,0.6000366,148.0
18930,-30.510048,8.498626,0.79000854,-4.071753,3.346399,0.20390625,148.0
18931,-29.4528,6.4414663,-1.901062,-4.071753,3.346399,0.20390625,148.0
18932,-29.4528,6.4414663,-1.901062,-4.066443,1.9636596,-1.0195312,148.0
18933,-23.536728,3.4809933,-1.0271301,-4.066443,1.9636596,-1.0195312,148.0
18934,-23.536728,3.4809933,-1.0271301,-4.231055,1.2255615,-0.6000366,148.0
18935,-15.268677,-0.18626213,0.7286682,-4.231055,1.2255615,-0.6000366,148.0
18936,-15.268677,-0.18626213,0.7286682,-3.533313,0.19753419,0.07646485,148.0
18937,-8.521387,-3.7352772,-0.36253357,-3.533313,0.19753419,0.07646485,148.0
18938,-8.521387,-3.7352772,-0.36253357,-2.5955567,-1.9657837,1.183081,148.0
18939,-2.0042067,-8.016676,-3.285675,-2.5955567,-1.9657837,1.183081,148.0
18940,-2.0042067,-8.016676,-3.285675,0.23895264,-4.246985,2.1165893,148.0
18941,5.2840242,-13.33114,-5.279724,0.23895264,-4.246985,2.1165893,148.0
18942,5.2840242,-13.33114,-5.279724,2.5498903,-5.3790894,4.0005984,148.0
18943,12.420214,-16.661554,-5.616974,2.5498903,-5.3790894,4.0005984,148.0
18944,12.420214,-16.661554,-5.616974,3.5046387,-6.0778933,6.9561768,148.0
18945,18.495754,-18.383125,-4.5776215,3.5046387,-6.0778933,6.9561768,148.0
18946,18.495754,-18.383125,-4.5776215,5.2081056,-6.1267457,8.159436,148.0
18947,24.852829,-20.786285,-3.3142242,5.2081056,-6.1267457,8.159436,148.0
18948,24.852829,-20.786285,-3.3142242,6.261621,-6.9190063,9.272425,148.0
18949,34.08075,-19.2074,-4.573715,6.261621,-6.9190063,9.272425,148.0
18950,34.08075,-19.2074,-4.573715,6.044971,-10.439575,6.773511,148.0
18951,39.387867,-5.1537495,-6.174835,6.044971,-10.439575,6.773511,148.0
18952,39.387867,-5.1537495,-6.174835,3.7818239,-0.5150757,6.5908446,148.0
18953,32.770805,4.606786,-5.0801697,3.7818239,-0.5150757,6.5908446,148.0
18954,32.770805,4.606786,-5.0801697,3.087268,-1.0205933,6.69917,148.0
18955,9.747635,27.031279,1.2875061,3.087268,-1.0205933,6.69917,148.0
18956,9.747635,27.031279,1.2875061,2.7442384,-2.4489992,3.4929566,148.0
18957,2.5733032,25.852367,2.001007,2.7442384,-2.4489992,3.4929566,148.0
18958,2.5733032,25.852367,2.001007,3.245508,-2.4819214,2.623169,148.0
18959,-4.1192627,29.677242,3.7282867,3.245508,-2.4819214,2.623169,148.0
18960,-4.1192627,29.677242,3.7282867,2.8515015,-2.8727417,1.0248413,148.0
18961,-2.9630241,26.669834,2.7987976,2.8515015,-2.8727417,1.0248413,148.0
18962,-2.9630241,26.669834,2.7987976,1.1395386,-3.2901123,1.2075074,148.0
18963,-1.2000694,27.62819,-1.1764526,1.1395386,-3.2901123,1.2075074,148.0
18964,-1.2000694,27.62819,-1.1764526,-2.1919923,-2.076233,-0.68074954,148.0
18965,-1.4665375,21.90205,-2.582901,-2.1919923,-2.076233,-0.68074954,148.0
18966,-1.4665375,21.90205,-2.582901,-1.5016845,-1.5123047,-1.544165,148.0
18967,-5.2994385,11.629698,-0.7688446,-1.5016845,-1.5123047,-1.544165,148.0
18968,-5.2994385,11.629698,-0.7688446,-1.2244996,-1.363623,-6.057715,148.0
18969,-5.417824,8.336168,1.1936798,-1.2244996,-1.363623,-6.057715,148.0
18970,-5.417824,8.336168,1.1936798,-1.809668,-1.6078857,-7.0124636,148.0
18971,-3.6254807,4.6329727,3.6074677,-1.809668,-1.6078857,-7.0124636,148.0
18972,-3.6254807,4.6329727,3.6074677,-3.4037476,-0.49064943,-7.8280883,148.0
18973,-2.514885,3.354681,2.4724426,-3.4037476,-0.49064943,-7.8280883,148.0
18974,-2.514885,3.354681,2.4724426,-3.1393068,0.090270996,-8.243335,148.0
18975,3.2356873,-9.383846,2.0609894,-3.1393068,0.090270996,-8.243335,148.0
18976,3.2356873,-9.383846,2.0609894,-3.078772,-0.22514649,-6.2817993,148.0
18977,5.429798,-14.270639,3.4043274,-3.078772,-0.22514649,-6.2817993,148.0
18978,5.429798,-14.270639,3.4043274,-5.330237,0.3727661,-5.684949,148.0
18979,16.045292,-31.07861,3.0003052,-5.330237,0.3727661,-5.684949,148.0
18980,16.045292,-31.07861,3.0003052,-6.8563476,3.9209473,-4.065381,148.0
18981,13.422634,-29.78353,1.6660614,-6.8563476,3.9209473,-4.065381,148.0
18982,13.422634,-29.78353,1.6660614,-7.319385,5.318555,-2.5796266,148.0
18983,4.0170517,-27.296928,0.6163635,-7.319385,5.318555,-2.5796266,148.0
18984,4.0170517,-27.296928,0.6163635,-6.6694336,4.2172484,-1.9732178,148.0
18985,-9.631416,-14.922212,3.608673,-6.6694336,4.2172484,-1.9732178,148.0
18986,-9.631416,-14.922212,3.608673,-4.4477053,4.4084105,0.12213135,148.0
18987,-19.305708,-0.20616508,5.9408417,-4.4477053,4.4084105,0.12213135,148.0
18988,-19.305708,-0.20616508,5.9408417,-2.2493408,3.9687378,0.6775635,148.0
18989,-25.559496,9.779441,5.9824524,-2.2493408,3.9687378,0.6775635,148.0
18990,-25.559496,9.779441,5.9824524,-1.6089478,4.1216674,2.0103881,148.0
18991,-33.91547,14.361406,3.1526642,-1.6089478,4.1216674,2.0103881,148.0
18992,-33.91547,14.361406,3.1526642,-0.91120607,4.336194,0.25913087,148.0
18993,-29.930716,12.047781,1.8236237,-0.91120607,4.336194,0.25913087,148.0
18994,-29.930716,12.047781,1.8236237,-1.0779419,4.0452027,-0.0998291,148.0
18995,-25.186602,10.337078,-0.23001099,-1.0779419,4.0452027,-0.0998291,148.0
18996,-25.186602,10.337078,-0.23001099,-3.4143677,4.1248536,-0.20390625,148.0
18997,-19.227749,7.153391,-2.1910095,-3.4143677,4.1248536,-0.20390625,148.0
18998,-19.227749,7.153391,-2.1910095,-4.615503,3.256128,-1.6992188,148.0
18999,-13.561325,2.5603352,-3.6302338,-4.615503,3.256128,-1.6992188,148.0
19000,-13.561325,2.5603352,-3.6302338,-3.8317382,1.7512573,-1.720459,148.0
19001,-8.511133,-1.6839466,-5.241089,-3.8317382,1.7512573,-1.720459,148.0
19002,-8.511133,-1.6839466,-5.241089,-4.615503,0.025488282,-0.68924564,148.0
19003,-4.2850294,-6.6037006,-7.806244,-4.615503,0.025488282,-0.68924564,148.0
19004,-4.2850294,-6.6037006,-7.806244,-2.8727417,-3.3262208,0.14655761,148.0
19005,2.0626383,-13.41133,-10.550293,-2.8727417,-3.3262208,0.14655761,148.0
19006,2.0626383,-13.41133,-10.550293,2.7707887,-5.25271,1.7098389,148.0
19007,10.053773,-19.777527,-11.038193,2.7707887,-5.25271,1.7098389,148.0
19008,10.053773,-19.777527,-11.038193,4.319202,-5.9228396,4.9479127,148.0
19009,16.321608,-21.896423,-7.768509,4.319202,-5.9228396,4.9479127,148.0
19010,16.321608,-21.896423,-7.768509,3.5141969,-6.8892703,7.7590575,148.0
19011,20.69735,-22.436096,-2.389145,3.5141969,-6.8892703,7.7590575,148.0
19012,20.69735,-22.436096,-2.389145,4.506116,-6.9136963,10.026453,148.0
19013,26.784698,-23.77898,2.1135406,4.506116,-6.9136963,10.026453,148.0
19014,26.784698,-23.77898,2.1135406,6.4740233,-9.636695,10.013709,148.0
19015,34.66915,-18.085709,0.82025146,6.4740233,-9.636695,10.013709,148.0
19016,34.66915,-18.085709,0.82025146,7.040076,-11.522827,7.3618655,148.0
19017,35.64825,1.0486698,-1.819931,7.040076,-11.522827,7.3618655,148.0
19018,35.64825,1.0486698,-1.819931,3.911389,-1.4230957,7.2110596,148.0
19019,23.711094,21.900093,0.19137573,3.911389,-1.4230957,7.2110596,148.0
19020,23.711094,21.900093,0.19137573,0.4980835,-2.4224489,4.9351687,148.0
19021,8.223637,31.223078,3.5048523,0.4980835,-2.4224489,4.9351687,148.0
19022,8.223637,31.223078,3.5048523,-0.901648,-3.2901123,1.8542725,148.0
19023,0.86167145,31.586935,4.1460266,-0.901648,-3.2901123,1.8542725,148.0
19024,0.86167145,31.586935,4.1460266,0.91757816,-3.1212525,1.0917481,148.0
19025,-1.0703316,28.349186,4.1389923,0.91757816,-3.1212525,1.0917481,148.0
19026,-1.0703316,28.349186,4.1389923,1.0428956,-3.0086792,-0.03186035,148.0
19027,-2.3283348,24.913359,3.6602325,1.0428956,-3.0086792,-0.03186035,148.0
19028,-2.3283348,24.913359,3.6602325,0.905896,-3.4749024,-1.1289185,148.0
19029,-3.1961517,21.000109,0.7140198,0.905896,-3.4749024,-1.1289185,148.0
19030,-3.1961517,21.000109,0.7140198,0.5894165,-2.701758,-3.1201904,148.0
19031,-3.5070305,15.504385,-2.1935272,0.5894165,-2.701758,-3.1201904,148.0
19032,-3.5070305,15.504385,-2.1935272,-0.6988037,-1.807544,-5.599988,148.0
19033,-3.5869484,9.793793,-1.2840271,-0.6988037,-1.807544,-5.599988,148.0
19034,-3.5869484,9.793793,-1.2840271,-3.4632204,-1.6578003,-6.9349365,148.0
19035,-3.324318,4.940529,1.6477966,-3.4632204,-1.6578003,-6.9349365,148.0
19036,-3.324318,4.940529,1.6477966,-5.5617557,-0.9228882,-7.9502196,148.0
19037,-2.5202217,1.3848457,3.151764,-5.5617557,-0.9228882,-7.9502196,148.0
19038,-2.5202217,1.3848457,3.151764,-5.126331,0.31329346,-8.86355,148.0
19039,-0.40477753,-2.4002914,2.9043884,-5.126331,0.31329346,-8.86355,148.0
19040,-0.40477753,-2.4002914,2.9043884,-2.5148437,0.44923097,-8.816821,148.0
19041,5.526289,-11.233711,1.7572479,-2.5148437,0.44923097,-8.816821,148.0
19042,5.526289,-11.233711,1.7572479,-4.433899,1.1321045,-6.616333,148.0
19043,14.49321,-21.998552,-0.29385376,-4.433899,1.1321045,-6.616333,148.0
19044,14.49321,-21.998552,-0.29385376,-7.7197633,4.871448,-7.1600833,148.0
19045,16.20934,-28.995522,-2.5068207,-7.7197633,4.871448,-7.1600833,148.0
19046,16.20934,-28.995522,-2.5068207,-9.191711,5.779468,-4.0175905,148.0
19047,5.737259,-28.385456,-1.6689148,-9.191711,5.779468,-4.0175905,148.0
19048,5.737259,-28.385456,-1.6689148,-7.0358276,4.259729,-2.904602,148.0
19049,-8.243225,-17.73505,1.9297028,-7.0358276,4.259729,-2.904602,148.0
19050,-8.243225,-17.73505,1.9297028,-4.4923096,3.9804199,-0.89208984,148.0
19051,-18.388783,-4.2555685,3.821991,-4.4923096,3.9804199,-0.89208984,148.0
19052,-18.388783,-4.2555685,3.821991,-2.5169678,3.6140258,0.17523193,148.0
19053,-23.9819,4.6385746,3.254013,-2.5169678,3.6140258,0.17523193,148.0
19054,-23.9819,4.6385746,3.254013,-2.9566407,3.5577393,0.31010744,148.0
19055,-28.096079,8.858931,2.5362396,-2.9566407,3.5577393,0.31010744,148.0
19056,-28.096079,8.858931,2.5362396,-3.8306763,3.1966553,1.2160034,148.0
19057,-32.08492,9.47102,2.4284973,-3.8306763,3.1966553,1.2160034,148.0
19058,-32.08492,9.47102,2.4284973,-3.435608,3.6777465,1.4369019,148.0
19059,-32.465225,7.8724585,2.5696564,-3.435608,3.6777465,1.4369019,148.0
19060,-32.465225,7.8724585,2.5696564,-1.62594,2.884424,0.026550293,148.0
19061,-26.904188,4.61989,1.717865,-1.62594,2.884424,0.026550293,148.0
19062,-26.904188,4.61989,1.717865,-2.0507448,2.8823,-0.88253176,148.0
19063,-18.925854,-0.10408783,-1.2277069,-2.0507448,2.8823,-0.88253176,148.0
19064,-18.925854,-0.10408783,-1.2277069,-4.642053,1.6036377,-0.11469727,148.0
19065,-11.902194,-3.4542904,-3.9853058,-4.642053,1.6036377,-0.11469727,148.0
19066,-11.902194,-3.4542904,-3.9853058,-5.978064,-0.3812622,0.75509036,148.0
19067,-5.064272,-5.3921313,-5.2507935,-5.978064,-0.3812622,0.75509036,148.0
19068,-5.064272,-5.3921313,-5.2507935,-1.9498535,-3.2274537,1.4220337,148.0
19069,2.3576164,-8.895248,-6.7830963,-1.9498535,-3.2274537,1.4220337,148.0
19070,2.3576164,-8.895248,-6.7830963,3.438794,-4.4519534,2.9300904,148.0
19071,9.075217,-12.567212,-7.7536316,3.438794,-4.4519534,2.9300904,148.0
19072,9.075217,-12.567212,-7.7536316,3.974048,-5.9918704,4.896936,148.0
19073,14.061846,-14.765623,-6.728592,3.974048,-5.9918704,4.896936,148.0
19074,14.061846,-14.765623,-6.728592,3.0044312,-7.419214,6.5345583,148.0
19075,19.871828,-18.822313,-3.9756317,3.0044312,-7.419214,6.5345583,148.0
19076,19.871828,-18.822313,-3.9756317,4.079187,-8.14032,8.963379,148.0
19077,28.838112,-24.33794,-0.8661194,4.079187,-8.14032,8.963379,148.0
19078,28.838112,-24.33794,-0.8661194,7.5593996,-10.575513,9.235254,148.0
19079,37.42232,-20.776798,-0.87312317,7.5593996,-10.575513,9.235254,148.0
19080,37.42232,-20.776798,-0.87312317,8.406885,-7.5424075,8.559814,148.0
19081,35.92781,-3.9705238,-0.91526794,8.406885,-7.5424075,8.559814,148.0
19082,35.92781,-3.9705238,-0.91526794,5.1804934,-2.7739747,8.194483,148.0
19083,22.331947,14.906418,1.4458313,5.1804934,-2.7739747,8.194483,148.0
19084,22.331947,14.906418,1.4458313,1.4167236,-2.994873,6.140552,148.0
19085,7.723957,25.639393,3.3590546,1.4167236,-2.994873,6.140552,148.0
19086,7.723957,25.639393,3.3590546,-0.6244629,-2.5721924,3.9305055,148.0
19087,0.23270416,29.317617,3.4948578,-0.6244629,-2.5721924,3.9305055,148.0
19088,0.23270416,29.317617,3.4948578,0.58304447,-2.7867188,1.7013428,148.0
19089,-0.6615677,30.414555,2.793869,0.58304447,-2.7867188,1.7013428,148.0
19090,-0.6615677,30.414555,2.793869,1.8139161,-3.1297486,0.5968506,148.0
19091,1.3500061,29.714104,0.80973816,1.8139161,-3.1297486,0.5968506,148.0
19092,1.3500061,29.714104,0.80973816,1.4156617,-3.440918,0.4343628,148.0
19093,1.3725586,25.712238,-2.2536926,1.4156617,-3.440918,0.4343628,148.0
19094,1.3725586,25.712238,-2.2536926,1.0110352,-2.3247437,-1.540979,148.0
19095,-1.4168205,18.489101,-2.7137756,1.0110352,-2.3247437,-1.540979,148.0
19096,-1.4168205,18.489101,-2.7137756,-1.6609863,-2.257837,-4.992517,148.0
19097,-3.261032,10.81041,0.52497864,-1.6609863,-2.257837,-4.992517,148.0
19098,-3.261032,10.81041,0.52497864,-4.617627,-2.3215578,-7.077246,148.0
19099,-2.6035404,5.0160275,3.3812714,-4.617627,-2.3215578,-7.077246,148.0
19100,-2.6035404,5.0160275,3.3812714,-4.617627,-2.3215578,-7.077246,135.0
19101,-2.6035404,5.0160275,3.3812714,-5.8739867,-1.1947632,-8.405823,135.0
19102,-1.512043,1.2431564,3.3446503,-5.8739867,-1.1947632,-8.405823,135.0
19103,-1.512043,1.2431564,3.3446503,-4.460449,0.2347046,-9.19065,135.0
19104,-0.26955986,-2.9056454,2.9348755,-4.460449,0.2347046,-9.19065,135.0
19105,-0.26955986,-2.9056454,2.9348755,-2.3937745,0.027612304,-8.896472,135.0
19106,3.9879532,-13.644121,4.2671356,-2.3937745,0.027612304,-8.896472,135.0
19107,3.9879532,-13.644121,4.2671356,-5.167749,0.20496826,-6.819177,135.0
19108,9.942802,-25.582375,4.790924,-5.167749,0.20496826,-6.819177,135.0
19109,9.942802,-25.582375,4.790924,-5.6647706,3.8742187,-6.2786136,135.0
19110,11.674004,-30.162165,2.1408691,-5.6647706,3.8742187,-6.2786136,135.0
19111,11.674004,-30.162165,2.1408691,-5.415198,4.7503786,-4.13335,135.0
19112,4.708061,-26.711203,-0.16151428,-5.415198,4.7503786,-4.13335,135.0
19113,4.708061,-26.711203,-0.16151428,-5.144385,4.6378055,-2.6794555,135.0
19114,-7.508919,-15.624687,1.141098,-5.144385,4.6378055,-2.6794555,135.0
19115,-7.508919,-15.624687,1.141098,-5.794336,4.068567,-1.5346069,135.0
19116,-16.674469,-3.0115662,3.006195,-5.794336,4.068567,-1.5346069,135.0
19117,-16.674469,-3.0115662,3.006195,-3.7648315,3.5492432,-0.39188233,135.0
19118,-19.96686,5.509595,2.751068,-3.7648315,3.5492432,-0.39188233,135.0
19119,-19.96686,5.509595,2.751068,-2.7261841,3.3740113,0.04885254,135.0
19120,-21.04103,10.97949,2.1274414,-2.7261841,3.3740113,0.04885254,135.0
19121,-21.04103,10.97949,2.1274414,-3.3623292,3.068152,0.44816896,135.0
19122,-25.327404,13.555419,1.9842682,-3.3623292,3.068152,0.44816896,135.0
19123,-25.327404,13.555419,1.9842682,-3.4918945,3.1913452,1.9827759,135.0
19124,-32.647457,11.752099,2.6049957,-3.4918945,3.1913452,1.9827759,135.0
19125,-32.647457,11.752099,2.6049957,-1.084314,2.6943238,-0.65632325,135.0
19126,-31.63607,7.907893,3.371231,-1.084314,2.6943238,-0.65632325,135.0
19127,-31.63607,7.907893,3.371231,-1.356189,2.8823,-0.8793457,135.0
19128,-22.931269,3.0508385,1.5539398,-1.356189,2.8823,-0.8793457,135.0
19129,-22.931269,3.0508385,1.5539398,-3.3240967,2.9821289,-1.1395386,135.0
19130,-15.677803,-1.9051914,-2.0052795,-3.3240967,2.9821289,-1.1395386,135.0
19131,-15.677803,-1.9051914,-2.0052795,-5.2144775,1.3466309,-0.2262085,135.0
19132,-9.2354555,-6.6466637,-3.871521,-5.2144775,1.3466309,-0.2262085,135.0
19133,-9.2354555,-6.6466637,-3.871521,-5.713623,-0.18266602,0.7954468,135.0
19134,-1.9701157,-13.0995455,-5.2654877,-5.713623,-0.18266602,0.7954468,135.0
19135,-1.9701157,-13.0995455,-5.2654877,-0.8846558,-1.8680786,2.626355,135.0
19136,5.2135077,-18.904064,-7.648041,-0.8846558,-1.8680786,2.626355,135.0
19137,5.2135077,-18.904064,-7.648041,2.2971313,-3.5545533,4.699402,135.0
19138,11.627203,-20.914852,-8.777206,2.2971313,-3.5545533,4.699402,135.0
19139,11.627203,-20.914852,-8.777206,1.713025,-5.683887,6.727844,135.0
19140,18.290215,-22.7291,-6.9536743,1.713025,-5.683887,6.727844,135.0
19141,18.290215,-22.7291,-6.9536743,3.9198854,-7.4808106,8.087219,135.0
19142,28.210041,-26.650661,-2.9459686,3.9198854,-7.4808106,8.087219,135.0
19143,28.210041,-26.650661,-2.9459686,6.3710084,-11.750098,9.297913,135.0
19144,41.457207,-20.476608,-2.8675232,6.3710084,-11.750098,9.297913,135.0
19145,41.457207,-20.476608,-2.8675232,6.976355,-9.904322,7.048572,135.0
19146,42.73886,-0.21184158,-2.9729004,6.976355,-9.904322,7.048572,135.0
19147,42.73886,-0.21184158,-2.9729004,4.8289676,-3.2412598,7.846143,135.0
19148,26.221106,19.733067,0.38076782,4.8289676,-3.2412598,7.846143,135.0
19149,26.221106,19.733067,0.38076782,3.2062135,-3.7181032,5.2155395,135.0
19150,7.8269577,29.274025,2.763794,3.2062135,-3.7181032,5.2155395,135.0
19151,7.8269577,29.274025,2.763794,2.8302612,-2.7346802,2.992749,135.0
19152,-1.589241,29.953487,3.0477753,2.8302612,-2.7346802,2.992749,135.0
19153,-1.589241,29.953487,3.0477753,2.0687988,-2.5859985,1.1437867,135.0
19154,-2.8770332,26.893404,2.8434296,2.0687988,-2.5859985,1.1437867,135.0
19155,-2.8770332,26.893404,2.8434296,0.06478272,-3.2189577,0.58304447,135.0
19156,-0.40774155,23.77134,1.8380432,0.06478272,-3.2189577,0.58304447,135.0
19157,-0.40774155,23.77134,1.8380432,-1.0917481,-3.4674683,0.19434814,135.0
19158,0.81648254,21.34057,-0.19380188,-1.0917481,-3.4674683,0.19434814,135.0
19159,0.81648254,21.34057,-0.19380188,-0.022302246,-2.6486573,0.023364259,135.0
19160,-1.6607914,17.088459,-1.3292236,-0.022302246,-2.6486573,0.023364259,135.0
19161,-1.6607914,17.088459,-1.3292236,1.171399,-2.2833252,-1.3689331,135.0
19162,-5.5133743,11.390543,-0.4237976,1.171399,-2.2833252,-1.3689331,135.0
19163,-5.5133743,11.390543,-0.4237976,0.9866089,-2.4256349,-4.410535,135.0
19164,-6.8649235,8.758663,1.3451233,0.9866089,-2.4256349,-4.410535,135.0
19165,-6.8649235,8.758663,1.3451233,-1.3296387,-2.4967897,-5.4396243,135.0
19166,-5.592575,8.446604,2.032547,-1.3296387,-2.4967897,-5.4396243,135.0
19167,-5.592575,8.446604,2.032547,-3.3718872,-1.1862671,-6.0109863,135.0
19168,-4.1520386,5.5326996,1.3471375,-3.3718872,-1.1862671,-6.0109863,135.0
19169,-4.1520386,5.5326996,1.3471375,-3.625708,-0.08283692,-7.9395995,135.0
19170,-2.2780895,-0.83703613,2.2687073,-3.625708,-0.08283692,-7.9395995,135.0
19171,-2.2780895,-0.83703613,2.2687073,-1.3179566,1.0705079,-9.876709,135.0
19172,3.2901382,-11.963417,6.7199554,-1.3179566,1.0705079,-9.876709,135.0
19173,3.2901382,-11.963417,6.7199554,-2.427759,-0.5065796,-7.240796,135.0
19174,13.428047,-24.82608,9.752441,-2.427759,-0.5065796,-7.240796,135.0
19175,13.428047,-24.82608,9.752441,-4.6664796,1.6684204,-5.798584,135.0
19176,20.243011,-32.75936,6.3867493,-4.6664796,1.6684204,-5.798584,135.0
19177,20.243011,-32.75936,6.3867493,-5.0201297,6.315784,-3.3336549,135.0
19178,11.209267,-31.059958,3.6714172,-5.0201297,6.315784,-3.3336549,135.0
19179,11.209267,-31.059958,3.6714172,-7.57533,5.7274294,-2.1410158,135.0
19180,-7.2570496,-18.622831,4.656845,-7.57533,5.7274294,-2.1410158,135.0
19181,-7.2570496,-18.622831,4.656845,-6.3837523,4.786487,-0.45772704,135.0
19182,-19.329748,-3.3522081,4.766403,-6.3837523,4.786487,-0.45772704,135.0
19183,-19.329748,-3.3522081,4.766403,-2.8387573,3.9230714,0.48533937,135.0
19184,-23.79035,8.414681,2.988968,-2.8387573,3.9230714,0.48533937,135.0
19185,-23.79035,8.414681,2.988968,-2.2249146,3.541809,0.814563,135.0
19186,-24.749115,15.509126,0.66630554,-2.2249146,3.541809,0.814563,135.0
19187,-24.749115,15.509126,0.66630554,-3.4759643,3.3134766,1.2722901,135.0
19188,-24.683826,17.030933,-0.27322388,-3.4759643,3.3134766,1.2722901,135.0
19189,-24.683826,17.030933,-0.27322388,-2.628479,3.3750732,0.42799073,135.0
19190,-23.798563,14.432804,0.3191223,-2.628479,3.3750732,0.42799073,135.0
19191,-23.798563,14.432804,0.3191223,-1.1363525,2.7431762,-0.4078125,135.0
19192,-22.467464,10.594961,0.5026245,-1.1363525,2.7431762,-0.4078125,135.0
19193,-22.467464,10.594961,0.5026245,-1.0906861,2.628479,-0.9143921,135.0
19194,-20.672445,5.851593,-0.23368835,-1.0906861,2.628479,-0.9143921,135.0
19195,-20.672445,5.851593,-0.23368835,-1.6811646,1.9997681,-2.2769532,135.0
19196,-16.950626,0.42308426,-1.3967285,-1.6811646,1.9997681,-2.2769532,135.0
19197,-16.950626,0.42308426,-1.3967285,-3.2178955,1.3848633,-1.806482,135.0
19198,-12.698795,-5.7526703,-3.1596375,-3.2178955,1.3848633,-1.806482,135.0
19199,-12.698795,-5.7526703,-3.1596375,-3.2221437,0.09451904,-0.542688,135.0
19200,-7.7463417,-14.596558,-4.627289,-3.2221437,0.09451904,-0.542688,135.0
19201,-7.7463417,-14.596558,-4.627289,0.62340087,-1.6960328,1.1225464,135.0
19202,-0.62291527,-22.86145,-4.8459625,0.62340087,-1.6960328,1.1225464,135.0
19203,-0.62291527,-22.86145,-4.8459625,2.8833618,-2.433069,3.6936767,135.0
19204,6.7828693,-25.382202,-3.7117004,2.8833618,-2.433069,3.6936767,135.0
19205,6.7828693,-25.382202,-3.7117004,2.3162477,-2.795215,6.2286987,135.0
19206,13.402419,-24.371021,-1.3395844,2.3162477,-2.795215,6.2286987,135.0
19207,13.402419,-24.371021,-1.3395844,2.8430054,-2.8419435,9.03772,135.0
19208,21.295996,-25.96022,2.211731,2.8430054,-2.8419435,9.03772,135.0
19209,21.295996,-25.96022,2.211731,4.444519,-3.696863,10.483118,135.0
19210,31.70457,-26.035913,5.6326447,4.444519,-3.696863,10.483118,135.0
19211,31.70457,-26.035913,5.6326447,5.2835083,-6.69386,10.436389,135.0
19212,39.38602,-14.110798,4.104767,5.2835083,-6.69386,10.436389,135.0
19213,39.38602,-14.110798,4.104767,4.3043337,-6.463403,9.147107,135.0
19214,35.555717,5.8408546,-1.5586853,4.3043337,-6.463403,9.147107,135.0
19215,35.555717,5.8408546,-1.5586853,1.7809937,-3.0256715,7.839771,135.0
19216,22.358381,22.754202,-6.621399,1.7809937,-3.0256715,7.839771,135.0
19217,22.358381,22.754202,-6.621399,0.76677245,-3.177539,4.9988894,135.0
19218,9.684374,32.458073,-8.883759,0.76677245,-3.177539,4.9988894,135.0
19219,9.684374,32.458073,-8.883759,0.63614506,-2.1526978,2.5456421,135.0
19220,3.790638,35.826385,-9.174408,0.63614506,-2.1526978,2.5456421,135.0
19221,3.790638,35.826385,-9.174408,0.34833986,-3.073462,1.8702027,135.0
19222,3.823475,34.504505,-9.290741,0.34833986,-3.073462,1.8702027,135.0
19223,3.823475,34.504505,-9.290741,-1.5993897,-2.9481447,0.64570314,135.0
19224,3.8387108,29.823147,-8.585602,-1.5993897,-2.9481447,0.64570314,135.0
19225,3.8387108,29.823147,-8.585602,-2.262085,-2.72937,-0.6138428,135.0
19226,0.3568077,22.296799,-5.5953064,-2.262085,-2.72937,-0.6138428,135.0
19227,0.3568077,22.296799,-5.5953064,-1.9413575,-2.2833252,-4.145032,135.0
19228,-3.8441086,14.334423,-0.8480377,-1.9413575,-2.2833252,-4.145032,135.0
19229,-3.8441086,14.334423,-0.8480377,-3.167981,-2.9566407,-6.151172,135.0
19230,-5.1001663,8.28718,3.2100067,-3.167981,-2.9566407,-6.151172,135.0
19231,-5.1001663,8.28718,3.2100067,-4.167334,-2.6093628,-7.868445,135.0
19232,-3.1054611,2.9034863,4.586487,-4.167334,-2.6093628,-7.868445,135.0
19233,-3.1054611,2.9034863,4.586487,-2.6518433,-1.9997681,-8.830627,135.0
19234,1.3685741,-4.571083,4.929535,-2.6518433,-1.9997681,-8.830627,135.0
19235,1.3685741,-4.571083,4.929535,-0.9143921,-0.9388184,-8.223157,135.0
19236,7.321495,-16.383173,7.14769,-0.9143921,-0.9388184,-8.223157,135.0
19237,7.321495,-16.383173,7.14769,-5.6445923,0.13381349,-6.072583,135.0
19238,10.976555,-27.411312,9.489532,-5.6445923,0.13381349,-6.072583,135.0
19239,10.976555,-27.411312,9.489532,-8.934705,2.1261475,-5.2983766,135.0
19240,10.274223,-32.89895,7.7733307,-8.934705,2.1261475,-5.2983766,135.0
19241,10.274223,-32.89895,7.7733307,-6.418799,3.6416383,-3.812622,135.0
19242,2.7277412,-28.778446,5.0900116,-6.418799,3.6416383,-3.812622,135.0
19243,2.7277412,-28.778446,5.0900116,-3.821118,4.5942626,-1.9179932,135.0
19244,-9.297958,-15.197306,4.3912964,-3.821118,4.5942626,-1.9179932,135.0
19245,-9.297958,-15.197306,4.3912964,-3.5460572,4.701526,-0.4694092,135.0
19246,-18.746422,-1.667635,3.5739594,-3.5460572,4.701526,-0.4694092,135.0
19247,-18.746422,-1.667635,3.5739594,-1.3009644,4.0345826,-0.4885254,135.0
19248,-23.890644,7.915184,2.5922089,-1.3009644,4.0345826,-0.4885254,135.0
19249,-23.890644,7.915184,2.5922089,-1.5505371,3.61615,-0.5607422,135.0
19250,-26.485306,14.102228,1.4934082,-1.5505371,3.61615,-0.5607422,135.0
19251,-26.485306,14.102228,1.4934082,-2.8207033,3.5428712,-0.89102787,135.0
19252,-29.510939,15.404879,-0.55293274,-2.8207033,3.5428712,-0.89102787,135.0
19253,-29.510939,15.404879,-0.55293274,-4.2278686,4.0409546,0.41524658,135.0
19254,-32.116867,13.163246,-2.2855072,-4.2278686,4.0409546,0.41524658,135.0
19255,-32.116867,13.163246,-2.2855072,-4.5528445,3.4961426,-1.1342286,135.0
19256,-29.536354,9.160212,-2.895813,-4.5528445,3.4961426,-1.1342286,135.0
19257,-29.536354,9.160212,-2.895813,-4.6569214,3.2879884,-1.6089478,135.0
19258,-22.353449,3.6620684,-3.5306854,-4.6569214,3.2879884,-1.6089478,135.0
19259,-22.353449,3.6620684,-3.5306854,-2.7930908,1.6811646,-1.8871949,135.0
19260,-13.492159,-2.6918535,-4.097412,-2.7930908,1.6811646,-1.8871949,135.0
19261,-13.492159,-2.6918535,-4.097412,-4.4763794,-0.29205322,-2.0252564,135.0
19262,-13.492159,-2.6918535,-4.097412,-4.4763794,-0.29205322,-2.0252564,130.0
19263,-4.596388,-9.424381,-4.5842743,-4.4763794,-0.29205322,-2.0252564,130.0
19264,-4.596388,-9.424381,-4.5842743,-4.253357,-2.1378295,-0.5331299,130.0
19265,3.4422626,-16.678532,-5.5882263,-4.253357,-2.1378295,-0.5331299,130.0
19266,3.4422626,-16.678532,-5.5882263,1.6493043,-3.710669,1.7693115,130.0
19267,11.546596,-22.999638,-6.665344,1.6493043,-3.710669,1.7693115,130.0
19268,11.546596,-22.999638,-6.665344,4.972339,-5.063672,6.6503177,130.0
19269,18.106419,-25.923405,-4.6596985,4.972339,-5.063672,6.6503177,130.0
19270,18.106419,-25.923405,-4.6596985,7.149463,-4.5539064,6.8159914,130.0
19271,23.999502,-26.591654,1.4763794,7.149463,-4.5539064,6.8159914,130.0
19272,23.999502,-26.591654,1.4763794,5.76991,-6.1447997,11.308301,130.0
19273,32.15086,-24.606844,6.1714935,5.76991,-6.1447997,11.308301,130.0
19274,32.15086,-24.606844,6.1714935,4.5369143,-9.601648,9.337207,130.0
19275,38.944054,-13.280922,3.7255402,4.5369143,-9.601648,9.337207,130.0
19276,38.944054,-13.280922,3.7255402,3.3623292,-4.980835,9.092944,130.0
19277,34.119453,5.447052,-0.0013275146,3.3623292,-4.980835,9.092944,130.0
19278,34.119453,5.447052,-0.0013275146,4.0122805,-2.5658205,8.620349,130.0
19279,18.912872,20.623756,-1.2064972,4.0122805,-2.5658205,8.620349,130.0
19280,18.912872,20.623756,-1.2064972,4.2151246,-2.8578737,6.492078,130.0
19281,5.099659,28.829914,-2.045929,4.2151246,-2.8578737,6.492078,130.0
19282,5.099659,28.829914,-2.045929,4.1131716,-1.725769,3.6947389,130.0
19283,-2.1596527,32.20004,-2.479889,4.1131716,-1.725769,3.6947389,130.0
19284,-2.1596527,32.20004,-2.479889,2.617859,-2.3693483,2.0199463,130.0
19285,-2.70681,33.28879,-3.1188202,2.617859,-2.3693483,2.0199463,130.0
19286,-2.70681,33.28879,-3.1188202,-0.020178223,-2.8833618,1.3094605,130.0
19287,0.08633423,31.292215,-5.2188263,-0.020178223,-2.8833618,1.3094605,130.0
19288,0.08633423,31.292215,-5.2188263,-0.72323,-1.989148,-0.13168946,130.0
19289,0.3809929,23.91379,-7.0222473,-0.72323,-1.989148,-0.13168946,130.0
19290,0.3809929,23.91379,-7.0222473,0.6552612,-1.1384766,-3.1074464,130.0
19291,-2.457779,14.9773445,-4.373932,0.6552612,-1.1384766,-3.1074464,130.0
19292,-2.457779,14.9773445,-4.373932,-0.32072756,-1.5218629,-6.6683717,130.0
19293,-4.137659,9.240482,0.88230896,-0.32072756,-1.5218629,-6.6683717,130.0
19294,-4.137659,9.240482,0.88230896,-3.1286867,-2.4521852,-7.879065,130.0
19295,-3.5990925,5.726639,2.9910278,-3.1286867,-2.4521852,-7.879065,130.0
19296,-3.5990925,5.726639,2.9910278,-3.714917,-1.621692,-8.260327,130.0
19297,-2.0657368,1.4750004,1.4452515,-3.714917,-1.621692,-8.260327,130.0
19298,-2.0657368,1.4750004,1.4452515,-2.4999757,-1.4868164,-8.948511,130.0
19299,1.6312237,-7.9717827,1.2991791,-2.4999757,-1.4868164,-8.948511,130.0
19300,1.6312237,-7.9717827,1.2991791,-1.2393677,-1.0036011,-7.7516236,130.0
19301,6.389183,-19.097958,4.8918915,-1.2393677,-1.0036011,-7.7516236,130.0
19302,6.389183,-19.097958,4.8918915,-5.250586,-0.14018555,-6.69386,130.0
19303,9.037605,-25.14011,7.881546,-5.250586,-0.14018555,-6.69386,130.0
19304,9.037605,-25.14011,7.881546,-9.010108,1.356189,-4.685596,130.0
19305,8.945843,-28.069756,6.205963,-9.010108,1.356189,-4.685596,130.0
19306,8.945843,-28.069756,6.205963,-6.367822,3.2083375,-3.5853517,130.0
19307,3.22126,-25.530182,4.012436,-6.367822,3.2083375,-3.5853517,130.0
19308,3.22126,-25.530182,4.012436,-3.544995,4.2066283,-1.9721558,130.0
19309,-7.249687,-14.90564,4.754669,-3.544995,4.2066283,-1.9721558,130.0
19310,-7.249687,-14.90564,4.754669,-2.998059,3.6734986,-0.5246338,130.0
19311,-16.12249,-2.8102295,4.7108,-2.998059,3.6734986,-0.5246338,130.0
19312,-16.12249,-2.8102295,4.7108,-2.8015869,3.7595215,-0.36851808,130.0
19313,-21.434711,5.6297216,3.239685,-2.8015869,3.7595215,-0.36851808,130.0
19314,-21.434711,5.6297216,3.239685,-3.882715,3.1116943,-0.8219971,130.0
19315,-24.303495,10.596294,2.5868683,-3.882715,3.1116943,-0.8219971,130.0
19316,-24.303495,10.596294,2.5868683,-4.51886,2.7357423,0.06478272,130.0
19317,-25.543982,12.220005,2.2483368,-4.51886,2.7357423,0.06478272,130.0
19318,-25.543982,12.220005,2.2483368,-3.2837403,3.2062135,0.82730716,130.0
19319,-27.289934,10.96464,1.5095978,-3.2837403,3.2062135,0.82730716,130.0
19320,-27.289934,10.96464,1.5095978,-1.1384766,3.0554078,0.81031495,130.0
19321,-29.03771,8.184248,1.3683167,-1.1384766,3.0554078,0.81031495,130.0
19322,-29.03771,8.184248,1.3683167,-1.1172364,2.6125488,-0.6053467,130.0
19323,-26.496807,4.0285873,1.859726,-1.1172364,2.6125488,-0.6053467,130.0
19324,-26.496807,4.0285873,1.859726,-3.0203614,2.3130615,-0.63826907,130.0
19325,-19.86113,-1.3786068,1.3722229,-3.0203614,2.3130615,-0.63826907,130.0
19326,-19.86113,-1.3786068,1.3722229,-3.4642823,0.75296634,0.90908206,130.0
19327,-11.945251,-7.418865,-0.44050598,-3.4642823,0.75296634,0.90908206,130.0
19328,-11.945251,-7.418865,-0.44050598,-2.446875,-0.92926025,1.1968873,130.0
19329,-2.6294556,-15.000498,-2.7895203,-2.446875,-0.92926025,1.1968873,130.0
19330,-2.6294556,-15.000498,-2.7895203,1.1862671,-2.9258423,2.1813722,130.0
19331,7.417859,-22.791975,-4.9143066,1.1862671,-2.9258423,2.1813722,130.0
19332,7.417859,-22.791975,-4.9143066,4.333008,-3.3294067,4.6579833,130.0
19333,16.253819,-27.52257,-5.391464,4.333008,-3.3294067,4.6579833,130.0
19334,16.253819,-27.52257,-5.391464,5.533081,-3.1796632,7.4755006,130.0
19335,25.060686,-28.691616,-4.4045563,5.533081,-3.1796632,7.4755006,130.0
19336,25.060686,-28.691616,-4.4045563,6.153296,-4.781177,9.408362,130.0
19337,34.58511,-22.370005,-3.0075073,6.153296,-4.781177,9.408362,130.0
19338,34.58511,-22.370005,-3.0075073,6.9296265,-8.987805,8.851868,130.0
19339,40.024315,-4.9059277,-3.2091522,6.9296265,-8.987805,8.851868,130.0
19340,40.024315,-4.9059277,-3.2091522,3.9251955,-3.3081665,7.889685,130.0
19341,33.511456,13.378506,-3.649765,3.9251955,-3.3081665,7.889685,130.0
19342,33.511456,13.378506,-3.649765,2.1112792,-2.2854493,6.7501464,130.0
19343,18.138485,22.586374,-3.5612488,2.1112792,-2.2854493,6.7501464,130.0
19344,18.138485,22.586374,-3.5612488,1.6673584,-2.7845948,4.5677123,130.0
19345,6.3338966,26.033405,-3.9670105,1.6673584,-2.7845948,4.5677123,130.0
19346,6.3338966,26.033405,-3.9670105,0.5012695,-2.0188844,2.9492066,130.0
19347,2.2567062,28.061052,-3.685608,0.5012695,-2.0188844,2.9492066,130.0
19348,2.2567062,28.061052,-3.685608,-0.270813,-2.5743165,1.902063,130.0
19349,3.3248596,29.210072,-3.6392212,-0.270813,-2.5743165,1.902063,130.0
19350,3.3248596,29.210072,-3.6392212,0.49171144,-2.165442,1.811792,130.0
19351,3.833105,28.387138,-4.1402893,0.49171144,-2.165442,1.811792,130.0
19352,3.833105,28.387138,-4.1402893,0.4163086,-1.7300171,0.815625,130.0
19353,0.5250778,24.043343,-3.485199,0.4163086,-1.7300171,0.815625,130.0
19354,0.5250778,24.043343,-3.485199,0.014868164,-2.081543,-1.7024049,130.0
19355,-3.6368484,17.096954,-1.1597443,0.014868164,-2.081543,-1.7024049,130.0
19356,-3.6368484,17.096954,-1.1597443,-1.9243653,-2.4585571,-4.4933715,130.0
19357,-5.0838547,10.282154,1.8564453,-1.9243653,-2.4585571,-4.4933715,130.0
19358,-5.0838547,10.282154,1.8564453,-4.3075194,-2.2164185,-5.996118,130.0
19359,-3.6890202,4.4047165,3.7551117,-4.3075194,-2.2164185,-5.996118,130.0
19360,-3.6890202,4.4047165,3.7551117,-5.071106,-1.7077149,-7.2280517,130.0
19361,-1.4412193,-0.5409374,3.6972656,-5.071106,-1.7077149,-7.2280517,130.0
19362,-1.4412193,-0.5409374,3.6972656,-3.6437624,-0.5872925,-7.8599486,130.0
19363,1.407814,-6.3874016,4.1638184,-3.6437624,-0.5872925,-7.8599486,130.0
19364,1.407814,-6.3874016,4.1638184,-2.8621216,-0.13487549,-7.3746095,130.0
19365,6.5387383,-16.878283,6.311371,-2.8621216,-0.13487549,-7.3746095,130.0
19366,6.5387383,-16.878283,6.311371,-6.090637,0.5957886,-5.6265383,130.0
19367,11.826878,-27.709888,6.1578217,-6.090637,0.5957886,-5.6265383,130.0
19368,11.826878,-27.709888,6.1578217,-4.7556887,3.0044312,-4.771619,130.0
19369,10.670403,-31.779251,3.3827667,-4.7556887,3.0044312,-4.771619,130.0
19370,10.670403,-31.779251,3.3827667,-3.155237,3.799878,-2.817517,130.0
19371,0.88131714,-26.107338,2.8697052,-3.155237,3.799878,-2.817517,130.0
19372,0.88131714,-26.107338,2.8697052,-4.3457522,3.2125854,-1.7682495,130.0
19373,-10.707619,-13.132549,4.757721,-4.3457522,3.2125854,-1.7682495,130.0
19374,-10.707619,-13.132549,4.757721,-4.1938844,4.1949463,-0.3345337,130.0
19375,-18.619646,-0.67762166,6.383026,-4.1938844,4.1949463,-0.3345337,130.0
19376,-18.619646,-0.67762166,6.383026,-2.3364258,4.3861084,0.107263185,130.0
19377,-23.488356,7.70927,5.403763,-2.3364258,4.3861084,0.107263185,130.0
19378,-23.488356,7.70927,5.403763,-1.7693115,4.2214966,0.12000733,130.0
19379,-26.844044,12.100937,1.9190216,-1.7693115,4.2214966,0.12000733,130.0
19380,-26.844044,12.100937,1.9190216,-3.6819947,4.500806,0.83686525,130.0
19381,-27.865591,12.621033,-0.55537415,-3.6819947,4.500806,0.83686525,130.0
19382,-27.865591,12.621033,-0.55537415,-4.3680544,4.244861,0.16992188,130.0
19383,-26.291351,10.186292,-1.5645294,-4.3680544,4.244861,0.16992188,130.0
19384,-26.291351,10.186292,-1.5645294,-3.3017945,4.0473266,-0.42374268,130.0
19385,-23.190405,6.3582983,-2.692871,-3.3017945,4.0473266,-0.42374268,130.0
19386,-23.190405,6.3582983,-2.692871,-1.4687623,2.6454713,-0.9876709,130.0
19387,-18.146782,3.0541553,-3.788086,-1.4687623,2.6454713,-0.9876709,130.0
19388,-18.146782,3.0541553,-3.788086,-2.1070313,0.91120607,-0.8581055,130.0
19389,-12.147455,-0.58522797,-4.513382,-2.1070313,0.91120607,-0.8581055,130.0
19390,-12.147455,-0.58522797,-4.513382,-3.8264282,-0.8931519,-0.32709962,130.0
19391,-6.2661333,-6.4191837,-4.905075,-3.8264282,-0.8931519,-0.32709962,130.0
19392,-6.2661333,-6.4191837,-4.905075,-1.1023682,-3.0543458,0.54693604,130.0
19393,0.5893631,-13.542513,-5.020111,-1.1023682,-3.0543458,0.54693604,130.0
19394,0.5893631,-13.542513,-5.020111,2.1250856,-4.37655,2.2716432,130.0
19395,8.219696,-20.0605,-4.8112183,2.1250856,-4.37655,2.2716432,130.0
19396,8.219696,-20.0605,-4.8112183,3.076648,-4.4912477,4.8533936,130.0
19397,15.679761,-25.576855,-3.4426727,3.076648,-4.4912477,4.8533936,130.0
19398,15.679761,-25.576855,-3.4426727,4.539038,-4.7450686,7.265222,130.0
19399,23.502048,-28.555515,-0.15144348,4.539038,-4.7450686,7.265222,130.0
19400,23.502048,-28.555515,-0.15144348,5.341919,-6.8510375,8.300684,130.0
19401,32.86657,-23.801712,1.8153381,5.341919,-6.8510375,8.300684,130.0
19402,32.86657,-23.801712,1.8153381,7.3002687,-10.883496,8.132886,130.0
19403,38.45202,-8.1098385,0.41635132,7.3002687,-10.883496,8.132886,130.0
19404,38.45202,-8.1098385,0.41635132,6.5749145,-2.5743165,8.194483,130.0
19405,31.366158,10.525923,-0.20716858,6.5749145,-2.5743165,8.194483,130.0
19406,31.366158,10.525923,-0.20716858,5.26864,-2.0316284,7.1154785,130.0
19407,16.05566,22.155687,0.40489197,5.26864,-2.0316284,7.1154785,130.0
19408,16.05566,22.155687,0.40489197,3.792444,-1.7427613,5.170935,130.0
19409,4.828232,26.8053,-0.1924591,3.792444,-1.7427613,5.170935,130.0
19410,4.828232,26.8053,-0.1924591,2.5541382,-1.3158325,3.0692139,130.0
19411,0.7957649,29.204885,-1.039032,2.5541382,-1.3158325,3.0692139,130.0
19412,0.7957649,29.204885,-1.039032,0.814563,-1.1119263,0.7476563,130.0
19413,2.0415306,32.198517,-1.769577,0.814563,-1.1119263,0.7476563,130.0
19414,2.0415306,32.198517,-1.769577,-1.9317993,-1.910559,1.6546143,130.0
19415,3.6226044,31.10973,-3.984146,-1.9317993,-1.910559,1.6546143,130.0
19416,3.6226044,31.10973,-3.984146,-1.6811646,-1.5197388,-0.540564,130.0
19417,1.5994987,23.811344,-5.829422,-1.6811646,-1.5197388,-0.540564,130.0
19418,1.5994987,23.811344,-5.829422,1.6185058,-0.090270996,-3.886963,130.0
19419,-2.1063766,15.584427,-3.3064423,1.6185058,-0.090270996,-3.886963,130.0
19420,-2.1063766,15.584427,-3.3064423,1.6185058,-0.090270996,-3.886963,138.0
19421,-2.1063766,15.584427,-3.3064423,-0.25594482,-1.179895,-6.9275026,138.0
19422,-3.5352726,8.990662,1.1684113,-0.25594482,-1.179895,-6.9275026,138.0
19423,-3.5352726,8.990662,1.1684113,-3.4228637,-1.9084351,-8.054297,138.0
19424,-3.0097733,3.6320915,2.9283905,-3.4228637,-1.9084351,-8.054297,138.0
19425,-3.0097733,3.6320915,2.9283905,-4.766309,-1.1289185,-9.022852,138.0
19426,-1.9838066,-1.5152855,0.85491943,-4.766309,-1.1289185,-9.022852,138.0
19427,-1.9838066,-1.5152855,0.85491943,-4.519922,-1.8436524,-9.337207,138.0
19428,2.8455353,-11.529991,-2.0495605,-4.519922,-1.8436524,-9.337207,138.0
19429,2.8455353,-11.529991,-2.0495605,-7.60719,-0.4980835,-7.083618,138.0
19430,9.077187,-24.049519,-1.2275543,-7.60719,-0.4980835,-7.083618,138.0
19431,9.077187,-24.049519,-1.2275543,-12.556165,3.8189943,-6.090637,138.0
19432,9.538872,-31.055534,0.8487396,-12.556165,3.8189943,-6.090637,138.0
19433,9.538872,-31.055534,0.8487396,-10.026453,3.070276,-4.7556887,138.0
19434,3.9887276,-29.948162,0.31210327,-10.026453,3.070276,-4.7556887,138.0
19435,3.9887276,-29.948162,0.31210327,-2.2132325,3.7531495,-4.2045045,138.0
19436,-4.1652184,-20.635216,1.1586761,-2.2132325,3.7531495,-4.2045045,138.0
19437,-4.1652184,-20.635216,1.1586761,-1.5792115,2.6688354,-1.8340943,138.0
19438,-11.155418,-8.97121,4.714203,-1.5792115,2.6688354,-1.8340943,138.0
19439,-11.155418,-8.97121,4.714203,-2.5509522,2.1187134,-0.3802002,138.0
19440,-15.661213,-0.952932,6.6486664,-2.5509522,2.1187134,-0.3802002,138.0
19441,-15.661213,-0.952932,6.6486664,-1.7098389,3.1170044,-0.37595215,138.0
19442,-20.168667,3.440462,6.4286194,-1.7098389,3.1170044,-0.37595215,138.0
19443,-20.168667,3.440462,6.4286194,-1.7013428,3.078772,0.08602295,138.0
19444,-21.086082,4.323659,5.327667,-1.7013428,3.078772,0.08602295,138.0
19445,-21.086082,4.323659,5.327667,-1.8818848,2.9343383,0.4428589,138.0
19446,-30.633831,7.279032,4.457779,-1.8818848,2.9343383,0.4428589,138.0
19447,-30.633831,7.279032,4.457779,-3.1106324,2.5074098,1.1437867,138.0
19448,-27.215136,6.1503134,3.5587769,-3.1106324,2.5074098,1.1437867,138.0
19449,-27.215136,6.1503134,3.5587769,-3.444104,2.4097047,0.39613038,138.0
19450,-22.62953,4.6396112,1.4023285,-3.444104,2.4097047,0.39613038,138.0
19451,-22.62953,4.6396112,1.4023285,-3.8147461,2.2270386,0.0010620117,138.0
19452,-17.666784,2.524836,0.055145264,-3.8147461,2.2270386,0.0010620117,138.0
19453,-17.666784,2.524836,0.055145264,-3.3665771,1.629126,-0.34090576,138.0
19454,-10.734928,-1.3613935,-3.562088,-3.3665771,1.629126,-0.34090576,138.0
19455,-10.734928,-1.3613935,-3.562088,-3.2051513,-1.3434448,0.50233155,138.0
19456,-6.5327787,-2.7804723,-3.967575,-3.2051513,-1.3434448,0.50233155,138.0
19457,-6.5327787,-2.7804723,-3.967575,-2.3704102,-2.8164551,0.7699585,138.0
19458,2.899949,-8.744495,-6.2554474,-2.3704102,-2.8164551,0.7699585,138.0
19459,2.899949,-8.744495,-6.2554474,4.2034426,-4.9426026,3.0893922,138.0
19460,6.364564,-9.345694,-5.930191,4.2034426,-4.9426026,3.0893922,138.0
19461,6.364564,-9.345694,-5.930191,5.3716555,-5.4714847,4.6271853,138.0
19462,15.686781,-18.455706,-6.6080627,5.3716555,-5.4714847,4.6271853,138.0
19463,15.686781,-18.455706,-6.6080627,4.87251,-5.409888,7.0018435,138.0
19464,17.84476,-18.988846,-5.1022186,4.87251,-5.409888,7.0018435,138.0
19465,17.84476,-18.988846,-5.1022186,4.437085,-6.346582,7.6900268,138.0
19466,36.795853,-25.251965,-2.8318634,4.437085,-6.346582,7.6900268,138.0
19467,36.795853,-25.251965,-2.8318634,7.5838256,-11.380518,6.783069,138.0
19468,37.560158,-16.859726,-2.6590729,7.5838256,-11.380518,6.783069,138.0
19469,37.560158,-16.859726,-2.6590729,5.971692,-3.987854,7.953406,138.0
19470,31.589657,10.068054,1.3901978,5.971692,-3.987854,7.953406,138.0
19471,31.589657,10.068054,1.3901978,4.900122,-3.5641115,7.614624,138.0
19472,19.633018,14.560596,2.423294,4.900122,-3.5641115,7.614624,138.0
19473,19.633018,14.560596,2.423294,5.0891604,-3.3219726,6.501636,138.0
19474,5.3607597,22.001774,2.969818,5.0891604,-3.3219726,6.501636,138.0
19475,5.3607597,22.001774,2.969818,4.7525024,-1.8553345,5.06261,138.0
19476,-1.0275307,25.692642,2.0381317,4.7525024,-1.8553345,5.06261,138.0
19477,-1.0275307,25.692642,2.0381317,3.720227,-1.7693115,3.2699342,138.0
19478,-2.168789,30.997597,-0.95983887,3.720227,-1.7693115,3.2699342,138.0
19479,-2.168789,30.997597,-0.95983887,2.2865112,-1.5781494,1.5569092,138.0
19480,-1.4085903,27.759735,-2.4570465,2.2865112,-1.5781494,1.5569092,138.0
19481,-1.4085903,27.759735,-2.4570465,1.630188,-1.2446778,1.1820191,138.0
19482,-2.962101,25.147034,-4.723419,1.630188,-1.2446778,1.1820191,138.0
19483,-2.962101,25.147034,-4.723419,-0.1996582,-1.1873292,-2.0241945,138.0
19484,-3.8123932,19.003345,-3.1662445,-0.1996582,-1.1873292,-2.0241945,138.0
19485,-3.8123932,19.003345,-3.1662445,-0.6180908,-1.2595459,-3.7563355,138.0
19486,-5.431801,9.20933,2.8261566,-0.6180908,-1.2595459,-3.7563355,138.0
19487,-5.431801,9.20933,2.8261566,-3.1212525,-2.080481,-7.1112304,138.0
19488,-4.35462,6.3522053,3.6757965,-3.1212525,-2.080481,-7.1112304,138.0
19489,-4.35462,6.3522053,3.6757965,-3.9315674,-1.6960328,-7.259912,138.0
19490,-2.8206959,2.9714012,3.1499176,-3.9315674,-1.6960328,-7.259912,138.0
19491,-2.8206959,2.9714012,3.1499176,-4.087683,-0.59897465,-7.9927,138.0
19492,-1.0291901,-1.4944744,1.320343,-4.087683,-0.59897465,-7.9927,138.0
19493,-1.0291901,-1.4944744,1.320343,-2.8461914,-0.35046387,-8.180676,138.0
19494,2.9047966,-11.006443,2.4231567,-2.8461914,-0.35046387,-8.180676,138.0
19495,2.9047966,-11.006443,2.4231567,-3.2731202,-0.22408448,-6.1617923,138.0
19496,7.252634,-22.633574,6.074463,-3.2731202,-0.22408448,-6.1617923,138.0
19497,7.252634,-22.633574,6.074463,-5.6520267,1.8606446,-6.0545287,138.0
19498,8.943623,-30.35808,6.504608,-5.6520267,1.8606446,-6.0545287,138.0
19499,8.943623,-30.35808,6.504608,-5.339795,2.4203248,-4.422217,138.0
19500,5.2805214,-31.393593,4.3987274,-5.339795,2.4203248,-4.422217,138.0
19501,5.2805214,-31.393593,4.3987274,-4.551782,4.681348,-2.357666,138.0
19502,-3.1101189,-22.402044,4.1757965,-4.551782,4.681348,-2.357666,138.0
19503,-3.1101189,-22.402044,4.1757965,-4.535852,4.523108,-0.5671143,138.0
19504,-11.73901,-7.3799243,4.486908,-4.535852,4.523108,-0.5671143,138.0
19505,-11.73901,-7.3799243,4.486908,-2.526526,4.890564,0.057348635,138.0
19506,-17.805843,4.811527,3.4155273,-2.526526,4.890564,0.057348635,138.0
19507,-17.805843,4.811527,3.4155273,-1.9848999,3.9443116,-0.1985962,138.0
19508,-20.647251,11.054788,1.6727295,-1.9848999,3.9443116,-0.1985962,138.0
19509,-20.647251,11.054788,1.6727295,-2.8546875,3.3283448,-0.13699952,138.0
19510,-20.095303,12.435432,0.2396698,-2.8546875,3.3283448,-0.13699952,138.0
19511,-20.095303,12.435432,0.2396698,-3.068152,2.989563,-0.33878174,138.0
19512,-18.454357,11.259918,-0.5136566,-3.068152,2.989563,-0.33878174,138.0
19513,-18.454357,11.259918,-0.5136566,-1.8404664,2.5987427,-0.16142578,138.0
19514,-19.807638,9.452673,-0.32507324,-1.8404664,2.5987427,-0.16142578,138.0
19515,-19.807638,9.452673,-0.32507324,-1.0312134,2.1165893,0.87191164,138.0
19516,-23.289923,6.998308,0.58966064,-1.0312134,2.1165893,0.87191164,138.0
19517,-23.289923,6.998308,0.58966064,-0.79332274,1.7151489,-0.82730716,138.0
19518,-22.480461,3.8590345,1.3173523,-0.79332274,1.7151489,-0.82730716,138.0
19519,-22.480461,3.8590345,1.3173523,-1.1820191,0.98236084,-0.7126099,138.0
19520,-17.201153,0.69978905,1.2202759,-1.1820191,0.98236084,-0.7126099,138.0
19521,-17.201153,0.69978905,1.2202759,-1.9286133,0.25913087,0.46728516,138.0
19522,-11.108286,-3.0952225,0.49241638,-1.9286133,0.25913087,0.46728516,138.0
19523,-11.108286,-3.0952225,0.49241638,-0.70942384,-1.0078491,1.1724609,138.0
19524,-4.2500076,-9.4364195,-0.885025,-0.70942384,-1.0078491,1.1724609,138.0
19525,-4.2500076,-9.4364195,-0.885025,0.67225343,-1.9679078,2.4139526,138.0
19526,3.4073305,-17.641115,-2.204422,0.67225343,-1.9679078,2.4139526,138.0
19527,3.4073305,-17.641115,-2.204422,2.3990846,-2.7304323,4.2724733,138.0
19528,11.26544,-24.956387,-1.9478607,2.3990846,-2.7304323,4.2724733,138.0
19529,11.26544,-24.956387,-1.9478607,3.9581177,-2.3746583,6.055591,138.0
19530,19.874926,-28.352915,-0.24143982,3.9581177,-2.3746583,6.055591,138.0
19531,19.874926,-28.352915,-0.24143982,5.1135864,-3.9952881,8.051111,138.0
19532,28.888527,-23.347225,1.7837982,5.1135864,-3.9952881,8.051111,138.0
19533,28.888527,-23.347225,1.7837982,6.4432254,-5.1932373,8.50459,138.0
19534,33.567535,-8.776779,2.6251068,6.4432254,-5.1932373,8.50459,138.0
19535,33.567535,-8.776779,2.6251068,5.8304443,-5.526709,6.310474,138.0
19536,29.365503,8.763074,0.501709,5.8304443,-5.526709,6.310474,138.0
19537,29.365503,8.763074,0.501709,3.6660645,-2.2196045,5.5532594,138.0
19538,18.309383,21.066893,-2.4955292,3.6660645,-2.2196045,5.5532594,138.0
19539,18.309383,21.066893,-2.4955292,1.2085694,-0.92926025,4.720642,138.0
19540,6.748411,25.416893,-2.9146423,1.2085694,-0.92926025,4.720642,138.0
19541,6.748411,25.416893,-2.9146423,-0.39506838,-1.3062744,2.806897,138.0
19542,0.5018654,25.072845,-2.427597,-0.39506838,-1.3062744,2.806897,138.0
19543,0.5018654,25.072845,-2.427597,-0.51932377,-1.9541016,1.2489258,138.0
19544,0.1735611,24.692165,-2.933548,-0.51932377,-1.9541016,1.2489258,138.0
19545,0.1735611,24.692165,-2.933548,-1.0184692,-1.4177856,0.7678345,138.0
19546,2.1357117,24.536753,-3.6071625,-1.0184692,-1.4177856,0.7678345,138.0
19547,2.1357117,24.536753,-3.6071625,-2.2100465,-0.8612915,0.635083,138.0
19548,2.4838028,21.04322,-3.6452484,-2.2100465,-0.8612915,0.635083,138.0
19549,2.4838028,21.04322,-3.6452484,-0.94412845,0.0053100586,-1.3859253,138.0
19550,0.69049644,14.779045,-2.7409515,-0.94412845,0.0053100586,-1.3859253,138.0
19551,0.69049644,14.779045,-2.7409515,0.21240234,-0.35577393,-3.8200562,138.0
19552,-0.8121662,9.964153,-1.3186188,0.21240234,-0.35577393,-3.8200562,138.0
19553,-0.8121662,9.964153,-1.3186188,-1.2627319,-0.29099122,-5.4513063,138.0
19554,-0.761343,6.3445415,-0.12611389,-1.2627319,-0.29099122,-5.4513063,138.0
19555,-0.761343,6.3445415,-0.12611389,-3.0968263,-0.3154175,-6.136304,138.0
19556,0.121723175,1.4652328,0.9490204,-3.0968263,-0.3154175,-6.136304,138.0
19557,0.121723175,1.4652328,0.9490204,-2.819641,0.046728518,-6.9625487,138.0
19558,1.2957668,-4.7206116,2.2547302,-2.819641,0.046728518,-6.9625487,138.0
19559,1.2957668,-4.7206116,2.2547302,-1.4114136,-0.015930176,-7.2323,138.0
19560,2.9783363,-12.387085,3.8927155,-1.4114136,-0.015930176,-7.2323,138.0
19561,2.9783363,-12.387085,3.8927155,-2.4192626,-0.4354248,-6.3189697,138.0
19562,5.9863434,-21.575403,5.130783,-2.4192626,-0.4354248,-6.3189697,138.0
19563,5.9863434,-21.575403,5.130783,-3.710669,-0.20072022,-5.866553,138.0
19564,8.7240715,-28.573017,4.537216,-3.710669,-0.20072022,-5.866553,138.0
19565,8.7240715,-28.573017,4.537216,-4.4806275,1.4103516,-4.585767,138.0
19566,6.102463,-28.470732,3.8678436,-4.4806275,1.4103516,-4.585767,138.0
19567,6.102463,-28.470732,3.8678436,-6.0375366,1.9944581,-2.4755495,138.0
19568,-1.9630966,-20.062645,3.94487,-6.0375366,1.9944581,-2.4755495,138.0
19569,-1.9630966,-20.062645,3.94487,-5.336609,2.6465333,-0.83898926,138.0
19570,-11.209492,-7.865155,3.5711365,-5.336609,2.6465333,-0.83898926,138.0
19571,-11.209492,-7.865155,3.5711365,-2.3704102,3.2062135,-0.38444826,138.0
19572,-11.209492,-7.865155,3.5711365,-2.3704102,3.2062135,-0.38444826,147.0
19573,-18.92167,2.367617,3.4345093,-2.3704102,3.2062135,-0.38444826,147.0
19574,-18.92167,2.367617,3.4345093,-0.9420044,2.9821289,0.24744873,147.0
19575,-23.623653,8.460598,2.7678986,-0.9420044,2.9821289,0.24744873,147.0
19576,-23.623653,8.460598,2.7678986,-1.2404298,3.1159425,0.7147339,147.0
19577,-24.3629,10.519297,0.6750641,-1.2404298,3.1159425,0.7147339,147.0
19578,-24.3629,10.519297,0.6750641,-1.3806152,2.9630127,0.59047854,147.0
19579,-22.427967,10.094392,-1.6222534,-1.3806152,2.9630127,0.59047854,147.0
19580,-22.427967,10.094392,-1.6222534,-0.41843262,2.5775025,-0.047790527,147.0
19581,-20.271755,8.245558,-2.6709442,-0.41843262,2.5775025,-0.047790527,147.0
19582,-20.271755,8.245558,-2.6709442,-0.74022216,1.9636596,-0.1539917,147.0
19583,-17.816917,5.2749615,-2.0789948,-0.74022216,1.9636596,-0.1539917,147.0
19584,-17.816917,5.2749615,-2.0789948,-0.87615967,1.2213135,-0.39294434,147.0
19585,-14.235406,2.1888895,-0.7277832,-0.87615967,1.2213135,-0.39294434,147.0
19586,-14.235406,2.1888895,-0.7277832,-0.7508423,0.09239502,0.25806886,147.0
19587,-10.380634,-0.28126144,-0.34077454,-0.7508423,0.09239502,0.25806886,147.0
19588,-10.380634,-0.28126144,-0.34077454,-0.51826173,-0.99935305,1.088562,147.0
19589,-5.8821077,-3.4432344,-1.1482849,-0.51826173,-0.99935305,1.088562,147.0
19590,-5.8821077,-3.4432344,-1.1482849,0.85704345,-1.8638306,1.8139161,147.0
19591,0.31195354,-7.935093,-1.925827,0.85704345,-1.8638306,1.8139161,147.0
19592,0.31195354,-7.935093,-1.925827,3.1308105,-2.5870607,3.059656,147.0
19593,6.9845734,-11.444095,-2.1270905,3.1308105,-2.5870607,3.059656,147.0
19594,6.9845734,-11.444095,-2.1270905,4.2937136,-2.7229981,4.5634646,147.0
19595,12.590515,-13.996133,-1.6094055,4.2937136,-2.7229981,4.5634646,147.0
19596,12.590515,-13.996133,-1.6094055,4.13866,-2.3937745,5.692383,147.0
19597,18.39159,-17.990084,1.1474304,4.13866,-2.3937745,5.692383,147.0
19598,18.39159,-17.990084,1.1474304,5.3599734,-2.5785644,6.5526123,147.0
19599,26.184793,-18.545778,5.37088,5.3599734,-2.5785644,6.5526123,147.0
19600,26.184793,-18.545778,5.37088,6.603589,-4.9319825,6.8605957,147.0
19601,32.137825,-8.532777,5.9216003,6.603589,-4.9319825,6.8605957,147.0
19602,32.137825,-8.532777,5.9216003,6.2063966,-4.420093,5.5861816,147.0
19603,29.11148,7.5659175,2.4965668,6.2063966,-4.420093,5.5861816,147.0
19604,29.11148,7.5659175,2.4965668,3.9305055,-0.4056885,5.1305785,147.0
19605,17.685986,18.644445,-0.8914795,3.9305055,-0.4056885,5.1305785,147.0
19606,17.685986,18.644445,-0.8914795,1.8532104,-0.6064087,4.2884035,147.0
19607,6.0408783,21.366888,-3.1678314,1.8532104,-0.6064087,4.2884035,147.0
19608,6.0408783,21.366888,-3.1678314,-0.21027832,-0.98129886,2.8387573,147.0
19609,-0.51745605,21.475542,-4.9858856,-0.21027832,-0.98129886,2.8387573,147.0
19610,-0.51745605,21.475542,-4.9858856,-1.812854,-0.5957886,1.5537232,147.0
19611,-2.7601204,22.5288,-5.561783,-1.812854,-0.5957886,1.5537232,147.0
19612,-2.7601204,22.5288,-5.561783,-1.8903809,-0.15186767,1.0216553,147.0
19613,-3.403263,22.199553,-5.0886993,-1.8903809,-0.15186767,1.0216553,147.0
19614,-3.403263,22.199553,-5.0886993,-1.0174073,-0.62977296,0.96643066,147.0
19615,-4.1969376,18.798424,-5.0025635,-1.0174073,-0.62977296,0.96643066,147.0
19616,-4.1969376,18.798424,-5.0025635,-0.18691407,-1.1214844,-0.85491943,147.0
19617,-4.4693184,13.598335,-5.024765,-0.18691407,-1.1214844,-0.85491943,147.0
19618,-4.4693184,13.598335,-5.024765,0.31329346,-1.4071655,-2.8653076,147.0
19619,-3.0704994,8.838934,-4.135025,0.31329346,-1.4071655,-2.8653076,147.0
19620,-3.0704994,8.838934,-4.135025,-0.3717041,-1.719397,-4.320264,147.0
19621,-0.60482407,5.663212,-2.6486664,-0.3717041,-1.719397,-4.320264,147.0
19622,-0.60482407,5.663212,-2.6486664,-2.6571534,-1.2722901,-5.26864,147.0
19623,1.1915436,2.7484398,-1.2967987,-2.6571534,-1.2722901,-5.26864,147.0
19624,1.1915436,2.7484398,-1.2967987,-3.7181032,-0.21240234,-5.977002,147.0
19625,1.807312,-1.8881626,0.66018677,-3.7181032,-0.21240234,-5.977002,147.0
19626,1.807312,-1.8881626,0.66018677,-2.7845948,0.115759276,-6.1904664,147.0
19627,2.4241714,-8.519014,3.5361633,-2.7845948,0.115759276,-6.1904664,147.0
19628,2.4241714,-8.519014,3.5361633,-3.3888795,-0.35152587,-5.527771,147.0
19629,4.012398,-14.474783,5.524002,-3.3888795,-0.35152587,-5.527771,147.0
19630,4.012398,-14.474783,5.524002,-4.7227664,0.025488282,-4.455139,147.0
19631,7.1591244,-19.680815,5.7967377,-4.7227664,0.025488282,-4.455139,147.0
19632,7.1591244,-19.680815,5.7967377,-4.33938,0.68287355,-3.7796998,147.0
19633,9.416985,-24.202404,4.3941193,-4.33938,0.68287355,-3.7796998,147.0
19634,9.416985,-24.202404,4.3941193,-2.430945,2.3948364,-2.8525636,147.0
19635,5.7002983,-22.457247,3.707611,-2.430945,2.3948364,-2.8525636,147.0
19636,5.7002983,-22.457247,3.707611,-3.4621582,2.985315,-1.448584,147.0
19637,-2.7366123,-14.6787615,4.0923767,-3.4621582,2.985315,-1.448584,147.0
19638,-2.7366123,-14.6787615,4.0923767,-3.8243043,3.3771973,-0.5522461,147.0
19639,-10.731247,-6.0913124,3.4358978,-3.8243043,3.3771973,-0.5522461,147.0
19640,-10.731247,-6.0913124,3.4358978,-3.623584,2.9035401,-0.6159668,147.0
19641,-15.923645,1.2579193,2.1694336,-3.623584,2.9035401,-0.6159668,147.0
19642,-15.923645,1.2579193,2.1694336,-4.4848757,2.4978516,-0.0063720704,147.0
19643,-18.225672,5.572876,0.8124542,-4.4848757,2.4978516,-0.0063720704,147.0
19644,-18.225672,5.572876,0.8124542,-3.4929566,2.4797974,0.24638672,147.0
19645,-18.531845,6.665991,0.12957764,-3.4929566,2.4797974,0.24638672,147.0
19646,-18.531845,6.665991,0.12957764,-1.0163453,2.259961,0.34940186,147.0
19647,-18.456823,7.1551075,-0.11697388,-1.0163453,2.259961,0.34940186,147.0
19648,-18.456823,7.1551075,-0.11697388,-0.18266602,1.7066529,1.0259033,147.0
19649,-19.362846,7.4000387,-0.6497345,-0.18266602,1.7066529,1.0259033,147.0
19650,-19.362846,7.4000387,-0.6497345,-1.0556396,1.8001099,0.8209351,147.0
19651,-20.045479,5.687475,-1.0798645,-1.0556396,1.8001099,0.8209351,147.0
19652,-20.045479,5.687475,-1.0798645,-1.2298096,1.3487549,-0.62340087,147.0
19653,-17.975151,2.3230515,-0.7979889,-1.2298096,1.3487549,-0.62340087,147.0
19654,-17.975151,2.3230515,-0.7979889,-0.8772217,0.26125488,0.16567384,147.0
19655,-13.451887,-1.2190132,-0.55296326,-0.8772217,0.26125488,0.16567384,147.0
19656,-13.451887,-1.2190132,-0.55296326,0.53525394,-1.0747559,1.6397461,147.0
19657,-8.113463,-4.5354404,-0.9891052,0.53525394,-1.0747559,1.6397461,147.0
19658,-8.113463,-4.5354404,-0.9891052,1.3455689,-1.5887696,1.8521484,147.0
19659,-1.7957268,-7.2017775,-1.4303284,1.3455689,-1.5887696,1.8521484,147.0
19660,-1.7957268,-7.2017775,-1.4303284,2.4596193,-2.4946656,3.260376,147.0
19661,4.412162,-9.740524,-1.3485565,2.4596193,-2.4946656,3.260376,147.0
19662,4.412162,-9.740524,-1.3485565,2.4978516,-2.8323853,4.081311,147.0
19663,9.934612,-14.080554,-0.60565186,2.4978516,-2.8323853,4.081311,147.0
19664,9.934612,-14.080554,-0.60565186,3.3294067,-2.451123,4.615503,147.0
19665,16.920616,-20.909512,1.1423492,3.3294067,-2.451123,4.615503,147.0
19666,16.920616,-20.909512,1.1423492,4.89375,-3.08302,7.0421996,147.0
19667,26.333563,-23.81583,2.9387207,4.89375,-3.08302,7.0421996,147.0
19668,26.333563,-23.81583,2.9387207,7.642236,-5.3865237,8.078723,147.0
19669,33.282967,-14.444096,2.7709198,7.642236,-5.3865237,8.078723,147.0
19670,33.282967,-14.444096,2.7709198,7.1069827,-5.945142,6.2956057,147.0
19671,33.282967,-14.444096,2.7709198,7.1069827,-5.945142,6.2956057,147.0
19672,30.621185,3.0687103,0.10147095,7.1069827,-5.945142,6.2956057,147.0
19673,30.621185,3.0687103,0.10147095,3.809436,-0.85598147,6.424109,147.0
19674,18.50061,16.25547,-2.5658722,3.809436,-0.85598147,6.424109,147.0
19675,18.50061,16.25547,-2.5658722,1.4963745,-1.2043213,5.0573,147.0
19676,5.5995235,21.195183,-3.481491,1.4963745,-1.2043213,5.0573,147.0
19677,5.5995235,21.195183,-3.481491,0.6414551,-1.3338867,3.8646607,147.0
19678,-0.6905842,22.019758,-4.154846,0.6414551,-1.3338867,3.8646607,147.0
19679,-0.6905842,22.019758,-4.154846,0.56605226,-1.6546143,2.4914796,147.0
19680,-1.2867088,22.756334,-5.288574,0.56605226,-1.6546143,2.4914796,147.0
19681,-1.2867088,22.756334,-5.288574,0.64995116,-1.4613281,1.6078857,147.0
19682,-0.30496597,24.040676,-6.6005707,0.64995116,-1.4613281,1.6078857,147.0
19683,-0.30496597,24.040676,-6.6005707,-0.58198243,-1.269104,1.1660889,147.0
19684,-0.28790474,22.711117,-7.465805,-0.58198243,-1.269104,1.1660889,147.0
19685,-0.28790474,22.711117,-7.465805,-2.2365968,-0.8602295,-0.62977296,147.0
19686,-1.36907,16.78149,-6.7386627,-2.2365968,-0.8602295,-0.62977296,147.0
19687,-1.36907,16.78149,-6.7386627,-1.5208008,-0.9239502,-3.0575318,147.0
19688,-2.0941582,9.668991,-3.6831512,-1.5208008,-0.9239502,-3.0575318,147.0
19689,-2.0941582,9.668991,-3.6831512,-1.4963745,-1.0630738,-5.3111205,147.0
19690,-1.3732872,5.2898426,-0.2230835,-1.4963745,-1.0630738,-5.3111205,147.0
19691,-1.3732872,5.2898426,-0.2230835,-3.2901123,-0.904834,-6.355078,147.0
19692,-0.0074806213,3.2120514,1.0626068,-3.2901123,-0.904834,-6.355078,147.0
19693,-0.0074806213,3.2120514,1.0626068,-3.9644897,0.047790527,-6.5855346,147.0
19694,1.1002159,0.08895111,0.89927673,-3.9644897,0.047790527,-6.5855346,147.0
19695,1.1002159,0.08895111,0.89927673,-3.1435547,0.4088745,-6.5600467,147.0
19696,3.017149,-7.7852116,2.2554474,-3.1435547,0.4088745,-6.5600467,147.0
19697,3.017149,-7.7852116,2.2554474,-3.7680175,0.30054933,-5.2835083,147.0
19698,6.324314,-18.690681,5.3100586,-3.7680175,0.30054933,-5.2835083,147.0
19699,6.324314,-18.690681,5.3100586,-4.873572,0.42161867,-4.9224243,147.0
19700,10.233572,-25.462849,5.3611298,-4.873572,0.42161867,-4.9224243,147.0
19701,10.233572,-25.462849,5.3611298,-4.8353395,0.2516968,-4.4593873,147.0
19702,10.507719,-26.451883,2.712799,-4.8353395,0.2516968,-4.4593873,147.0
19703,10.507719,-26.451883,2.712799,-5.340857,3.9262574,-2.623169,147.0
19704,3.6515732,-21.439938,2.7260437,-5.340857,3.9262574,-2.623169,147.0
19705,3.6515732,-21.439938,2.7260437,-6.072583,3.3665771,-1.1852051,147.0
19706,-6.5901546,-11.651913,4.5894012,-6.072583,3.3665771,-1.1852051,147.0
19707,-6.5901546,-11.651913,4.5894012,-4.9882693,3.6055298,-0.6775635,147.0
19708,-14.463604,-3.0142307,5.1903076,-4.9882693,3.6055298,-0.6775635,147.0
19709,-14.463604,-3.0142307,5.1903076,-3.1743531,3.1913452,-0.62127686,147.0
19710,-18.659348,2.3958054,4.667572,-3.1743531,3.1913452,-0.62127686,147.0
19711,-18.659348,2.3958054,4.667572,-2.6975098,3.0692139,-0.5479981,147.0
19712,-19.876135,5.377289,3.6642456,-2.6975098,3.0692139,-0.5479981,147.0
19713,-19.876135,5.377289,3.6642456,-2.6401613,2.9194703,-0.07434082,147.0
19714,-18.764727,6.8575926,2.574707,-2.6401613,2.9194703,-0.07434082,147.0
19715,-18.764727,6.8575926,2.574707,-2.3268678,2.7899048,0.3525879,147.0
19716,-17.347633,7.9013453,1.1763306,-2.3268678,2.7899048,0.3525879,147.0
19717,-17.347633,7.9013453,1.1763306,-1.9742798,2.3321779,1.2021973,147.0
19718,-18.128304,8.149946,-0.89356995,-1.9742798,2.3321779,1.2021973,147.0
19719,-18.128304,8.149946,-0.89356995,-1.6716064,2.2387207,1.4942505,147.0
19720,-19.285004,6.457738,-2.5335999,-1.6716064,2.2387207,1.4942505,147.0
19721,-19.285004,6.457738,-2.5335999,-0.60216063,1.3466309,-0.727478,147.0
19722,-16.710976,3.424613,-2.3119354,-0.60216063,1.3466309,-0.727478,147.0
19723,-16.710976,3.424613,-2.3119354,-0.023364259,0.25594482,-0.8973999,147.0
19724,-11.786932,0.2725029,-1.7629547,-0.023364259,0.25594482,-0.8973999,147.0
19725,-11.786932,0.2725029,-1.7629547,-0.6786255,-0.7890747,0.0063720704,147.0
19726,-7.4610395,-3.8849144,-3.3483124,-0.6786255,-0.7890747,0.0063720704,147.0
19727,-7.4610395,-3.8849144,-3.3483124,0.1985962,-2.1431396,0.77102053,147.0
19728,-2.2982016,-10.409238,-5.317871,0.1985962,-2.1431396,0.77102053,147.0
19729,-2.2982016,-10.409238,-5.317871,2.7559204,-3.617212,2.3640382,147.0
19730,4.2756605,-14.855674,-4.9952545,2.7559204,-3.617212,2.3640382,147.0
19731,4.2756605,-14.855674,-4.9952545,4.5093017,-4.150342,4.685596,147.0
19732,10.035727,-16.097576,-3.881485,4.5093017,-4.150342,4.685596,147.0
19733,10.035727,-16.097576,-3.881485,4.0250244,-3.976172,5.889917,147.0
19734,15.76386,-19.945824,-3.0569,4.0250244,-3.976172,5.889917,147.0
19735,15.76386,-19.945824,-3.0569,5.0041995,-4.171582,7.067688,147.0
19736,23.210344,-23.592499,-0.7059479,5.0041995,-4.171582,7.067688,147.0
19737,23.210344,-23.592499,-0.7059479,5.0318117,-6.1023192,8.4387455,147.0
