,accx,accy,accz,gyrox,gyroy,gyroz,heart rate
18010,run,run,run,run,run,run,run
18011,-0.13102245,-0.1007843,0.6170502,0.08496094,-0.03186035,-0.081774905,75.0
18012,-1.2991171,-2.0426388,-7.405884,0.08496094,-0.03186035,-0.081774905,75.0
18013,-1.2991171,-2.0426388,-7.405884,0.083898924,-0.033984374,-0.093457036,75.0
18014,-1.0468988,-1.6266041,-5.941086,0.083898924,-0.033984374,-0.093457036,75.0
18015,-1.0468988,-1.6266041,-5.941086,0.1083252,-0.047790527,-0.07646485,75.0
18016,-1.0468988,-1.6266041,-5.941086,0.04885254,-0.053100586,-0.06584473,75.0
18017,-0.855073,-1.0388317,2.875229,0.04885254,-0.053100586,-0.06584473,75.0
18018,-0.6684952,-0.7882309,2.301941,0.04885254,-0.053100586,-0.06584473,75.0
18019,-0.6684952,-0.7882309,2.301941,-0.0063720704,-0.046728518,-0.081774905,75.0
18020,-0.5326357,-0.70446205,1.9330139,-0.0063720704,-0.046728518,-0.081774905,75.0
18021,-0.5326357,-0.70446205,1.9330139,0.015930176,-0.05628662,-0.107263185,75.0
18022,-0.44949722,-0.6847496,1.6179657,0.015930176,-0.05628662,-0.107263185,75.0
18023,-0.44949722,-0.6847496,1.6179657,0.057348635,-0.06478272,-0.1274414,75.0
18024,-0.36018372,-0.59698105,1.3164368,0.057348635,-0.06478272,-0.1274414,75.0
18025,-0.36018372,-0.59698105,1.3164368,0.1274414,-0.06903076,-0.12531738,75.0
18026,-0.28524113,-0.34644508,1.0369568,0.1274414,-0.06903076,-0.12531738,75.0
18027,-0.28524113,-0.34644508,1.0369568,0.09664307,-0.06265869,-0.12850343,75.0
18028,-0.23034096,-0.048908234,0.8152313,0.09664307,-0.06265869,-0.12850343,75.0
18029,-0.23034096,-0.048908234,0.8152313,0.060534667,-0.05628662,-0.09133301,75.0
18030,-0.17941475,0.044319153,0.66322327,0.060534667,-0.05628662,-0.09133301,75.0
18031,-0.17941475,0.044319153,0.66322327,0.008496094,-0.04460449,-0.06265869,75.0
18032,-0.17695427,-0.047101974,0.5033417,0.008496094,-0.04460449,-0.06265869,75.0
18033,-0.17695427,-0.047101974,0.5033417,0.06796875,-0.06159668,-0.022302246,75.0
18034,-0.17695427,-0.047101974,0.5033417,0.15717773,-0.10195313,-0.083898924,75.0
18035,-0.18526459,-0.10372162,0.304245,0.15717773,-0.10195313,-0.083898924,75.0
18036,-0.12709332,-0.14183998,-0.03227234,0.15717773,-0.10195313,-0.083898924,75.0
18037,-0.12709332,-0.14183998,-0.03227234,0.18054199,-0.12319336,-0.004248047,75.0
18038,-0.046523094,-0.11704826,-0.39363098,0.18054199,-0.12319336,-0.004248047,75.0
18039,-0.046523094,-0.11704826,-0.39363098,0.22833252,-0.15505372,-0.004248047,75.0
18040,0.047901154,-0.06945801,-0.4069519,0.22833252,-0.15505372,-0.004248047,75.0
18041,0.047901154,-0.06945801,-0.4069519,0.30161133,-0.2538208,0.043542482,75.0
18042,0.047901154,-0.06945801,-0.4069519,0.35152587,-0.23364258,-0.016992187,75.0
18043,0.08529377,-0.10079193,-0.12176514,0.35152587,-0.23364258,-0.016992187,75.0
18044,0.09434605,-0.18899536,0.17486572,0.35152587,-0.23364258,-0.016992187,75.0
18045,0.09434605,-0.18899536,0.17486572,0.5012695,-0.20709229,0.03079834,75.0
18046,0.1309824,-0.27025223,0.28781128,0.5012695,-0.20709229,0.03079834,75.0
18047,0.1309824,-0.27025223,0.28781128,0.6265869,-0.11682129,0.14868164,75.0
18048,0.035511017,-0.28036308,0.25515747,0.6265869,-0.11682129,0.14868164,75.0
18049,0.035511017,-0.28036308,0.25515747,0.69136965,-0.009558106,0.13912354,75.0
18050,-0.20246315,-0.30908012,0.30776978,0.69136965,-0.009558106,0.13912354,75.0
18051,-0.20246315,-0.30908012,0.30776978,0.93350834,0.078588866,0.2548828,75.0
18052,-0.4310379,-0.3027687,0.4680786,0.93350834,0.078588866,0.2548828,75.0
18053,-0.4310379,-0.3027687,0.4680786,1.0439576,0.1996582,0.36108398,75.0
18054,-0.57398033,-0.13292503,0.55570984,1.0439576,0.1996582,0.36108398,75.0
18055,-0.57398033,-0.13292503,0.55570984,0.9133301,0.3727661,0.44923097,75.0
18056,-0.73036385,0.18314934,0.38961792,0.9133301,0.3727661,0.44923097,75.0
18057,-0.73036385,0.18314934,0.38961792,0.72323,0.5256958,0.57561034,75.0
18058,-0.9221821,0.3944931,0.018554688,0.72323,0.5256958,0.57561034,75.0
18059,-0.9221821,0.3944931,0.018554688,0.6881836,0.5628662,0.6711914,75.0
18060,-0.9221821,0.3944931,0.018554688,0.6680054,0.5894165,0.70305175,75.0
18061,-0.9645519,0.42993927,-0.260849,0.6680054,0.5894165,0.70305175,75.0
18062,-0.78743744,0.42288208,-0.3149109,0.6680054,0.5894165,0.70305175,75.0
18063,-0.78743744,0.42288208,-0.3149109,0.6138428,0.6414551,0.70942384,75.0
18064,-0.5122738,0.4140396,-0.2945099,0.6138428,0.6414551,0.70942384,75.0
18065,-0.5122738,0.4140396,-0.2945099,0.5511841,0.67650145,0.7083618,75.0
18066,-0.24585438,0.43416023,-0.3089447,0.5511841,0.67650145,0.7083618,75.0
18067,-0.24585438,0.43416023,-0.3089447,0.4619751,0.69349366,0.6786255,75.0
18068,-0.0042152405,0.4537258,-0.34370422,0.4619751,0.69349366,0.6786255,75.0
18069,-0.0042152405,0.4537258,-0.34370422,0.4428589,0.7062378,0.6223389,75.0
18070,0.2127533,0.4513607,-0.42416382,0.4428589,0.7062378,0.6223389,75.0
18071,0.2127533,0.4513607,-0.42416382,0.40037844,0.71579593,0.55543214,75.0
18072,0.36119366,0.43912888,-0.54859924,0.40037844,0.71579593,0.55543214,75.0
18073,0.36119366,0.43912888,-0.54859924,0.3334717,0.725354,0.51082766,75.0
18074,0.42580795,0.426157,-0.6959839,0.3334717,0.725354,0.51082766,75.0
18075,0.42580795,0.426157,-0.6959839,0.28674316,0.6924316,0.48109132,75.0
18076,0.45176697,0.4049015,-0.7726898,0.28674316,0.6924316,0.48109132,75.0
18077,0.45176697,0.4049015,-0.7726898,0.2538208,0.65844727,0.42055663,75.0
18078,0.4757204,0.2840767,-0.7848816,0.2538208,0.65844727,0.42055663,75.0
18079,0.4757204,0.2840767,-0.7848816,0.2984253,0.5915405,0.4078125,75.0
18080,0.46191216,0.16620255,-0.7770233,0.2984253,0.5915405,0.4078125,75.0
18081,0.46191216,0.16620255,-0.7770233,0.31860352,0.47365722,0.33771974,75.0
18082,0.44144154,0.23609924,-0.69033813,0.31860352,0.47365722,0.33771974,75.0
18083,0.44144154,0.23609924,-0.69033813,0.18160401,0.3727661,0.16567384,75.0
18084,0.50494766,0.3192997,-0.5708771,0.18160401,0.3727661,0.16567384,75.0
18085,0.50494766,0.3192997,-0.5708771,-0.057348635,0.29099122,-0.04141846,75.0
18086,0.6327543,0.26592636,-0.4994812,-0.057348635,0.29099122,-0.04141846,75.0
18087,0.6327543,0.26592636,-0.4994812,-0.3090454,0.20709229,-0.29736328,75.0
18088,0.81208706,0.2553196,-0.5343323,-0.3090454,0.20709229,-0.29736328,75.0
18089,0.81208706,0.2553196,-0.5343323,-0.7317261,0.13381349,-0.67437744,75.0
18090,1.0386591,0.43203926,-0.6114197,-0.7317261,0.13381349,-0.67437744,75.0
18091,1.0386591,0.43203926,-0.6114197,-1.6057618,0.07540283,-1.2021973,75.0
18092,1.2667913,0.55392075,-0.7222595,-1.6057618,0.07540283,-1.2021973,75.0
18093,1.2667913,0.55392075,-0.7222595,-2.703882,-0.029736329,-1.7491333,75.0
18094,1.4276543,0.2520218,-0.83110046,-2.703882,-0.029736329,-1.7491333,75.0
18095,1.4276543,0.2520218,-0.83110046,-3.8795288,-0.14549561,-2.1813722,75.0
18096,1.5128136,-0.5363827,-0.74957275,-3.8795288,-0.14549561,-2.1813722,75.0
18097,1.5128136,-0.5363827,-0.74957275,-5.2038574,-0.2081543,-2.4001465,75.0
18098,1.4583702,-1.5230751,-0.4055481,-5.2038574,-0.2081543,-2.4001465,75.0
18099,1.4583702,-1.5230751,-0.4055481,-6.5494266,-0.12319336,-2.356604,75.0
18100,1.1132288,-2.2707672,0.057495117,-6.5494266,-0.12319336,-2.356604,75.0
18101,1.1132288,-2.2707672,0.057495117,-7.7240114,-0.052038576,-2.3173096,75.0
18102,0.47205353,-2.8023186,0.5097351,-7.7240114,-0.052038576,-2.3173096,75.0
18103,0.47205353,-2.8023186,0.5097351,-8.4748535,-0.06265869,-2.427759,75.0
18104,-0.1343689,-3.3564548,0.9319916,-8.4748535,-0.06265869,-2.427759,75.0
18105,-0.1343689,-3.3564548,0.9319916,-8.886914,-0.22196046,-2.6444092,75.0
18106,-0.50233173,-3.8757763,1.7327118,-8.886914,-0.22196046,-2.6444092,75.0
18107,-0.50233173,-3.8757763,1.7327118,-8.296435,-0.3525879,-3.1414306,75.0
18108,-0.7066879,-4.034397,3.269928,-8.296435,-0.3525879,-3.1414306,75.0
18109,-0.7066879,-4.034397,3.269928,-6.8276734,-0.4354248,-3.8742187,75.0
18110,-0.8651304,-3.5775433,4.9000244,-6.8276734,-0.4354248,-3.8742187,75.0
18111,-0.8651304,-3.5775433,4.9000244,-5.7656617,-0.28674316,-4.8024173,75.0
18112,-0.8908224,-2.761034,5.0885925,-5.7656617,-0.28674316,-4.8024173,75.0
18113,-0.8908224,-2.761034,5.0885925,-5.1125245,0.03717041,-5.5532594,75.0
18114,-0.8549557,-2.287012,3.2945404,-5.1125245,0.03717041,-5.5532594,75.0
18115,-0.8549557,-2.287012,3.2945404,-4.152466,0.2782471,-6.632263,75.0
18116,-0.6762619,-2.8123493,0.71939087,-4.152466,0.2782471,-6.632263,75.0
18117,-0.6762619,-2.8123493,0.71939087,-3.0341675,0.09664307,-7.520105,75.0
18118,0.24310875,-4.558937,-1.3035278,-3.0341675,0.09664307,-7.520105,75.0
18119,0.24310875,-4.558937,-1.3035278,-2.6529052,0.081774905,-7.494617,75.0
18120,0.24310875,-4.558937,-1.3035278,-2.6709595,0.41206056,-7.5774536,75.0
18121,1.5899086,-6.489666,-2.0879822,-2.6709595,0.41206056,-7.5774536,75.0
18122,2.449624,-7.3009977,-1.3244781,-2.6709595,0.41206056,-7.5774536,75.0
18123,2.449624,-7.3009977,-1.3244781,-4.0313964,0.87615967,-7.1165404,75.0
18124,2.6675968,-6.35104,0.51519775,-4.0313964,0.87615967,-7.1165404,75.0
18125,2.6675968,-6.35104,0.51519775,-5.0254397,2.1325195,-6.536682,75.0
18126,1.3969917,-5.5571012,1.6389008,-5.0254397,2.1325195,-6.536682,75.0
18127,1.3969917,-5.5571012,1.6389008,-3.80094,2.7442384,-6.7363405,75.0
18128,-1.438962,-5.0281525,0.30830383,-3.80094,2.7442384,-6.7363405,75.0
18129,-1.438962,-5.0281525,0.30830383,-1.7682495,2.1962402,-6.070459,75.0
18130,-2.5795517,-3.2016964,-2.3858337,-1.7682495,2.1962402,-6.070459,75.0
18131,-2.5795517,-3.2016964,-2.3858337,-2.7537963,2.0072021,-5.1794314,75.0
18132,-1.8634825,-2.0968552,-4.257721,-2.7537963,2.0072021,-5.1794314,75.0
18133,-1.8634825,-2.0968552,-4.257721,-4.805603,1.9360474,-4.7525024,75.0
18134,-2.2350855,-4.427655,-5.023239,-4.805603,1.9360474,-4.7525024,75.0
18135,-2.2350855,-4.427655,-5.023239,-4.4785037,1.7406372,-3.9517457,75.0
18136,-3.994831,-7.5990944,-5.066208,-4.4785037,1.7406372,-3.9517457,75.0
18137,-3.994831,-7.5990944,-5.066208,-1.2542359,1.3020264,-2.2801392,75.0
18138,-5.3154817,-6.329947,-4.0829163,-1.2542359,1.3020264,-2.2801392,75.0
18139,-5.3154817,-6.329947,-4.0829163,1.2839721,-0.060534667,-0.56605226,75.0
18140,-4.1361866,-1.8821096,-2.1829834,1.2839721,-0.060534667,-0.56605226,75.0
18141,-4.1361866,-1.8821096,-2.1829834,1.721521,-1.0205933,0.4439209,75.0
18142,-0.6432142,1.1323862,-0.28826904,1.721521,-1.0205933,0.4439209,75.0
18143,-0.6432142,1.1323862,-0.28826904,1.9402955,-1.6939087,1.7406372,75.0
18144,2.8154945,1.8330817,0.47329712,1.9402955,-1.6939087,1.7406372,75.0
18145,2.8154945,1.8330817,0.47329712,2.5488281,-2.4925416,2.9470825,75.0
18146,5.299283,1.6061015,-0.08856201,2.5488281,-2.4925416,2.9470825,75.0
18147,5.299283,1.6061015,-0.08856201,3.5003908,-3.2210815,4.0313964,75.0
18148,7.7255716,1.3237486,-1.2255859,3.5003908,-3.2210815,4.0313964,75.0
18149,7.7255716,1.3237486,-1.2255859,4.0112185,-3.4249878,4.974463,75.0
18150,10.237989,1.2777853,-2.2205353,4.0112185,-3.4249878,4.974463,75.0
18151,10.237989,1.2777853,-2.2205353,4.3181396,-3.3931274,5.662647,75.0
18152,12.213476,1.1340694,-2.7687988,4.3181396,-3.3931274,5.662647,75.0
18153,12.213476,1.1340694,-2.7687988,4.532666,-3.2975464,6.4442873,75.0
18154,13.492144,1.0019207,-3.048294,4.532666,-3.2975464,6.4442873,75.0
18155,13.492144,1.0019207,-3.048294,4.9946413,-3.0925782,6.794751,75.0
18156,13.028139,1.7373524,-3.0653687,4.9946413,-3.0925782,6.794751,75.0
18157,13.028139,1.7373524,-3.0653687,4.1067996,-2.7750366,7.0315795,75.0
18158,10.066372,3.5993423,-2.4068146,4.1067996,-2.7750366,7.0315795,75.0
18159,10.066372,3.5993423,-2.4068146,3.5088868,-2.6837037,7.319385,75.0
18160,5.562229,6.0210514,-0.9339905,3.5088868,-2.6837037,7.319385,75.0
18161,5.562229,6.0210514,-0.9339905,2.5690064,-2.5626342,7.240796,75.0
18162,0.7955837,7.8223343,0.8205719,2.5690064,-2.5626342,7.240796,75.0
18163,0.7955837,7.8223343,0.8205719,1.9636596,-2.8801758,6.2053347,75.0
18164,-2.9200287,7.968611,2.056137,1.9636596,-2.8801758,6.2053347,75.0
18165,-2.9200287,7.968611,2.056137,1.2945923,-3.2763062,4.9277344,75.0
18166,-4.664404,7.5236435,2.1862488,1.2945923,-3.2763062,4.9277344,75.0
18167,-4.664404,7.5236435,2.1862488,1.3530029,-3.5556152,4.189636,75.0
18168,-4.654375,8.199873,1.4972839,1.3530029,-3.5556152,4.189636,75.0
18169,-4.654375,8.199873,1.4972839,1.9286133,-3.709607,3.1095703,75.0
18170,-3.6291656,10.734484,1.3629608,1.9286133,-3.709607,3.1095703,75.0
18171,-3.6291656,10.734484,1.3629608,1.9848999,-3.0989501,1.8266602,75.0
18172,-2.7163467,13.869253,2.5449982,1.9848999,-3.0989501,1.8266602,75.0
18173,-2.7163467,13.869253,2.5449982,1.0970582,-1.9817139,0.43117675,75.0
18174,-2.508356,14.252995,4.0091095,1.0970582,-1.9817139,0.43117675,75.0
18175,-2.508356,14.252995,4.0091095,-0.121069334,-0.7763306,-1.5940796,75.0
18176,-1.7014599,10.379545,4.2967834,-0.121069334,-0.7763306,-1.5940796,75.0
18177,-1.7014599,10.379545,4.2967834,-0.4354248,0.49277344,-3.5598633,75.0
18178,0.3751831,4.635435,3.1338196,-0.4354248,0.49277344,-3.5598633,75.0
18179,0.3751831,4.635435,3.1338196,-0.7975708,1.6248779,-4.963843,75.0
18180,2.4476814,-0.043092728,1.8987274,-0.7975708,1.6248779,-4.963843,75.0
18181,2.4476814,-0.043092728,1.8987274,-0.81668705,2.5063477,-5.8283205,75.0
18182,4.0947533,-2.993433,1.4121552,-0.81668705,2.5063477,-5.8283205,75.0
18183,4.0947533,-2.993433,1.4121552,-1.4432739,3.1180665,-6.9625487,75.0
18184,6.752964,-6.9206142,0.80656433,-1.4432739,3.1180665,-6.9625487,75.0
18185,6.752964,-6.9206142,0.80656433,-2.4585571,4.1291018,-7.5455933,75.0
18186,9.788795,-14.472637,-0.15519714,-2.4585571,4.1291018,-7.5455933,75.0
18187,9.788795,-14.472637,-0.15519714,-3.43667,4.439209,-6.6524415,75.0
18188,9.195795,-21.839073,-0.19671631,-3.43667,4.439209,-6.6524415,75.0
18189,9.195795,-21.839073,-0.19671631,-3.342151,4.918176,-4.6845336,75.0
18190,3.288557,-22.088959,1.1430054,-3.342151,4.918176,-4.6845336,75.0
18191,3.288557,-22.088959,1.1430054,-3.3994997,4.3680544,-3.625708,75.0
18192,-4.4955215,-15.737562,2.0131073,-3.3994997,4.3680544,-3.625708,75.0
18193,-4.4955215,-15.737562,2.0131073,-1.7724975,3.9305055,-2.5721924,75.0
18194,-10.501556,-8.106676,1.0693512,-1.7724975,3.9305055,-2.5721924,75.0
18195,-10.501556,-8.106676,1.0693512,-0.6202149,3.5025146,-2.4182007,75.0
18196,-13.621656,-1.9201307,-1.1953735,-0.6202149,3.5025146,-2.4182007,75.0
18197,-13.621656,-1.9201307,-1.1953735,-0.59047854,3.5014527,-1.8468384,75.0
18198,-14.765673,1.8800454,-3.465271,-0.59047854,3.5014527,-1.8468384,75.0
18199,-14.765673,1.8800454,-3.465271,-1.0736939,3.63208,-1.7109009,75.0
18200,-15.369448,3.247652,-4.4961243,-1.0736939,3.63208,-1.7109009,75.0
18201,-15.369448,3.247652,-4.4961243,-1.2149414,3.7212892,-1.4613281,75.0
18202,-15.893471,3.2603893,-4.698181,-1.2149414,3.7212892,-1.4613281,75.0
18203,-15.893471,3.2603893,-4.698181,-1.0365235,3.4058716,-0.7880127,75.0
18204,-16.325043,3.368163,-5.322891,-1.0365235,3.4058716,-0.7880127,75.0
18205,-16.325043,3.368163,-5.322891,-1.3530029,2.986377,-0.052038576,75.0
18206,-17.042408,3.7204952,-5.562744,-1.3530029,2.986377,-0.052038576,75.0
18207,-17.042408,3.7204952,-5.562744,-1.5261109,2.1558838,0.5766724,75.0
18208,-16.869167,3.0300465,-4.126816,-1.5261109,2.1558838,0.5766724,75.0
18209,-16.869167,3.0300465,-4.126816,-1.2000732,0.59260255,0.8092529,75.0
18210,-13.405723,0.7688122,-2.1019592,-1.2000732,0.59260255,0.8092529,75.0
18211,-13.405723,0.7688122,-2.1019592,-0.7434082,-0.7880127,1.3094605,75.0
18212,-7.1606503,-1.3469257,-0.6598053,-0.7434082,-0.7880127,1.3094605,75.0
18213,-7.1606503,-1.3469257,-0.6598053,-0.004248047,-1.7501954,2.270581,75.0
18214,-1.0531292,-2.5114517,0.09724426,-0.004248047,-1.7501954,2.270581,75.0
18215,-1.0531292,-2.5114517,0.09724426,0.39506838,-2.4192626,3.2964845,75.0
18216,3.5078754,-4.1393375,0.33273315,0.39506838,-2.4192626,3.2964845,75.0
18217,3.5078754,-4.1393375,0.33273315,0.78376466,-3.0192993,4.816223,75.0
18218,7.673659,-7.5372763,0.20622253,0.78376466,-3.0192993,4.816223,75.0
18219,7.673659,-7.5372763,0.20622253,1.2818482,-3.8476684,6.1787844,75.0
18220,14.205664,-12.825756,-0.06718445,1.2818482,-3.8476684,6.1787844,75.0
18221,14.205664,-12.825756,-0.06718445,1.8702027,-5.898413,6.780945,75.0
18222,25.232683,-16.049973,-0.28315735,1.8702027,-5.898413,6.780945,75.0
18223,25.232683,-16.049973,-0.28315735,2.439441,-6.588721,6.988037,75.0
18224,25.232683,-16.049973,-0.28315735,2.439441,-6.588721,6.988037,0.0
18225,33.04457,-13.460034,0.9757538,2.439441,-6.588721,6.988037,0.0
18226,33.04457,-13.460034,0.9757538,6.2902956,-5.0434937,8.137134,0.0
18227,29.861132,-5.1642923,2.190979,6.2902956,-5.0434937,8.137134,0.0
18228,29.861132,-5.1642923,2.190979,6.4092407,-5.03606,7.76543,0.0
18229,19.379139,5.6080804,1.7701111,6.4092407,-5.03606,7.76543,0.0
18230,19.379139,5.6080804,1.7701111,-0.5777344,-4.303272,8.31449,0.0
18231,8.228043,12.759231,1.127533,-0.5777344,-4.303272,8.31449,0.0
18232,8.228043,12.759231,1.127533,-2.5445802,-4.2214966,7.677283,0.0
18233,0.88999176,14.097643,1.7625885,-2.5445802,-4.2214966,7.677283,0.0
18234,0.88999176,14.097643,1.7625885,-1.6408081,-4.781177,6.2233887,0.0
18235,-1.6846142,13.309328,4.2384033,-1.6408081,-4.781177,6.2233887,0.0
18236,-1.6846142,13.309328,4.2384033,-1.358313,-4.1089234,4.6675415,0.0
18237,-1.9482174,14.25226,5.9920197,-1.358313,-4.1089234,4.6675415,0.0
18238,-1.9482174,14.25226,5.9920197,-1.7087768,-2.904602,3.2317016,0.0
18239,-2.7815838,16.26012,4.61351,-1.7087768,-2.904602,3.2317016,0.0
18240,-2.7815838,16.26012,4.61351,-3.5237548,-1.9562256,1.4369019,0.0
18241,-3.928711,15.569962,2.661026,-3.5237548,-1.9562256,1.4369019,0.0
18242,-3.928711,15.569962,2.661026,-3.0500977,-1.4528321,-0.630835,0.0
18243,-3.797144,11.298853,3.1097717,-3.0500977,-1.4528321,-0.630835,0.0
18244,-3.797144,11.298853,3.1097717,-1.5611572,-0.0637207,-2.4766114,0.0
18245,-2.6715279,5.9770584,3.534134,-1.5611572,-0.0637207,-2.4766114,0.0
18246,-2.6715279,5.9770584,3.534134,-0.8602295,1.7576294,-3.7425294,0.0
18247,-1.6653118,1.8141537,1.6042633,-0.8602295,1.7576294,-3.7425294,0.0
18248,-1.6653118,1.8141537,1.6042633,-1.3137085,3.2157714,-4.432837,0.0
18249,-0.71926117,-1.0994949,-0.746994,-1.3137085,3.2157714,-4.432837,0.0
18250,-0.71926117,-1.0994949,-0.746994,-1.1034302,4.2214966,-4.461511,0.0
18251,0.3085022,-3.1320267,-1.502182,-1.1034302,4.2214966,-4.461511,0.0
18252,0.3085022,-3.1320267,-1.502182,-0.5979126,5.229346,-4.701526,0.0
18253,1.9752445,-6.0276566,-1.1906738,-0.5979126,5.229346,-4.701526,0.0
18254,1.9752445,-6.0276566,-1.1906738,0.48109132,5.5713134,-4.53479,0.0
18255,4.9706116,-11.9909,-1.0987549,0.48109132,5.5713134,-4.53479,0.0
18256,4.9706116,-11.9909,-1.0987549,0.54906005,6.2626834,-4.5932007,0.0
18257,6.092285,-17.38304,-0.6470947,0.54906005,6.2626834,-4.5932007,0.0
18258,6.092285,-17.38304,-0.6470947,-0.4078125,6.3795047,-4.0929933,0.0
18259,2.4156742,-17.210802,0.56404114,-0.4078125,6.3795047,-4.0929933,0.0
18260,2.4156742,-17.210802,0.56404114,-2.0645509,6.0078006,-3.1902833,0.0
18261,-4.2039967,-12.482277,1.3744049,-2.0645509,6.0078006,-3.1902833,0.0
18262,-4.2039967,-12.482277,1.3744049,-1.5792115,5.313245,-2.1442018,0.0
18263,-10.3117695,-6.853974,1.3312836,-1.5792115,5.313245,-2.1442018,0.0
18264,-10.3117695,-6.853974,1.3312836,-0.06159668,4.3563724,-1.987024,0.0
18265,-12.926735,-2.3687506,0.66825867,-0.06159668,4.3563724,-1.987024,0.0
18266,-12.926735,-2.3687506,0.66825867,0.9133301,3.6618164,-2.0125122,0.0
18267,-12.432489,1.3260565,-0.48202515,0.9133301,3.6618164,-2.0125122,0.0
18268,-12.432489,1.3260565,-0.48202515,0.2357666,3.6681886,-1.7873658,0.0
18269,-11.79565,4.5621023,-1.5823059,0.2357666,3.6681886,-1.7873658,0.0
18270,-11.79565,4.5621023,-1.5823059,-0.68924564,3.9209473,-1.5547851,0.0
18271,-12.556417,6.452734,-2.7608185,-0.68924564,3.9209473,-1.5547851,0.0
18272,-12.556417,6.452734,-2.7608185,-1.0259033,4.173706,-1.4560181,0.0
18273,-14.548333,6.3533983,-4.878998,-1.0259033,4.173706,-1.4560181,0.0
18274,-14.548333,6.3533983,-4.878998,-1.0726318,3.8699708,-1.175647,0.0
18275,-17.017134,5.4616613,-6.9033966,-1.0726318,3.8699708,-1.175647,0.0
18276,-17.017134,5.4616613,-6.9033966,-0.22833252,2.3098755,-0.4609131,0.0
18277,-17.611876,5.442108,-6.7578278,-0.22833252,2.3098755,-0.4609131,0.0
18278,-17.611876,5.442108,-6.7578278,0.32391357,0.71154785,0.2984253,0.0
18279,-14.317858,5.323292,-4.306885,0.32391357,0.71154785,0.2984253,0.0
18280,-14.317858,5.323292,-4.306885,-0.10301514,-0.6202149,0.51826173,0.0
18281,-8.486355,3.349783,-1.5056152,-0.10301514,-0.6202149,0.51826173,0.0
18282,-8.486355,3.349783,-1.5056152,-0.3525879,-1.7480713,1.1342286,0.0
18283,-2.6479707,-0.20437717,-0.18725586,-0.3525879,-1.7480713,1.1342286,0.0
18284,-2.6479707,-0.20437717,-0.18725586,0.25063476,-2.626355,2.073047,0.0
18285,2.5473342,-4.1053724,-0.26036072,0.25063476,-2.626355,2.073047,0.0
18286,2.5473342,-4.1053724,-0.26036072,1.2032593,-3.258252,3.703235,0.0
18287,7.115724,-7.081624,-0.76371765,1.2032593,-3.258252,3.703235,0.0
18288,7.115724,-7.081624,-0.76371765,1.4379638,-3.9124513,4.878882,0.0
18289,11.724831,-9.762639,0.072784424,1.4379638,-3.9124513,4.878882,0.0
18290,11.724831,-9.762639,0.072784424,0.80394286,-4.9086185,5.712561,0.0
18291,18.764252,-12.360917,1.9842377,0.80394286,-4.9086185,5.712561,0.0
18292,18.764252,-12.360917,1.9842377,3.2136476,-5.249524,5.7614136,0.0
18293,22.295252,-11.080665,3.2473602,3.2136476,-5.249524,5.7614136,0.0
18294,22.295252,-11.080665,3.2473602,1.3753052,-4.961719,4.591077,0.0
18295,18.060555,-5.486651,3.59198,1.3753052,-4.961719,4.591077,0.0
18296,18.060555,-5.486651,3.59198,-0.9197022,-4.8523316,5.8378787,0.0
18297,11.561626,-0.5809591,2.9816284,-0.9197022,-4.8523316,5.8378787,0.0
18298,11.561626,-0.5809591,2.9816284,-3.43136,-5.1996093,5.407764,0.0
18299,6.443907,2.126883,1.3898163,-3.43136,-5.1996093,5.407764,0.0
18300,6.443907,2.126883,1.3898163,-2.3226197,-5.3822756,4.7429442,0.0
18301,3.0256824,4.4658985,0.26390076,-2.3226197,-5.3822756,4.7429442,0.0
18302,3.0256824,4.4658985,0.26390076,-1.8192261,-5.357849,4.0972414,0.0
18303,1.2117577,7.5620375,0.6241455,-1.8192261,-5.357849,4.0972414,0.0
18304,1.2117577,7.5620375,0.6241455,-2.2153566,-4.8650756,3.347461,0.0
18305,0.65708923,10.951326,1.8609009,-2.2153566,-4.8650756,3.347461,0.0
18306,0.65708923,10.951326,1.8609009,-2.6412232,-4.0027223,2.3820922,0.0
18307,0.35227013,13.3898945,2.4713745,-2.6412232,-4.0027223,2.3820922,0.0
18308,0.35227013,13.3898945,2.4713745,-3.1924074,-3.1201904,1.3498169,0.0
18309,0.16509247,13.402554,2.8765717,-3.1924074,-3.1201904,1.3498169,0.0
18310,0.16509247,13.402554,2.8765717,-3.5757935,-2.0188844,0.16461182,0.0
18311,0.6345768,10.256565,4.097107,-3.5757935,-2.0188844,0.16461182,0.0
18312,0.6345768,10.256565,4.097107,-3.2359498,-0.80606693,-0.94412845,0.0
18313,2.0567455,5.655117,4.7085114,-3.2359498,-0.80606693,-0.94412845,0.0
18314,2.0567455,5.655117,4.7085114,-1.6493043,0.36320803,-1.9254273,0.0
18315,3.7849464,2.4672585,3.3421173,-1.6493043,0.36320803,-1.9254273,0.0
18316,3.7849464,2.4672585,3.3421173,-0.14761963,1.9764038,-2.6019287,0.0
18317,4.39645,1.2614651,0.9106293,-0.14761963,1.9764038,-2.6019287,0.0
18318,4.39645,1.2614651,0.9106293,0.34833986,3.1626709,-3.0129273,0.0
18319,3.6530132,0.35167694,-0.6167145,0.34833986,3.1626709,-3.0129273,0.0
18320,3.6530132,0.35167694,-0.6167145,-0.008496094,4.259729,-2.9003541,0.0
18321,2.4571037,-1.88974,-0.93084717,-0.008496094,4.259729,-2.9003541,0.0
18322,2.4571037,-1.88974,-0.93084717,0.41524658,5.081726,-2.352356,0.0
18323,2.8764248,-6.895275,-1.6595001,0.41524658,5.081726,-2.352356,0.0
18324,2.8764248,-6.895275,-1.6595001,0.71154785,5.5405154,-2.5105958,0.0
18325,4.5487823,-13.05311,-3.0796661,0.71154785,5.5405154,-2.5105958,0.0
18326,4.5487823,-13.05311,-3.0796661,1.2075074,6.548364,-3.348523,0.0
18327,4.0286617,-16.370893,-3.3780212,1.2075074,6.548364,-3.348523,0.0
18328,4.0286617,-16.370893,-3.3780212,-0.11682129,5.9090333,-3.7276611,0.0
18329,0.60787773,-15.301048,-2.122696,-0.11682129,5.9090333,-3.7276611,0.0
18330,0.60787773,-15.301048,-2.122696,-0.85385746,6.0024905,-2.5159059,0.0
18331,-4.376114,-10.734467,-0.5478058,-0.85385746,6.0024905,-2.5159059,0.0
18332,-4.376114,-10.734467,-0.5478058,0.22196046,5.0063233,-2.258899,0.0
18333,-8.97035,-4.805579,0.580719,0.22196046,5.0063233,-2.258899,0.0
18334,-8.97035,-4.805579,0.580719,0.8527954,4.326636,-2.0518067,0.0
18335,-11.391857,0.6535716,0.6497345,0.8527954,4.326636,-2.0518067,0.0
18336,-11.391857,0.6535716,0.6497345,0.8517334,3.9570558,-1.9562256,0.0
18337,-12.241198,4.408209,0.03869629,0.8517334,3.9570558,-1.9562256,0.0
18338,-12.241198,4.408209,0.03869629,0.7306641,3.8296144,-1.8202881,0.0
18339,-13.035622,6.2430344,-1.2224121,0.7306641,3.8296144,-1.8202881,0.0
18340,-13.035622,6.2430344,-1.2224121,0.41737062,3.622522,-1.6078857,0.0
18341,-15.098907,6.610736,-3.3214264,0.41737062,3.622522,-1.6078857,0.0
18342,-15.098907,6.610736,-3.3214264,0.3791382,3.07771,-1.3678712,0.0
18343,-18.660376,6.2121725,-4.790512,0.3791382,3.07771,-1.3678712,0.0
18344,-18.660376,6.2121725,-4.790512,1.0110352,1.364685,-0.6074707,0.0
18345,-18.248247,5.4855585,-4.4726715,1.0110352,1.364685,-0.6074707,0.0
18346,-18.248247,5.4855585,-4.4726715,1.2542359,0.7041138,-0.070092775,0.0
18347,-17.898952,5.2502146,-4.221039,1.2542359,0.7041138,-0.070092775,0.0
18348,-17.898952,5.2502146,-4.221039,0.83686525,-0.91864014,0.65632325,0.0
18349,-17.898952,5.2502146,-4.221039,0.83686525,-0.91864014,0.65632325,0.0
18350,-12.673899,4.1507454,-3.5898895,0.83686525,-0.91864014,0.65632325,0.0
18351,-12.673899,4.1507454,-3.5898895,0.66481936,-1.357251,0.92501223,0.0
18352,-2.8614206,0.82449055,-3.3302307,0.66481936,-1.357251,0.92501223,0.0
18353,-2.8614206,0.82449055,-3.3302307,0.7858887,-2.5148437,1.9222412,0.0
18354,0.5249748,-0.89792633,-2.9136658,0.7858887,-2.5148437,1.9222412,0.0
18355,0.5249748,-0.89792633,-2.9136658,1.1119263,-2.8589356,2.4320068,0.0
18356,7.7163916,-5.4220886,-2.584793,1.1119263,-2.8589356,2.4320068,0.0
18357,7.7163916,-5.4220886,-2.584793,2.442627,-3.821118,4.3616824,0.0
18358,9.231036,-5.1419067,-2.524582,2.442627,-3.821118,4.3616824,0.0
18359,9.231036,-5.1419067,-2.524582,2.7654786,-4.1078615,4.900122,0.0
18360,14.358084,-6.9179325,-3.0076294,2.7654786,-4.1078615,4.900122,0.0
18361,14.358084,-6.9179325,-3.0076294,3.2614381,-5.413074,5.781592,0.0
18362,15.58267,-8.339338,-3.1535492,3.2614381,-5.413074,5.781592,0.0
18363,15.58267,-8.339338,-3.1535492,3.6076539,-6.597217,6.162854,0.0
18364,27.13457,-12.289684,-1.908493,3.6076539,-6.597217,6.162854,0.0
18365,27.13457,-12.289684,-1.908493,7.1197267,-4.177954,5.0944705,0.0
18366,24.634598,-8.286532,-1.3438263,7.1197267,-4.177954,5.0944705,0.0
18367,24.634598,-8.286532,-1.3438263,5.963196,-3.8731568,5.234656,0.0
18368,14.721888,4.150486,3.8566437,5.963196,-3.8731568,5.234656,0.0
18369,14.721888,4.150486,3.8566437,-2.4288208,-3.0362916,5.8315063,0.0
18370,9.158699,4.5624666,4.126938,-2.4288208,-3.0362916,5.8315063,0.0
18371,9.158699,4.5624666,4.126938,-3.4685304,-3.0076172,5.4736085,0.0
18372,1.4317684,3.3167214,4.6512756,-3.4685304,-3.0076172,5.4736085,0.0
18373,1.4317684,3.3167214,4.6512756,-2.5063477,-3.1000123,4.732324,0.0
18374,0.16521454,2.55555,3.5095367,-2.5063477,-3.1000123,4.732324,0.0
18375,0.16521454,2.55555,3.5095367,-2.5891845,-2.893982,4.642053,0.0
18376,-2.3688297,7.05766,2.657608,-2.5891845,-2.893982,4.642053,0.0
18377,-2.3688297,7.05766,2.657608,-3.4887085,-2.3417358,4.094055,0.0
18378,-2.7725658,6.965281,2.0537262,-3.4887085,-2.3417358,4.094055,0.0
18379,-2.7725658,6.965281,2.0537262,-3.4833984,-2.1378295,3.9294434,0.0
18380,-3.4494743,7.456148,2.6503448,-3.4833984,-2.1378295,3.9294434,0.0
18381,-3.4494743,7.456148,2.6503448,-2.8780518,-1.5951416,3.2125854,0.0
18382,-3.100216,7.125966,3.3735046,-2.8780518,-1.5951416,3.2125854,0.0
18383,-3.100216,7.125966,3.3735046,-2.272705,-1.0450195,2.714502,0.0
18384,-1.9956017,7.996464,3.0128326,-2.272705,-1.0450195,2.714502,0.0
18385,-1.9956017,7.996464,3.0128326,-2.9715087,-0.5607422,2.262085,0.0
18386,-0.48487282,8.787003,2.2017517,-2.9715087,-0.5607422,2.262085,0.0
18387,-0.48487282,8.787003,2.2017517,-2.7569826,-0.18160401,1.0503296,0.0
18388,1.7712936,6.369152,2.5401917,-2.7569826,-0.18160401,1.0503296,0.0
18389,1.7712936,6.369152,2.5401917,-0.9611206,0.8708496,-1.0397094,0.0
18390,2.0243835,4.0552826,2.571457,-0.9611206,0.8708496,-1.0397094,0.0
18391,2.0243835,4.0552826,2.571457,-0.65207523,1.3986695,-1.539917,0.0
18392,1.3851318,-0.19484901,2.176651,-0.65207523,1.3986695,-1.539917,0.0
18393,1.3851318,-0.19484901,2.176651,0.8262451,2.809021,-2.9492066,0.0
18394,0.5125599,-0.49589348,1.4365692,0.8262451,2.809021,-2.9492066,0.0
18395,0.5125599,-0.49589348,1.4365692,1.3381348,3.2147095,-3.3888795,0.0
18396,-0.31541634,-2.1237164,-1.079895,1.3381348,3.2147095,-3.3888795,0.0
18397,-0.31541634,-2.1237164,-1.079895,1.9806519,3.4090576,-4.716394,0.0
18398,2.3816147,-8.556737,-3.1723328,1.9806519,3.4090576,-4.716394,0.0
18399,2.3816147,-8.556737,-3.1723328,2.70813,4.073877,-6.0481567,0.0
18400,6.1256294,-17.860039,-1.6063538,2.70813,4.073877,-6.0481567,0.0
18401,6.1256294,-17.860039,-1.6063538,1.2722901,4.4678836,-6.234009,0.0
18402,6.2589035,-20.874395,2.2920532,1.2722901,4.4678836,-6.234009,0.0
18403,6.2589035,-20.874395,2.2920532,-1.5006226,5.427942,-3.7637696,0.0
18404,1.79533,-14.99898,3.45195,-1.5006226,5.427942,-3.7637696,0.0
18405,1.79533,-14.99898,3.45195,-1.724707,5.6934447,-2.6996338,0.0
18406,-5.1330605,-5.496865,1.1903076,-1.724707,5.6934447,-2.6996338,0.0
18407,-5.1330605,-5.496865,1.1903076,-1.5675293,5.1178346,-2.079419,0.0
18408,-12.262125,4.484833,-2.9886322,-1.5675293,5.1178346,-2.079419,0.0
18409,-12.262125,4.484833,-2.9886322,-0.8007569,4.425403,-2.2079225,0.0
18410,-11.445381,5.342285,-2.6954803,-0.8007569,4.425403,-2.2079225,0.0
18411,-11.445381,5.342285,-2.6954803,-0.4428589,4.2830935,-2.272705,0.0
18412,-10.559296,6.28335,-2.2350922,-0.4428589,4.2830935,-2.272705,0.0
18413,-10.559296,6.28335,-2.2350922,0.7975708,4.145032,-2.1728761,0.0
18414,-10.193445,6.567012,-1.808609,0.7975708,4.145032,-2.1728761,0.0
18415,-10.193445,6.567012,-1.808609,1.809668,3.993164,-2.2238526,0.0
18416,-11.992342,7.0119348,-3.4900208,1.809668,3.993164,-2.2238526,0.0
18417,-11.992342,7.0119348,-3.4900208,1.6705445,3.9889162,-2.2992554,0.0
18418,-17.270277,7.44153,-6.506592,1.6705445,3.9889162,-2.2992554,0.0
18419,-17.270277,7.44153,-6.506592,1.1533448,2.001892,-1.5335449,0.0
18420,-21.963829,6.8420057,-8.218002,1.1533448,2.001892,-1.5335449,0.0
18421,-21.963829,6.8420057,-8.218002,1.1087402,-0.46728516,-0.36851808,0.0
18422,-18.396797,4.3237877,-8.022919,1.1087402,-0.46728516,-0.36851808,0.0
18423,-18.396797,4.3237877,-8.022919,0.91864014,-2.1994264,-0.15930176,0.0
18424,-8.690472,0.5920868,-6.7571106,0.91864014,-2.1994264,-0.15930176,0.0
18425,-8.690472,0.5920868,-6.7571106,0.8963379,-3.5556152,1.2340577,0.0
18426,0.23835707,-3.1025028,-5.7571716,0.8963379,-3.5556152,1.2340577,0.0
18427,0.23835707,-3.1025028,-5.7571716,1.903125,-4.7280765,2.1367676,0.0
18428,6.951721,-6.220869,-5.8515015,1.903125,-4.7280765,2.1367676,0.0
18429,6.951721,-6.220869,-5.8515015,3.533313,-5.7624755,3.889087,0.0
18430,12.151587,-8.051732,-6.697586,3.533313,-5.7624755,3.889087,0.0
18431,12.151587,-8.051732,-6.697586,4.14928,-6.463403,5.158191,0.0
18432,16.575554,-10.701775,-6.7755127,4.14928,-6.463403,5.158191,0.0
18433,16.575554,-10.701775,-6.7755127,3.5917237,-7.5477176,5.5479493,0.0
18434,23.706013,-14.741827,-6.012726,3.5917237,-7.5477176,5.5479493,0.0
18435,23.706013,-14.741827,-6.012726,3.7850099,-7.956592,5.544763,0.0
18436,28.694315,-15.820989,-4.036026,3.7850099,-7.956592,5.544763,0.0
18437,28.694315,-15.820989,-4.036026,3.068152,-5.2962527,6.5547366,0.0
18438,25.07767,-11.976335,-0.93074036,3.068152,-5.2962527,6.5547366,0.0
18439,25.07767,-11.976335,-0.93074036,1.2977784,-5.2898803,7.2503543,0.0
18440,17.42195,-5.6815805,2.6368256,1.2977784,-5.2898803,7.2503543,0.0
18441,17.42195,-5.6815805,2.6368256,0.050976563,-4.9160523,7.247168,0.0
18442,10.150486,0.25121975,5.7240906,0.050976563,-4.9160523,7.247168,0.0
18443,10.150486,0.25121975,5.7240906,-0.92713624,-4.7185183,7.164331,0.0
18444,4.3221207,4.9361076,7.6125946,-0.92713624,-4.7185183,7.164331,0.0
18445,4.3221207,4.9361076,7.6125946,-1.1947632,-4.6558595,6.638635,0.0
18446,0.06249237,8.329941,8.603058,-1.1947632,-4.6558595,6.638635,0.0
18447,0.06249237,8.329941,8.603058,-0.50445557,-4.0579467,5.8389406,0.0
18448,-2.3369198,11.2265625,8.434494,-0.50445557,-4.0579467,5.8389406,0.0
18449,-2.3369198,11.2265625,8.434494,-0.44923097,-3.087268,5.1220827,0.0
18450,-3.4037628,14.871765,6.9223175,-0.44923097,-3.087268,5.1220827,0.0
18451,-3.4037628,14.871765,6.9223175,-1.3816773,-2.088977,3.7499635,0.0
18452,-4.2998543,17.81372,5.3094025,-1.3816773,-2.088977,3.7499635,0.0
18453,-4.2998543,17.81372,5.3094025,-1.9848999,-1.4177856,2.0411866,0.0
18454,-4.2998543,17.81372,5.3094025,-1.9848999,-1.4177856,2.0411866,0.0
18455,-4.9402122,17.500074,4.708435,-1.9848999,-1.4177856,2.0411866,0.0
18456,-4.9402122,17.500074,4.708435,-1.447522,-0.84111327,0.4364868,0.0
18457,-4.792759,13.4573345,4.3714447,-1.447522,-0.84111327,0.4364868,0.0
18458,-4.792759,13.4573345,4.3714447,-0.28674316,0.3079834,-1.1289185,0.0
18459,-4.019802,8.171543,2.3524628,-0.28674316,0.3079834,-1.1289185,0.0
18460,-4.019802,8.171543,2.3524628,-0.04885254,1.536731,-2.6911378,0.0
18461,-2.9368992,3.949747,-1.4189148,-0.04885254,1.536731,-2.6911378,0.0
18462,-2.9368992,3.949747,-1.4189148,-0.0722168,2.5711305,-3.9559937,0.0
18463,-1.656086,0.82688713,-4.4966583,-0.0722168,2.5711305,-3.9559937,0.0
18464,-1.656086,0.82688713,-4.4966583,0.5033936,3.4472902,-4.88844,0.0
18465,-0.41825104,-2.0034924,-4.874771,0.5033936,3.4472902,-4.88844,0.0
18466,-0.41825104,-2.0034924,-4.874771,0.901648,4.0229006,-5.3674073,0.0
18467,1.4674854,-6.7329216,-3.1919403,0.901648,4.0229006,-5.3674073,0.0
18468,1.4674854,-6.7329216,-3.1919403,1.084314,4.440271,-5.9143434,0.0
18469,4.2637844,-14.005589,-1.1322479,1.084314,4.440271,-5.9143434,0.0
18470,4.2637844,-14.005589,-1.1322479,1.4082276,4.6686034,-6.174536,0.0
18471,5.576042,-19.027567,0.60523987,1.4082276,4.6686034,-6.174536,0.0
18472,5.576042,-19.027567,0.60523987,1.5080566,4.871448,-5.427942,0.0
18473,3.6172066,-17.081135,1.9467163,1.5080566,4.871448,-5.427942,0.0
18474,3.6172066,-17.081135,1.9467163,0.29630128,5.132703,-4.5698366,0.0
18475,-0.9922943,-10.668119,2.8620453,0.29630128,5.132703,-4.5698366,0.0
18476,-0.9922943,-10.668119,2.8620453,-2.1314576,5.1188965,-3.98573,0.0
18477,-6.1787357,-5.424498,2.5546112,-2.1314576,5.1188965,-3.98573,0.0
18478,-6.1787357,-5.424498,2.5546112,-2.5052857,4.541162,-3.4122436,0.0
18479,-9.519186,-2.0681872,1.122818,-2.5052857,4.541162,-3.4122436,0.0
18480,-9.519186,-2.0681872,1.122818,-1.4698242,3.8901489,-2.974695,0.0
18481,-10.685453,1.4890537,0.060058594,-1.4698242,3.8901489,-2.974695,0.0
18482,-10.685453,1.4890537,0.060058594,-0.724292,3.1966553,-2.51803,0.0
18483,-10.578245,5.438997,-0.3914795,-0.724292,3.1966553,-2.51803,0.0
18484,-10.578245,5.438997,-0.3914795,-0.62977296,3.0224855,-2.071985,0.0
18485,-10.95244,8.517055,-1.229065,-0.62977296,3.0224855,-2.071985,0.0
18486,-10.95244,8.517055,-1.229065,-0.76358646,2.7378662,-1.6928467,0.0
18487,-10.95244,8.517055,-1.229065,-0.6881836,1.9583496,-0.9398804,0.0
18488,-13.305275,9.701949,-2.916687,-0.6881836,1.9583496,-0.9398804,0.0
18489,-16.539118,9.13026,-4.652817,-0.6881836,1.9583496,-0.9398804,0.0
18490,-16.539118,9.13026,-4.652817,-0.22833252,0.5033936,-0.03717041,0.0
18491,-17.124702,7.985593,-5.131668,-0.22833252,0.5033936,-0.03717041,0.0
18492,-17.124702,7.985593,-5.131668,-0.55755615,-0.7848267,0.6244629,0.0
18493,-12.578619,6.2411118,-4.3535614,-0.55755615,-0.7848267,0.6244629,0.0
18494,-12.578619,6.2411118,-4.3535614,-0.94731444,-2.2992554,1.1448487,0.0
18495,-5.3292165,2.6357727,-2.9941864,-0.94731444,-2.2992554,1.1448487,0.0
18496,-5.3292165,2.6357727,-2.9941864,-0.45560303,-3.2614381,1.5930176,0.0
18497,0.37522542,-1.8892698,-2.421341,-0.45560303,-3.2614381,1.5930176,0.0
18498,0.37522542,-1.8892698,-2.421341,1.4708862,-5.037122,2.5456421,0.0
18499,4.433884,-5.621084,-3.3551483,1.4708862,-5.037122,2.5456421,0.0
18500,4.433884,-5.621084,-3.3551483,3.345337,-6.085327,2.904602,0.0
18501,7.5797977,-8.601689,-4.882416,3.345337,-6.085327,2.904602,0.0
18502,7.5797977,-8.601689,-4.882416,2.8302612,-6.3349,5.173059,0.0
18503,11.012776,-13.903715,-6.1703033,2.8302612,-6.3349,5.173059,0.0
18504,11.012776,-13.903715,-6.1703033,2.5307739,-7.686841,6.50376,0.0
18505,18.854374,-20.291368,-6.687256,2.5307739,-7.686841,6.50376,0.0
18506,18.854374,-20.291368,-6.687256,3.3814454,-8.489722,6.502698,0.0
18507,25.483097,-19.139675,-4.989258,3.3814454,-8.489722,6.502698,0.0
18508,25.483097,-19.139675,-4.989258,1.9732178,-5.544763,6.537744,0.0
18509,21.757317,-9.997982,-0.7817688,1.9732178,-5.544763,6.537744,0.0
18510,21.757317,-9.997982,-0.7817688,0.16354981,-5.121021,6.702356,0.0
18511,12.173321,-0.13296795,3.31073,0.16354981,-5.121021,6.702356,0.0
18512,12.173321,-0.13296795,3.31073,-1.4114136,-4.167334,6.170288,0.0
18513,3.9731045,6.3370705,5.5708923,-1.4114136,-4.167334,6.170288,0.0
18514,3.9731045,6.3370705,5.5708923,-2.1388917,-4.1375976,5.1348267,0.0
18515,-0.9503746,9.801651,7.0516205,-2.1388917,-4.1375976,5.1348267,0.0
18516,-0.9503746,9.801651,7.0516205,-1.3742431,-3.5088868,4.1482177,0.0
18517,-3.2605305,12.982361,7.5157013,-1.3742431,-3.5088868,4.1482177,0.0
18518,-3.2605305,12.982361,7.5157013,-1.5197388,-2.7495484,3.0469117,0.0
18519,-3.7166386,16.437172,6.63002,-1.5197388,-2.7495484,3.0469117,0.0
18520,-3.7166386,16.437172,6.63002,-2.1027832,-1.9360474,1.812854,0.0
18521,-5.434162,20.273174,12.592514,-2.1027832,-1.9360474,1.812854,0.0
18522,-5.434162,20.273174,12.592514,-2.6603394,-0.89208984,0.6042847,0.0
18523,-4.1414948,17.49038,2.5484467,-2.6603394,-0.89208984,0.6042847,0.0
18524,-4.1414948,17.49038,2.5484467,-2.1526978,0.13912354,-0.8623535,0.0
18525,-3.4737186,12.528301,1.3453522,-2.1526978,0.13912354,-0.8623535,0.0
18526,-3.4737186,12.528301,1.3453522,-0.7763306,1.4199097,-2.451123,0.0
18527,-2.7230911,7.6176243,-1.4644623,-0.7763306,1.4199097,-2.451123,0.0
18528,-2.7230911,7.6176243,-1.4644623,-0.21134034,2.614673,-3.7404053,0.0
18529,-1.1133976,3.574604,-4.842621,-0.21134034,2.614673,-3.7404053,0.0
18530,-1.1133976,3.574604,-4.842621,0.0541626,3.703235,-4.512488,0.0
18531,0.72916794,-1.0684414,-6.672394,0.0541626,3.703235,-4.512488,0.0
18532,0.72916794,-1.0684414,-6.672394,0.2793091,4.680286,-4.681348,0.0
18533,2.1382542,-8.419437,-6.5540924,0.2793091,4.680286,-4.681348,0.0
18534,2.1382542,-8.419437,-6.5540924,-0.032922365,5.0126953,-4.5730224,0.0
18535,2.6254597,-16.000626,-5.6809998,-0.032922365,5.0126953,-4.5730224,0.0
18536,2.6254597,-16.000626,-5.6809998,-0.7954468,5.0955324,-4.783301,0.0
18537,1.2415428,-18.989746,-4.624893,-0.7954468,5.0955324,-4.783301,0.0
18538,1.2415428,-18.989746,-4.624893,-0.94625247,4.8480835,-3.4271119,0.0
18539,-1.773098,-15.345886,-3.5394745,-0.94625247,4.8480835,-3.4271119,0.0
18540,-1.773098,-15.345886,-3.5394745,-2.0231323,4.4593873,-2.721936,0.0
18541,-6.0627537,-7.807642,-2.6282806,-2.0231323,4.4593873,-2.721936,0.0
18542,-6.0627537,-7.807642,-2.6282806,-3.606592,3.7828858,-2.34917,0.0
18543,-10.343575,-1.6644975,-2.0795898,-3.606592,3.7828858,-2.34917,0.0
18544,-10.343575,-1.6644975,-2.0795898,-3.0575318,2.5700684,-2.165442,0.0
18545,-12.064094,1.7122009,-0.9500885,-3.0575318,2.5700684,-2.165442,0.0
18546,-12.064094,1.7122009,-0.9500885,-1.81073,1.7342652,-1.6843506,0.0
18547,-10.944855,4.5036106,1.8374176,-1.81073,1.7342652,-1.6843506,0.0
18548,-10.944855,4.5036106,1.8374176,-1.3200806,1.5951416,-0.76464844,0.0
18549,-9.449158,7.66866,4.6369324,-1.3200806,1.5951416,-0.76464844,0.0
18550,-9.449158,7.66866,4.6369324,-1.0683838,1.6206299,-0.093457036,0.0
18551,-9.273633,9.385929,4.730118,-1.0683838,1.6206299,-0.093457036,0.0
18552,-9.273633,9.385929,4.730118,-0.8496094,1.2117554,0.5012695,0.0
18553,-9.531297,9.318533,2.341446,-0.8496094,1.2117554,0.5012695,0.0
18554,-9.531297,9.318533,2.341446,-0.70942384,0.65632325,0.83686525,0.0
18555,-9.247071,9.228544,-0.39624023,-0.70942384,0.65632325,0.83686525,0.0
18556,-9.247071,9.228544,-0.39624023,-0.8485474,-0.1996582,0.76677245,0.0
18557,-7.7837777,8.602745,-2.3526306,-0.8485474,-0.1996582,0.76677245,0.0
18558,-7.7837777,8.602745,-2.3526306,-1.1119263,-1.3625611,0.44604492,0.0
18559,-4.2826986,5.259857,-2.8600464,-1.1119263,-1.3625611,0.44604492,0.0
18560,-4.2826986,5.259857,-2.8600464,-0.814563,-2.259961,0.57242435,0.0
18561,0.35782552,-0.39157772,-2.6036835,-0.814563,-2.259961,0.57242435,0.0
18562,0.35782552,-0.39157772,-2.6036835,0.90058595,-3.3931274,1.2776002,0.0
18563,3.2731256,-5.2739553,-4.424301,0.90058595,-3.3931274,1.2776002,0.0
18564,3.2731256,-5.2739553,-4.424301,2.263147,-4.9712768,1.363623,0.0
18565,5.4214916,-9.328149,-7.5086365,2.263147,-4.9712768,1.363623,0.0
18566,5.4214916,-9.328149,-7.5086365,2.6720216,-5.894165,2.3725343,0.0
18567,11.803331,-14.181855,-7.1882477,2.6720216,-5.894165,2.3725343,0.0
18568,11.803331,-14.181855,-7.1882477,4.8364015,-7.2036257,1.8670167,0.0
18569,20.62399,-15.214319,-4.990967,4.8364015,-7.2036257,1.8670167,0.0
18570,20.62399,-15.214319,-4.990967,3.9591796,-5.613794,1.809668,0.0
18571,20.3535,-10.955148,-3.902542,3.9591796,-5.613794,1.809668,0.0
18572,20.3535,-10.955148,-3.902542,2.794153,-4.5719604,3.346399,0.0
18573,10.566858,-4.9785223,-1.9133606,2.794153,-4.5719604,3.346399,0.0
18574,10.566858,-4.9785223,-1.9133606,1.4740723,-4.9213624,3.0118654,0.0
18575,2.246029,1.010505,2.213745,1.4740723,-4.9213624,3.0118654,0.0
18576,2.246029,1.010505,2.213745,1.4305298,-3.8699708,2.988501,0.0
18577,-2.2280178,7.0626764,7.15361,1.4305298,-3.8699708,2.988501,0.0
18578,-2.2280178,7.0626764,7.15361,-0.46622315,-3.0150514,2.2440307,0.0
18579,-4.3307295,12.6823435,10.283951,-0.46622315,-3.0150514,2.2440307,0.0
18580,-4.3307295,12.6823435,10.283951,-2.092163,-1.896753,1.2319336,0.0
18581,-5.281417,15.029335,10.92482,-2.092163,-1.896753,1.2319336,0.0
18582,-5.281417,15.029335,10.92482,-3.274182,-1.0195312,0.3717041,0.0
18583,-5.6930046,13.349005,10.145615,-3.274182,-1.0195312,0.3717041,0.0
18584,-5.6930046,13.349005,10.145615,-2.7410524,-0.2824951,-0.270813,0.0
18585,-4.498398,9.986553,8.289352,-2.7410524,-0.2824951,-0.270813,0.0
18586,-4.498398,9.986553,8.289352,-1.5993897,0.3791382,-0.67331547,0.0
18587,-1.8851566,7.433567,4.7881927,-1.5993897,0.3791382,-0.67331547,0.0
18588,-1.8851566,7.433567,4.7881927,-0.50445557,1.5027466,-1.177771,0.0
18589,0.49773407,6.208708,0.24856567,-0.50445557,1.5027466,-1.177771,0.0
18590,0.49773407,6.208708,0.24856567,0.3355957,2.7229981,-1.9785279,0.0
18591,2.7064877,5.3211403,-3.3289948,0.3355957,2.7229981,-1.9785279,0.0
18592,2.7064877,5.3211403,-3.3289948,0.4428589,3.821118,-2.625293,0.0
18593,4.9845505,3.3511257,-4.6341705,0.4428589,3.821118,-2.625293,0.0
18594,4.9845505,3.3511257,-4.6341705,0.22089843,4.69834,-2.611487,0.0
18595,6.2678776,-0.4995308,-3.9260864,0.22089843,4.69834,-2.611487,0.0
18596,6.2678776,-0.4995308,-3.9260864,0.20072022,5.324927,-2.3066895,0.0
18597,6.669112,-6.383219,-2.8491058,0.20072022,5.324927,-2.3066895,0.0
18598,6.669112,-6.383219,-2.8491058,0.20709229,5.357849,-2.2259767,0.0
18599,7.167223,-12.319979,-2.8225403,0.20709229,5.357849,-2.2259767,0.0
18600,7.167223,-12.319979,-2.8225403,-0.21452637,5.2718263,-2.6932619,0.0
18601,6.7408333,-15.265907,-3.066864,-0.21452637,5.2718263,-2.6932619,0.0
18602,6.7408333,-15.265907,-3.066864,-0.7890747,4.9999514,-2.5891845,0.0
18603,3.5399323,-13.708099,-2.0359802,-0.7890747,4.9999514,-2.5891845,0.0
18604,3.5399323,-13.708099,-2.0359802,-1.7608155,4.2013183,-2.0369384,0.0
18605,-2.0214367,-9.775366,0.14300537,-1.7608155,4.2013183,-2.0369384,0.0
18606,-2.0214367,-9.775366,0.14300537,-1.7979859,2.9492066,-1.81604,0.0
18607,-6.7090683,-5.939654,1.88414,-1.7979859,2.9492066,-1.81604,0.0
18608,-6.7090683,-5.939654,1.88414,-0.54693604,2.0475585,-1.4815063,0.0
18609,-7.9573917,-1.4586444,2.016327,-0.54693604,2.0475585,-1.4815063,0.0
18610,-7.9573917,-1.4586444,2.016327,-0.2824951,1.6705445,-1.0651978,0.0
18611,-7.9573917,-1.4586444,2.016327,-0.2824951,1.6705445,-1.0651978,116.0
18612,-7.0923176,3.387247,1.1178284,-0.2824951,1.6705445,-1.0651978,116.0
18613,-7.0923176,3.387247,1.1178284,-0.59260255,1.5208008,-0.79226077,116.0
18614,-6.6197157,6.7636547,0.8207092,-0.59260255,1.5208008,-0.79226077,116.0
18615,-6.6197157,6.7636547,0.8207092,-0.5851685,1.4804443,-0.6117188,116.0
18616,-7.022543,7.9771223,1.952713,-0.5851685,1.4804443,-0.6117188,116.0
18617,-7.022543,7.9771223,1.952713,-0.13275146,1.7703736,-0.39400634,116.0
18618,-7.847514,7.643343,3.3413544,-0.13275146,1.7703736,-0.39400634,116.0
18619,-7.847514,7.643343,3.3413544,0.3079834,2.1314576,-0.1996582,116.0
18620,-8.796175,7.030531,2.7311554,0.3079834,2.1314576,-0.1996582,116.0
18621,-8.796175,7.030531,2.7311554,0.09664307,1.9509156,-0.06265869,116.0
18622,-9.5652485,6.760557,-0.16226196,0.09664307,1.9509156,-0.06265869,116.0
18623,-9.5652485,6.760557,-0.16226196,-0.14655761,1.4963745,0.008496094,116.0
18624,-9.338857,5.475109,-2.8134003,-0.14655761,1.4963745,0.008496094,116.0
18625,-9.338857,5.475109,-2.8134003,-0.29736328,0.62764895,0.107263185,116.0
18626,-7.280595,1.5705051,-3.1290283,-0.29736328,0.62764895,0.107263185,116.0
18627,-7.280595,1.5705051,-3.1290283,-0.8400513,0.118945315,1.1682129,116.0
18628,-4.3581796,-3.4441452,-2.6226654,-0.8400513,0.118945315,1.1682129,116.0
18629,-4.3581796,-3.4441452,-2.6226654,-0.40144044,-0.9494385,2.076233,116.0
18630,-1.8074542,-7.8833685,-4.4090576,-0.40144044,-0.9494385,2.076233,116.0
18631,-1.8074542,-7.8833685,-4.4090576,0.44604492,-2.2196045,3.1467407,116.0
18632,0.9608847,-11.679974,-8.195816,0.44604492,-2.2196045,3.1467407,116.0
18633,0.9608847,-11.679974,-8.195816,1.7289551,-3.3209107,4.706836,116.0
18634,7.3480535,-15.493113,-8.5551605,1.7289551,-3.3209107,4.706836,116.0
18635,7.3480535,-15.493113,-8.5551605,4.440271,-4.1291018,7.5445313,116.0
18636,14.589247,-18.885275,-6.0592804,4.440271,-4.1291018,7.5445313,116.0
18637,14.589247,-18.885275,-6.0592804,0.8782837,-3.519507,5.233594,116.0
18638,19.186022,-19.43643,-5.0503387,0.8782837,-3.519507,5.233594,116.0
18639,19.186022,-19.43643,-5.0503387,1.9753418,-5.6499023,6.643945,116.0
18640,19.22693,-13.262328,-1.8153076,1.9753418,-5.6499023,6.643945,116.0
18641,19.22693,-13.262328,-1.8153076,-0.85385746,-5.4502444,5.337671,116.0
18642,13.4865,-3.3717031,2.7918549,-0.85385746,-5.4502444,5.337671,116.0
18643,13.4865,-3.3717031,2.7918549,-3.812622,-6.1331177,5.4884768,116.0
18644,7.038992,4.0902596,5.0822906,-3.812622,-6.1331177,5.4884768,116.0
18645,7.038992,4.0902596,5.0822906,-2.4670532,-6.4952636,4.585767,116.0
18646,2.2971725,8.252457,6.7190704,-2.4670532,-6.4952636,4.585767,116.0
18647,2.2971725,8.252457,6.7190704,-0.73809814,-6.5642943,4.081311,116.0
18648,0.08839798,11.837806,8.89061,-0.73809814,-6.5642943,4.081311,116.0
18649,0.08839798,11.837806,8.89061,0.9505005,-5.5521975,3.6734986,116.0
18650,-0.58197975,17.585224,9.271973,0.9505005,-5.5521975,3.6734986,116.0
18651,-0.58197975,17.585224,9.271973,-1.0184692,-4.3882327,2.5456421,116.0
18652,-0.7430744,22.53262,7.668091,-1.0184692,-4.3882327,2.5456421,116.0
18653,-0.7430744,22.53262,7.668091,-3.5694215,-2.9162843,0.73703617,116.0
18654,-0.50242996,21.523947,6.7760925,-3.5694215,-2.9162843,0.73703617,116.0
18655,-0.50242996,21.523947,6.7760925,-3.8635986,-0.76677245,-1.0205933,116.0
18656,-0.4803257,15.032696,6.6824036,-3.8635986,-0.76677245,-1.0205933,116.0
18657,-0.4803257,15.032696,6.6824036,-2.4649293,1.5579712,-2.5020998,116.0
18658,-0.3757763,7.2651577,4.8500366,-2.4649293,1.5579712,-2.5020998,116.0
18659,-0.3757763,7.2651577,4.8500366,-0.6605713,3.6947389,-3.720227,116.0
18660,0.22088814,2.0226002,0.74832153,-0.6605713,3.6947389,-3.720227,116.0
18661,0.22088814,2.0226002,0.74832153,0.44816896,5.2835083,-4.5804567,116.0
18662,0.91674995,-0.83867073,-3.0314026,0.44816896,5.2835083,-4.5804567,116.0
18663,0.91674995,-0.83867073,-3.0314026,0.74659425,6.2690554,-5.0328736,116.0
18664,1.8192883,-5.5522957,-4.5901947,0.74659425,6.2690554,-5.0328736,116.0
18665,1.8192883,-5.5522957,-4.5901947,1.3986695,6.9009523,-4.630371,116.0
18666,3.1994362,-12.944401,-4.217865,1.3986695,6.9009523,-4.630371,116.0
18667,3.1994362,-12.944401,-4.217865,1.8914429,7.0825562,-4.055823,116.0
18668,4.650076,-17.416069,-3.3510742,1.8914429,7.0825562,-4.055823,116.0
18669,4.650076,-17.416069,-3.3510742,1.6078857,7.341687,-4.7365723,116.0
18670,4.683914,-16.653118,-2.288498,1.6078857,7.341687,-4.7365723,116.0
18671,4.683914,-16.653118,-2.288498,0.35789797,7.59657,-4.3064575,116.0
18672,2.1894417,-13.766086,-0.34822083,0.35789797,7.59657,-4.3064575,116.0
18673,2.1894417,-13.766086,-0.34822083,-2.071985,7.2779665,-3.984668,116.0
18674,-2.5500832,-10.329519,1.1129761,-2.071985,7.2779665,-3.984668,116.0
18675,-2.5500832,-10.329519,1.1129761,-3.1180665,6.3784423,-2.9354005,116.0
18676,-7.759451,-5.897832,0.8408203,-3.1180665,6.3784423,-2.9354005,116.0
18677,-7.759451,-5.897832,0.8408203,-1.8521484,5.2155395,-2.4075806,116.0
18678,-9.983526,-0.76106334,-0.4544525,-1.8521484,5.2155395,-2.4075806,116.0
18679,-9.983526,-0.76106334,-0.4544525,0.5522461,4.167334,-1.9732178,116.0
18680,-8.872087,4.3740597,-2.2121277,0.5522461,4.167334,-1.9732178,116.0
18681,-8.872087,4.3740597,-2.2121277,0.8517334,3.4674683,-1.5154908,116.0
18682,-7.726392,8.137835,-3.9364166,0.8517334,3.4674683,-1.5154908,116.0
18683,-7.726392,8.137835,-3.9364166,0.1529297,3.1456788,-1.2839721,116.0
18684,-8.621177,9.6558,-4.9411774,0.1529297,3.1456788,-1.2839721,116.0
18685,-8.621177,9.6558,-4.9411774,-0.043542482,2.2089844,-0.9430664,116.0
18686,-10.669561,9.580317,-4.884094,-0.043542482,2.2089844,-0.9430664,116.0
18687,-10.669561,9.580317,-4.884094,0.18903808,0.7625244,-0.3058594,116.0
18688,-11.858159,9.007369,-3.979782,0.18903808,0.7625244,-0.3058594,116.0
18689,-11.858159,9.007369,-3.979782,0.20390625,-0.23258057,0.21240234,116.0
18690,-11.410709,8.594591,-3.1175537,0.20390625,-0.23258057,0.21240234,116.0
18691,-11.410709,8.594591,-3.1175537,-0.23682861,-1.0397094,0.81881106,116.0
18692,-9.196512,7.7556896,-2.7630463,-0.23682861,-1.0397094,0.81881106,116.0
18693,-9.196512,7.7556896,-2.7630463,-0.6860596,-2.0114503,0.71579593,116.0
18694,-5.312422,5.1612167,-2.5420532,-0.6860596,-2.0114503,0.71579593,116.0
18695,-5.312422,5.1612167,-2.5420532,-0.71579593,-2.899292,0.86341554,116.0
18696,-0.9453233,0.2564516,-2.2609558,-0.71579593,-2.899292,0.86341554,116.0
18697,-0.9453233,0.2564516,-2.2609558,-0.5936646,-3.9166992,1.7820557,116.0
18698,2.9791296,-6.0436306,-2.2010498,-0.5936646,-3.9166992,1.7820557,116.0
18699,2.9791296,-6.0436306,-2.2010498,-0.49383545,-4.816223,3.5205688,116.0
18700,6.1013823,-12.160271,-2.5154724,-0.49383545,-4.816223,3.5205688,116.0
18701,6.1013823,-12.160271,-2.5154724,-0.17841797,-5.1794314,4.7748046,116.0
18702,8.918008,-18.313288,-2.8325348,-0.17841797,-5.1794314,4.7748046,116.0
18703,8.918008,-18.313288,-2.8325348,0.22196046,-6.143738,5.6265383,116.0
18704,14.818025,-22.829475,-2.3062286,0.22196046,-6.143738,5.6265383,116.0
18705,14.818025,-22.829475,-2.3062286,1.0407715,-8.018188,5.4629884,116.0
18706,22.842983,-21.064411,0.5923157,1.0407715,-8.018188,5.4629884,116.0
18707,22.842983,-21.064411,0.5923157,6.136304,-6.7522707,6.527124,116.0
18708,20.628805,-9.813248,4.963455,6.136304,-6.7522707,6.527124,116.0
18709,20.628805,-9.813248,4.963455,3.4674683,-7.308765,4.410535,116.0
18710,10.18787,4.0290895,7.209244,3.4674683,-7.308765,4.410535,116.0
18711,10.18787,4.0290895,7.209244,-2.902478,-6.0311646,5.435376,116.0
18712,2.560892,9.951055,7.189789,-2.902478,-6.0311646,5.435376,116.0
18713,2.560892,9.951055,7.189789,-2.3056276,-5.435376,3.8720949,116.0
18714,-2.946783,10.468558,6.2606964,-2.3056276,-5.435376,3.8720949,116.0
18715,-2.946783,10.468558,6.2606964,-1.6790406,-5.0063233,3.3655152,116.0
18716,-5.812359,11.93067,5.311737,-1.6790406,-5.0063233,3.3655152,116.0
18717,-5.812359,11.93067,5.311737,-1.5558472,-4.337256,2.7697265,116.0
18718,-5.812359,11.93067,5.311737,-1.5558472,-4.337256,2.7697265,121.0
18719,-5.347397,15.240934,5.6834106,-1.5558472,-4.337256,2.7697265,121.0
18720,-5.347397,15.240934,5.6834106,-2.4681153,-2.9300904,1.9700317,121.0
18721,-4.475048,17.932592,6.557312,-2.4681153,-2.9300904,1.9700317,121.0
18722,-4.475048,17.932592,6.557312,-3.5471191,-1.2213135,0.76677245,121.0
18723,-4.549032,17.55053,5.9896393,-3.5471191,-1.2213135,0.76677245,121.0
18724,-4.549032,17.55053,5.9896393,-3.341089,0.45029297,-0.48427734,121.0
18725,-4.1492605,14.090998,3.8828583,-3.341089,0.45029297,-0.48427734,121.0
18726,-4.1492605,14.090998,3.8828583,-2.5881226,1.8447144,-1.9148072,121.0
18727,-2.0096664,8.700497,1.314331,-2.5881226,1.8447144,-1.9148072,121.0
18728,-2.0096664,8.700497,1.314331,-1.363623,3.530127,-2.6932619,121.0
18729,0.8928528,3.4099941,-0.5365448,-1.363623,3.530127,-2.6932619,121.0
18730,0.8928528,3.4099941,-0.5365448,-0.35046387,4.7344484,-3.622522,121.0
18731,2.8221073,-0.46903992,-1.0886688,-0.35046387,4.7344484,-3.622522,121.0
18732,2.8221073,-0.46903992,-1.0886688,0.43967286,5.701941,-4.1014895,121.0
18733,3.7419872,-3.4506474,-1.0768738,0.43967286,5.701941,-4.1014895,121.0
18734,3.7419872,-3.4506474,-1.0768738,0.7062378,6.520752,-4.167334,121.0
18735,4.8186264,-8.6411705,-2.1582947,0.7062378,6.520752,-4.167334,121.0
18736,4.8186264,-8.6411705,-2.1582947,2.0603027,6.8329835,-4.352124,121.0
18737,4.8186264,-8.6411705,-2.1582947,3.1180665,6.874402,-4.816223,121.0
18738,6.920868,-16.001244,-4.332245,3.1180665,6.874402,-4.816223,121.0
18739,7.3624763,-20.419514,-4.0733337,3.1180665,6.874402,-4.816223,121.0
18740,7.3624763,-20.419514,-4.0733337,2.442627,6.496326,-4.600635,121.0
18741,7.3624763,-20.419514,-4.0733337,-0.9696167,6.3030396,-3.5460572,121.0
18742,1.3118668,-13.815371,-0.8879852,-0.9696167,6.3030396,-3.5460572,121.0
18743,1.3118668,-13.815371,-0.8879852,-2.5743165,5.5479493,-2.9215944,121.0
18744,-5.4824524,-7.8234153,1.5798035,-2.5743165,5.5479493,-2.9215944,121.0
18745,-5.4824524,-7.8234153,1.5798035,-1.910559,4.9192386,-2.8546875,121.0
18746,-8.515881,-2.552653,2.0838776,-1.910559,4.9192386,-2.8546875,121.0
18747,-8.515881,-2.552653,2.0838776,-0.043542482,3.989978,-2.5594482,121.0
18748,-7.430538,2.0999918,-0.09791565,-0.043542482,3.989978,-2.5594482,121.0
18749,-7.430538,2.0999918,-0.09791565,0.4248047,3.6618164,-2.2854493,121.0
18750,-6.70234,5.527088,-3.3143463,0.4248047,3.6618164,-2.2854493,121.0
18751,-6.70234,5.527088,-3.3143463,0.19541016,3.0617797,-1.9774659,121.0
18752,-8.840058,7.122879,-4.810684,0.19541016,3.0617797,-1.9774659,121.0
18753,-8.840058,7.122879,-4.810684,-0.093457036,2.53396,-1.7024049,121.0
18754,-12.314039,7.678052,-3.757843,-0.093457036,2.53396,-1.7024049,121.0
18755,-12.314039,7.678052,-3.757843,-0.22939454,1.8946289,-1.0312134,121.0
18756,-14.727257,7.9291363,-2.4499207,-0.22939454,1.8946289,-1.0312134,121.0
18757,-14.727257,7.9291363,-2.4499207,0.013806152,0.9420044,-0.12319336,121.0
18758,-13.955963,7.6730814,-3.1044006,0.013806152,0.9420044,-0.12319336,121.0
18759,-13.955963,7.6730814,-3.1044006,-0.03186035,-0.09239502,0.37382814,121.0
18760,-9.30885,6.334852,-4.3545074,-0.03186035,-0.09239502,0.37382814,121.0
18761,-9.30885,6.334852,-4.3545074,-0.06903076,-1.1597168,0.5278198,121.0
18762,-2.9730449,3.9598618,-4.0542145,-0.06903076,-1.1597168,0.5278198,121.0
18763,-2.9730449,3.9598618,-4.0542145,-0.6711914,-1.8871949,1.1575928,121.0
18764,1.4287297,0.30249596,-3.3315125,-0.6711914,-1.8871949,1.1575928,121.0
18765,1.4287297,0.30249596,-3.3315125,0.37489015,-2.8238893,1.6620483,121.0
18766,3.2485135,-3.057722,-3.3985138,0.37489015,-2.8238893,1.6620483,121.0
18767,3.2485135,-3.057722,-3.3985138,1.4730103,-3.719165,2.6539674,121.0
18768,4.539631,-5.566515,-3.81073,1.4730103,-3.719165,2.6539674,121.0
18769,4.539631,-5.566515,-3.81073,2.1845582,-4.4859376,3.3782594,121.0
18770,6.3043613,-10.974696,-4.8295746,2.1845582,-4.4859376,3.3782594,121.0
18771,6.3043613,-10.974696,-4.8295746,1.9827759,-5.44812,4.704712,121.0
18772,11.207686,-19.036911,-5.3427734,1.9827759,-5.44812,4.704712,121.0
18773,11.207686,-19.036911,-5.3427734,1.8871949,-8.148816,5.9292116,121.0
18774,20.788952,-22.689173,-3.9618225,1.8871949,-8.148816,5.9292116,121.0
18775,20.788952,-22.689173,-3.9618225,1.6036377,-8.644775,4.3946047,121.0
18776,24.211216,-17.566755,-0.05102539,1.6036377,-8.644775,4.3946047,121.0
18777,24.211216,-17.566755,-0.05102539,0.6605713,-7.161145,5.810266,121.0
18778,16.46846,-7.004442,4.540741,0.6605713,-7.161145,5.810266,121.0
18779,16.46846,-7.004442,4.540741,-0.64995116,-6.876526,5.8357544,121.0
18780,6.947033,2.3072982,8.109955,-0.64995116,-6.876526,5.8357544,121.0
18781,6.947033,2.3072982,8.109955,-0.9154541,-6.063025,5.7497315,121.0
18782,0.32598686,8.013832,10.071075,-0.9154541,-6.063025,5.7497315,121.0
18783,0.32598686,8.013832,10.071075,-0.36851808,-4.6399293,5.5978637,121.0
18784,-3.378334,12.812519,9.087357,-0.36851808,-4.6399293,5.5978637,121.0
18785,-3.378334,12.812519,9.087357,-1.2988404,-3.7754517,4.5889525,121.0
18786,-4.5767517,17.963247,7.31369,-1.2988404,-3.7754517,4.5889525,121.0
18787,-4.5767517,17.963247,7.31369,-3.1456788,-2.4861696,3.345337,121.0
18788,-3.6884766,20.80927,7.2736664,-3.1456788,-2.4861696,3.345337,121.0
18789,-3.6884766,20.80927,7.2736664,-4.1938844,-0.86341554,2.0942872,121.0
18790,-2.512146,19.225445,7.7119293,-4.1938844,-0.86341554,2.0942872,121.0
18791,-2.512146,19.225445,7.7119293,-4.1652102,0.8857178,1.0301514,121.0
18792,-2.1009884,14.715256,6.5332947,-4.1652102,0.8857178,1.0301514,121.0
18793,-2.1009884,14.715256,6.5332947,-2.5679443,2.257837,-0.3971924,121.0
18794,-1.5354424,10.045288,3.4316254,-2.5679443,2.257837,-0.3971924,121.0
18795,-1.5354424,10.045288,3.4316254,-0.98448485,3.5152588,-1.718335,121.0
18796,-0.35182762,6.1096687,-0.20201111,-0.98448485,3.5152588,-1.718335,121.0
18797,-0.35182762,6.1096687,-0.20201111,-0.41737062,4.5528445,-2.9364624,121.0
18798,0.6512642,2.5312157,-2.692398,-0.41737062,4.5528445,-2.9364624,121.0
18799,0.6512642,2.5312157,-2.692398,-0.27506104,5.4916625,-3.7520874,121.0
18800,1.0956326,-1.2183151,-3.5813599,-0.27506104,5.4916625,-3.7520874,121.0
18801,1.0956326,-1.2183151,-3.5813599,0.070092775,6.2987914,-4.241675,121.0
18802,2.3018112,-7.629389,-4.4021606,0.070092775,6.2987914,-4.241675,121.0
18803,2.3018112,-7.629389,-4.4021606,1.3753052,6.86803,-4.528418,121.0
18804,2.3018112,-7.629389,-4.4021606,3.516321,6.9338746,-4.7450686,121.0
18805,4.930401,-17.43304,-5.6898346,3.516321,6.9338746,-4.7450686,121.0
18806,5.2755585,-26.154648,-3.5680847,3.516321,6.9338746,-4.7450686,121.0
18807,5.2755585,-26.154648,-3.5680847,3.516321,6.9338746,-4.7450686,126.0
18808,5.2755585,-26.154648,-3.5680847,3.5460572,6.3189697,-4.236365,126.0
18809,5.2755585,-26.154648,-3.5680847,0.54693604,6.2754273,-2.6645875,126.0
18810,5.2755585,-26.154648,-3.5680847,-1.4188477,5.3674073,-1.7512573,126.0
18811,-0.699913,-16.686571,-0.6866455,-1.4188477,5.3674073,-1.7512573,126.0
18812,-11.595148,3.045457,0.0031585693,-1.4188477,5.3674073,-1.7512573,126.0
18813,-11.595148,3.045457,0.0031585693,-1.1894531,4.705774,-1.3179566,126.0
18814,-11.595148,3.045457,0.0031585693,-0.2177124,4.3064575,-0.9366943,126.0
18815,-11.595148,3.045457,0.0031585693,0.270813,4.2151246,-0.71791995,126.0
18816,-9.905342,6.4401865,-0.9865265,0.270813,4.2151246,-0.71791995,126.0
18817,-9.905342,6.4401865,-0.9865265,-0.09770508,4.1917605,-0.7317261,126.0
18818,-10.372027,8.333534,-2.453125,-0.09770508,4.1917605,-0.7317261,126.0
18819,-10.372027,8.333534,-2.453125,-0.6117188,3.7775757,-0.69349366,126.0
18820,-12.490285,8.819965,-3.2322083,-0.6117188,3.7775757,-0.69349366,126.0
18821,-12.490285,8.819965,-3.2322083,-0.32922363,2.353418,-0.26444092,126.0
18822,-14.049638,7.8032265,-3.4132538,-0.32922363,2.353418,-0.26444092,126.0
18823,-14.049638,7.8032265,-3.4132538,0.18903808,1.2053833,-0.03717041,126.0
18824,-13.263319,5.8690214,-3.6927643,0.18903808,1.2053833,-0.03717041,126.0
18825,-13.263319,5.8690214,-3.6927643,0.11363526,0.14018555,0.26656494,126.0
18826,-9.897984,3.724905,-3.7203064,0.11363526,0.14018555,0.26656494,126.0
18827,-9.897984,3.724905,-3.7203064,0.015930176,-0.8666016,0.2262085,126.0
18828,-5.2753577,0.8789835,-2.9201965,0.015930176,-0.8666016,0.2262085,126.0
18829,-5.2753577,0.8789835,-2.9201965,-0.5564942,-2.0305665,0.97386473,126.0
18830,-1.0017557,-3.6418076,-1.4603119,-0.5564942,-2.0305665,0.97386473,126.0
18831,-1.0017557,-3.6418076,-1.4603119,-0.62552494,-2.9343383,2.3162477,126.0
18832,2.2707756,-9.011969,-0.8316345,-0.62552494,-2.9343383,2.3162477,126.0
18833,2.2707756,-9.011969,-0.8316345,0.75509036,-3.519507,3.7265992,126.0
18834,4.828925,-14.1342945,-2.2438507,0.75509036,-3.519507,3.7265992,126.0
18835,4.828925,-14.1342945,-2.2438507,2.0326905,-3.9379394,4.674976,126.0
18836,8.661272,-18.508205,-3.667801,2.0326905,-3.9379394,4.674976,126.0
18837,8.661272,-18.508205,-3.667801,2.066675,-4.884192,5.8909793,126.0
18838,16.913345,-20.036728,-2.8389282,2.066675,-4.884192,5.8909793,126.0
18839,16.913345,-20.036728,-2.8389282,6.070459,-6.3741946,7.986328,126.0
18840,19.393871,-13.557837,0.56092834,6.070459,-6.3741946,7.986328,126.0
18841,19.393871,-13.557837,0.56092834,1.6641724,-5.60636,3.169043,126.0
18842,11.165573,-3.6721606,3.5030212,1.6641724,-5.60636,3.169043,126.0
18843,11.165573,-3.6721606,3.5030212,-3.5173829,-5.599988,7.2673464,126.0
18844,4.817749,1.4923129,3.477188,-3.5173829,-5.599988,7.2673464,126.0
18845,4.817749,1.4923129,3.477188,-4.585767,-6.3667603,5.002075,126.0
18846,2.481409,2.9304838,2.4903564,-4.585767,-6.3667603,5.002075,126.0
18847,2.481409,2.9304838,2.4903564,-2.5488281,-6.6545653,4.308582,126.0
18848,1.265646,5.460903,3.3948517,-2.5488281,-6.6545653,4.308582,126.0
18849,1.265646,5.460903,3.3948517,-2.066675,-6.3593264,3.9305055,126.0
18850,1.1116142,10.055466,5.788498,-2.066675,-6.3593264,3.9305055,126.0
18851,1.1116142,10.055466,5.788498,-2.5477662,-5.2123537,3.6756227,126.0
18852,1.4155846,15.35918,7.6019135,-2.5477662,-5.2123537,3.6756227,126.0
18853,1.4155846,15.35918,7.6019135,-3.1021364,-3.7308471,3.2465699,126.0
18854,0.953146,16.011576,7.162094,-3.1021364,-3.7308471,3.2465699,126.0
18855,0.953146,16.011576,7.162094,-3.25719,-2.6603394,2.1548219,126.0
18856,-0.4288292,17.823837,7.094513,-3.25719,-2.6603394,2.1548219,126.0
18857,-0.4288292,17.823837,7.094513,-3.0925782,0.107263185,-0.51082766,126.0
18858,-0.6505585,14.267248,5.6102753,-3.0925782,0.107263185,-0.51082766,126.0
18859,-0.6505585,14.267248,5.6102753,-2.6932619,1.2064453,-1.3338867,126.0
18860,-0.24154091,7.7821217,2.2104645,-2.6932619,1.2064453,-1.3338867,126.0
18861,-0.24154091,7.7821217,2.2104645,-0.7965088,4.068567,-3.3963134,126.0
18862,0.3758831,4.8657856,0.54148865,-0.7965088,4.068567,-3.3963134,126.0
18863,0.3758831,4.8657856,0.54148865,-0.35577393,4.631433,-4.14397,126.0
18864,0.751194,0.19556999,-2.4628754,-0.35577393,4.631433,-4.14397,126.0
18865,0.751194,0.19556999,-2.4628754,0.2177124,5.893103,-5.1815553,126.0
18866,1.6103916,-1.4454365,-2.2382355,0.2177124,5.893103,-5.1815553,126.0
18867,1.6103916,-1.4454365,-2.2382355,0.48215333,6.260559,-5.441748,126.0
18868,3.8304768,-9.466055,-2.7220154,0.48215333,6.260559,-5.441748,126.0
18869,3.8304768,-9.466055,-2.7220154,1.0726318,6.961487,-5.8580565,126.0
18870,3.8304768,-9.466055,-2.7220154,1.1682129,6.890332,-6.0927615,126.0
18871,4.9008923,-11.263456,-2.9291534,1.1682129,6.890332,-6.0927615,126.0
18872,0.96263313,-17.715637,-4.4789124,1.1682129,6.890332,-6.0927615,126.0
18873,0.96263313,-17.715637,-4.4789124,1.0651978,6.7820067,-5.324927,126.0
18874,0.96263313,-17.715637,-4.4789124,0.46516114,6.50907,-4.8194094,126.0
18875,0.96263313,-17.715637,-4.4789124,-2.077295,5.696631,-3.967676,126.0
18876,-2.2660027,-12.0393305,-2.3267212,-2.077295,5.696631,-3.967676,126.0
18877,-2.2660027,-12.0393305,-2.3267212,-1.5654052,5.06261,-3.8614748,126.0
18878,-8.553892,-5.2301583,-0.8632355,-1.5654052,5.06261,-3.8614748,126.0
18879,-8.553892,-5.2301583,-0.8632355,0.6669434,3.6076539,-3.5811036,126.0
18880,-7.8924313,-2.1813927,-0.32151794,0.6669434,3.6076539,-3.5811036,126.0
18881,-7.8924313,-2.1813927,-0.32151794,0.9281983,3.3517091,-3.4579103,126.0
18882,-8.398845,2.1947174,0.1796875,0.9281983,3.3517091,-3.4579103,126.0
18883,-8.398845,2.1947174,0.1796875,0.811377,3.164795,-3.248694,126.0
18884,-10.293527,4.7943482,-0.65237427,0.811377,3.164795,-3.248694,126.0
18885,-10.293527,4.7943482,-0.65237427,0.59047854,2.7686646,-3.0076172,126.0
18886,-18.148129,6.3457203,-3.4851227,0.59047854,2.7686646,-3.0076172,126.0
18887,-18.148129,6.3457203,-3.4851227,0.542688,1.1947632,-1.2361816,126.0
18888,-17.745052,5.3978777,-3.3324127,0.542688,1.1947632,-1.2361816,126.0
18889,-17.745052,5.3978777,-3.3324127,0.55755615,0.65632325,-0.4088745,126.0
18890,-15.942514,3.5960608,-3.563736,0.55755615,0.65632325,-0.4088745,126.0
18891,-15.942514,3.5960608,-3.563736,0.9568726,-0.63720703,1.1852051,126.0
18892,-10.931722,2.29317,-3.2466736,0.9568726,-0.63720703,1.1852051,126.0
18893,-10.931722,2.29317,-3.2466736,0.96218264,-1.0205933,1.8139161,126.0
18894,-4.2571816,0.8446684,-2.9771576,0.96218264,-1.0205933,1.8139161,126.0
18895,-4.2571816,0.8446684,-2.9771576,0.9218262,-1.6822265,2.8780518,126.0
18896,1.633122,-0.99767876,-2.4219818,0.9218262,-1.6822265,2.8780518,126.0
18897,1.633122,-0.99767876,-2.4219818,0.11469727,-2.4086425,4.526294,126.0
18898,5.7080235,-4.8799305,-2.3551788,0.11469727,-2.4086425,4.526294,126.0
18899,5.7080235,-4.8799305,-2.3551788,2.1505737,-2.4967897,4.455139,126.0
18900,8.335034,-11.6266985,-2.4694366,2.1505737,-2.4967897,4.455139,126.0
18901,8.335034,-11.6266985,-2.4694366,2.1155274,-3.1106324,6.419861,126.0
18902,13.70515,-18.79041,-1.76297,2.1155274,-3.1106324,6.419861,126.0
18903,13.70515,-18.79041,-1.76297,0.9653687,-4.8236575,7.157959,126.0
18904,22.73542,-22.304167,-1.0441895,0.9653687,-4.8236575,7.157959,126.0
18905,22.73542,-22.304167,-1.0441895,0.811377,-5.968506,6.2106447,126.0
18906,22.73542,-22.304167,-1.0441895,0.811377,-5.968506,6.2106447,131.0
18907,27.422077,-14.837108,2.0937042,0.811377,-5.968506,6.2106447,131.0
18908,27.422077,-14.837108,2.0937042,0.39082032,-5.3801513,7.8333983,131.0
18909,20.24451,-7.859933,2.935089,0.39082032,-5.3801513,7.8333983,131.0
18910,20.24451,-7.859933,2.935089,-0.35577393,-5.391834,7.676221,131.0
18911,11.440849,2.6819754,4.6688232,-0.35577393,-5.391834,7.676221,131.0
18912,11.440849,2.6819754,4.6688232,-0.60959476,-5.2261596,6.981665,131.0
18913,4.7068424,8.626587,5.417404,-0.60959476,-5.2261596,6.981665,131.0
18914,4.7068424,8.626587,5.417404,0.038232423,-4.8247194,6.272241,131.0
18915,1.0056477,12.129065,5.889969,0.038232423,-4.8247194,6.272241,131.0
18916,1.0056477,12.129065,5.889969,0.61065674,-3.9443116,5.337671,131.0
18917,-1.2895126,16.8086,4.8937225,0.61065674,-3.9443116,5.337671,131.0
18918,-1.2895126,16.8086,4.8937225,-2.0167603,-3.0469117,4.5581546,131.0
18919,-2.8310242,21.31021,2.927948,-2.0167603,-3.0469117,4.5581546,131.0
18920,-2.8310242,21.31021,2.927948,-3.5099487,-2.2822633,3.165857,131.0
18921,-3.7211666,21.817186,2.2252502,-3.5099487,-2.2822633,3.165857,131.0
18922,-3.7211666,21.817186,2.2252502,-3.9018312,-1.1883911,1.5494751,131.0
18923,-4.6937065,17.849709,2.6569672,-3.9018312,-1.1883911,1.5494751,131.0
18924,-4.6937065,17.849709,2.6569672,-4.0186524,0.18585205,0.19116211,131.0
18925,-5.1173325,11.88089,2.5124664,-4.0186524,0.18585205,0.19116211,131.0
18926,-5.1173325,11.88089,2.5124664,-3.3718872,1.6493043,-1.354065,131.0
18927,-3.128315,4.8199463,-0.8201752,-3.3718872,1.6493043,-1.354065,131.0
18928,-3.128315,4.8199463,-0.8201752,-0.8050049,3.895459,-3.3623292,131.0
18929,-1.3405056,2.725916,-1.9848938,-0.8050049,3.895459,-3.3623292,131.0
18930,-1.3405056,2.725916,-1.9848938,-0.29948732,4.337256,-3.9751098,131.0
18931,0.34893417,-0.18627167,-3.278183,-0.29948732,4.337256,-3.9751098,131.0
18932,0.34893417,-0.18627167,-3.278183,-0.30373535,5.066858,-4.528418,131.0
18933,1.7778664,-5.0344048,-3.0635223,-0.30373535,5.066858,-4.528418,131.0
18934,1.7778664,-5.0344048,-3.0635223,-0.15930176,5.8007083,-4.642053,131.0
18935,3.6456451,-13.127132,-2.759369,-0.15930176,5.8007083,-4.642053,131.0
18936,3.6456451,-13.127132,-2.759369,0.043542482,5.9589477,-5.2250977,131.0
18937,4.708374,-20.345907,-2.3562317,0.043542482,5.9589477,-5.2250977,131.0
18938,4.708374,-20.345907,-2.3562317,0.28355715,5.814514,-4.800293,131.0
18939,3.713951,-21.395927,-1.3963318,0.28355715,5.814514,-4.800293,131.0
18940,3.713951,-21.395927,-1.3963318,-0.32709962,5.3822756,-3.711731,131.0
18941,-0.034318924,-15.904316,0.21035767,-0.32709962,5.3822756,-3.711731,131.0
18942,-0.034318924,-15.904316,0.21035767,-2.4128907,4.946851,-2.4946656,131.0
18943,-5.7168713,-8.374026,1.969635,-2.4128907,4.946851,-2.4946656,131.0
18944,-5.7168713,-8.374026,1.969635,-2.2302246,4.364868,-1.8362182,131.0
18945,-9.399805,-2.15209,3.0796814,-2.2302246,4.364868,-1.8362182,131.0
18946,-9.399805,-2.15209,3.0796814,0.20496826,4.1322875,-1.4581422,131.0
18947,-8.9810505,3.124373,3.5299988,0.20496826,4.1322875,-1.4581422,131.0
18948,-8.9810505,3.124373,3.5299988,1.3838013,4.605945,-1.1257324,131.0
18949,-7.1803484,7.2372303,2.8889465,1.3838013,4.605945,-1.1257324,131.0
18950,-7.1803484,7.2372303,2.8889465,1.44115,4.9213624,-1.0142212,131.0
18951,-7.2373457,9.457936,-0.031982422,1.44115,4.9213624,-1.0142212,131.0
18952,-7.2373457,9.457936,-0.031982422,0.8527954,4.706836,-1.0428956,131.0
18953,-9.304391,10.268412,-3.794281,0.8527954,4.706836,-1.0428956,131.0
18954,-9.304391,10.268412,-3.794281,0.31116945,4.436023,-0.9398804,131.0
18955,-12.1195755,10.128597,-5.319763,0.31116945,4.436023,-0.9398804,131.0
18956,-12.1195755,10.128597,-5.319763,0.39613038,2.969385,-0.24957275,131.0
18957,-13.792597,9.43729,-4.542633,0.39613038,2.969385,-0.24957275,131.0
18958,-13.792597,9.43729,-4.542633,0.9345703,1.81073,0.4364868,131.0
18959,-12.315059,8.10408,-3.9617615,0.9345703,1.81073,0.4364868,131.0
18960,-12.315059,8.10408,-3.9617615,1.3954834,0.6149048,0.18160401,131.0
18961,-7.982601,5.6573,-4.3594055,1.3954834,0.6149048,0.18160401,131.0
18962,-7.982601,5.6573,-4.3594055,0.9345703,-0.45347902,0.04248047,131.0
18963,-3.0828705,1.6461163,-4.70047,0.9345703,-0.45347902,0.04248047,131.0
18964,-3.0828705,1.6461163,-4.70047,0.38657227,-1.6928467,0.5894165,131.0
18965,1.4130981,-3.9402113,-4.2465057,0.38657227,-1.6928467,0.5894165,131.0
18966,1.4130981,-3.9402113,-4.2465057,0.32922363,-2.972571,2.1027832,131.0
18967,5.739207,-9.235983,-3.585785,0.32922363,-2.972571,2.1027832,131.0
18968,5.739207,-9.235983,-3.585785,1.6238159,-4.1599,3.8179321,131.0
18969,9.6810875,-12.488896,-2.9414062,1.6238159,-4.1599,3.8179321,131.0
18970,9.6810875,-12.488896,-2.9414062,3.9485595,-5.2420897,5.447058,131.0
18971,12.216013,-15.869681,-1.371994,3.9485595,-5.2420897,5.447058,131.0
18972,12.216013,-15.869681,-1.371994,5.608484,-5.4173217,5.0573,131.0
18973,13.941914,-17.885027,0.8765869,5.608484,-5.4173217,5.0573,131.0
18974,13.941914,-17.885027,0.8765869,3.4239259,-6.527124,6.532434,131.0
18975,17.09164,-14.553542,2.9094086,3.4239259,-6.527124,6.532434,131.0
18976,17.09164,-14.553542,2.9094086,-0.21346436,-6.2966676,5.609546,131.0
18977,17.04702,-7.699511,4.9081726,-0.21346436,-6.2966676,5.609546,131.0
18978,17.04702,-7.699511,4.9081726,-1.992334,-4.8077273,6.429419,131.0
18979,10.813227,-1.6244888,6.3118286,-1.992334,-4.8077273,6.429419,131.0
18980,10.813227,-1.6244888,6.3118286,-3.3952515,-5.0997806,5.5362673,131.0
18981,4.3521194,1.7569027,7.057678,-3.3952515,-5.0997806,5.5362673,131.0
18982,4.3521194,1.7569027,7.057678,-2.7559204,-4.811975,4.995703,131.0
18983,0.8168144,5.5483565,8.20314,-2.7559204,-4.811975,4.995703,131.0
18984,0.8168144,5.5483565,8.20314,-1.7841797,-3.707483,4.3818603,131.0
18985,-1.1310081,11.895473,8.386017,-1.7841797,-3.707483,4.3818603,131.0
18986,-1.1310081,11.895473,8.386017,-2.710254,-2.2992554,3.6331422,131.0
18987,-3.140316,18.544624,6.2036133,-2.710254,-2.2992554,3.6331422,131.0
18988,-3.140316,18.544624,6.2036133,-4.957471,-1.5133667,2.5042236,131.0
18989,-4.374607,20.79382,4.051895,-4.957471,-1.5133667,2.5042236,131.0
18990,-4.374607,20.79382,4.051895,-5.8293824,-1.0312134,1.260608,131.0
18991,-4.0253334,17.35344,4.0444794,-5.8293824,-1.0312134,1.260608,131.0
18992,-4.0253334,17.35344,4.0444794,-4.409473,-0.13275146,0.38232422,131.0
18993,-3.2410908,11.515148,4.9503174,-4.409473,-0.13275146,0.38232422,131.0
18994,-3.2410908,11.515148,4.9503174,-2.1983643,1.0694458,-0.7858887,131.0
18995,-2.3731098,6.723776,3.9190521,-2.1983643,1.0694458,-0.7858887,131.0
18996,-2.3731098,6.723776,3.9190521,-0.6053467,2.5753784,-1.6004517,131.0
18997,-0.9198246,3.8054733,-0.1179657,-0.6053467,2.5753784,-1.6004517,131.0
18998,-0.9198246,3.8054733,-0.1179657,0.5171997,3.812622,-2.4829834,131.0
18999,0.6544838,2.033039,-4.7329254,0.5171997,3.812622,-2.4829834,131.0
19000,0.6544838,2.033039,-4.7329254,1.3370727,4.676038,-3.0394776,131.0
19001,0.6544838,2.033039,-4.7329254,1.8436524,5.2643924,-3.175415,131.0
19002,1.4146271,-0.062143326,-7.0751495,1.8436524,5.2643924,-3.175415,131.0
19003,2.5084114,-9.4997635,-4.768097,1.8436524,5.2643924,-3.175415,131.0
19004,2.5084114,-9.4997635,-4.768097,2.2047365,5.9323974,-2.8260133,131.0
19005,2.5084114,-9.4997635,-4.768097,2.6348512,6.299854,-3.2773683,131.0
19006,2.5084114,-9.4997635,-4.768097,2.8812377,6.5781007,-4.286279,131.0
19007,4.4726467,-14.43244,-2.508728,2.8812377,6.5781007,-4.286279,131.0
19008,2.1870651,-17.777458,-0.37794495,2.8812377,6.5781007,-4.286279,131.0
19009,2.1870651,-17.777458,-0.37794495,1.9233032,6.5664186,-4.6324954,131.0
19010,2.1870651,-17.777458,-0.37794495,-0.38763428,6.4612794,-3.9942262,131.0
19011,2.1870651,-17.777458,-0.37794495,-1.9657837,5.4502444,-3.1180665,131.0
19012,-3.9907646,-10.757502,0.86387634,-1.9657837,5.4502444,-3.1180665,131.0
19013,-3.9907646,-10.757502,0.86387634,-1.6174439,4.532666,-2.4213867,131.0
19014,-7.257662,-4.4361653,0.8218231,-1.6174439,4.532666,-2.4213867,131.0
19015,-7.257662,-4.4361653,0.8218231,-0.362146,3.8689086,-2.3045654,131.0
19016,-7.1514664,0.97240543,-0.55448914,-0.362146,3.8689086,-2.3045654,131.0
19017,-7.1514664,0.97240543,-0.55448914,-0.362146,3.8689086,-2.3045654,134.0
19018,-7.1514664,0.97240543,-0.55448914,0.23045655,3.4600341,-1.992334,134.0
19019,-6.401251,4.9691477,-2.488617,0.23045655,3.4600341,-1.992334,134.0
19020,-6.401251,4.9691477,-2.488617,0.014868164,3.0065553,-1.6907227,134.0
19021,-7.037956,6.939393,-3.6803741,0.014868164,3.0065553,-1.6907227,134.0
19022,-7.037956,6.939393,-3.6803741,-0.11469727,2.4022706,-1.4156617,134.0
19023,-8.603253,7.0844975,-3.4509277,-0.11469727,2.4022706,-1.4156617,134.0
19024,-8.603253,7.0844975,-3.4509277,0.008496094,1.5420411,-1.0099732,134.0
19025,-9.793613,6.359065,-2.5056,0.008496094,1.5420411,-1.0099732,134.0
19026,-9.793613,6.359065,-2.5056,0.1444336,0.67437744,-0.5671143,134.0
19027,-9.806277,5.2471027,-2.0168915,0.1444336,0.67437744,-0.5671143,134.0
19028,-9.806277,5.2471027,-2.0168915,0.16354981,-0.14655761,-0.025488282,134.0
19029,-8.325295,3.5169945,-2.1602325,0.16354981,-0.14655761,-0.025488282,134.0
19030,-8.325295,3.5169945,-2.1602325,0.15717773,-1.0683838,0.724292,134.0
19031,-5.5257883,1.280014,-2.263733,0.15717773,-1.0683838,0.724292,134.0
19032,-5.5257883,1.280014,-2.263733,0.20921631,-2.0135744,1.6641724,134.0
19033,-2.0064704,-1.077795,-1.9065552,0.20921631,-2.0135744,1.6641724,134.0
19034,-2.0064704,-1.077795,-1.9065552,0.54693604,-2.909912,2.6953857,134.0
19035,1.8983881,-2.4973927,-0.087768555,0.54693604,-2.909912,2.6953857,134.0
19036,1.8983881,-2.4973927,-0.087768555,1.5208008,-2.9640749,3.9273193,134.0
19037,6.436228,-2.2385397,2.4958496,1.5208008,-2.9640749,3.9273193,134.0
19038,6.436228,-2.2385397,2.4958496,2.3236816,-3.1955934,4.252295,134.0
19039,8.3841505,-5.116235,0.78689575,2.3236816,-3.1955934,4.252295,134.0
19040,8.3841505,-5.116235,0.78689575,1.7682495,-3.6278322,5.424756,134.0
19041,6.8519497,-11.121321,-4.088867,1.7682495,-3.6278322,5.424756,134.0
19042,6.8519497,-11.121321,-4.088867,3.0989501,-5.45343,4.7737427,134.0
19043,8.054424,-14.941503,-4.962982,3.0989501,-5.45343,4.7737427,134.0
19044,8.054424,-14.941503,-4.962982,1.809668,-6.4740233,4.147156,134.0
19045,12.452573,-14.54871,-1.0378723,1.809668,-6.4740233,4.147156,134.0
19046,12.452573,-14.54871,-1.0378723,0.40993652,-5.776282,3.7743897,134.0
19047,12.520554,-10.193961,3.3631897,0.40993652,-5.776282,3.7743897,134.0
19048,12.520554,-10.193961,3.3631897,-1.4209718,-5.770972,4.1949463,134.0
19049,7.8560905,-5.6331472,4.8558044,-1.4209718,-5.770972,4.1949463,134.0
19050,7.8560905,-5.6331472,4.8558044,-1.7523193,-5.9122195,3.810498,134.0
19051,3.3742046,-1.0185173,3.8489227,-1.7523193,-5.9122195,3.810498,134.0
19052,3.3742046,-1.0185173,3.8489227,-1.8776368,-5.6753907,3.7669556,134.0
19053,0.33227348,5.177923,2.7155914,-1.8776368,-5.6753907,3.7669556,134.0
19054,0.33227348,5.177923,2.7155914,-2.5137818,-5.229346,3.2975464,134.0
19055,-1.2042866,11.244939,2.7151794,-2.5137818,-5.229346,3.2975464,134.0
19056,-1.2042866,11.244939,2.7151794,-3.1828492,-4.354248,2.7006958,134.0
19057,-2.2016506,14.904642,3.008545,-3.1828492,-4.354248,2.7006958,134.0
19058,-2.2016506,14.904642,3.008545,-3.9347534,-3.3676393,2.0932252,134.0
19059,-3.0920086,15.503902,2.5452423,-3.9347534,-3.3676393,2.0932252,134.0
19060,-3.0920086,15.503902,2.5452423,-4.4084105,-2.352356,1.5292969,134.0
19061,-3.7478142,13.962143,1.6743927,-4.4084105,-2.352356,1.5292969,134.0
19062,-3.7478142,13.962143,1.6743927,-4.160962,-1.2276856,0.79013675,134.0
19063,-4.1105566,11.3195915,1.1348419,-4.160962,-1.2276856,0.79013675,134.0
19064,-4.1105566,11.3195915,1.1348419,-3.2242677,-0.38975832,0.13487549,134.0
19065,-3.048687,8.361288,1.0504456,-3.2242677,-0.38975832,0.13487549,134.0
19066,-3.048687,8.361288,1.0504456,-2.7782228,0.4354248,-0.47684327,134.0
19067,-0.65553856,5.1037292,1.1390076,-2.7782228,0.4354248,-0.47684327,134.0
19068,-0.65553856,5.1037292,1.1390076,-1.9445435,1.5696534,-0.84111327,134.0
19069,0.98145294,2.006752,1.2414398,-1.9445435,1.5696534,-0.84111327,134.0
19070,0.98145294,2.006752,1.2414398,-1.2531738,2.7368042,-0.79119873,134.0
19071,0.98145294,2.006752,1.2414398,-0.3345337,3.5609252,-0.40993652,134.0
19072,0.7089901,-0.64398766,0.8985748,-0.3345337,3.5609252,-0.40993652,134.0
19073,-0.17634964,-10.598076,-3.7042084,-0.3345337,3.5609252,-0.40993652,134.0
19074,-0.17634964,-10.598076,-3.7042084,0.92713624,4.358496,-0.14549561,134.0
19075,-0.17634964,-10.598076,-3.7042084,1.4868164,5.408826,-1.0290893,134.0
19076,-0.17634964,-10.598076,-3.7042084,0.6956177,5.5075927,-1.9126831,134.0
19077,0.23282242,-15.119647,-5.446472,0.6956177,5.5075927,-1.9126831,134.0
19078,-2.8770113,-13.449075,-3.6779327,0.6956177,5.5075927,-1.9126831,134.0
19079,-2.8770113,-13.449075,-3.6779327,-1.1926392,5.735925,-0.8251831,134.0
19080,-2.8770113,-13.449075,-3.6779327,-1.3880494,5.1157107,-0.2177124,134.0
19081,-2.8770113,-13.449075,-3.6779327,-0.39613038,4.1121097,0.36533204,134.0
19082,-5.9962015,-6.2847605,-2.6659088,-0.39613038,4.1121097,0.36533204,134.0
19083,-5.9962015,-6.2847605,-2.6659088,0.7412842,2.9821289,0.7317261,134.0
19084,-7.7096205,0.5216179,-1.9460754,0.7412842,2.9821289,0.7317261,134.0
19085,-7.7096205,0.5216179,-1.9460754,1.270166,2.092163,0.9324463,134.0
19086,-7.7632895,5.394724,-1.9627686,1.270166,2.092163,0.9324463,134.0
19087,-7.7632895,5.394724,-1.9627686,1.7342652,1.3614991,0.8326172,134.0
19088,-6.9312615,8.123031,-2.2315216,1.7342652,1.3614991,0.8326172,134.0
19089,-6.9312615,8.123031,-2.2315216,1.6365601,0.6988037,0.58198243,134.0
19090,-5.691506,9.123339,-1.719986,1.6365601,0.6988037,0.58198243,134.0
19091,-5.691506,9.123339,-1.719986,1.1299804,0.16036378,0.3164795,134.0
19092,-4.459394,9.021278,-0.5085602,1.1299804,0.16036378,0.3164795,134.0
19093,-4.459394,9.021278,-0.5085602,0.7720825,-0.19753419,-0.058410645,134.0
19094,-3.3666363,8.260773,0.6154938,0.7720825,-0.19753419,-0.058410645,134.0
19095,-3.3666363,8.260773,0.6154938,0.14018555,-0.38763428,-0.39613038,134.0
19096,-2.3806624,6.134241,1.1820374,0.14018555,-0.38763428,-0.39613038,134.0
19097,-2.3806624,6.134241,1.1820374,-0.14018555,-0.47684327,-0.18585205,134.0
19098,-1.6800795,2.5754356,1.1591797,-0.14018555,-0.47684327,-0.18585205,134.0
19099,-1.6800795,2.5754356,1.1591797,0.1263794,-0.56817627,-0.2081543,134.0
19100,-1.2469689,-0.95923233,0.353302,0.1263794,-0.56817627,-0.2081543,134.0
19101,-1.2469689,-0.95923233,0.353302,0.6956177,-0.6924316,-0.14868164,134.0
19102,-0.77992374,-4.5094757,-1.7932129,0.6956177,-0.6924316,-0.14868164,134.0
19103,-0.77992374,-4.5094757,-1.7932129,1.179895,-1.1809571,0.40250245,134.0
19104,0.63439846,-11.364575,-5.141159,1.179895,-1.1809571,0.40250245,134.0
19105,0.63439846,-11.364575,-5.141159,1.8563966,-1.717273,1.6386842,134.0
19106,3.137304,-21.020237,-7.512039,1.8563966,-1.717273,1.6386842,134.0
19107,3.137304,-21.020237,-7.512039,4.5804567,-2.2833252,2.3874023,134.0
19108,8.407255,-24.349724,-6.017563,4.5804567,-2.2833252,2.3874023,134.0
19109,8.407255,-24.349724,-6.017563,5.329175,-3.9655519,3.4685304,134.0
19110,12.402623,-15.42055,-1.2853088,5.329175,-3.9655519,3.4685304,134.0
19111,12.402623,-15.42055,-1.2853088,3.0447876,-2.4638672,3.0235474,134.0
19112,8.195122,-3.2213278,3.2064362,3.0447876,-2.4638672,3.0235474,134.0
19113,8.195122,-3.2213278,3.2064362,-3.0246093,-3.1074464,3.7860718,134.0
19114,8.195122,-3.2213278,3.2064362,-3.0246093,-3.1074464,3.7860718,136.0
19115,2.6370544,1.8489143,4.9006042,-3.0246093,-3.1074464,3.7860718,136.0
19116,2.6370544,1.8489143,4.9006042,-5.1252685,-3.7605836,3.2964845,136.0
19117,1.6212406,2.366009,4.3580627,-5.1252685,-3.7605836,3.2964845,136.0
19118,1.6212406,2.366009,4.3580627,-3.2423217,-4.5369143,1.718335,136.0
19119,1.6324425,4.859714,4.0530396,-3.2423217,-4.5369143,1.718335,136.0
19120,1.6324425,4.859714,4.0530396,-2.8313234,-4.901184,1.175647,136.0
19121,1.3542814,10.044704,4.9443665,-2.8313234,-4.901184,1.175647,136.0
19122,1.3542814,10.044704,4.9443665,-3.1106324,-4.523108,0.6403931,136.0
19123,1.320632,13.956321,6.9161377,-3.1106324,-4.523108,0.6403931,136.0
19124,1.320632,13.956321,6.9161377,-3.1138184,-3.161609,0.2803711,136.0
19125,0.9459839,14.851238,8.036865,-3.1138184,-3.161609,0.2803711,136.0
19126,0.9459839,14.851238,8.036865,-3.0660279,-1.3901733,-0.55968016,136.0
19127,0.15920353,13.38298,6.331665,-3.0660279,-1.3901733,-0.55968016,136.0
19128,0.15920353,13.38298,6.331665,-2.6507814,0.18372802,-1.544165,136.0
19129,-0.0562315,9.831629,2.5882874,-2.6507814,0.18372802,-1.544165,136.0
19130,-0.0562315,9.831629,2.5882874,-2.1059692,1.628064,-2.1611938,136.0
19131,1.2704315,4.1479206,-0.9710083,-2.1059692,1.628064,-2.1611938,136.0
19132,1.2704315,4.1479206,-0.9710083,-0.8527954,3.0585938,-2.1781862,136.0
19133,2.977027,-1.8281975,-3.265442,-0.8527954,3.0585938,-2.1781862,136.0
19134,2.977027,-1.8281975,-3.265442,0.36745605,4.341504,-1.8224121,136.0
19135,3.3408737,-5.684263,-4.236511,0.36745605,4.341504,-1.8224121,136.0
19136,3.3408737,-5.684263,-4.236511,0.9154541,5.127393,-1.1692749,136.0
19137,2.7810612,-7.6097393,-4.188095,0.9154541,5.127393,-1.1692749,136.0
19138,2.7810612,-7.6097393,-4.188095,1.2414917,5.694507,-1.1586548,136.0
19139,2.5267773,-8.767723,-3.8300323,1.2414917,5.694507,-1.1586548,136.0
19140,2.5267773,-8.767723,-3.8300323,0.8400513,5.96532,-1.6716064,136.0
19141,2.4265976,-9.171392,-3.6196747,0.8400513,5.96532,-1.6716064,136.0
19142,2.4265976,-9.171392,-3.6196747,0.07115479,5.990808,-1.3657471,136.0
19143,0.91994095,-7.8589153,-3.0765228,0.07115479,5.990808,-1.3657471,136.0
19144,0.91994095,-7.8589153,-3.0765228,-1.3922974,5.6700807,-1.4517701,136.0
19145,-2.1189785,-5.74818,-1.9256287,-1.3922974,5.6700807,-1.4517701,136.0
19146,-2.1189785,-5.74818,-1.9256287,-1.8245362,4.8268433,-1.3922974,136.0
19147,-4.990056,-3.6350188,-0.4981537,-1.8245362,4.8268433,-1.3922974,136.0
19148,-4.990056,-3.6350188,-0.4981537,-0.81668705,3.8986452,-1.6493043,136.0
19149,-6.5104046,-0.301167,1.0644226,-0.81668705,3.8986452,-1.6493043,136.0
19150,-6.5104046,-0.301167,1.0644226,-0.0010620117,3.183911,-1.7289551,136.0
19151,-6.5922594,4.0432215,2.1251984,-0.0010620117,3.183911,-1.7289551,136.0
19152,-6.5922594,4.0432215,2.1251984,0.20921631,2.8684938,-1.8298463,136.0
19153,-6.614482,7.5607853,2.102234,0.20921631,2.8684938,-1.8298463,136.0
19154,-6.614482,7.5607853,2.102234,-0.0021240234,2.5817506,-1.8351563,136.0
19155,-7.577132,8.96108,1.1788635,-0.0021240234,2.5817506,-1.8351563,136.0
19156,-7.577132,8.96108,1.1788635,-0.035046387,1.991272,-1.7990478,136.0
19157,-8.605871,8.623087,0.08631897,-0.035046387,1.991272,-1.7990478,136.0
19158,-8.605871,8.623087,0.08631897,0.17735596,1.1926392,-1.8500245,136.0
19159,-8.144768,6.9928913,-0.4039154,0.17735596,1.1926392,-1.8500245,136.0
19160,-8.144768,6.9928913,-0.4039154,0.4354248,0.51188964,-1.8776368,136.0
19161,-6.0406184,4.1505013,-0.29115295,0.4354248,0.51188964,-1.8776368,136.0
19162,-6.0406184,4.1505013,-0.29115295,0.6180908,-0.023364259,-1.4358399,136.0
19163,-3.4094114,1.9498444,0.39012146,0.6180908,-0.023364259,-1.4358399,136.0
19164,-3.4094114,1.9498444,0.39012146,0.5671143,0.039294433,-0.9483765,136.0
19165,-1.1168236,-0.054834366,0.04650879,0.5671143,0.039294433,-0.9483765,136.0
19166,-1.1168236,-0.054834366,0.04650879,-0.13275146,-0.70305175,-0.15823975,136.0
19167,0.28332335,-4.8899612,-3.1426544,-0.13275146,-0.70305175,-0.15823975,136.0
19168,0.28332335,-4.8899612,-3.1426544,0.725354,-1.5547851,1.8871949,136.0
19169,0.8410996,-7.773041,-5.8582,0.725354,-1.5547851,1.8871949,136.0
19170,0.8410996,-7.773041,-5.8582,3.0108032,-2.4182007,2.4744873,136.0
19171,1.9660683,-7.1272583,-6.291748,3.0108032,-2.4182007,2.4744873,136.0
19172,1.9660683,-7.1272583,-6.291748,3.805188,-3.070276,3.4239259,136.0
19173,5.2109528,-10.684509,-6.251587,3.805188,-3.070276,3.4239259,136.0
19174,5.2109528,-10.684509,-6.251587,3.8572266,-3.720227,5.25271,136.0
19175,11.580469,-17.392456,-5.2778625,3.8572266,-3.720227,5.25271,136.0
19176,11.580469,-17.392456,-5.2778625,5.1932373,-4.866138,5.26333,136.0
19177,17.400337,-17.854528,-2.0788727,5.1932373,-4.866138,5.26333,136.0
19178,17.400337,-17.854528,-2.0788727,5.071106,-4.0260863,4.715332,136.0
19179,16.623346,-10.25003,2.5422363,5.071106,-4.0260863,4.715332,136.0
19180,16.623346,-10.25003,2.5422363,1.5760254,-4.184326,5.2261596,136.0
19181,11.530561,-1.3341055,5.37294,1.5760254,-4.184326,5.2261596,136.0
19182,11.530561,-1.3341055,5.37294,-1.8447144,-4.077063,4.923486,136.0
19183,6.1812134,4.449647,5.404953,-1.8447144,-4.077063,4.923486,136.0
19184,6.1812134,4.449647,5.404953,-2.4691772,-4.2437987,4.213001,136.0
19185,1.4690056,8.266676,4.6163025,-2.4691772,-4.2437987,4.213001,136.0
19186,1.4690056,8.266676,4.6163025,-3.0394776,-4.358496,3.6055298,136.0
19187,-1.3121376,11.811485,4.7235107,-3.0394776,-4.358496,3.6055298,136.0
19188,-1.3121376,11.811485,4.7235107,-3.2348878,-4.150342,2.7760987,136.0
19189,-2.2963772,14.89234,5.488785,-3.2348878,-4.150342,2.7760987,136.0
19190,-2.2963772,14.89234,5.488785,-3.5811036,-3.4918945,2.0560548,136.0
19191,-2.5810719,16.284685,5.301834,-3.5811036,-3.4918945,2.0560548,136.0
19192,-2.5810719,16.284685,5.301834,-3.8232422,-2.6762695,1.183081,136.0
19193,-3.161415,14.57626,4.0393066,-3.8232422,-2.6762695,1.183081,136.0
19194,-3.161415,14.57626,4.0393066,-2.8504395,-1.8022339,0.4088745,136.0
19195,-4.0853205,11.009605,2.5471954,-2.8504395,-1.8022339,0.4088745,136.0
19196,-4.0853205,11.009605,2.5471954,-1.8255981,-0.8952759,-0.5384399,136.0
19197,-3.8921337,8.135956,1.1681976,-1.8255981,-0.8952759,-0.5384399,136.0
19198,-3.8921337,8.135956,1.1681976,-1.7650635,0.44923097,-1.6535523,136.0
19199,-1.9123278,5.5343018,-0.0957489,-1.7650635,0.44923097,-1.6535523,136.0
19200,-1.9123278,5.5343018,-0.0957489,-1.905249,2.1420777,-1.8755127,136.0
19201,0.034956932,1.8826542,-1.339859,-1.905249,2.1420777,-1.8755127,136.0
19202,0.034956932,1.8826542,-1.339859,-1.905249,2.1420777,-1.8755127,138.0
19203,0.034956932,1.8826542,-1.339859,-1.7947998,3.4855225,-1.7799317,138.0
19204,0.49225998,-2.6953049,-2.4469757,-1.7947998,3.4855225,-1.7799317,138.0
19205,0.49225998,-2.6953049,-2.4469757,-1.0142212,4.2894654,-1.4007934,138.0
19206,0.13072205,-7.2774353,-3.1402283,-1.0142212,4.2894654,-1.4007934,138.0
19207,0.13072205,-7.2774353,-3.1402283,-0.093457036,5.147571,-1.0067872,138.0
19208,0.18016338,-11.148193,-3.7763214,-0.093457036,5.147571,-1.0067872,138.0
19209,0.18016338,-11.148193,-3.7763214,0.38444826,6.074707,-1.2276856,138.0
19210,0.97268295,-13.563367,-4.402893,0.38444826,6.074707,-1.2276856,138.0
19211,0.97268295,-13.563367,-4.402893,0.4704712,6.6619997,-1.6015137,138.0
19212,1.6144753,-12.872862,-4.047333,0.4704712,6.6619997,-1.6015137,138.0
19213,1.6144753,-12.872862,-4.047333,-1.0152832,7.1664553,-1.3168945,138.0
19214,0.48673344,-10.119212,-2.485443,-1.0152832,7.1664553,-1.3168945,138.0
19215,0.48673344,-10.119212,-2.485443,-1.7278931,6.4835815,-1.2191895,138.0
19216,-2.360919,-7.0453944,-0.4976654,-1.7278931,6.4835815,-1.2191895,138.0
19217,-2.360919,-7.0453944,-0.4976654,-0.13168946,5.4173217,-1.2266235,138.0
19218,-4.9734154,-2.468567,1.6304474,-0.13168946,5.4173217,-1.2266235,138.0
19219,-4.9734154,-2.468567,1.6304474,0.34940186,4.6781616,-1.0673218,138.0
19220,-6.399497,3.1971068,3.1963806,0.34940186,4.6781616,-1.0673218,138.0
19221,-6.399497,3.1971068,3.1963806,0.21983643,4.2873416,-0.8092529,138.0
19222,-7.0710144,7.358198,3.178543,0.21983643,4.2873416,-0.8092529,138.0
19223,-7.0710144,7.358198,3.178543,0.24638672,3.80625,-0.58623046,138.0
19224,-7.6197753,8.608177,1.7473145,0.24638672,3.80625,-0.58623046,138.0
19225,-7.6197753,8.608177,1.7473145,0.80819094,3.1902833,-0.6690674,138.0
19226,-8.104525,8.123138,0.21055603,0.80819094,3.1902833,-0.6690674,138.0
19227,-8.104525,8.123138,0.21055603,1.0237793,2.3948364,-0.7189819,138.0
19228,-7.973695,7.4841423,-0.6585541,1.0237793,2.3948364,-0.7189819,138.0
19229,-7.973695,7.4841423,-0.6585541,0.6988037,1.5133667,-0.73703617,138.0
19230,-6.7162733,6.6334324,-1.2563629,0.6988037,1.5133667,-0.73703617,138.0
19231,-6.7162733,6.6334324,-1.2563629,-0.1263794,0.6988037,-0.634021,138.0
19232,-4.3096642,4.3737755,-1.685379,-0.1263794,0.6988037,-0.634021,138.0
19233,-4.3096642,4.3737755,-1.685379,-0.7625244,-0.019116212,0.10089111,138.0
19234,-1.5648212,0.09280777,-1.7959442,-0.7625244,-0.019116212,0.10089111,138.0
19235,-1.5648212,0.09280777,-1.7959442,-0.028674318,-0.76464844,0.88040775,138.0
19236,1.3444077,-4.270115,-1.5818176,-0.028674318,-0.76464844,0.88040775,138.0
19237,1.3444077,-4.270115,-1.5818176,1.6163819,-1.5526612,2.3130615,138.0
19238,3.542543,-6.6361732,-2.2972107,1.6163819,-1.5526612,2.3130615,138.0
19239,3.542543,-6.6361732,-2.2972107,3.1318727,-1.7831177,2.8536255,138.0
19240,4.8448863,-7.7871857,-4.491806,3.1318727,-1.7831177,2.8536255,138.0
19241,4.8448863,-7.7871857,-4.491806,2.4957275,-2.2217286,4.2257447,138.0
19242,6.5312314,-9.5943365,-6.4860077,2.4957275,-2.2217286,4.2257447,138.0
19243,6.5312314,-9.5943365,-6.4860077,1.6981567,-3.2147095,4.434961,138.0
19244,9.784042,-10.49522,-6.493683,1.6981567,-3.2147095,4.434961,138.0
19245,9.784042,-10.49522,-6.493683,0.36320803,-4.5369143,3.8359864,138.0
19246,12.703028,-8.449619,-4.1533966,0.36320803,-4.5369143,3.8359864,138.0
19247,12.703028,-8.449619,-4.1533966,-1.0418335,-5.2208495,2.5647583,138.0
19248,11.121382,-5.4098415,-0.97468567,-1.0418335,-5.2208495,2.5647583,138.0
19249,11.121382,-5.4098415,-0.97468567,-1.6694825,-6.0832033,2.3916504,138.0
19250,7.271385,-2.8761766,1.4791107,-1.6694825,-6.0832033,2.3916504,138.0
19251,7.271385,-2.8761766,1.4791107,-1.1108643,-6.517566,1.6673584,138.0
19252,4.03526,0.31008172,3.252365,-1.1108643,-6.517566,1.6673584,138.0
19253,4.03526,0.31008172,3.252365,-0.38657227,-6.1777225,1.4199097,138.0
19254,0.7726784,5.0345154,4.69516,-0.38657227,-6.1777225,1.4199097,138.0
19255,0.7726784,5.0345154,4.69516,-0.88996583,-6.047095,1.1310425,138.0
19256,-1.2926483,9.710255,6.1076508,-0.88996583,-6.047095,1.1310425,138.0
19257,-1.2926483,9.710255,6.1076508,-1.2829102,-5.425818,0.635083,138.0
19258,-1.7520256,12.549404,7.5325165,-1.2829102,-5.425818,0.635083,138.0
19259,-1.7520256,12.549404,7.5325165,-2.081543,-4.1036134,0.727478,138.0
19260,-2.2354221,13.292795,7.782242,-2.081543,-4.1036134,0.727478,138.0
19261,-2.2354221,13.292795,7.782242,-3.350647,-2.5477662,0.19434814,138.0
19262,-3.0697832,11.853414,6.357971,-3.350647,-2.5477662,0.19434814,138.0
19263,-3.0697832,11.853414,6.357971,-3.178601,-1.2340577,-0.56180423,138.0
19264,-2.9855385,8.954252,3.7888336,-3.178601,-1.2340577,-0.56180423,138.0
19265,-2.9855385,8.954252,3.7888336,-2.4766114,-0.06584473,-0.96218264,138.0
19266,-1.5834875,5.5126686,1.0355072,-2.4766114,-0.06584473,-0.96218264,138.0
19267,-1.5834875,5.5126686,1.0355072,-1.538855,0.8602295,-1.3200806,138.0
19268,0.28833675,1.2957191,-0.47575378,-1.538855,0.8602295,-1.3200806,138.0
19269,0.28833675,1.2957191,-0.47575378,-0.94731444,1.8808228,-1.357251,138.0
19270,1.2513237,-3.4956875,-0.24858093,-0.94731444,1.8808228,-1.357251,138.0
19271,1.2513237,-3.4956875,-0.24858093,-0.4895874,3.0426636,-0.5320679,138.0
19272,0.657114,-7.4088917,0.0015563965,-0.4895874,3.0426636,-0.5320679,138.0
19273,0.657114,-7.4088917,0.0015563965,-0.0021240234,3.9443116,-0.33771974,138.0
19274,0.657114,-7.4088917,0.0015563965,0.24001466,4.5878906,-0.6839356,138.0
19275,-0.46232224,-9.491579,-1.3977814,0.24001466,4.5878906,-0.6839356,138.0
19276,-1.2491302,-12.428945,-4.2461243,0.24001466,4.5878906,-0.6839356,138.0
19277,-1.2491302,-12.428945,-4.2461243,-0.7391602,4.612317,-0.8793457,138.0
19278,-1.2491302,-12.428945,-4.2461243,-2.0040162,4.5146117,-0.19753419,138.0
19279,-1.2491302,-12.428945,-4.2461243,-0.8772217,4.1652102,0.4343628,138.0
19280,-0.9993038,-9.943155,-3.3968964,-0.8772217,4.1652102,0.4343628,138.0
19281,-6.807145,6.847453,-1.5956421,-0.8772217,4.1652102,0.4343628,138.0
19282,-6.807145,6.847453,-1.5956421,-0.1709839,3.7287233,0.3451538,138.0
19283,-6.807145,6.847453,-1.5956421,-0.4354248,3.1902833,-0.08814698,138.0
19284,-6.807145,6.847453,-1.5956421,-0.7965088,2.9343383,-0.24638672,138.0
19285,-6.600526,7.4642296,-0.053375244,-0.7965088,2.9343383,-0.24638672,138.0
19286,-6.600526,7.4642296,-0.053375244,-0.68499756,2.8238893,-0.18266602,138.0
19287,-5.9381356,6.1727505,1.2276154,-0.68499756,2.8238893,-0.18266602,138.0
19288,-5.9381356,6.1727505,1.2276154,-0.27718505,2.5668824,-0.20709229,138.0
19289,-6.1038656,5.151432,1.1291656,-0.27718505,2.5668824,-0.20709229,138.0
19290,-6.1038656,5.151432,1.1291656,0.12000733,1.8489624,-0.5214478,138.0
19291,-7.068493,4.747219,-0.07633972,0.12000733,1.8489624,-0.5214478,138.0
19292,-7.068493,4.747219,-0.07633972,0.50445557,0.55755615,-0.6988037,138.0
19293,-7.7769623,4.471348,-1.4882202,0.50445557,0.55755615,-0.6988037,138.0
19294,-7.7769623,4.471348,-1.4882202,1.0322754,-1.0046631,-0.7784546,138.0
19295,-6.945569,3.5968418,-2.4296265,1.0322754,-1.0046631,-0.7784546,138.0
19296,-6.945569,3.5968418,-2.4296265,1.6025757,-2.6953857,-1.0875,138.0
19297,-4.3998394,1.1539993,-3.32135,1.6025757,-2.6953857,-1.0875,138.0
19298,-4.3998394,1.1539993,-3.32135,1.9594116,-4.2055664,-1.1459106,138.0
19299,-1.7615461,-3.899006,-5.09404,1.9594116,-4.2055664,-1.1459106,138.0
19300,-1.7615461,-3.899006,-5.09404,2.8207033,-5.071106,-0.4609131,138.0
19301,0.8065468,-11.553128,-7.7151184,2.8207033,-5.071106,-0.4609131,138.0
19302,0.8065468,-11.553128,-7.7151184,4.4466434,-6.0152345,0.75509036,138.0
19303,4.656431,-18.992344,-8.949036,4.4466434,-6.0152345,0.75509036,138.0
19304,4.656431,-18.992344,-8.949036,6.0778933,-6.595093,2.2036743,138.0
19305,9.674742,-19.60823,-6.95578,6.0778933,-6.595093,2.2036743,138.0
19306,9.674742,-19.60823,-6.95578,5.945142,-6.0311646,3.0214233,138.0
19307,12.030357,-11.738501,-2.5917358,5.945142,-6.0311646,3.0214233,138.0
19308,12.030357,-11.738501,-2.5917358,2.7113159,-4.0526366,3.440918,138.0
19309,12.030357,-11.738501,-2.5917358,2.7113159,-4.0526366,3.440918,138.0
19310,9.651984,-3.1100147,1.9871368,2.7113159,-4.0526366,3.440918,138.0
19311,9.651984,-3.1100147,1.9871368,-0.15823975,-2.9566407,3.615088,138.0
19312,5.8481016,1.5644175,4.920456,-0.15823975,-2.9566407,3.615088,138.0
19313,5.8481016,1.5644175,4.920456,-0.7062378,-2.2971313,2.890796,138.0
19314,2.5917263,4.98221,5.778061,-0.7062378,-2.2971313,2.890796,138.0
19315,2.5917263,4.98221,5.778061,-1.6864747,-1.7066529,2.4702394,138.0
19316,0.13336658,9.102297,5.536377,-1.6864747,-1.7066529,2.4702394,138.0
19317,0.13336658,9.102297,5.536377,-2.8748658,-1.3965454,1.5919555,138.0
19318,-1.5196381,12.672622,5.4239807,-2.8748658,-1.3965454,1.5919555,138.0
19319,-1.5196381,12.672622,5.4239807,-4.2788453,-0.91120607,0.77739257,138.0
19320,-2.2802734,13.580505,5.7977295,-4.2788453,-0.91120607,0.77739257,138.0
19321,-2.2802734,13.580505,5.7977295,-4.685596,-0.3993164,0.07646485,138.0
19322,-2.2041016,11.312841,6.3211823,-4.685596,-0.3993164,0.07646485,138.0
19323,-2.2041016,11.312841,6.3211823,-3.6862428,0.07434082,-0.44923097,138.0
19324,-1.6384153,7.9275208,6.2779083,-3.6862428,0.07434082,-0.44923097,138.0
19325,-1.6384153,7.9275208,6.2779083,-1.9360474,0.6000366,-0.5713623,138.0
19326,-0.70274925,5.90304,4.932205,-1.9360474,0.6000366,-0.5713623,138.0
19327,-0.70274925,5.90304,4.932205,-0.6956177,1.545227,-0.7391602,138.0
19328,0.57676506,4.980831,2.120346,-0.6956177,1.545227,-0.7391602,138.0
19329,0.57676506,4.980831,2.120346,0.4609131,2.4681153,-1.0131592,138.0
19330,2.3569078,3.7193584,-1.1258087,0.4609131,2.4681153,-1.0131592,138.0
19331,2.3569078,3.7193584,-1.1258087,1.0662597,3.361267,-1.2935303,138.0
19332,4.0837927,1.5314064,-3.409317,1.0662597,3.361267,-1.2935303,138.0
19333,4.0837927,1.5314064,-3.409317,1.1182984,4.1917605,-1.2765381,138.0
19334,4.648224,-1.8805275,-4.124542,1.1182984,4.1917605,-1.2765381,138.0
19335,4.648224,-1.8805275,-4.124542,0.79226077,4.906494,-0.9600586,138.0
19336,4.491968,-6.5128937,-3.7513733,0.79226077,4.906494,-0.9600586,138.0
19337,4.491968,-6.5128937,-3.7513733,0.60959476,5.482105,-0.74871826,138.0
19338,4.755146,-11.342578,-3.3545685,0.60959476,5.482105,-0.74871826,138.0
19339,4.755146,-11.342578,-3.3545685,0.87191164,5.883545,-1.3083985,138.0
19340,5.144888,-13.879495,-3.3874512,0.87191164,5.883545,-1.3083985,138.0
19341,5.144888,-13.879495,-3.3874512,0.25806886,5.8123903,-1.4878784,138.0
19342,3.9699993,-11.940131,-3.131073,0.25806886,5.8123903,-1.4878784,138.0
19343,3.9699993,-11.940131,-3.131073,-1.1607789,5.5468874,-1.2085694,138.0
19344,0.46734428,-7.1734304,-2.1254272,-1.1607789,5.5468874,-1.2085694,138.0
19345,0.46734428,-7.1734304,-2.1254272,-1.7831177,4.759937,-1.2234375,138.0
19346,-3.5407248,-2.7649407,-1.0374908,-1.7831177,4.759937,-1.2234375,138.0
19347,-3.5407248,-2.7649407,-1.0374908,-1.1214844,4.084497,-1.6960328,138.0
19348,-6.1225824,0.6723738,-0.41415405,-1.1214844,4.084497,-1.6960328,138.0
19349,-6.1225824,0.6723738,-0.41415405,-0.60109866,3.635266,-1.9509156,138.0
19350,-6.922248,3.5465784,-0.37727356,-0.60109866,3.635266,-1.9509156,138.0
19351,-6.922248,3.5465784,-0.37727356,-0.4704712,3.2848022,-2.0114503,138.0
19352,-6.201665,4.4760075,-0.24987793,-0.4704712,3.2848022,-2.0114503,138.0
19353,-6.201665,4.4760075,-0.24987793,-0.6042847,3.0915163,-2.0348146,138.0
19354,-7.2861853,7.024605,0.45225525,-0.6042847,3.0915163,-2.0348146,138.0
19355,-7.2861853,7.024605,0.45225525,-0.72641605,2.3311157,-1.9519776,138.0
19356,-6.9708676,6.5014706,1.5239105,-0.72641605,2.3311157,-1.9519776,138.0
19357,-6.9708676,6.5014706,1.5239105,-0.5320679,2.1282716,-1.898877,138.0
19358,-10.504759,6.824004,4.393158,-0.5320679,2.1282716,-1.898877,138.0
19359,-10.504759,6.824004,4.393158,0.29417726,1.1926392,-1.5600952,138.0
19360,-10.284642,5.8502197,3.8864899,0.29417726,1.1926392,-1.5600952,138.0
19361,-10.284642,5.8502197,3.8864899,0.60322267,0.6956177,-1.3657471,138.0
19362,-9.507633,2.99259,1.5277252,0.60322267,0.6956177,-1.3657471,138.0
19363,-9.507633,2.99259,1.5277252,1.7300171,-0.98236084,-0.65632325,138.0
19364,-6.0936065,0.49915123,0.09777832,1.7300171,-0.98236084,-0.65632325,138.0
19365,-6.0936065,0.49915123,0.09777832,2.0677369,-1.4623902,0.058410645,138.0
19366,3.2602587,-5.5266438,0.06059265,2.0677369,-1.4623902,0.058410645,138.0
19367,3.2602587,-5.5266438,0.06059265,4.3075194,-1.8776368,2.2281005,138.0
19368,5.3468056,-5.8113537,0.60635376,4.3075194,-1.8776368,2.2281005,138.0
19369,5.3468056,-5.8113537,0.60635376,3.9655519,-1.7045288,2.3725343,138.0
19370,8.420096,-9.036278,-2.5881958,3.9655519,-1.7045288,2.3725343,138.0
19371,8.420096,-9.036278,-2.5881958,3.6894288,-2.6879518,4.340442,138.0
19372,7.6234794,-10.782831,-4.9095917,3.6894288,-2.6879518,4.340442,138.0
19373,7.6234794,-10.782831,-4.9095917,4.3850465,-3.3803833,4.442395,138.0
19374,14.801433,-15.475227,-7.3100433,4.3850465,-3.3803833,4.442395,138.0
19375,14.801433,-15.475227,-7.3100433,4.2108765,-3.9751098,3.059656,138.0
19376,15.084555,-12.793708,-5.4129944,4.2108765,-3.9751098,3.059656,138.0
19377,15.084555,-12.793708,-5.4129944,3.5927856,-3.364453,3.0203614,138.0
19378,14.323162,-2.7299247,0.38017273,3.5927856,-3.364453,3.0203614,138.0
19379,14.323162,-2.7299247,0.38017273,-0.6690674,-3.2040894,3.525879,138.0
19380,9.177134,1.2704303,1.6989136,-0.6690674,-3.2040894,3.525879,138.0
19381,9.177134,1.2704303,1.6989136,-1.7034668,-3.5141969,3.3973756,138.0
19382,-0.14408493,8.185778,3.8741913,-1.7034668,-3.5141969,3.3973756,138.0
19383,-0.14408493,8.185778,3.8741913,-2.6837037,-4.1216674,2.5944946,138.0
19384,-2.3244839,8.104286,3.2262878,-2.6837037,-4.1216674,2.5944946,138.0
19385,-2.3244839,8.104286,3.2262878,-2.3958986,-4.338318,2.0826051,138.0
19386,-4.0012865,9.279718,2.6519623,-2.3958986,-4.338318,2.0826051,138.0
19387,-4.0012865,9.279718,2.6519623,-1.9222412,-4.5539064,1.2361816,138.0
19388,-3.6302414,10.81324,2.7433014,-1.9222412,-4.5539064,1.2361816,138.0
19389,-3.6302414,10.81324,2.7433014,-2.0549927,-4.1375976,0.7827026,138.0
19390,-2.9092226,12.563618,4.9391785,-2.0549927,-4.1375976,0.7827026,138.0
19391,-2.9092226,12.563618,4.9391785,-2.4001465,-2.6805177,0.4364868,138.0
19392,-2.8773785,11.052677,4.883423,-2.4001465,-2.6805177,0.4364868,138.0
19393,-2.8773785,11.052677,4.883423,-2.447937,-2.1027832,0.29523927,138.0
19394,-3.3184557,9.259367,4.447525,-2.447937,-2.1027832,0.29523927,138.0
19395,-3.3184557,9.259367,4.447525,-1.4772583,-0.38232422,-0.3069214,138.0
19396,-2.3741007,7.0003395,3.0898743,-1.4772583,-0.38232422,-0.3069214,138.0
19397,-2.3741007,7.0003395,3.0898743,-0.98129886,0.33878174,-0.44179687,138.0
19398,0.1001215,4.1978683,0.7944336,-0.98129886,0.33878174,-0.44179687,138.0
19399,0.1001215,4.1978683,0.7944336,-0.68287355,1.8245362,-0.544812,138.0
19400,2.6745186,2.132269,-1.2503662,-0.68287355,1.8245362,-0.544812,138.0
19401,2.6745186,2.132269,-1.2503662,-0.7890747,3.1371827,-0.5979126,138.0
19402,2.6436558,-0.6129837,-2.308319,-0.7890747,3.1371827,-0.5979126,138.0
19403,2.6436558,-0.6129837,-2.308319,-0.4439209,4.185388,-0.7412842,138.0
19404,2.6436558,-0.6129837,-2.308319,-0.3058594,4.428589,-0.6956177,138.0
19405,2.0036335,-1.8731384,-1.882904,-0.3058594,4.428589,-0.6956177,138.0
19406,4.4735613,-18.261793,-2.6518097,-0.3058594,4.428589,-0.6956177,138.0
19407,4.4735613,-18.261793,-2.6518097,-0.13275146,4.972339,-0.8092529,138.0
19408,4.4735613,-18.261793,-2.6518097,0.16779785,5.5681276,-1.3816773,138.0
19409,4.4735613,-18.261793,-2.6518097,-0.5341919,5.440686,-1.9264892,138.0
19410,4.2167397,-17.857481,-1.6497955,-0.5341919,5.440686,-1.9264892,138.0
19411,4.2167397,-17.857481,-1.6497955,-2.076233,4.9532228,-1.0004151,138.0
19412,1.3491364,-13.519933,-0.029815674,-2.076233,4.9532228,-1.0004151,138.0
19413,1.3491364,-13.519933,-0.029815674,-1.2776002,4.054761,-0.67225343,138.0
19414,-2.1775274,-7.5755897,1.6178894,-1.2776002,4.054761,-0.67225343,138.0
19415,-2.1775274,-7.5755897,1.6178894,-0.23682861,3.696863,-0.47471926,138.0
19416,-2.1775274,-7.5755897,1.6178894,-0.23682861,3.696863,-0.47471926,137.0
19417,-4.31054,-1.6961284,2.2624817,-0.23682861,3.696863,-0.47471926,137.0
19418,-4.31054,-1.6961284,2.2624817,-0.060534667,3.709607,-0.18903808,137.0
19419,-5.3048897,3.0335274,1.2456665,-0.060534667,3.709607,-0.18903808,137.0
19420,-5.3048897,3.0335274,1.2456665,-0.3164795,3.6692505,-0.016992187,137.0
19421,-7.2239532,7.0393343,-1.6443329,-0.3164795,3.6692505,-0.016992187,137.0
19422,-7.2239532,7.0393343,-1.6443329,0.053100586,3.3177247,0.1263794,137.0
19423,-6.565466,6.5724344,-1.8152466,0.053100586,3.3177247,0.1263794,137.0
19424,-6.565466,6.5724344,-1.8152466,0.20921631,3.2232056,0.059472658,137.0
19425,-6.926091,6.878297,-2.21138,0.20921631,3.2232056,0.059472658,137.0
19426,-6.926091,6.878297,-2.21138,-0.057348635,2.8015869,0.015930176,137.0
19427,-7.3560953,7.136549,-1.8375702,-0.057348635,2.8015869,0.015930176,137.0
19428,-7.3560953,7.136549,-1.8375702,-0.5936646,1.9179932,0.16779785,137.0
19429,-7.6830454,6.626646,-1.3188019,-0.5936646,1.9179932,0.16779785,137.0
19430,-7.6830454,6.626646,-1.3188019,-0.5246338,0.98873293,0.3069214,137.0
19431,-7.1605353,4.8490467,-1.2513123,-0.5246338,0.98873293,0.3069214,137.0
19432,-7.1605353,4.8490467,-1.2513123,-0.08283692,-0.04248047,0.3706421,137.0
19433,-4.6650615,2.5471325,-1.3555603,-0.08283692,-0.04248047,0.3706421,137.0
19434,-4.6650615,2.5471325,-1.3555603,-0.36851808,-1.3158325,1.2319336,137.0
19435,-1.2698667,-0.71972847,-1.6850891,-0.36851808,-1.3158325,1.2319336,137.0
19436,-1.2698667,-0.71972847,-1.6850891,0.9324463,-2.0528686,0.3154175,137.0
19437,1.3131595,-4.898609,-2.765274,0.9324463,-2.0528686,0.3154175,137.0
19438,1.3131595,-4.898609,-2.765274,2.088977,-3.076648,2.4033325,137.0
19439,2.5386014,-8.552224,-4.6759033,2.088977,-3.076648,2.4033325,137.0
19440,2.5386014,-8.552224,-4.6759033,2.803711,-3.6703126,3.1382446,137.0
19441,3.9842868,-13.1503725,-7.009384,2.803711,-3.6703126,3.1382446,137.0
19442,3.9842868,-13.1503725,-7.009384,3.1594849,-4.4986815,3.535437,137.0
19443,6.786441,-16.063866,-7.9038086,3.1594849,-4.4986815,3.535437,137.0
19444,6.786441,-16.063866,-7.9038086,2.4012086,-5.3546634,5.3620973,137.0
19445,9.912124,-13.906988,-6.4065857,2.4012086,-5.3546634,5.3620973,137.0
19446,9.912124,-13.906988,-6.4065857,-0.56605226,-6.248877,5.2059817,137.0
19447,10.759289,-9.808049,-2.9938507,-0.56605226,-6.248877,5.2059817,137.0
19448,10.759289,-9.808049,-2.9938507,-1.7374512,-7.2864623,3.8243043,137.0
19449,8.754002,-6.0836225,1.2855377,-1.7374512,-7.2864623,3.8243043,137.0
19450,8.754002,-6.0836225,1.2855377,-1.5558472,-7.8142824,4.0462646,137.0
19451,6.6883936,-1.2807528,4.6129303,-1.5558472,-7.8142824,4.0462646,137.0
19452,6.6883936,-1.2807528,4.6129303,-1.358313,-7.597632,3.2104614,137.0
19453,4.5566473,5.685774,6.4641266,-1.358313,-7.597632,3.2104614,137.0
19454,4.5566473,5.685774,6.4641266,-2.2716432,-7.07937,2.633789,137.0
19455,2.7843933,12.771153,7.7633057,-2.2716432,-7.07937,2.633789,137.0
19456,2.7843933,12.771153,7.7633057,-3.3856933,-6.277551,1.4305298,137.0
19457,2.2354984,17.022612,9.708908,-3.3856933,-6.277551,1.4305298,137.0
19458,2.2354984,17.022612,9.708908,-3.3209107,-4.0473266,0.2442627,137.0
19459,1.2152052,17.758396,11.043686,-3.3209107,-4.0473266,0.2442627,137.0
19460,1.2152052,17.758396,11.043686,-3.2030275,-1.4061035,-0.9451904,137.0
19461,-0.6640053,15.848356,9.018448,-3.2030275,-1.4061035,-0.9451904,137.0
19462,-0.6640053,15.848356,9.018448,-2.618921,0.86766356,-2.092163,137.0
19463,-1.8531523,12.654345,3.821457,-2.618921,0.86766356,-2.092163,137.0
19464,-1.8531523,12.654345,3.821457,-3.3400269,2.4744873,-3.0108032,137.0
19465,-1.8073025,8.673841,-1.345398,-3.3400269,2.4744873,-3.0108032,137.0
19466,-1.8073025,8.673841,-1.345398,-3.812622,3.7595215,-3.2784302,137.0
19467,-0.9819746,2.517149,-4.0434875,-3.812622,3.7595215,-3.2784302,137.0
19468,-0.9819746,2.517149,-4.0434875,-4.3733644,4.2013183,-3.0161133,137.0
19469,-0.19817734,-6.1107674,-4.321472,-4.3733644,4.2013183,-3.0161133,137.0
19470,-0.19817734,-6.1107674,-4.321472,-3.42605,4.7121463,-1.7586914,137.0
19471,-0.13293076,-14.87277,-4.004486,-3.42605,4.7121463,-1.7586914,137.0
19472,-0.13293076,-14.87277,-4.004486,0.3791382,4.5740848,-0.74871826,137.0
19473,0.019180298,-18.926573,-4.448059,0.3791382,4.5740848,-0.74871826,137.0
19474,0.019180298,-18.926573,-4.448059,2.8684938,4.701526,-0.67225343,137.0
19475,0.019180298,-18.926573,-4.448059,1.9158691,4.443457,-0.8644776,137.0
19476,0.61118126,-15.635082,-4.535309,1.9158691,4.443457,-0.8644776,137.0
19477,-4.0505085,-2.627902,2.3355255,1.9158691,4.443457,-0.8644776,137.0
19478,-4.0505085,-2.627902,2.3355255,-1.260608,4.4190307,-0.5501221,137.0
19479,-4.0505085,-2.627902,2.3355255,-0.7508423,3.877405,-0.5564942,137.0
19480,-4.0505085,-2.627902,2.3355255,0.48215333,3.4271119,-0.44923097,137.0
19481,-3.240407,-2.1023216,1.8684235,0.48215333,3.4271119,-0.44923097,137.0
19482,-10.889469,10.676969,0.025939941,0.48215333,3.4271119,-0.44923097,137.0
19483,-10.889469,10.676969,0.025939941,1.9689697,3.3729494,-0.5065796,137.0
19484,-10.889469,10.676969,0.025939941,2.3937745,3.1382446,-0.7349121,137.0
19485,-10.889469,10.676969,0.025939941,1.9275513,2.546704,-0.994043,137.0
19486,-10.804911,11.784691,-3.6927032,1.9275513,2.546704,-0.994043,137.0
19487,-10.804911,11.784691,-3.6927032,1.2234375,1.5887696,-1.1575928,137.0
19488,-10.041255,9.531109,-4.363983,1.2234375,1.5887696,-1.1575928,137.0
19489,-10.041255,9.531109,-4.363983,0.013806152,0.59260255,-1.0216553,137.0
19490,-8.751962,5.588913,-2.9915466,0.013806152,0.59260255,-1.0216553,137.0
19491,-8.751962,5.588913,-2.9915466,-0.8219971,-0.33665773,-0.23789063,137.0
19492,-6.9672923,2.2999268,-2.4918365,-0.8219971,-0.33665773,-0.23789063,137.0
19493,-6.9672923,2.2999268,-2.4918365,-0.4078125,-1.4666382,-0.26975098,137.0
19494,-5.0293636,-0.15415001,-3.169159,-0.4078125,-1.4666382,-0.26975098,137.0
19495,-5.0293636,-0.15415001,-3.169159,0.16036378,-2.4967897,0.08814698,137.0
19496,-3.7882493,-1.6007977,-3.4901276,0.16036378,-2.4967897,0.08814698,137.0
19497,-3.7882493,-1.6007977,-3.4901276,1.2446778,-3.529065,0.67650145,137.0
19498,-2.9911585,-2.4135237,-3.457077,1.2446778,-3.529065,0.67650145,137.0
19499,-2.9911585,-2.4135237,-3.457077,1.7013428,-4.1875124,1.1915772,137.0
19500,-1.8072457,-4.354574,-4.161957,1.7013428,-4.1875124,1.1915772,137.0
19501,-1.8072457,-4.354574,-4.161957,2.6953857,-5.0265017,1.7002808,137.0
19502,0.6479411,-11.037786,-5.2624817,2.6953857,-5.0265017,1.7002808,137.0
19503,0.6479411,-11.037786,-5.2624817,2.6953857,-5.0265017,1.7002808,142.0
19504,0.6479411,-11.037786,-5.2624817,3.4579103,-5.5362673,2.5052857,142.0
19505,6.5981503,-20.271317,-4.8348236,3.4579103,-5.5362673,2.5052857,142.0
19506,6.5981503,-20.271317,-4.8348236,3.4111817,-6.6131473,4.6728516,142.0
19507,14.881084,-21.832544,-1.899292,3.4111817,-6.6131473,4.6728516,142.0
19508,14.881084,-21.832544,-1.899292,3.2317016,-5.1911135,3.9262574,142.0
19509,16.655624,-13.102413,2.5068817,3.2317016,-5.1911135,3.9262574,142.0
19510,16.655624,-13.102413,2.5068817,1.2096313,-3.710669,4.635681,142.0
19511,11.128186,-2.5731902,6.182785,1.2096313,-3.710669,4.635681,142.0
19512,11.128186,-2.5731902,6.182785,0.24213867,-3.5895996,4.055823,142.0
19513,5.715866,4.8841114,7.3362274,0.24213867,-3.5895996,4.055823,142.0
19514,5.715866,4.8841114,7.3362274,-1.0407715,-3.2178955,3.1053224,142.0
19515,2.5583744,10.719106,6.9926605,-1.0407715,-3.2178955,3.1053224,142.0
19516,2.5583744,10.719106,6.9926605,-2.0741088,-2.8759277,2.34917,142.0
19517,1.0619221,15.142887,6.908371,-2.0741088,-2.8759277,2.34917,142.0
19518,1.0619221,15.142887,6.908371,-3.3124146,-2.2334106,1.6620483,142.0
19519,-0.0041007996,17.932621,8.125824,-3.3124146,-2.2334106,1.6620483,142.0
19520,-0.0041007996,17.932621,8.125824,-2.0911012,-1.4114136,0.62340087,142.0
19521,-0.8346901,17.956522,9.95813,-2.0911012,-1.4114136,0.62340087,142.0
19522,-0.8346901,17.956522,9.95813,-0.5649902,-0.8028809,-0.88996583,142.0
19523,-0.9245148,14.789228,8.941315,-0.5649902,-0.8028809,-0.88996583,142.0
19524,-0.9245148,14.789228,8.941315,-0.85491943,0.8517334,-1.7873658,142.0
19525,-0.50087833,10.0514145,3.9426575,-0.85491943,0.8517334,-1.7873658,142.0
19526,-0.50087833,10.0514145,3.9426575,-1.0174073,2.5063477,-2.7495484,142.0
19527,0.8352108,4.881706,-1.6607819,-1.0174073,2.5063477,-2.7495484,142.0
19528,0.8352108,4.881706,-1.6607819,-1.9498535,3.6819947,-2.9577026,142.0
19529,3.3140917,-1.7887516,-4.970291,-1.9498535,3.6819947,-2.9577026,142.0
19530,3.3140917,-1.7887516,-4.970291,-2.3693483,4.9595947,-1.7703736,142.0
19531,4.4194374,-10.053549,-5.5814514,-2.3693483,4.9595947,-1.7703736,142.0
19532,4.4194374,-10.053549,-5.5814514,-0.5915405,5.900537,-0.6860596,142.0
19533,3.1252232,-15.010869,-4.894226,-0.5915405,5.900537,-0.6860596,142.0
19534,3.1252232,-15.010869,-4.894226,0.8485474,5.9037232,-0.72216797,142.0
19535,1.6817703,-14.110465,-4.6651154,0.8485474,5.9037232,-0.72216797,142.0
19536,1.6817703,-14.110465,-4.6651154,0.99722904,6.442163,-1.0906861,142.0
19537,1.6817703,-14.110465,-4.6651154,0.08814698,6.1968384,-1.5112427,142.0
19538,0.65717125,-11.720513,-4.5766296,0.08814698,6.1968384,-1.5112427,142.0
19539,-6.2175617,-3.3208075,-1.8054504,0.08814698,6.1968384,-1.5112427,142.0
19540,-6.2175617,-3.3208075,-1.8054504,-0.23789063,5.770972,-0.90270996,142.0
19541,-6.2175617,-3.3208075,-1.8054504,0.32603762,4.9712768,-0.5798584,142.0
19542,-6.2175617,-3.3208075,-1.8054504,0.901648,4.14928,-0.96643066,142.0
19543,-8.437111,2.8508615,-2.0726776,0.901648,4.14928,-0.96643066,142.0
19544,-8.437111,2.8508615,-2.0726776,1.0492676,3.4069335,-1.1905152,142.0
19545,-9.402363,7.005665,-2.5482483,1.0492676,3.4069335,-1.1905152,142.0
19546,-9.402363,7.005665,-2.5482483,0.49064943,2.6539674,-1.2393677,142.0
19547,-9.101383,8.945988,-2.540329,0.49064943,2.6539674,-1.2393677,142.0
19548,-9.101383,8.945988,-2.540329,-0.21346436,1.9657837,-1.0120972,142.0
19549,-8.610025,8.980703,-1.2132263,-0.21346436,1.9657837,-1.0120972,142.0
19550,-8.610025,8.980703,-1.2132263,-0.44710693,1.1586548,-0.63826907,142.0
19551,-8.31147,7.009611,0.77711487,-0.44710693,1.1586548,-0.63826907,142.0
19552,-8.31147,7.009611,0.77711487,-0.9228882,0.5214478,-0.7827026,142.0
19553,-7.116522,4.520275,1.2297668,-0.9228882,0.5214478,-0.7827026,142.0
19554,-7.116522,4.520275,1.2297668,-2.18031,-0.28461915,-0.9674927,142.0
19555,-4.8350143,1.7356167,0.51408386,-2.18031,-0.28461915,-0.9674927,142.0
19556,-4.8350143,1.7356167,0.51408386,-2.5796266,-1.3137085,-0.6680054,142.0
19557,-2.7781067,-2.754757,0.122421265,-2.5796266,-1.3137085,-0.6680054,142.0
19558,-2.7781067,-2.754757,0.122421265,-1.4326538,-2.444751,0.17416993,142.0
19559,-1.9427491,-6.5236425,-0.48831177,-1.4326538,-2.444751,0.17416993,142.0
19560,-1.9427491,-6.5236425,-0.48831177,1.1820191,-3.809436,0.6796875,142.0
19561,-1.7950196,-6.7541437,-1.6399994,1.1820191,-3.809436,0.6796875,142.0
19562,-1.7950196,-6.7541437,-1.6399994,1.996582,-5.1879272,1.6195679,142.0
19563,-0.8870778,-6.7398024,-3.3168793,1.996582,-5.1879272,1.6195679,142.0
19564,-0.8870778,-6.7398024,-3.3168793,3.0607178,-5.808142,2.3778443,142.0
19565,1.9107113,-12.479817,-5.0477905,3.0607178,-5.808142,2.3778443,142.0
19566,1.9107113,-12.479817,-5.0477905,4.0409546,-6.412427,3.0968263,142.0
19567,8.923174,-20.657475,-6.004715,4.0409546,-6.412427,3.0968263,142.0
19568,8.923174,-20.657475,-6.004715,5.074292,-7.530725,4.326636,142.0
19569,18.16554,-19.6507,-5.304199,5.074292,-7.530725,4.326636,142.0
19570,18.16554,-19.6507,-5.304199,3.7361572,-4.7333865,3.1478028,142.0
19571,18.70404,-8.334353,-1.4251556,3.7361572,-4.7333865,3.1478028,142.0
19572,18.70404,-8.334353,-1.4251556,0.4343628,-3.1063843,4.0239625,142.0
19573,10.716284,2.5380468,3.712967,0.4343628,-3.1063843,4.0239625,142.0
19574,10.716284,2.5380468,3.712967,-0.5150757,-3.1159425,3.172229,142.0
19575,3.2819376,8.409979,6.628433,-0.5150757,-3.1159425,3.172229,142.0
19576,3.2819376,8.409979,6.628433,-1.0460815,-2.9789429,2.4914796,142.0
19577,-1.3606186,12.16906,7.2052765,-1.0460815,-2.9789429,2.4914796,142.0
19578,-1.3606186,12.16906,7.2052765,-3.0617797,-2.9715087,1.9243653,142.0
19579,-2.6576357,15.113605,6.9380493,-3.0617797,-2.9715087,1.9243653,142.0
19580,-2.6576357,15.113605,6.9380493,-2.897168,-2.3778443,1.3232666,142.0
19581,-2.6352396,16.556484,7.4954834,-2.897168,-2.3778443,1.3232666,142.0
19582,-2.6352396,16.556484,7.4954834,-1.7268311,-2.1325195,0.39400634,142.0
19583,-2.620533,15.976779,8.375885,-1.7268311,-2.1325195,0.39400634,142.0
19584,-2.620533,15.976779,8.375885,-0.4078125,-1.8500245,-0.9494385,142.0
19585,-1.8191442,13.434683,7.724991,-0.4078125,-1.8500245,-0.9494385,142.0
19586,-1.8191442,13.434683,7.724991,-0.635083,0.09664307,-1.7268311,142.0
19587,-0.77047634,9.37398,4.7926636,-0.635083,0.09664307,-1.7268311,142.0
19588,-0.77047634,9.37398,4.7926636,-0.92926025,2.2227905,-2.366162,142.0
19589,0.20936394,4.672804,0.9217987,-0.92926025,2.2227905,-2.366162,142.0
19590,0.20936394,4.672804,0.9217987,-1.5611572,3.911389,-2.5636964,142.0
19591,1.9542341,-0.33701324,-2.4003143,-1.5611572,3.911389,-2.5636964,142.0
19592,1.9542341,-0.33701324,-2.4003143,-1.1469727,5.1921754,-2.1473877,142.0
19593,3.7651215,-5.3778152,-4.7696533,-1.1469727,5.1921754,-2.1473877,142.0
19594,3.7651215,-5.3778152,-4.7696533,0.5798584,6.214893,-1.3455689,142.0
19595,3.7651215,-5.3778152,-4.7696533,0.5798584,6.214893,-1.3455689,147.0
19596,4.1103516,-8.807087,-5.5203094,0.5798584,6.214893,-1.3455689,147.0
19597,4.1103516,-8.807087,-5.5203094,1.4645141,6.32959,-0.8623535,147.0
19598,3.8114138,-10.35834,-4.838043,1.4645141,6.32959,-0.8623535,147.0
19599,3.8114138,-10.35834,-4.838043,1.2351197,6.6492553,-1.7427613,147.0
19600,3.8114138,-10.35834,-4.838043,0.33771974,6.8287354,-2.6900756,147.0
19601,3.6121807,-11.758084,-3.314087,0.33771974,6.8287354,-2.6900756,147.0
19602,-3.1487322,-13.096153,1.8829803,0.33771974,6.8287354,-2.6900756,147.0
19603,-3.1487322,-13.096153,1.8829803,-0.8251831,6.5717287,-2.6688354,147.0
19604,-3.1487322,-13.096153,1.8829803,-0.86766356,6.051343,-1.8861328,147.0
19605,-3.1487322,-13.096153,1.8829803,-0.2262085,4.8480835,-1.4199097,147.0
19606,-6.673026,-4.920697,1.0903625,-0.2262085,4.8480835,-1.4199097,147.0
19607,-6.673026,-4.920697,1.0903625,0.46516114,3.900769,-1.4783204,147.0
19608,-9.162871,2.9112692,-1.3449097,0.46516114,3.900769,-1.4783204,147.0
19609,-9.162871,2.9112692,-1.3449097,0.4991455,3.0256715,-1.539917,147.0
19610,-11.125243,7.759082,-3.3683472,0.4991455,3.0256715,-1.539917,147.0
19611,-11.125243,7.759082,-3.3683472,0.33028564,1.8011719,-1.26167,147.0
19612,-12.02268,8.424038,-3.0505066,0.33028564,1.8011719,-1.26167,147.0
19613,-12.02268,8.424038,-3.0505066,0.23151855,0.6605713,-0.8687256,147.0
19614,-11.048528,6.0051613,-1.8013306,0.23151855,0.6605713,-0.8687256,147.0
19615,-11.048528,6.0051613,-1.8013306,-0.92713624,-0.118945315,-0.3334717,147.0
19616,-8.831913,3.726017,-2.1410828,-0.92713624,-0.118945315,-0.3334717,147.0
19617,-8.831913,3.726017,-2.1410828,-2.6380372,-1.1469727,-0.2347046,147.0
19618,-5.9490385,0.40188217,-2.901291,-2.6380372,-1.1469727,-0.2347046,147.0
19619,-5.9490385,0.40188217,-2.901291,-2.6157348,-2.5063477,0.33134767,147.0
19620,-2.5093775,-4.773819,-2.5407867,-2.6157348,-2.5063477,0.33134767,147.0
19621,-2.5093775,-4.773819,-2.5407867,0.42692873,-4.15459,1.3816773,147.0
19622,0.01998806,-6.7185183,-2.6678925,0.42692873,-4.15459,1.3816773,147.0
19623,0.01998806,-6.7185183,-2.6678925,2.1888063,-5.619104,2.3651001,147.0
19624,1.522814,-5.649193,-4.214691,2.1888063,-5.619104,2.3651001,147.0
19625,1.522814,-5.649193,-4.214691,2.4150147,-6.2871094,3.349585,147.0
19626,3.3159075,-7.912409,-5.8128204,2.4150147,-6.2871094,3.349585,147.0
19627,3.3159075,-7.912409,-5.8128204,3.4249878,-6.5557985,4.049451,147.0
19628,6.9968667,-15.500716,-5.9799347,3.4249878,-6.5557985,4.049451,147.0
19629,6.9968667,-15.500716,-5.9799347,3.8731568,-7.25885,5.0498657,147.0
19630,16.560873,-19.825867,-4.5662537,3.8731568,-7.25885,5.0498657,147.0
19631,16.560873,-19.825867,-4.5662537,3.5651734,-5.973816,3.5853517,147.0
