,accx,accy,accz,gyrox,gyroy,gyroz,heart rate
1,walk,walk,walk,walk,walk,walk,walk
2,3.1311524,22.53219,127.875,0.0,0.0,0.0,0.0
3,3.1311524,22.53219,127.875,0.09664307,0.1731079,-0.011682129,0.0
4,2.1717677,18.485506,101.8267,0.09664307,0.1731079,-0.011682129,0.0
5,2.1717677,18.485506,101.8267,0.115759276,0.047790527,-0.004248047,0.0
6,1.7986813,14.751185,81.10394,0.115759276,0.047790527,-0.004248047,0.0
7,1.7986813,14.751185,81.10394,0.060534667,0.040356446,-0.038232423,0.0
8,1.7986813,14.751185,81.10394,0.021240234,0.038232423,-0.07965088,0.0
9,1.6382613,11.608139,64.91211,0.021240234,0.038232423,-0.07965088,0.0
10,1.535377,9.1031,52.278893,0.021240234,0.038232423,-0.07965088,0.0
11,1.535377,9.1031,52.278893,0.10513916,0.07115479,-0.10938721,0.0
12,1.3717833,7.173643,42.205338,0.10513916,0.07115479,-0.10938721,0.0
13,1.3717833,7.173643,42.205338,0.16036378,0.10301514,-0.09451904,0.0
14,1.0777977,5.7787704,33.91004,0.16036378,0.10301514,-0.09451904,0.0
15,1.0777977,5.7787704,33.91004,0.15505372,0.09451904,-0.08602295,0.0
16,1.0777977,5.7787704,33.91004,0.12000733,0.081774905,-0.07965088,0.0
17,0.73173285,4.7558537,27.01831,0.12000733,0.081774905,-0.07965088,0.0
18,0.442271,3.8655243,21.385818,0.12000733,0.081774905,-0.07965088,0.0
19,0.442271,3.8655243,21.385818,0.115759276,0.060534667,-0.057348635,0.0
20,0.2491169,3.047863,16.92894,0.115759276,0.060534667,-0.057348635,0.0
21,0.2491169,3.047863,16.92894,0.17629395,0.04248047,-0.025488282,0.0
22,0.16311169,2.3768883,13.510498,0.17629395,0.04248047,-0.025488282,0.0
23,0.16311169,2.3768883,13.510498,0.2081543,0.021240234,0.0031860352,0.0
24,0.1441977,1.8816624,10.861877,0.2081543,0.021240234,0.0031860352,0.0
25,0.1441977,1.8816624,10.861877,0.22196046,0.020178223,0.026550293,0.0
26,0.1441977,1.8816624,10.861877,0.22196046,0.020178223,0.026550293,76.0
27,0.10633707,1.5466003,8.681473,0.22196046,0.020178223,0.026550293,76.0
28,0.10633707,1.5466003,8.681473,0.21134034,0.019116212,0.058410645,76.0
29,0.027220726,1.3261242,6.848175,0.21134034,0.019116212,0.058410645,76.0
30,0.027220726,1.3261242,6.848175,0.16461182,0.008496094,0.08814698,76.0
31,-0.017139435,1.1158066,5.3535004,0.16461182,0.008496094,0.08814698,76.0
32,-0.017139435,1.1158066,5.3535004,0.1539917,0.008496094,0.08283692,76.0
33,-0.0107085705,0.9178047,4.177002,0.1539917,0.008496094,0.08283692,76.0
34,-0.0107085705,0.9178047,4.177002,0.12000733,0.009558106,0.078588866,76.0
35,-0.023813248,0.79576874,3.2356873,0.12000733,0.009558106,0.078588866,76.0
36,-0.023813248,0.79576874,3.2356873,0.078588866,0.0031860352,0.05522461,76.0
37,-0.019770622,0.66383743,2.4758453,0.078588866,0.0031860352,0.05522461,76.0
38,-0.019770622,0.66383743,2.4758453,0.07327881,0.0053100586,0.023364259,76.0
39,-0.009774208,0.5044594,1.8789825,0.07327881,0.0053100586,0.023364259,76.0
40,-0.009774208,0.5044594,1.8789825,0.08920898,0.016992187,-0.038232423,76.0
41,-0.031805992,0.45947647,1.3798828,0.08920898,0.016992187,-0.038232423,76.0
42,-0.031805992,0.45947647,1.3798828,0.124255374,0.021240234,-0.087084964,76.0
43,-0.031805992,0.45947647,1.3798828,0.07646485,0.03079834,-0.118945315,76.0
44,-0.09680724,0.6429596,0.93148804,0.07646485,0.03079834,-0.118945315,76.0
45,-0.22958207,0.9194946,0.48571777,0.07646485,0.03079834,-0.118945315,76.0
46,-0.22958207,0.9194946,0.48571777,-0.021240234,0.05522461,-0.1529297,76.0
47,-0.2876451,0.82668495,0.24005127,-0.021240234,0.05522461,-0.1529297,76.0
48,-0.2876451,0.82668495,0.24005127,-0.107263185,0.028674318,-0.2548828,76.0
49,-0.060816765,0.15114212,0.52967834,-0.107263185,0.028674318,-0.2548828,76.0
50,-0.060816765,0.15114212,0.52967834,0.04991455,0.04141846,-0.3802002,76.0
51,0.32021856,-0.38451767,1.2012177,0.04991455,0.04141846,-0.3802002,76.0
52,0.32021856,-0.38451767,1.2012177,0.39188233,0.15186767,-0.41418457,76.0
53,0.56589174,-0.1076622,1.8127136,0.39188233,0.15186767,-0.41418457,76.0
54,0.56589174,-0.1076622,1.8127136,0.33134767,0.2177124,-0.35577393,76.0
55,0.52641964,0.52898407,2.0568237,0.33134767,0.2177124,-0.35577393,76.0
56,0.52641964,0.52898407,2.0568237,-0.1274414,0.29948732,-0.23682861,76.0
57,0.22924137,0.71162605,1.7851562,-0.1274414,0.29948732,-0.23682861,76.0
58,0.22924137,0.71162605,1.7851562,-0.49064943,0.4067505,-0.14868164,76.0
59,-0.21680212,0.36092567,1.0878448,-0.49064943,0.4067505,-0.14868164,76.0
60,-0.21680212,0.36092567,1.0878448,-0.5235718,0.52250975,-0.06265869,76.0
61,-0.21680212,0.36092567,1.0878448,-0.3982544,0.60216063,0.007434082,76.0
62,-0.724406,0.08709335,0.3098755,-0.3982544,0.60216063,0.007434082,76.0
63,-1.1808798,0.27134705,-0.26870728,-0.3982544,0.60216063,0.007434082,76.0
64,-1.1808798,0.27134705,-0.26870728,-0.35471192,0.635083,0.06796875,76.0
65,-1.5015275,0.6711788,-0.6892395,-0.35471192,0.635083,0.06796875,76.0
66,-1.5015275,0.6711788,-0.6892395,-0.36427003,0.6552612,0.06159668,76.0
67,-1.7054458,0.94918823,-1.1743774,-0.36427003,0.6552612,0.06159668,76.0
68,-1.7054458,0.94918823,-1.1743774,-0.38975832,0.6085327,-0.0361084,76.0
69,-1.8187022,1.2442265,-1.7524414,-0.38975832,0.6085327,-0.0361084,76.0
70,-1.8187022,1.2442265,-1.7524414,-0.58410645,0.48109132,-0.19541016,76.0
71,-1.6225643,1.7998123,-2.1706696,-0.58410645,0.48109132,-0.19541016,76.0
72,-1.6225643,1.7998123,-2.1706696,-1.1310425,0.31966552,-0.48746338,76.0
73,-0.9794847,2.1018505,-2.3359985,-1.1310425,0.31966552,-0.48746338,76.0
74,-0.9794847,2.1018505,-2.3359985,-1.8797607,0.17416993,-0.8230591,76.0
75,-0.37290657,1.7768173,-2.1483612,-1.8797607,0.17416993,-0.8230591,76.0
76,-0.37290657,1.7768173,-2.1483612,-2.7378662,-0.035046387,-0.96430665,76.0
77,-0.12970948,1.2550468,-1.5827637,-2.7378662,-0.035046387,-0.96430665,76.0
78,-0.12970948,1.2550468,-1.5827637,-3.9613037,-0.2527588,-1.0917481,76.0
79,-0.19572318,0.28376198,-0.9667816,-3.9613037,-0.2527588,-1.0917481,76.0
80,-0.19572318,0.28376198,-0.9667816,-4.706836,-0.5586182,-1.3083985,76.0
81,-0.21871233,-1.2657528,-0.38404846,-4.706836,-0.5586182,-1.3083985,76.0
82,-0.21871233,-1.2657528,-0.38404846,-5.1284547,-0.96643066,-1.5802735,76.0
83,0.50928307,-2.4136753,0.5184326,-5.1284547,-0.96643066,-1.5802735,76.0
84,0.50928307,-2.4136753,0.5184326,-5.735925,-1.1607789,-2.084729,76.0
85,1.8334153,-3.2002277,1.7029114,-5.735925,-1.1607789,-2.084729,76.0
86,1.8334153,-3.2002277,1.7029114,-6.299854,-1.3933594,-2.6635253,76.0
87,3.0255945,-4.2564964,2.8937378,-6.299854,-1.3933594,-2.6635253,76.0
88,3.0255945,-4.2564964,2.8937378,-6.5855346,-1.4942505,-3.5566773,76.0
89,3.8189132,-5.4293556,3.7644958,-6.5855346,-1.4942505,-3.5566773,76.0
90,3.8189132,-5.4293556,3.7644958,-6.6290774,-1.5696534,-4.347876,76.0
91,4.1445227,-6.600857,3.8795624,-6.6290774,-1.5696534,-4.347876,76.0
92,4.1445227,-6.600857,3.8795624,-6.4687133,-1.4857544,-4.822595,76.0
93,4.0557184,-7.330637,3.1147003,-6.4687133,-1.4857544,-4.822595,76.0
94,4.0557184,-7.330637,3.1147003,-5.961072,-1.2308716,-4.9309206,76.0
95,3.832221,-7.2508736,1.921341,-5.961072,-1.2308716,-4.9309206,76.0
96,3.832221,-7.2508736,1.921341,-5.2261596,-0.87191164,-4.889502,76.0
97,3.544866,-6.9348907,0.77233887,-5.2261596,-0.87191164,-4.889502,76.0
98,3.544866,-6.9348907,0.77233887,-4.155652,-0.4056885,-4.691968,76.0
99,2.9189625,-6.8209953,-0.061584473,-4.155652,-0.4056885,-4.691968,76.0
100,2.9189625,-6.8209953,-0.061584473,-2.5084717,-0.12956543,-4.2724733,76.0
101,2.020278,-6.446188,-0.40211487,-2.5084717,-0.12956543,-4.2724733,76.0
102,2.020278,-6.446188,-0.40211487,-0.75509036,-0.09239502,-3.7839477,76.0
103,1.2489252,-5.392729,-0.2827301,-0.75509036,-0.09239502,-3.7839477,76.0
104,1.2489252,-5.392729,-0.2827301,0.5713623,-0.21134034,-3.2720582,76.0
105,0.9229679,-3.903429,0.16314697,0.5713623,-0.21134034,-3.2720582,76.0
106,0.9229679,-3.903429,0.16314697,1.4560181,-0.4056885,-2.7984009,76.0
107,0.9644489,-2.3460226,0.7424927,1.4560181,-0.4056885,-2.7984009,76.0
108,0.9644489,-2.3460226,0.7424927,2.0029542,-0.6690674,-2.3799684,76.0
109,1.1449842,-0.9118891,1.1959991,2.0029542,-0.6690674,-2.3799684,76.0
110,1.1449842,-0.9118891,1.1959991,2.2429688,-0.96643066,-2.0390625,76.0
111,1.4479694,0.22435856,1.2754669,2.2429688,-0.96643066,-2.0390625,76.0
112,1.4479694,0.22435856,1.2754669,2.269519,-1.2552979,-1.7703736,76.0
113,1.7349501,0.95734406,1.0458069,2.269519,-1.2552979,-1.7703736,76.0
114,1.7349501,0.95734406,1.0458069,2.2896974,-1.4815063,-1.544165,76.0
115,1.4063683,1.414362,0.927475,2.2896974,-1.4815063,-1.544165,76.0
116,1.4063683,1.414362,0.927475,2.34917,-1.6418701,-1.3423828,76.0
117,0.32985592,1.7767658,1.168335,2.34917,-1.6418701,-1.3423828,76.0
118,0.32985592,1.7767658,1.168335,2.275891,-1.7969239,-1.1809571,76.0
119,-0.6317215,2.0633926,1.5593567,2.275891,-1.7969239,-1.1809571,76.0
120,-0.6317215,2.0633926,1.5593567,2.0199463,-1.9211792,-1.0726318,76.0
121,-0.8406563,2.1671562,1.782547,2.0199463,-1.9211792,-1.0726318,76.0
122,-0.8406563,2.1671562,1.782547,1.6386842,-1.9264892,-1.0089111,76.0
123,-0.59875774,2.0487766,1.6936493,1.6386842,-1.9264892,-1.0089111,76.0
124,-0.59875774,2.0487766,1.6936493,1.2032593,-1.7905518,-0.97280276,76.0
125,-0.4757347,1.794672,1.3713837,1.2032593,-1.7905518,-0.97280276,76.0
126,-0.4757347,1.794672,1.3713837,0.8857178,-1.5271729,-0.8931519,76.0
127,-0.63920593,1.6836376,0.97039795,0.8857178,-1.5271729,-0.8931519,76.0
128,-0.63920593,1.6836376,0.97039795,0.6149048,-1.1629028,-0.7189819,76.0
129,-0.8524656,1.9056873,0.5010681,0.6149048,-1.1629028,-0.7189819,76.0
130,-0.8524656,1.9056873,0.5010681,0.11682129,-0.70092773,-0.47471926,76.0
131,-0.9037008,2.24535,-0.0499115,0.11682129,-0.70092773,-0.47471926,76.0
132,-0.9037008,2.24535,-0.0499115,-0.6595093,-0.16885987,-0.18054199,76.0
133,-0.70023155,2.2430458,-0.49694824,-0.6595093,-0.16885987,-0.18054199,76.0
134,-0.70023155,2.2430458,-0.49694824,-1.5335449,0.36108398,0.13168946,76.0
135,-0.3165331,1.6419945,-0.68852234,-1.5335449,0.36108398,0.13168946,76.0
136,-0.3165331,1.6419945,-0.68852234,-2.3247437,0.8687256,0.4704712,76.0
137,-0.098771095,0.55838394,-0.6757355,-2.3247437,0.8687256,0.4704712,76.0
138,-0.098771095,0.55838394,-0.6757355,-2.8207033,1.2914063,0.7688965,76.0
139,-0.098771095,0.55838394,-0.6757355,-2.8207033,1.2914063,0.7688965,76.0
140,-0.3581915,-0.5466404,-0.6004944,-2.8207033,1.2914063,0.7688965,76.0
141,-0.3581915,-0.5466404,-0.6004944,-3.0458496,1.6078857,1.0439576,76.0
142,-1.0274096,-1.3358479,-0.52809143,-3.0458496,1.6078857,1.0439576,76.0
143,-1.0274096,-1.3358479,-0.52809143,-3.09364,1.7555054,1.2542359,76.0
144,-1.7479038,-1.8140392,-0.44506836,-3.09364,1.7555054,1.2542359,76.0
145,-1.7479038,-1.8140392,-0.44506836,-2.9438965,1.7640015,1.3997315,76.0
146,-2.223775,-2.0175648,-0.35606384,-2.9438965,1.7640015,1.3997315,76.0
147,-2.223775,-2.0175648,-0.35606384,-2.6571534,1.6556762,1.4613281,76.0
148,-2.4013586,-1.9566536,-0.24931335,-2.6571534,1.6556762,1.4613281,76.0
149,-2.4013586,-1.9566536,-0.24931335,-2.2493408,1.4655762,1.4379638,76.0
150,-2.3186455,-1.6895905,-0.12652588,-2.2493408,1.4655762,1.4379638,76.0
151,-2.3186455,-1.6895905,-0.12652588,-1.7735596,1.2319336,1.3328247,76.0
152,-2.111948,-1.3009892,-0.06604004,-1.7735596,1.2319336,1.3328247,76.0
153,-2.111948,-1.3009892,-0.06604004,-1.3699951,0.99298096,1.1650269,76.0
154,-1.8861527,-0.8543892,-0.13258362,-1.3699951,0.99298096,1.1650269,76.0
155,-1.8861527,-0.8543892,-0.13258362,-1.2075074,0.7657105,0.95368654,76.0
156,-1.6224113,-0.5009556,-0.3256073,-1.2075074,0.7657105,0.95368654,76.0
157,-1.6224113,-0.5009556,-0.3256073,-1.1894531,0.5894165,0.69349366,76.0
158,-1.3317671,-0.35901642,-0.582016,-1.1894531,0.5894165,0.69349366,76.0
159,-1.3317671,-0.35901642,-0.582016,-1.2510499,0.4439209,0.41949463,76.0
160,-1.1089683,-0.45784378,-0.6496124,-1.2510499,0.4439209,0.41949463,76.0
161,-1.1089683,-0.45784378,-0.6496124,-1.2935303,0.26868898,0.1274414,76.0
162,-0.8633952,-0.7089634,-0.27374268,-1.2935303,0.26868898,0.1274414,76.0
163,-0.8633952,-0.7089634,-0.27374268,-1.0089111,0.09770508,-0.15717773,76.0
164,-0.5089412,-0.7706871,0.34796143,-1.0089111,0.09770508,-0.15717773,76.0
165,-0.5089412,-0.7706871,0.34796143,-0.8209351,-0.13912354,-0.38551027,76.0
166,-0.1209712,-0.5557709,0.8154297,-0.8209351,-0.13912354,-0.38551027,76.0
167,-0.1209712,-0.5557709,0.8154297,-0.90695804,-0.48321533,-0.6138428,76.0
168,0.5070195,-0.47630596,0.97805786,-0.90695804,-0.48321533,-0.6138428,76.0
169,0.5070195,-0.47630596,0.97805786,-1.0981201,-0.88996583,-0.904834,76.0
170,1.7267704,-0.8113785,0.9663086,-1.0981201,-0.88996583,-0.904834,76.0
171,1.7267704,-0.8113785,0.9663086,-1.1087402,-1.3253907,-1.3466309,76.0
172,3.4679399,-1.4032288,1.0726166,-1.1087402,-1.3253907,-1.3466309,76.0
173,3.4679399,-1.4032288,1.0726166,-0.9420044,-1.7470093,-1.901001,76.0
174,4.972265,-2.0950317,1.4942932,-0.9420044,-1.7470093,-1.901001,76.0
175,4.972265,-2.0950317,1.4942932,-0.50233155,-2.1431396,-2.4128907,76.0
176,5.191142,-2.7962284,2.0197449,-0.50233155,-2.1431396,-2.4128907,76.0
177,5.191142,-2.7962284,2.0197449,0.270813,-2.3619142,-2.6518433,76.0
178,4.091134,-3.0808554,2.073349,0.270813,-2.3619142,-2.6518433,76.0
179,4.091134,-3.0808554,2.073349,0.96218264,-2.3852785,-2.4999757,76.0
180,2.7838202,-2.5438957,1.3926239,0.96218264,-2.3852785,-2.4999757,76.0
181,2.7838202,-2.5438957,1.3926239,1.6429322,-2.168628,-2.0135744,76.0
182,2.2257252,-1.138278,0.22761536,1.6429322,-2.168628,-2.0135744,76.0
183,2.2257252,-1.138278,0.22761536,2.1303957,-1.7353271,-1.350879,76.0
184,2.3481827,0.7475319,-0.9402466,2.1303957,-1.7353271,-1.350879,76.0
185,2.3481827,0.7475319,-0.9402466,2.0709229,-0.98129886,-0.6701294,76.0
186,2.3816586,2.3005886,-1.673172,2.0709229,-0.98129886,-0.6701294,76.0
187,2.3816586,2.3005886,-1.673172,1.354065,-0.022302246,-0.0998291,76.0
188,1.7759447,2.7627602,-1.749466,1.354065,-0.022302246,-0.0998291,76.0
189,1.7759447,2.7627602,-1.749466,0.4609131,0.89208984,0.32072756,76.0
190,0.6553259,2.1595364,-1.3885193,0.4609131,0.89208984,0.32072756,76.0
191,0.6553259,2.1595364,-1.3885193,-0.44073486,1.7438233,0.6287109,76.0
192,-0.5912914,1.1695604,-0.96684265,-0.44073486,1.7438233,0.6287109,76.0
193,-0.5912914,1.1695604,-0.96684265,-1.0312134,2.4989135,0.92076415,76.0
194,-1.6699934,0.38238907,-0.52667236,-1.0312134,2.4989135,0.92076415,76.0
195,-1.6699934,0.38238907,-0.52667236,-1.4167236,3.0373535,1.2043213,76.0
196,-2.500619,-0.0041589737,-0.21061707,-1.4167236,3.0373535,1.2043213,76.0
197,-2.500619,-0.0041589737,-0.21061707,-1.8500245,3.3177247,1.4984986,76.0
198,-3.1274853,-0.25105667,-0.3117218,-1.8500245,3.3177247,1.4984986,76.0
199,-3.1274853,-0.25105667,-0.3117218,-2.2684572,3.4175537,1.7278931,76.0
200,-3.5380726,-0.57794476,-0.7583313,-2.2684572,3.4175537,1.7278931,76.0
201,-3.5380726,-0.57794476,-0.7583313,-2.527588,3.355957,1.8882569,76.0
202,-3.6543474,-0.9834862,-1.1845398,-2.527588,3.355957,1.8882569,76.0
203,-3.6543474,-0.9834862,-1.1845398,-2.521216,3.1902833,1.9148072,76.0
204,-3.465116,-1.2958469,-1.4834137,-2.521216,3.1902833,1.9148072,76.0
205,-3.465116,-1.2958469,-1.4834137,-2.2302246,2.9789429,1.8489624,76.0
206,-3.135435,-1.305953,-1.7925262,-2.2302246,2.9789429,1.8489624,76.0
207,-3.135435,-1.305953,-1.7925262,-1.8192261,2.7431762,1.7119629,76.0
208,-2.8392196,-1.0409908,-2.0939636,-1.8192261,2.7431762,1.7119629,76.0
209,-2.8392196,-1.0409908,-2.0939636,-1.3668091,2.4787354,1.531421,76.0
210,-2.6333141,-0.66285896,-2.184433,-1.3668091,2.4787354,1.531421,76.0
211,-2.6333141,-0.66285896,-2.184433,-0.9781128,2.1888063,1.3137085,76.0
212,-2.5327377,-0.35666656,-1.9377747,-0.9781128,2.1888063,1.3137085,76.0
213,-2.5327377,-0.35666656,-1.9377747,-0.62552494,1.8457764,1.0460815,76.0
214,-2.4316835,-0.20072556,-1.5202637,-0.62552494,1.8457764,1.0460815,76.0
215,-2.4316835,-0.20072556,-1.5202637,-0.14549561,1.5080566,0.7041138,76.0
216,-2.2339334,-0.020065308,-1.174408,-0.14549561,1.5080566,0.7041138,76.0
217,-2.2339334,-0.020065308,-1.174408,0.3334717,1.1841431,0.362146,76.0
218,-1.849659,0.27150917,-0.9364166,0.3334717,1.1841431,0.362146,76.0
219,-1.849659,0.27150917,-0.9364166,0.68074954,0.8878418,0.039294433,76.0
220,-1.2123444,0.5615549,-0.66967773,0.68074954,0.8878418,0.039294433,76.0
221,-1.2123444,0.5615549,-0.66967773,0.8400513,0.61065674,-0.24744873,76.0
222,-0.48774672,0.766346,-0.36366272,0.8400513,0.61065674,-0.24744873,76.0
223,-0.48774672,0.766346,-0.36366272,0.7126099,0.3334717,-0.47365722,76.0
224,0.24780297,0.8008213,-0.18833923,0.7126099,0.3334717,-0.47365722,76.0
225,0.24780297,0.8008213,-0.18833923,0.2899292,0.05522461,-0.68712157,76.0
226,1.0718508,0.60957813,-0.22206116,0.2899292,0.05522461,-0.68712157,76.0
227,1.0718508,0.60957813,-0.22206116,-0.21346436,-0.24213867,-0.9122681,76.0
228,1.564878,0.24250793,-0.32695007,-0.21346436,-0.24213867,-0.9122681,76.0
229,1.564878,0.24250793,-0.32695007,-0.6754395,-0.52675784,-1.1087402,76.0
230,1.564878,0.24250793,-0.32695007,-0.6754395,-0.52675784,-1.1087402,76.0
231,1.2728376,-0.24799824,-0.28245544,-0.6754395,-0.52675784,-1.1087402,76.0
232,1.2728376,-0.24799824,-0.28245544,-0.96218264,-0.85598147,-1.26698,76.0
233,0.34036493,-0.83350563,0.0690918,-0.96218264,-0.85598147,-1.26698,76.0
234,0.34036493,-0.83350563,0.0690918,-0.9345703,-1.1862671,-1.3285767,76.0
235,-0.5758648,-1.3679523,0.64901733,-0.9345703,-1.1862671,-1.3285767,76.0
236,-0.5758648,-1.3679523,0.64901733,-0.49171144,-1.5016845,-1.3137085,76.0
237,-0.8032334,-1.5879898,1.125061,-0.49171144,-1.5016845,-1.3137085,76.0
238,-0.8032334,-1.5879898,1.125061,0.13062744,-1.7682495,-1.2372437,76.0
239,-0.26327753,-1.2754335,1.1390839,0.13062744,-1.7682495,-1.2372437,76.0
240,-0.26327753,-1.2754335,1.1390839,0.58410645,-1.9317993,-1.1172364,76.0
241,0.6569073,-0.54228306,0.59677124,0.58410645,-1.9317993,-1.1172364,76.0
242,0.6569073,-0.54228306,0.59677124,0.7476563,-1.898877,-1.0259033,76.0
243,1.2856579,0.22654915,-0.1894989,0.7476563,-1.898877,-1.0259033,76.0
244,1.2856579,0.22654915,-0.1894989,0.5097656,-1.5770874,-0.95581055,76.0
245,1.0931139,0.7480488,-0.74046326,0.5097656,-1.5770874,-0.95581055,76.0
246,1.0931139,0.7480488,-0.74046326,-0.28355715,-1.1512207,-0.94625247,76.0
247,0.33014297,0.7739887,-0.7115326,-0.28355715,-1.1512207,-0.94625247,76.0
248,0.33014297,0.7739887,-0.7115326,-1.3498169,-0.8071289,-0.99298096,76.0
249,-0.2820282,0.17730904,-0.16734314,-1.3498169,-0.8071289,-0.99298096,76.0
250,-0.2820282,0.17730904,-0.16734314,-2.2196045,-0.5957886,-1.0641358,76.0
251,-0.44040537,-0.8076649,0.46290588,-2.2196045,-0.5957886,-1.0641358,76.0
252,-0.44040537,-0.8076649,0.46290588,-2.6051147,-0.4885254,-1.083252,76.0
253,-0.34006834,-1.6911392,0.7323303,-2.6051147,-0.4885254,-1.083252,76.0
254,-0.34006834,-1.6911392,0.7323303,-2.527588,-0.48533937,-1.1161743,76.0
255,-0.17514324,-2.1572933,0.5213928,-2.527588,-0.48533937,-1.1161743,76.0
256,-0.17514324,-2.1572933,0.5213928,-2.1877441,-0.5479981,-1.1852051,76.0
257,0.075852394,-2.2520313,0.121780396,-2.1877441,-0.5479981,-1.1852051,76.0
258,0.075852394,-2.2520313,0.121780396,-1.7894897,-0.66588134,-1.3158325,76.0
259,0.5135627,-2.1798363,-0.084503174,-1.7894897,-0.66588134,-1.3158325,76.0
260,0.5135627,-2.1798363,-0.084503174,-1.4029175,-0.8262451,-1.4613281,76.0
261,1.1329694,-2.0787811,0.10687256,-1.4029175,-0.8262451,-1.4613281,76.0
262,1.1329694,-2.0787811,0.10687256,-1.0142212,-1.0365235,-1.6068238,76.0
263,1.8158727,-1.9797487,0.6022186,-1.0142212,-1.0365235,-1.6068238,76.0
264,1.8158727,-1.9797487,0.6022186,-0.6403931,-1.2574219,-1.7109009,76.0
265,2.360962,-1.8794413,1.0919342,-0.6403931,-1.2574219,-1.7109009,76.0
266,2.360962,-1.8794413,1.0919342,-0.2888672,-1.4772583,-1.7300171,76.0
267,2.6496582,-1.7600594,1.3110352,-0.2888672,-1.4772583,-1.7300171,76.0
268,2.6496582,-1.7600594,1.3110352,0.07965088,-1.6386842,-1.6418701,76.0
269,2.6935668,-1.5500278,1.3100891,0.07965088,-1.6386842,-1.6418701,76.0
270,2.6935668,-1.5500278,1.3100891,0.41418457,-1.6939087,-1.4273437,76.0
271,2.6935668,-1.5500278,1.3100891,0.64782715,-1.6546143,-1.1066163,76.0
272,2.556306,-1.1702223,1.2384949,0.64782715,-1.6546143,-1.1066163,76.0
273,3.4391003,0.1524086,0.97914124,0.64782715,-1.6546143,-1.1066163,76.0
274,3.4391003,0.1524086,0.97914124,0.7434082,-1.5186768,-0.74022216,76.0
275,3.4391003,0.1524086,0.97914124,0.7327881,-1.2754761,-0.37807617,76.0
276,3.4391003,0.1524086,0.97914124,0.63826907,-0.9515625,-0.081774905,76.0
277,3.8506088,0.21700764,0.39326477,0.63826907,-0.9515625,-0.081774905,76.0
278,3.8506088,0.21700764,0.39326477,0.50233155,-0.5883545,0.0998291,76.0
279,4.7037907,-0.05661869,-0.01222229,0.50233155,-0.5883545,0.0998291,76.0
280,4.7037907,-0.05661869,-0.01222229,0.48427734,-0.060534667,0.19647217,76.0
281,4.9768753,-0.4464426,0.1418457,0.48427734,-0.060534667,0.19647217,76.0
282,4.9768753,-0.4464426,0.1418457,0.57561034,0.5097656,0.31116945,76.0
283,3.6451473,-0.63504744,0.6716461,0.57561034,0.5097656,0.31116945,76.0
284,3.6451473,-0.63504744,0.6716461,0.79332274,0.9505005,0.5161377,76.0
285,1.2264576,-0.3560605,0.90631104,0.79332274,0.9505005,0.5161377,76.0
286,1.2264576,-0.3560605,0.90631104,1.0875,1.2075074,0.8400513,76.0
287,-0.6773186,0.33919907,0.5345764,1.0875,1.2075074,0.8400513,76.0
288,-0.6773186,0.33919907,0.5345764,1.4262818,1.3880494,1.2021973,76.0
289,-1.181675,1.1403046,-0.16491699,1.4262818,1.3880494,1.2021973,76.0
290,-1.181675,1.1403046,-0.16491699,1.6493043,1.6386842,1.4942505,76.0
291,-0.647562,1.7389402,-0.7694092,1.6493043,1.6386842,1.4942505,76.0
292,-0.647562,1.7389402,-0.7694092,1.6939087,1.9689697,1.6397461,76.0
293,-0.02101612,2.027236,-1.0578156,1.6939087,1.9689697,1.6397461,76.0
294,-0.02101612,2.027236,-1.0578156,1.5590333,2.3682861,1.6832886,76.0
295,-0.1781292,2.0656118,-1.0506744,1.5590333,2.3682861,1.6832886,76.0
296,-0.1781292,2.0656118,-1.0506744,1.2574219,2.71344,1.6609863,76.0
297,-1.1869373,1.9249506,-0.9250488,1.2574219,2.71344,1.6609863,76.0
298,-1.1869373,1.9249506,-0.9250488,0.8666016,2.9492066,1.6493043,76.0
299,-2.4144907,1.7612734,-0.8831482,0.8666016,2.9492066,1.6493043,76.0
300,-2.4144907,1.7612734,-0.8831482,0.38338622,3.081958,1.7119629,76.0
301,-3.303028,1.6528301,-1.0653076,0.38338622,3.081958,1.7119629,76.0
302,-3.303028,1.6528301,-1.0653076,-0.1263794,3.1509888,1.8415283,76.0
303,-3.729642,1.5452623,-1.4566498,-0.1263794,3.1509888,1.8415283,76.0
304,-3.729642,1.5452623,-1.4566498,-0.59472656,3.166919,2.0114503,76.0
305,-3.842307,1.3787022,-1.9175262,-0.59472656,3.166919,2.0114503,76.0
306,-3.842307,1.3787022,-1.9175262,-0.97386473,3.1382446,2.167566,76.0
307,-3.811297,1.149312,-2.2814941,-0.97386473,3.1382446,2.167566,76.0
308,-3.811297,1.149312,-2.2814941,-1.2053833,3.0585938,2.267395,76.0
309,-3.7501483,0.9124546,-2.4899445,-1.2053833,3.0585938,2.267395,76.0
310,-3.7501483,0.9124546,-2.4899445,-1.2436157,2.9258423,2.2960694,76.0
311,-3.679257,0.7516804,-2.531601,-1.2436157,2.9258423,2.2960694,76.0
312,-3.679257,0.7516804,-2.531601,-1.1182984,2.7431762,2.2355347,76.0
313,-3.6184182,0.7298231,-2.460312,-1.1182984,2.7431762,2.2355347,76.0
314,-3.6184182,0.7298231,-2.460312,-0.91120607,2.5084717,2.084729,76.0
315,-3.5979085,0.830843,-2.3351593,-0.91120607,2.5084717,2.084729,76.0
316,-3.5979085,0.830843,-2.3351593,-0.6903076,2.2174804,1.8415283,76.0
317,-3.6191838,0.95888805,-2.1701508,-0.6903076,2.2174804,1.8415283,76.0
318,-3.6191838,0.95888805,-2.1701508,-0.51082766,1.8797607,1.5133667,76.0
319,-3.620689,1.0315027,-1.9627991,-0.51082766,1.8797607,1.5133667,76.0
320,-3.620689,1.0315027,-1.9627991,-0.38869628,1.4953126,1.1182984,76.0
321,-3.2716122,0.9920349,-1.7511749,-0.38869628,1.4953126,1.1182984,76.0
322,-3.2716122,0.9920349,-1.7511749,-0.3536499,1.2860962,0.90058595,76.0
323,-3.2939744,0.8966675,-1.4042511,-0.3536499,1.2860962,0.90058595,76.0
324,-3.2939744,0.8966675,-1.4042511,-0.32072756,0.5851685,0.16248779,76.0
325,-2.7147572,0.68239784,-1.1271667,-0.32072756,0.5851685,0.16248779,76.0
326,-2.7147572,0.68239784,-1.1271667,-0.3154175,0.32391357,-0.10301514,76.0
327,-1.6045816,0.28909492,-0.649704,-0.3154175,0.32391357,-0.10301514,76.0
328,-1.6045816,0.28909492,-0.649704,-0.34940186,-0.4885254,-0.97492677,76.0
329,-0.7160139,0.010414124,-0.38571167,-0.34940186,-0.4885254,-0.97492677,76.0
330,-0.7160139,0.010414124,-0.38571167,-0.41312256,-0.7582764,-1.2956543,76.0
331,1.4017617,-0.3703308,-0.2423706,-0.41312256,-0.7582764,-1.2956543,76.0
332,1.4017617,-0.3703308,-0.2423706,-0.6435791,-1.5473511,-2.2376587,76.0
333,1.7923688,-0.7439213,-0.028152466,-0.6435791,-1.5473511,-2.2376587,76.0
334,1.7923688,-0.7439213,-0.028152466,-0.7041138,-1.8022339,-2.5116577,76.0
335,2.1891441,-1.5820389,0.643219,-0.7041138,-1.8022339,-2.5116577,76.0
336,2.1891441,-1.5820389,0.643219,-0.632959,-2.626355,-3.1127565,76.0
337,2.0813568,-1.9944515,1.2346344,-0.632959,-2.626355,-3.1127565,76.0
338,2.0813568,-1.9944515,1.2346344,-0.3993164,-2.897168,-3.2157714,76.0
339,2.1100316,-2.7917528,3.0914001,-0.3993164,-2.897168,-3.2157714,76.0
340,2.1100316,-2.7917528,3.0914001,0.9303223,-3.711731,-3.2816162,76.0
341,2.1100316,-2.7917528,3.0914001,0.9303223,-3.711731,-3.2816162,77.0
342,2.4547002,-2.613309,3.5393982,0.9303223,-3.711731,-3.2816162,77.0
343,2.4547002,-2.613309,3.5393982,1.4719483,-3.979358,-3.2327638,77.0
344,4.107547,-1.9248266,3.7819672,1.4719483,-3.979358,-3.2327638,77.0
345,4.107547,-1.9248266,3.7819672,3.153113,-4.4901857,-2.899292,77.0
346,4.6370263,-1.180047,3.2450714,3.153113,-4.4901857,-2.899292,77.0
347,4.6370263,-1.180047,3.2450714,3.522693,-4.405225,-2.7421143,77.0
348,5.374123,0.64237595,1.039444,3.522693,-4.405225,-2.7421143,77.0
349,5.374123,0.64237595,1.039444,2.7760987,-3.438794,-2.2111084,77.0
350,4.650104,1.3261204,0.75205994,2.7760987,-3.438794,-2.2111084,77.0
351,4.650104,1.3261204,0.75205994,1.8298463,-3.0490358,-2.0571167,77.0
352,2.85812,2.7784863,1.2278595,1.8298463,-3.0490358,-2.0571167,77.0
353,2.85812,2.7784863,1.2278595,-1.531421,-2.0072021,-1.453894,77.0
354,2.2440767,2.1081161,1.4498596,-1.531421,-2.0072021,-1.453894,77.0
355,2.2440767,2.1081161,1.4498596,-2.362976,-1.7024049,-1.2000732,77.0
356,1.4540749,0.9354315,1.9986877,-2.362976,-1.7024049,-1.2000732,77.0
357,1.4540749,0.9354315,1.9986877,-3.0692139,-1.1852051,-0.6711914,77.0
358,0.7666416,-0.6205635,1.6733551,-3.0692139,-1.1852051,-0.6711914,77.0
359,0.7666416,-0.6205635,1.6733551,-3.1892211,-0.81987303,-0.33240968,77.0
360,0.03355217,-2.5666656,0.68266296,-3.1892211,-0.81987303,-0.33240968,77.0
361,0.03355217,-2.5666656,0.68266296,-2.716626,-0.41843262,-0.17523193,77.0
362,-0.020070076,-2.8135986,0.234375,-2.716626,-0.41843262,-0.17523193,77.0
363,-0.020070076,-2.8135986,0.234375,-2.4224489,-0.33028564,-0.2166504,77.0
364,-0.013284683,-3.369238,0.58943176,-2.4224489,-0.33028564,-0.2166504,77.0
365,-0.013284683,-3.369238,0.58943176,-1.535669,-0.21452637,-0.47790527,77.0
366,0.08043671,-2.9573164,0.6458435,-1.535669,-0.21452637,-0.47790527,77.0
367,0.08043671,-2.9573164,0.6458435,-1.2563599,-0.21877442,-0.5798584,77.0
368,0.07149029,-2.361227,1.1234436,-1.2563599,-0.21877442,-0.5798584,77.0
369,0.07149029,-2.361227,1.1234436,-0.5628662,-0.32816163,-0.77102053,77.0
370,0.11854458,-1.7632494,0.9136505,-0.5628662,-0.32816163,-0.77102053,77.0
371,0.11854458,-1.7632494,0.9136505,-0.4333008,-0.36851808,-0.7742066,77.0
372,0.093847275,-1.036869,0.6858063,-0.4333008,-0.36851808,-0.7742066,77.0
373,0.093847275,-1.036869,0.6858063,-0.26550293,-0.42055663,-0.7126099,77.0
374,0.06656933,-0.62397766,0.5173645,-0.26550293,-0.42055663,-0.7126099,77.0
375,0.06656933,-0.62397766,0.5173645,-0.22196046,-0.44604492,-0.5649902,77.0
376,0.16737938,-0.55578613,0.37947083,-0.22196046,-0.44604492,-0.5649902,77.0
377,0.16737938,-0.55578613,0.37947083,-0.2357666,-0.42161867,-0.38338622,77.0
378,0.49322987,-0.7100706,0.13053894,-0.2357666,-0.42161867,-0.38338622,77.0
379,0.49322987,-0.7100706,0.13053894,-0.07646485,-0.29736328,-0.22408448,77.0
380,1.0026779,-0.91067123,-0.32417297,-0.07646485,-0.29736328,-0.22408448,77.0
381,1.0026779,-0.91067123,-0.32417297,0.19116211,-0.1083252,-0.07434082,77.0
382,1.0026779,-0.91067123,-0.32417297,0.43967286,0.06265869,0.014868164,77.0
383,1.8579779,-1.0039763,-0.8600464,0.43967286,0.06265869,0.014868164,77.0
384,5.1923637,-1.6259351,-0.01953125,0.43967286,0.06265869,0.014868164,77.0
385,5.1923637,-1.6259351,-0.01953125,0.5787964,0.38338622,0.0998291,77.0
386,5.1923637,-1.6259351,-0.01953125,0.7582764,0.70305175,0.20496826,77.0
387,5.1923637,-1.6259351,-0.01953125,1.3317627,1.0790039,0.5798584,77.0
388,3.5404997,-1.1759067,0.18814087,1.3317627,1.0790039,0.5798584,77.0
389,3.5404997,-1.1759067,0.18814087,1.5537232,1.175647,0.76677245,77.0
390,1.7641258,-0.3536892,-0.24020386,1.5537232,1.175647,0.76677245,77.0
391,1.7641258,-0.3536892,-0.24020386,1.9679078,1.4294678,1.179895,77.0
392,0.8662071,0.86341095,-1.0793762,1.9679078,1.4294678,1.179895,77.0
393,0.8662071,0.86341095,-1.0793762,2.1038454,1.7979859,1.5834595,77.0
394,0.6096039,1.9855409,-1.6705933,2.1038454,1.7979859,1.5834595,77.0
395,0.6096039,1.9855409,-1.6705933,1.8298463,2.255713,1.9179932,77.0
396,0.3093624,2.6405687,-1.810852,1.8298463,2.255713,1.9179932,77.0
397,0.3093624,2.6405687,-1.810852,1.3105224,2.732556,2.1580079,77.0
398,-0.530879,2.7080116,-1.6219177,1.3105224,2.732556,2.1580079,77.0
399,-0.530879,2.7080116,-1.6219177,0.7688965,3.075586,2.35448,77.0
400,-1.8177204,2.3349638,-1.3258362,0.7688965,3.075586,2.35448,77.0
401,-1.8177204,2.3349638,-1.3258362,0.30373535,3.2476318,2.537146,77.0
402,-3.0578136,1.8588648,-1.1117249,0.30373535,3.2476318,2.537146,77.0
403,-3.0578136,1.8588648,-1.1117249,-0.009558106,3.2858644,2.7060058,77.0
404,-3.8968487,1.5770817,-1.1082306,-0.009558106,3.2858644,2.7060058,77.0
405,-3.8968487,1.5770817,-1.1082306,-0.22408448,3.2147095,2.8536255,77.0
406,-4.3121204,1.5348711,-1.3033447,-0.22408448,3.2147095,2.8536255,77.0
407,-4.3121204,1.5348711,-1.3033447,-0.36427003,3.0723999,2.9672608,77.0
408,-4.3778334,1.5923376,-1.5778961,-0.36427003,3.0723999,2.9672608,77.0
409,-4.3778334,1.5923376,-1.5778961,-0.40250245,2.885486,3.0161133,77.0
410,-4.232638,1.6679859,-1.8490295,-0.40250245,2.885486,3.0161133,77.0
411,-4.232638,1.6679859,-1.8490295,-0.3440918,2.6900756,2.9906251,77.0
412,-4.049172,1.7342052,-2.0377655,-0.3440918,2.6900756,2.9906251,77.0
413,-4.049172,1.7342052,-2.0377655,-0.19434814,2.4819214,2.8738039,77.0
414,-3.8992128,1.7924662,-2.10997,-0.19434814,2.4819214,2.8738039,77.0
415,-3.8992128,1.7924662,-2.10997,0.0021240234,2.266333,2.6677735,77.0
416,-3.7824807,1.8566895,-2.0535126,0.0021240234,2.266333,2.6677735,77.0
417,-3.7824807,1.8566895,-2.0535126,0.16992188,2.0252564,2.3969605,77.0
418,-3.720577,1.9190187,-1.8945465,0.16992188,2.0252564,2.3969605,77.0
419,-3.720577,1.9190187,-1.8945465,0.24851075,1.7533814,2.076233,77.0
420,-3.717111,1.995224,-1.6840668,0.24851075,1.7533814,2.076233,77.0
421,-3.717111,1.995224,-1.6840668,0.21452637,1.445398,1.720459,77.0
422,-3.721675,2.070179,-1.4687042,0.21452637,1.445398,1.720459,77.0
423,-3.721675,2.070179,-1.4687042,0.090270996,1.0981201,1.3253907,77.0
424,-3.6238365,2.033475,-1.249588,0.090270996,1.0981201,1.3253907,77.0
425,-3.6238365,2.033475,-1.249588,-0.07965088,0.71367186,0.87615967,77.0
426,-3.291025,1.7863255,-1.0067291,-0.07965088,0.71367186,0.87615967,77.0
427,-3.291025,1.7863255,-1.0067291,-0.2357666,0.2803711,0.36427003,77.0
428,-2.6333082,1.33564,-0.6823273,-0.2357666,0.2803711,0.36427003,77.0
429,-2.6333082,1.33564,-0.6823273,-0.3345337,-0.19753419,-0.20709229,77.0
430,-1.6434509,0.7952938,-0.2969818,-0.3345337,-0.19753419,-0.20709229,77.0
431,-1.6434509,0.7952938,-0.2969818,-0.43754885,-0.6924316,-0.8591675,77.0
432,-1.6434509,0.7952938,-0.2969818,-0.43754885,-0.6924316,-0.8591675,77.0
433,-0.29348385,0.32017136,-0.013504028,-0.43754885,-0.6924316,-0.8591675,77.0
434,-0.29348385,0.32017136,-0.013504028,-0.65632325,-1.2138795,-1.6057618,77.0
435,1.1030914,-0.17854309,0.12034607,-0.65632325,-1.2138795,-1.6057618,77.0
436,1.1030914,-0.17854309,0.12034607,-0.8995239,-1.7002808,-2.360852,77.0
437,1.9931054,-0.86826134,0.30345154,-0.8995239,-1.7002808,-2.360852,77.0
438,1.9931054,-0.86826134,0.30345154,-1.0588257,-2.2111084,-3.0426636,77.0
439,2.2750506,-1.7184372,0.9036102,-1.0588257,-2.2111084,-3.0426636,77.0
440,2.2750506,-1.7184372,0.9036102,-1.0078491,-2.7601686,-3.530127,77.0
441,2.4403286,-2.5143986,1.9702911,-1.0078491,-2.7601686,-3.530127,77.0
442,2.4403286,-2.5143986,1.9702911,-0.5533081,-3.3177247,-3.8614748,77.0
443,3.0448656,-2.9762897,3.1994476,-0.5533081,-3.3177247,-3.8614748,77.0
444,3.0448656,-2.9762897,3.1994476,0.32922363,-3.9082031,-4.049451,77.0
445,4.2530193,-2.9078026,4.025589,0.32922363,-3.9082031,-4.049451,77.0
446,4.2530193,-2.9078026,4.025589,1.3806152,-4.466821,-4.084497,77.0
447,5.760704,-2.2990208,3.781372,1.3806152,-4.466821,-4.084497,77.0
448,5.760704,-2.2990208,3.781372,2.3810303,-4.7291384,-3.9421875,77.0
449,6.69328,-1.3375072,2.4342957,2.3810303,-4.7291384,-3.9421875,77.0
450,6.69328,-1.3375072,2.4342957,2.7346802,-4.3999147,-3.6756227,77.0
451,6.2318826,-0.11670971,0.9810333,2.7346802,-4.3999147,-3.6756227,77.0
452,6.2318826,-0.11670971,0.9810333,1.7544434,-3.7181032,-3.2901123,77.0
453,4.7079544,1.0314617,0.53619385,1.7544434,-3.7181032,-3.2901123,77.0
454,4.7079544,1.0314617,0.53619385,-0.42905274,-2.9375246,-2.8546875,77.0
455,3.2364073,1.2958717,1.1236725,-0.42905274,-2.9375246,-2.8546875,77.0
456,3.2364073,1.2958717,1.1236725,-2.6327271,-2.2291627,-2.3204956,77.0
457,2.2781887,0.3441553,1.6868744,-2.6327271,-2.2291627,-2.3204956,77.0
458,2.2781887,0.3441553,1.6868744,-3.617212,-1.5622193,-1.6811646,77.0
459,1.4869184,-1.1665583,1.3500519,-3.617212,-1.5622193,-1.6811646,77.0
460,1.4869184,-1.1665583,1.3500519,-3.8487306,-1.0365235,-1.1629028,77.0
461,0.7276201,-2.643549,0.36299133,-3.8487306,-1.0365235,-1.1629028,77.0
462,0.7276201,-2.643549,0.36299133,-3.7754517,-0.6446411,-0.811377,77.0
463,0.24693966,-3.8088207,-0.3912201,-3.7754517,-0.6446411,-0.811377,77.0
464,0.24693966,-3.8088207,-0.3912201,-3.3081665,-0.33878174,-0.63826907,77.0
465,0.06908512,-4.343358,-0.47276306,-3.3081665,-0.33878174,-0.63826907,77.0
466,0.06908512,-4.343358,-0.47276306,-2.6656494,-0.16354981,-0.6244629,77.0
467,0.017902374,-4.23295,-0.14228821,-2.6656494,-0.16354981,-0.6244629,77.0
468,0.017902374,-4.23295,-0.14228821,-1.9679078,-0.07965088,-0.67650145,77.0
469,-0.14684772,-3.6721754,0.15446472,-1.9679078,-0.07965088,-0.67650145,77.0
470,-0.14684772,-3.6721754,0.15446472,-1.2903442,-0.083898924,-0.7168579,77.0
471,-0.49843597,-2.7812219,0.2876587,-1.2903442,-0.083898924,-0.7168579,77.0
472,-0.49843597,-2.7812219,0.2876587,-0.6977417,-0.16248779,-0.6690674,77.0
473,-0.860199,-1.7676287,0.37286377,-0.6977417,-0.16248779,-0.6690674,77.0
474,-0.860199,-1.7676287,0.37286377,-0.37807617,-0.26975098,-0.5214478,77.0
475,-1.0277462,-1.004777,0.46620178,-0.37807617,-0.26975098,-0.5214478,77.0
476,-1.0277462,-1.004777,0.46620178,-0.16885987,-0.36851808,-0.32285157,77.0
477,-0.8090744,-0.6775155,0.45666504,-0.16885987,-0.36851808,-0.32285157,77.0
478,-0.8090744,-0.6775155,0.45666504,-0.025488282,-0.42161867,-0.1083252,77.0
479,-0.1779728,-0.6685996,0.2881012,-0.025488282,-0.42161867,-0.1083252,77.0
480,-0.1779728,-0.6685996,0.2881012,0.16036378,-0.3525879,0.07752686,77.0
481,0.5940962,-0.79591465,-0.068099976,0.16036378,-0.3525879,0.07752686,77.0
482,0.5940962,-0.79591465,-0.068099976,0.45878908,-0.18691407,0.22727051,77.0
483,1.5806236,-0.8792124,-0.5661011,0.45878908,-0.18691407,0.22727051,77.0
484,1.5806236,-0.8792124,-0.5661011,0.70092773,-0.025488282,0.35152587,77.0
485,1.5806236,-0.8792124,-0.5661011,0.905896,0.28461915,0.48640138,77.0
486,3.0014381,-0.8328376,-0.8216553,0.905896,0.28461915,0.48640138,77.0
487,4.552225,-0.48093033,0.4269867,0.905896,0.28461915,0.48640138,77.0
488,4.552225,-0.48093033,0.4269867,1.1352905,0.62764895,0.68074954,77.0
489,4.552225,-0.48093033,0.4269867,1.3944215,0.9133301,0.9674927,77.0
490,4.552225,-0.48093033,0.4269867,1.8330323,1.1437867,1.3211426,77.0
491,2.9132156,0.17250633,0.13728333,1.8330323,1.1437867,1.3211426,77.0
492,2.9132156,0.17250633,0.13728333,2.3311157,1.4209718,1.716211,77.0
493,1.9307432,1.1248946,-0.4497223,2.3311157,1.4209718,1.716211,77.0
494,1.9307432,1.1248946,-0.4497223,2.611487,1.7863038,2.083667,77.0
495,1.5059595,2.171547,-0.935379,2.611487,1.7863038,2.083667,77.0
496,1.5059595,2.171547,-0.935379,2.5711305,2.2461548,2.3852785,77.0
497,0.99647903,3.0505066,-1.1549225,2.5711305,2.2461548,2.3852785,77.0
498,0.99647903,3.0505066,-1.1549225,2.2153566,2.7251222,2.6093628,77.0
499,-0.13999939,3.4827642,-1.1023865,2.2153566,2.7251222,2.6093628,77.0
500,-0.13999939,3.4827642,-1.1023865,1.6747925,3.078772,2.7686646,77.0
501,-1.7554808,3.3574276,-0.85639954,1.6747925,3.078772,2.7686646,77.0
502,-1.7554808,3.3574276,-0.85639954,1.1607789,3.26781,2.8823,77.0
503,-3.2474632,2.8921185,-0.61628723,1.1607789,3.26781,2.8823,77.0
504,-3.2474632,2.8921185,-0.61628723,0.6956177,3.3166625,2.987439,77.0
505,-4.174717,2.4345322,-0.59355164,0.6956177,3.3166625,2.987439,77.0
506,-4.174717,2.4345322,-0.59355164,0.271875,3.2465699,3.059656,77.0
507,-4.5489407,2.1432552,-0.8636627,0.271875,3.2465699,3.059656,77.0
508,-4.5489407,2.1432552,-0.8636627,-0.0541626,3.1276245,3.0947022,77.0
509,-4.6176443,2.0070353,-1.3328705,-0.0541626,3.1276245,3.0947022,77.0
510,-4.6176443,2.0070353,-1.3328705,-0.24744873,2.9789429,3.08302,77.0
511,-4.5824823,1.9476204,-1.786972,-0.24744873,2.9789429,3.08302,77.0
512,-4.5824823,1.9476204,-1.786972,-0.28355715,2.817517,3.0023072,77.0
513,-4.481965,1.9001617,-2.0758514,-0.28355715,2.817517,3.0023072,77.0
514,-4.481965,1.9001617,-2.0758514,-0.20178223,2.6560915,2.8653076,77.0
515,-4.356361,1.8894291,-2.1916351,-0.20178223,2.6560915,2.8653076,77.0
516,-4.356361,1.8894291,-2.1916351,-0.059472658,2.4776733,2.6614015,77.0
517,-4.263043,1.9348097,-2.172699,-0.059472658,2.4776733,2.6614015,77.0
518,-4.263043,1.9348097,-2.172699,0.04885254,2.258899,2.4043946,77.0
519,-4.231492,2.0163898,-2.0557098,0.04885254,2.258899,2.4043946,77.0
520,-4.231492,2.0163898,-2.0557098,0.08814698,2.005078,2.1017213,77.0
521,-4.214002,2.0633068,-1.8599548,0.08814698,2.005078,2.1017213,77.0
522,-4.214002,2.0633068,-1.8599548,0.053100586,1.6992188,1.7555054,77.0
523,-4.1426497,2.0363026,-1.627243,0.053100586,1.6992188,1.7555054,77.0
524,-4.1426497,2.0363026,-1.627243,-0.038232423,1.3487549,1.3625611,77.0
525,-3.9282067,1.9047499,-1.4058533,-0.038232423,1.3487549,1.3625611,77.0
526,-3.9282067,1.9047499,-1.4058533,-0.16354981,0.9547486,0.9154541,77.0
527,-3.4936152,1.640255,-1.1833649,-0.16354981,0.9547486,0.9154541,77.0
528,-3.4936152,1.640255,-1.1833649,-0.2814331,0.50233155,0.3993164,77.0
529,-2.805317,1.2176857,-0.8981781,-0.2814331,0.50233155,0.3993164,77.0
530,-2.805317,1.2176857,-0.8981781,-0.37807617,0.012744141,-0.17947999,77.0
531,-1.7510774,0.73106956,-0.55908203,-0.37807617,0.012744141,-0.17947999,77.0
532,-1.7510774,0.73106956,-0.55908203,-0.50870365,-0.5129517,-0.8485474,77.0
533,-0.33362556,0.26547146,-0.2710266,-0.50870365,-0.5129517,-0.8485474,77.0
534,-0.33362556,0.26547146,-0.2710266,-0.7051758,-1.0641358,-1.6068238,77.0
535,0.91710836,-0.28955078,-0.046798706,-0.7051758,-1.0641358,-1.6068238,77.0
536,0.91710836,-0.28955078,-0.046798706,-0.7051758,-1.0641358,-1.6068238,78.0
537,0.91710836,-0.28955078,-0.046798706,-0.87403566,-1.5940796,-2.3321779,78.0
538,1.4436965,-1.0179806,0.34449768,-0.87403566,-1.5940796,-2.3321779,78.0
539,1.4436965,-1.0179806,0.34449768,-0.9345703,-2.168628,-2.9364624,78.0
540,1.4294689,-1.8263111,1.1592255,-0.9345703,-2.168628,-2.9364624,78.0
541,1.4294689,-1.8263111,1.1592255,-0.72641605,-2.7453003,-3.3251588,78.0
542,1.605831,-2.4986467,2.3320465,-0.72641605,-2.7453003,-3.3251588,78.0
543,1.605831,-2.4986467,2.3320465,-0.09770508,-3.338965,-3.5842896,78.0
544,2.5863495,-2.788908,3.465088,-0.09770508,-3.338965,-3.5842896,78.0
545,2.5863495,-2.788908,3.465088,0.8421753,-3.9952881,-3.725537,78.0
546,4.367749,-2.6236925,4.044754,0.8421753,-3.9952881,-3.725537,78.0
547,4.367749,-2.6236925,4.044754,1.9487915,-4.601697,-3.7701416,78.0
548,6.283628,-2.0303993,3.636322,1.9487915,-4.601697,-3.7701416,78.0
549,6.283628,-2.0303993,3.636322,2.9088502,-4.866138,-3.6671264,78.0
550,7.170347,-1.1332788,2.42099,2.9088502,-4.866138,-3.6671264,78.0
551,7.170347,-1.1332788,2.42099,3.1074464,-4.532666,-3.4632204,78.0
552,6.410875,-0.027533531,1.4317474,3.1074464,-4.532666,-3.4632204,78.0
553,6.410875,-0.027533531,1.4317474,2.0082643,-4.009094,-3.1520507,78.0
554,4.7712173,1.039154,1.4826813,2.0082643,-4.009094,-3.1520507,78.0
555,4.7712173,1.039154,1.4826813,-0.19222413,-3.3570192,-2.7283082,78.0
556,3.3158875,1.3001461,2.2804413,-0.19222413,-3.3570192,-2.7283082,78.0
557,3.3158875,1.3001461,2.2804413,-2.2822633,-2.6921997,-2.163318,78.0
558,2.2804317,0.43642998,2.7226868,-2.2822633,-2.6921997,-2.163318,78.0
559,2.2804317,0.43642998,2.7226868,-2.8738039,-2.078357,-1.5197388,78.0
560,1.3841963,-0.8450451,2.0368805,-2.8738039,-2.078357,-1.5197388,78.0
561,1.3841963,-0.8450451,2.0368805,-2.8440673,-1.5547851,-1.0407715,78.0
562,0.6069784,-2.0166006,0.815567,-2.8440673,-1.5547851,-1.0407715,78.0
563,0.6069784,-2.0166006,0.815567,-2.7357423,-1.1321045,-0.6903076,78.0
564,0.23559475,-2.943286,0.10832214,-2.7357423,-1.1321045,-0.6903076,78.0
565,0.23559475,-2.943286,0.10832214,-2.4351928,-0.77314454,-0.544812,78.0
566,0.21033859,-3.3895645,0.18014526,-2.4351928,-0.77314454,-0.544812,78.0
567,0.21033859,-3.3895645,0.18014526,-2.077295,-0.4800293,-0.5501221,78.0
568,0.18390846,-3.3466368,0.5403137,-2.077295,-0.4800293,-0.5501221,78.0
569,0.18390846,-3.3466368,0.5403137,-1.7024049,-0.29205322,-0.6159668,78.0
570,-0.03403759,-2.98456,0.7329254,-1.7024049,-0.29205322,-0.6159668,78.0
571,-0.03403759,-2.98456,0.7329254,-1.264856,-0.24001466,-0.6860596,78.0
572,-0.30662537,-2.3943377,0.7361145,-1.264856,-0.24001466,-0.6860596,78.0
573,-0.30662537,-2.3943377,0.7361145,-0.811377,-0.2623169,-0.6956177,78.0
574,-0.50394344,-1.7284584,0.7290802,-0.811377,-0.2623169,-0.6956177,78.0
575,-0.50394344,-1.7284584,0.7290802,-0.5214478,-0.32922363,-0.6202149,78.0
576,-0.54615974,-1.2430205,0.7388458,-0.5214478,-0.32922363,-0.6202149,78.0
577,-0.54615974,-1.2430205,0.7388458,-0.37382814,-0.4078125,-0.5076416,78.0
578,-0.25522614,-1.0438185,0.60668945,-0.37382814,-0.4078125,-0.5076416,78.0
579,-0.25522614,-1.0438185,0.60668945,-0.24107666,-0.42905274,-0.35152587,78.0
580,0.3555479,-1.0374718,0.24520874,-0.24107666,-0.42905274,-0.35152587,78.0
581,0.3555479,-1.0374718,0.24520874,-0.06584473,-0.32603762,-0.18479005,78.0
582,0.9868555,-1.0877047,-0.26309204,-0.06584473,-0.32603762,-0.18479005,78.0
583,0.9868555,-1.0877047,-0.26309204,0.18903808,-0.13062744,-0.007434082,78.0
584,1.6737127,-1.0693951,-0.7876129,0.18903808,-0.13062744,-0.007434082,78.0
585,1.6737127,-1.0693951,-0.7876129,0.38975832,0.05522461,0.16885987,78.0
586,2.7477474,-0.92602396,-1.1003418,0.38975832,0.05522461,0.16885987,78.0
587,2.7477474,-0.92602396,-1.1003418,0.50020754,0.38338622,0.35789797,78.0
588,3.5715132,-0.7278433,-0.9887848,0.50020754,0.38338622,0.35789797,78.0
589,3.5715132,-0.7278433,-0.9887848,0.51826173,0.7614624,0.6180908,78.0
590,3.2081985,-0.5167227,-0.555603,0.51826173,0.7614624,0.6180908,78.0
591,3.2081985,-0.5167227,-0.555603,0.6244629,1.0567017,0.92926025,78.0
592,1.8182793,-0.1855216,-0.22305298,0.6244629,1.0567017,0.92926025,78.0
593,1.8182793,-0.1855216,-0.22305298,0.8315552,1.2722901,1.3073364,78.0
594,0.3761444,0.23957062,-0.33892822,0.8315552,1.2722901,1.3073364,78.0
595,0.3761444,0.23957062,-0.33892822,1.1629028,1.4369019,1.6758546,78.0
596,-0.14653301,0.66012573,-0.75305176,1.1629028,1.4369019,1.6758546,78.0
597,-0.14653301,0.66012573,-0.75305176,1.5887696,1.6185058,1.9519776,78.0
598,0.30209732,1.1249509,-1.101181,1.5887696,1.6185058,1.9519776,78.0
599,0.30209732,1.1249509,-1.101181,1.9233032,1.902063,2.1399536,78.0
600,0.83786964,1.7037811,-1.2239227,1.9233032,1.902063,2.1399536,78.0
601,0.83786964,1.7037811,-1.2239227,2.0326905,2.2387207,2.2365968,78.0
602,0.40630627,2.241321,-1.1019745,2.0326905,2.2387207,2.2365968,78.0
603,0.40630627,2.241321,-1.1019745,1.903125,2.5137818,2.2780151,78.0
604,-1.053215,2.5336943,-0.7848358,1.903125,2.5137818,2.2780151,78.0
605,-1.053215,2.5336943,-0.7848358,1.6036377,2.6614015,2.3173096,78.0
606,-2.6837215,2.5998068,-0.47891235,1.6036377,2.6614015,2.3173096,78.0
607,-2.6837215,2.5998068,-0.47891235,1.1501588,2.71344,2.3948364,78.0
608,-3.8376389,2.5514765,-0.45207214,1.1501588,2.71344,2.3948364,78.0
609,-3.8376389,2.5514765,-0.45207214,0.61702883,2.7060058,2.5042236,78.0
610,-4.4509954,2.4204292,-0.79537964,0.61702883,2.7060058,2.5042236,78.0
611,-4.4509954,2.4204292,-0.79537964,0.09664307,2.6720216,2.6295412,78.0
612,-4.71784,2.2304106,-1.3394165,0.09664307,2.6720216,2.6295412,78.0
613,-4.71784,2.2304106,-1.3394165,-0.33240968,2.613611,2.7399902,78.0
614,-4.7794485,2.0225,-1.8148346,-0.33240968,2.613611,2.7399902,78.0
615,-4.7794485,2.0225,-1.8148346,-0.5734863,2.53396,2.794153,78.0
616,-4.7037225,1.8167553,-2.0909424,-0.5734863,2.53396,2.794153,78.0
617,-4.7037225,1.8167553,-2.0909424,-0.61702883,2.4298828,2.7771606,78.0
618,-4.564516,1.646739,-2.1526337,-0.61702883,2.4298828,2.7771606,78.0
619,-4.564516,1.646739,-2.1526337,-0.48640138,2.2886353,2.6656494,78.0
620,-4.404384,1.5508385,-2.0434418,-0.48640138,2.2886353,2.6656494,78.0
621,-4.404384,1.5508385,-2.0434418,-0.28780517,2.092163,2.4638672,78.0
622,-4.2345915,1.561655,-1.8527832,-0.28780517,2.092163,2.4638672,78.0
623,-4.2345915,1.561655,-1.8527832,-0.08814698,1.8468384,2.1866822,78.0
624,-4.052761,1.6429644,-1.6366577,-0.08814698,1.8468384,2.1866822,78.0
625,-4.052761,1.6429644,-1.6366577,0.06690674,1.5558472,1.8415283,78.0
626,-3.8510833,1.7100134,-1.424469,0.06690674,1.5558472,1.8415283,78.0
627,-3.8510833,1.7100134,-1.424469,0.14230958,1.2181275,1.4390259,78.0
628,-3.6314037,1.687273,-1.2001953,0.14230958,1.2181275,1.4390259,78.0
629,-3.6314037,1.687273,-1.2001953,0.14230958,0.8219971,1.0004151,78.0
630,-3.340682,1.5545788,-0.9136963,0.14230958,0.8219971,1.0004151,78.0
631,-3.340682,1.5545788,-0.9136963,0.07327881,0.38657227,0.51188964,78.0
632,-2.8764277,1.3195171,-0.61035156,0.07327881,0.38657227,0.51188964,78.0
633,-2.8764277,1.3195171,-0.61035156,-0.027612304,-0.08283692,-0.03079834,78.0
634,-2.1414008,0.94461536,-0.31263733,-0.027612304,-0.08283692,-0.03079834,78.0
635,-2.1414008,0.94461536,-0.31263733,-0.11044922,-0.5713623,-0.6244629,78.0
636,-1.0690045,0.4254551,0.016967773,-0.11044922,-0.5713623,-0.6244629,78.0
637,-1.0690045,0.4254551,0.016967773,-0.13806152,-1.0673218,-1.2414917,78.0
638,0.28312647,-0.0956707,0.35713196,-0.13806152,-1.0673218,-1.2414917,78.0
639,0.28312647,-0.0956707,0.35713196,-0.16142578,-1.5515991,-1.8627685,78.0
640,1.702722,-0.52857494,0.6288452,-0.16142578,-1.5515991,-1.8627685,78.0
641,1.702722,-0.52857494,0.6288452,-0.24001466,-2.0220704,-2.5190918,78.0
642,2.8394604,-1.0202236,0.8839264,-0.24001466,-2.0220704,-2.5190918,78.0
643,2.8394604,-1.0202236,0.8839264,-0.25806886,-2.4521852,-3.0915163,78.0
644,3.3857162,-1.6419239,1.3776398,-0.25806886,-2.4521852,-3.0915163,78.0
645,3.3857162,-1.6419239,1.3776398,-0.25806886,-2.4521852,-3.0915163,79.0
646,3.3857162,-1.6419239,1.3776398,-0.087084964,-2.9067261,-3.538623,79.0
647,3.3628943,-2.2699728,2.3381653,-0.087084964,-2.9067261,-3.538623,79.0
648,3.3628943,-2.2699728,2.3381653,0.4598511,-3.4196777,-3.7690797,79.0
649,3.3492875,-2.7364006,3.5747986,0.4598511,-3.4196777,-3.7690797,79.0
650,3.3492875,-2.7364006,3.5747986,1.4199097,-3.9719238,-3.8412964,79.0
651,4.048058,-2.7731543,4.4466705,1.4199097,-3.9719238,-3.8412964,79.0
652,4.048058,-2.7731543,4.4466705,2.6359131,-4.5039916,-3.719165,79.0
653,5.497956,-2.1027403,4.2542267,2.6359131,-4.5039916,-3.719165,79.0
654,5.497956,-2.1027403,4.2542267,3.6458862,-4.7440066,-3.3782594,79.0
655,6.8255987,-0.6440582,2.940277,3.6458862,-4.7440066,-3.3782594,79.0
656,6.8255987,-0.6440582,2.940277,3.7542114,-4.37124,-2.8865478,79.0
657,6.722637,1.234045,1.3956146,3.7542114,-4.37124,-2.8865478,79.0
658,6.722637,1.234045,1.3956146,2.3332398,-3.4249878,-2.3268678,79.0
659,4.978159,2.6618328,0.64886475,2.3332398,-3.4249878,-2.3268678,79.0
660,4.978159,2.6618328,0.64886475,-0.08920898,-2.3948364,-1.716211,79.0
661,2.731038,2.6907578,0.90263367,-0.08920898,-2.3948364,-1.716211,79.0
662,2.731038,2.6907578,0.90263367,-2.0199463,-1.5717773,-1.0981201,79.0
663,0.9730625,1.399127,1.4873505,-2.0199463,-1.5717773,-1.0981201,79.0
664,0.9730625,1.399127,1.4873505,-2.819641,-0.88253176,-0.40462646,79.0
665,-0.2142868,-0.26534176,1.534668,-2.819641,-0.88253176,-0.40462646,79.0
666,-0.2142868,-0.26534176,1.534668,-3.0384157,-0.37807617,0.13168946,79.0
667,-1.0269594,-1.688055,0.82063293,-3.0384157,-0.37807617,0.13168946,79.0
668,-1.0269594,-1.688055,0.82063293,-2.9640749,0.04885254,0.4694092,79.0
669,-1.4777927,-2.6433525,-0.03564453,-2.9640749,0.04885254,0.4694092,79.0
670,-1.4777927,-2.6433525,-0.03564453,-2.618921,0.3717041,0.56817627,79.0
671,-1.5886917,-3.0131197,-0.39624023,-2.618921,0.3717041,0.56817627,79.0
672,-1.5886917,-3.0131197,-0.39624023,-2.275891,0.5883545,0.47896728,79.0
673,-1.5099058,-2.9467506,-0.2367096,-2.275891,0.5883545,0.47896728,79.0
674,-1.5099058,-2.9467506,-0.2367096,-1.9148072,0.6796875,0.270813,79.0
675,-1.4316797,-2.6758938,0.12541199,-1.9148072,0.6796875,0.270813,79.0
676,-1.4316797,-2.6758938,0.12541199,-1.537793,0.6138428,0.0,79.0
677,-1.3802071,-2.3198166,0.39971924,-1.537793,0.6138428,0.0,79.0
678,-1.3802071,-2.3198166,0.39971924,-1.1055542,0.42161867,-0.26868898,79.0
679,-1.2465115,-1.9199648,0.5215149,-1.1055542,0.42161867,-0.26868898,79.0
680,-1.2465115,-1.9199648,0.5215149,-0.63614506,0.14230958,-0.4885254,79.0
681,-0.94983387,-1.496336,0.5717163,-0.63614506,0.14230958,-0.4885254,79.0
682,-0.94983387,-1.496336,0.5717163,-0.30267334,-0.16885987,-0.61915284,79.0
683,-0.48433018,-1.1872301,0.5896301,-0.30267334,-0.16885987,-0.61915284,79.0
684,-0.48433018,-1.1872301,0.5896301,-0.0361084,-0.45666504,-0.66481936,79.0
685,0.12952805,-1.114481,0.5232849,-0.0361084,-0.45666504,-0.66481936,79.0
686,0.12952805,-1.114481,0.5232849,0.30161133,-0.6711914,-0.61702883,79.0
687,0.8761196,-1.1438551,0.32948303,0.30161133,-0.6711914,-0.61702883,79.0
688,0.8761196,-1.1438551,0.32948303,0.72641605,-0.76464844,-0.5256958,79.0
689,0.8761196,-1.1438551,0.32948303,1.2340577,-0.6966797,-0.37807617,79.0
690,1.6629801,-1.0164881,0.023544312,1.2340577,-0.6966797,-0.37807617,79.0
691,4.9339237,0.19216871,-1.0137634,1.2340577,-0.6966797,-0.37807617,79.0
692,4.9339237,0.19216871,-1.0137634,1.5547851,-0.5161377,-0.19434814,79.0
693,4.9339237,0.19216871,-1.0137634,1.5696534,-0.2548828,-0.03186035,79.0
694,4.9339237,0.19216871,-1.0137634,1.3869873,0.1720459,0.18372802,79.0
695,4.7797804,0.3176999,-0.49926758,1.3869873,0.1720459,0.18372802,79.0
696,4.7797804,0.3176999,-0.49926758,1.2552979,0.52250975,0.39294434,79.0
697,3.7113,0.19427204,0.10992432,1.2552979,0.52250975,0.39294434,79.0
698,3.7113,0.19427204,0.10992432,1.3317627,0.8782837,0.67225343,79.0
699,2.0156097,0.16719723,0.24349976,1.3317627,0.8782837,0.67225343,79.0
700,2.0156097,0.16719723,0.24349976,1.5420411,1.1278565,0.99085695,79.0
701,0.57713604,0.45072556,-0.23556519,1.5420411,1.1278565,0.99085695,79.0
702,0.57713604,0.45072556,-0.23556519,1.7480713,1.3530029,1.2882203,79.0
703,0.042640686,0.97184753,-0.8325653,1.7480713,1.3530029,1.2882203,79.0
704,0.042640686,0.97184753,-0.8325653,1.8510865,1.5855836,1.5154908,79.0
705,0.14718628,1.5577393,-1.0859375,1.8510865,1.5855836,1.5154908,79.0
706,0.14718628,1.5577393,-1.0859375,1.8287842,1.8245362,1.6801026,79.0
707,0.08298302,2.013647,-0.9686279,1.8287842,1.8245362,1.6801026,79.0
708,0.08298302,2.013647,-0.9686279,1.6471802,2.0178223,1.7661256,79.0
709,-0.68871593,2.1583662,-0.68110657,1.6471802,2.0178223,1.7661256,79.0
710,-0.68871593,2.1583662,-0.68110657,1.4029175,2.1240234,1.7926759,79.0
711,-2.0296354,2.0038662,-0.41503906,1.4029175,2.1240234,1.7926759,79.0
712,-2.0296354,2.0038662,-0.41503906,1.1809571,2.165442,1.8171021,79.0
713,-3.4073143,1.7938156,-0.34274292,1.1809571,2.165442,1.8171021,79.0
714,-3.4073143,1.7938156,-0.34274292,0.93775636,2.1357057,1.8617066,79.0
715,-4.2839813,1.7311459,-0.5182495,0.93775636,2.1357057,1.8617066,79.0
716,-4.2839813,1.7311459,-0.5182495,0.68712157,2.075171,1.9328613,79.0
717,-4.488367,1.8140182,-0.874176,0.68712157,2.075171,1.9328613,79.0
718,-4.488367,1.8140182,-0.874176,0.49277344,2.0241945,2.0188844,79.0
719,-4.262459,1.9079895,-1.2441559,0.49277344,2.0241945,2.0188844,79.0
720,-4.262459,1.9079895,-1.2441559,0.3355957,1.992334,2.090039,79.0
721,-3.9122863,1.9315557,-1.5119171,0.3355957,1.992334,2.090039,79.0
722,-3.9122863,1.9315557,-1.5119171,0.17629395,1.9625977,2.1091554,79.0
723,-3.5848827,1.8624935,-1.6242981,0.17629395,1.9625977,2.1091554,79.0
724,-3.5848827,1.8624935,-1.6242981,0.02442627,1.9126831,2.071985,79.0
725,-3.2909164,1.7185345,-1.6052856,0.02442627,1.9126831,2.071985,79.0
726,-3.2909164,1.7185345,-1.6052856,-0.090270996,1.8309082,1.9700317,79.0
727,-2.984918,1.5487537,-1.5054474,-0.090270996,1.8309082,1.9700317,79.0
728,-2.984918,1.5487537,-1.5054474,-0.15930176,1.7024049,1.8043579,79.0
729,-2.656538,1.4192276,-1.3791199,-0.15930176,1.7024049,1.8043579,79.0
730,-2.656538,1.4192276,-1.3791199,-0.21877442,1.536731,1.5770874,79.0
731,-2.3627915,1.3193302,-1.2724152,-0.21877442,1.536731,1.5770874,79.0
732,-2.3627915,1.3193302,-1.2724152,-0.27506104,1.3200806,1.2860962,79.0
733,-2.1157703,1.201643,-1.1649475,-0.27506104,1.3200806,1.2860962,79.0
734,-2.1157703,1.201643,-1.1649475,-0.3334717,1.0556396,0.9324463,79.0
735,-2.1157703,1.201643,-1.1649475,-0.39294434,0.7476563,0.52250975,79.0
736,-1.9028825,1.0141582,-1.014801,-0.39294434,0.7476563,0.52250975,79.0
737,-1.3328528,0.21409798,-0.4664917,-0.39294434,0.7476563,0.52250975,79.0
738,-1.3328528,0.21409798,-0.4664917,-0.4439209,0.38338622,0.06903076,79.0
739,-1.3328528,0.21409798,-0.4664917,-0.45029297,-0.029736329,-0.38551027,79.0
740,-1.3328528,0.21409798,-0.4664917,-0.38657227,-0.49064943,-0.817749,79.0
741,-0.5630107,-0.081077576,0.02267456,-0.38657227,-0.49064943,-0.817749,79.0
742,-0.5630107,-0.081077576,0.02267456,-0.30267334,-0.9791748,-1.2021973,79.0
743,-0.5630107,-0.081077576,0.02267456,-0.30267334,-0.9791748,-1.2021973,79.0
744,0.47926676,-0.28320885,0.43429565,-0.30267334,-0.9791748,-1.2021973,79.0
745,0.47926676,-0.28320885,0.43429565,-0.2357666,-1.5059327,-1.6206299,79.0
746,1.5685575,-0.59838104,0.82164,-0.2357666,-1.5059327,-1.6206299,79.0
747,1.5685575,-0.59838104,0.82164,0.020178223,-2.0528686,-2.0072021,79.0
748,2.034143,-1.0673285,1.434967,0.020178223,-2.0528686,-2.0072021,79.0
749,2.034143,-1.0673285,1.434967,0.58304447,-2.6029909,-2.2833252,79.0
750,1.6867871,-1.4663868,2.404602,0.58304447,-2.6029909,-2.2833252,79.0
751,1.6867871,-1.4663868,2.404602,1.4666382,-3.175415,-2.3969605,79.0
752,1.2617831,-1.5283089,3.406433,1.4666382,-3.175415,-2.3969605,79.0
753,1.2617831,-1.5283089,3.406433,2.5488281,-3.7265992,-2.342798,79.0
754,1.5729885,-1.0799227,3.8591156,2.5488281,-3.7265992,-2.342798,79.0
755,1.5729885,-1.0799227,3.8591156,3.5949097,-4.1875124,-2.173938,79.0
756,2.8486376,-0.12139702,3.4474335,3.5949097,-4.1875124,-2.173938,79.0
757,2.8486376,-0.12139702,3.4474335,4.3276978,-4.4020386,-1.9572877,79.0
758,4.434208,1.1762581,2.3776398,4.3276978,-4.4020386,-1.9572877,79.0
759,4.434208,1.1762581,2.3776398,4.257605,-4.1291018,-1.7289551,79.0
760,5.114029,2.515811,1.2766418,4.257605,-4.1291018,-1.7289551,79.0
761,5.114029,2.515811,1.2766418,3.1509888,-3.4281738,-1.4963745,79.0
762,4.4213867,3.4674826,0.64733887,3.1509888,-3.4281738,-1.4963745,79.0
763,4.4213867,3.4674826,0.64733887,1.3912354,-2.5838745,-1.2574219,79.0
764,2.930664,3.7110958,0.54222107,1.3912354,-2.5838745,-1.2574219,79.0
765,2.930664,3.7110958,0.54222107,-0.49171144,-1.7608155,-0.9165161,79.0
766,1.4562864,2.9563522,0.7934723,-0.49171144,-1.7608155,-0.9165161,79.0
767,1.4562864,2.9563522,0.7934723,-1.7820557,-1.0959961,-0.5533081,79.0
768,0.4554224,1.3606014,1.1266327,-1.7820557,-1.0959961,-0.5533081,79.0
769,0.4554224,1.3606014,1.1266327,-2.351294,-0.58304447,-0.16885987,79.0
770,-0.16095543,-0.47820663,1.2154846,-2.351294,-0.58304447,-0.16885987,79.0
771,-0.16095543,-0.47820663,1.2154846,-2.4288208,-0.19434814,0.08071289,79.0
772,-0.5591841,-1.9946022,1.0457153,-2.4288208,-0.19434814,0.08071289,79.0
773,-0.5591841,-1.9946022,1.0457153,-2.0603027,0.04991455,0.16036378,79.0
774,-0.7007284,-2.8105621,0.96647644,-2.0603027,0.04991455,0.16036378,79.0
775,-0.7007284,-2.8105621,0.96647644,-1.4443359,0.1731079,0.09664307,79.0
776,-0.6118889,-2.909546,1.151001,-1.4443359,0.1731079,0.09664307,79.0
777,-0.6118889,-2.909546,1.151001,-0.7965088,0.17947999,-0.040356446,79.0
778,-0.40425682,-2.5079594,1.3811035,-0.7965088,0.17947999,-0.040356446,79.0
779,-0.40425682,-2.5079594,1.3811035,-0.22939454,0.08071289,-0.1996582,79.0
780,-0.17518806,-1.8017168,1.3319702,-0.22939454,0.08071289,-0.1996582,79.0
781,-0.17518806,-1.8017168,1.3319702,0.17735596,-0.058410645,-0.2984253,79.0
782,0.0057353973,-0.9864292,0.996048,0.17735596,-0.058410645,-0.2984253,79.0
783,0.0057353973,-0.9864292,0.996048,0.34727785,-0.18160401,-0.32285157,79.0
784,0.11288929,-0.37714386,0.5726776,0.34727785,-0.18160401,-0.32285157,79.0
785,0.11288929,-0.37714386,0.5726776,0.42055663,-0.25700685,-0.2814331,79.0
786,0.17280674,-0.1590395,0.21315002,0.42055663,-0.25700685,-0.2814331,79.0
787,0.17280674,-0.1590395,0.21315002,0.46728516,-0.27506104,-0.18691407,79.0
788,0.29785252,-0.21070385,-0.06071472,0.46728516,-0.27506104,-0.18691407,79.0
789,0.29785252,-0.21070385,-0.06071472,0.59260255,-0.23895264,-0.08602295,79.0
790,0.63327694,-0.2787075,-0.3464203,0.59260255,-0.23895264,-0.08602295,79.0
791,0.63327694,-0.2787075,-0.3464203,0.79013675,-0.124255374,0.0031860352,79.0
792,1.1036434,-0.16161346,-0.60609436,0.79013675,-0.124255374,0.0031860352,79.0
793,1.1036434,-0.16161346,-0.60609436,0.9876709,0.057348635,0.07434082,79.0
794,1.5172167,0.08524799,-0.7507324,0.9876709,0.057348635,0.07434082,79.0
795,1.5172167,0.08524799,-0.7507324,1.0237793,0.22514649,0.11469727,79.0
796,2.0530186,0.24062252,-0.77056885,1.0237793,0.22514649,0.11469727,79.0
797,2.0530186,0.24062252,-0.77056885,0.84323734,0.36427003,0.0998291,79.0
798,2.1499834,0.26361656,-0.67196655,0.84323734,0.36427003,0.0998291,79.0
799,2.1499834,0.26361656,-0.67196655,0.68712157,0.44604492,0.09770508,79.0
800,3.419364,-0.21418,-0.5385895,0.68712157,0.44604492,0.09770508,79.0
801,3.419364,-0.21418,-0.5385895,0.35152587,0.62552494,0.090270996,79.0
802,2.9671192,-0.40498638,-0.32929993,0.35152587,0.62552494,0.090270996,79.0
803,2.9671192,-0.40498638,-0.32929993,0.41312256,0.69986576,0.12213135,79.0
804,1.354042,-1.0479517,-0.020523071,0.41312256,0.69986576,0.12213135,79.0
805,1.354042,-1.0479517,-0.020523071,0.83474123,0.9526245,0.48109132,79.0
806,0.17266273,-0.74408627,-0.22079468,0.83474123,0.9526245,0.48109132,79.0
807,0.17266273,-0.74408627,-0.22079468,0.9324463,1.0099732,0.66481936,79.0
808,-1.3907757,0.19454956,-1.4623718,0.9324463,1.0099732,0.66481936,79.0
809,-1.3907757,0.19454956,-1.4623718,1.0598878,1.2021973,1.1905152,79.0
810,-1.1953115,0.6764288,-1.6217194,1.0598878,1.2021973,1.1905152,79.0
811,-1.1953115,0.6764288,-1.6217194,1.0503296,1.3020264,1.3360108,79.0
812,-0.099059105,1.27005,-1.7776794,1.0503296,1.3020264,1.3360108,79.0
813,-0.099059105,1.27005,-1.7776794,0.7954468,1.5930176,1.6376221,79.0
814,-0.13478947,1.2426395,-1.4574432,0.7954468,1.5930176,1.6376221,79.0
815,-0.13478947,1.2426395,-1.4574432,0.6860596,1.6726685,1.7013428,79.0
816,-1.2259712,0.9754839,-1.1000824,0.6860596,1.6726685,1.7013428,79.0
817,-1.2259712,0.9754839,-1.1000824,0.4694092,1.7979859,1.8447144,79.0
818,-1.8511868,0.9012127,-1.0011444,0.4694092,1.7979859,1.8447144,79.0
819,-1.8511868,0.9012127,-1.0011444,0.3993164,1.7990478,1.8882569,79.0
820,-3.4337816,1.0075798,-1.0015259,0.3993164,1.7990478,1.8882569,79.0
821,-3.4337816,1.0075798,-1.0015259,0.11044922,1.7300171,2.0634887,79.0
822,-3.297306,1.1055517,-0.9882202,0.11044922,1.7300171,2.0634887,79.0
823,-3.297306,1.1055517,-0.9882202,0.0053100586,1.6970948,2.1240234,79.0
824,-3.3019323,1.414031,-1.2186584,0.0053100586,1.6970948,2.1240234,79.0
825,-3.3019323,1.414031,-1.2186584,-0.25700685,1.6078857,2.275891,79.0
826,-2.893682,1.3596916,-1.2456665,-0.25700685,1.6078857,2.275891,79.0
827,-2.893682,1.3596916,-1.2456665,-0.30267334,1.5834595,2.3056276,79.0
828,-2.6775556,1.3023281,-1.4074554,-0.30267334,1.5834595,2.3056276,79.0
829,-2.6775556,1.3023281,-1.4074554,-0.3069214,1.5250489,2.3289917,79.0
830,-2.5650916,1.2176437,-1.4745789,-0.3069214,1.5250489,2.3289917,79.0
831,-2.5650916,1.2176437,-1.4745789,-0.22514649,1.4570801,2.3056276,79.0
832,-2.452989,1.1937313,-1.4257202,-0.22514649,1.4570801,2.3056276,79.0
833,-2.452989,1.1937313,-1.4257202,-0.09451904,1.355127,2.2164185,79.0
834,-2.1982555,1.2366505,-1.2624817,-0.09451904,1.355127,2.2164185,79.0
835,-2.1982555,1.2366505,-1.2624817,0.057348635,1.2191895,2.0709229,79.0
836,-1.7835679,1.3984756,-0.964447,0.057348635,1.2191895,2.0709229,79.0
837,-1.7835679,1.3984756,-0.964447,0.2166504,0.9420044,1.7385132,79.0
838,-1.7835679,1.3984756,-0.964447,0.2347046,0.8294312,1.5993897,79.0
839,-1.4482775,1.3944645,-0.8052368,0.2347046,0.8294312,1.5993897,79.0
840,-1.3037269,1.4290123,-0.5289612,0.2347046,0.8294312,1.5993897,79.0
841,-1.3037269,1.4290123,-0.5289612,0.3802002,0.4163086,1.0906861,79.0
842,-1.0880499,1.282505,-0.41036987,0.3802002,0.4163086,1.0906861,79.0
843,-1.0880499,1.282505,-0.41036987,0.44923097,0.25806886,0.89208984,79.0
844,-0.80491257,1.0446815,-0.11009216,0.44923097,0.25806886,0.89208984,79.0
845,-0.80491257,1.0446815,-0.11009216,0.7327881,-0.2782471,0.21558838,79.0
846,-0.4502287,0.87337875,0.0010223389,0.7327881,-0.2782471,0.21558838,79.0
847,-0.4502287,0.87337875,0.0010223389,0.7327881,-0.2782471,0.21558838,79.0
848,-0.4502287,0.87337875,0.0010223389,0.8485474,-0.4725952,-0.027612304,79.0
849,0.34318638,0.65637016,0.15306091,0.8485474,-0.4725952,-0.027612304,79.0
850,0.34318638,0.65637016,0.15306091,1.0460815,-0.87403566,-0.544812,79.0
851,1.5590584,0.5181503,0.23460388,1.0460815,-0.87403566,-0.544812,79.0
852,1.5590584,0.5181503,0.23460388,1.1597168,-1.3317627,-1.0662597,79.0
853,2.499627,0.44036293,0.4026947,1.1597168,-1.3317627,-1.0662597,79.0
854,2.499627,0.44036293,0.4026947,1.2244996,-1.81073,-1.442212,79.0
855,2.1792917,0.34670067,0.8568878,1.2244996,-1.81073,-1.442212,79.0
856,2.1792917,0.34670067,0.8568878,1.3020264,-2.270581,-1.6514282,79.0
857,0.7728281,0.24508476,1.5770416,1.3020264,-2.270581,-1.6514282,79.0
858,0.7728281,0.24508476,1.5770416,1.5972656,-2.7389283,-1.6875366,79.0
859,-0.3555045,0.15894699,2.3586884,1.5972656,-2.7389283,-1.6875366,79.0
860,-0.3555045,0.15894699,2.3586884,2.18031,-3.243384,-1.5887696,79.0
861,-0.18929863,0.14554214,2.8710327,2.18031,-3.243384,-1.5887696,79.0
862,-0.18929863,0.14554214,2.8710327,2.9577026,-3.7276611,-1.4369019,79.0
863,1.2668595,0.42618752,2.694275,2.9577026,-3.7276611,-1.4369019,79.0
864,1.2668595,0.42618752,2.694275,3.8476684,-4.100427,-1.2967163,79.0
865,4.043248,1.3140221,1.0870361,3.8476684,-4.100427,-1.2967163,79.0
866,4.043248,1.3140221,1.0870361,4.4700074,-3.7765138,-1.1342286,79.0
867,4.178361,1.9342995,0.04585266,4.4700074,-3.7765138,-1.1342286,79.0
868,4.178361,1.9342995,0.04585266,4.185388,-3.4579103,-1.0535157,79.0
869,3.7904549,3.1422997,-1.3218536,4.185388,-3.4579103,-1.0535157,79.0
870,3.7904549,3.1422997,-1.3218536,2.8238893,-2.6826417,-0.9674927,79.0
871,2.3104153,4.0958233,-1.7014923,2.8238893,-2.6826417,-0.9674927,79.0
872,2.3104153,4.0958233,-1.7014923,0.8092529,-1.9360474,-0.81668705,79.0
873,0.91556835,4.2075424,-0.9750366,0.8092529,-1.9360474,-0.81668705,79.0
874,0.91556835,4.2075424,-0.9750366,-1.2308716,-1.3179566,-0.5692383,79.0
875,0.21381474,3.016838,0.326828,-1.2308716,-1.3179566,-0.5692383,79.0
876,0.21381474,3.016838,0.326828,-2.433069,-0.8517334,-0.26125488,79.0
877,0.010126114,0.9690857,1.4125366,-2.433069,-0.8517334,-0.26125488,79.0
878,0.010126114,0.9690857,1.4125366,-2.7453003,-0.5161377,0.012744141,79.0
879,-0.17039013,-1.0223389,1.7300415,-2.7453003,-0.5161377,0.012744141,79.0
880,-0.17039013,-1.0223389,1.7300415,-2.4192626,-0.32391357,0.10195313,79.0
881,-0.42943954,-2.3433952,1.4462128,-2.4192626,-0.32391357,0.10195313,79.0
882,-0.42943954,-2.3433952,1.4462128,-1.7501954,-0.23045655,0.070092775,79.0
883,-0.63663006,-2.7618752,1.1865997,-1.7501954,-0.23045655,0.070092775,79.0
884,-0.63663006,-2.7618752,1.1865997,-0.96643066,-0.2347046,-0.06690674,79.0
885,-0.70392036,-2.4421062,1.3197784,-0.96643066,-0.2347046,-0.06690674,79.0
886,-0.70392036,-2.4421062,1.3197784,-0.2814331,-0.3419678,-0.24532472,79.0
887,-0.5724869,-1.6967392,1.6158142,-0.2814331,-0.3419678,-0.24532472,79.0
888,-0.5724869,-1.6967392,1.6158142,0.13275146,-0.5076416,-0.39613038,79.0
889,-0.2918396,-0.8626175,1.5741882,0.13275146,-0.5076416,-0.39613038,79.0
890,-0.2918396,-0.8626175,1.5741882,0.29099122,-0.6552612,-0.47896728,79.0
891,0.021069527,-0.22748566,1.0402527,0.29099122,-0.6552612,-0.47896728,79.0
892,0.021069527,-0.22748566,1.0402527,0.38657227,-0.72323,-0.5150757,79.0
893,0.27264214,0.075969696,0.41220093,0.38657227,-0.72323,-0.5150757,79.0
894,0.27264214,0.075969696,0.41220093,0.36745605,-0.72323,-0.51826173,79.0
895,0.4366808,0.08455467,0.084747314,0.36745605,-0.72323,-0.51826173,79.0
896,0.4366808,0.08455467,0.084747314,0.30054933,-0.66269535,-0.51188964,79.0
897,0.5793133,-0.06371689,0.068573,0.30054933,-0.66269535,-0.51188964,79.0
898,0.5793133,-0.06371689,0.068573,0.25806886,-0.56392825,-0.4970215,79.0
899,0.7789049,-0.21051979,0.12258911,0.25806886,-0.56392825,-0.4970215,79.0
900,0.7789049,-0.21051979,0.12258911,0.2538208,-0.43861085,-0.45878908,79.0
901,1.0598183,-0.29415894,0.036132812,0.2538208,-0.43861085,-0.45878908,79.0
902,1.0598183,-0.29415894,0.036132812,0.3079834,-0.2793091,-0.40462646,79.0
903,1.3716335,-0.29273796,-0.1902008,0.3079834,-0.2793091,-0.40462646,79.0
904,1.3716335,-0.29273796,-0.1902008,0.3345337,-0.087084964,-0.3334717,79.0
905,1.727251,-0.25421143,-0.48117065,0.3345337,-0.087084964,-0.3334717,79.0
906,1.727251,-0.25421143,-0.48117065,0.2177124,0.10620117,-0.2527588,79.0
907,2.2327776,-0.27048302,-0.7359314,0.2177124,0.10620117,-0.2527588,79.0
908,2.2327776,-0.27048302,-0.7359314,-0.02442627,0.3090454,-0.18160401,79.0
909,2.6694984,-0.4250164,-0.7654419,-0.02442627,0.3090454,-0.18160401,79.0
910,2.6694984,-0.4250164,-0.7654419,-0.26550293,0.51932377,-0.06903076,79.0
911,2.6648836,-0.7344475,-0.4469452,-0.26550293,0.51932377,-0.06903076,79.0
912,2.6648836,-0.7344475,-0.4469452,-0.31966552,0.6265869,0.032922365,79.0
913,1.9691257,-1.0997162,0.118896484,-0.31966552,0.6265869,0.032922365,79.0
914,1.9691257,-1.0997162,0.118896484,0.019116212,0.72323,0.17947999,79.0
915,0.5699043,-1.328968,0.33543396,0.019116212,0.72323,0.17947999,79.0
916,0.5699043,-1.328968,0.33543396,0.6467652,0.81031495,0.39400634,79.0
917,-0.80315876,-1.0827541,-0.2637787,0.6467652,0.81031495,0.39400634,79.0
918,-0.80315876,-1.0827541,-0.2637787,1.3200806,0.903772,0.64570314,79.0
919,-1.2317848,-0.25997734,-1.289978,1.3200806,0.903772,0.64570314,79.0
920,-1.2317848,-0.25997734,-1.289978,1.7990478,1.0588257,0.8581055,79.0
921,-0.6152258,0.76797104,-1.9547882,1.7990478,1.0588257,0.8581055,79.0
922,-0.6152258,0.76797104,-1.9547882,1.9509156,1.2956543,0.9770508,79.0
923,0.24063206,1.5672207,-1.9343414,1.9509156,1.2956543,0.9770508,79.0
924,0.24063206,1.5672207,-1.9343414,1.7544434,1.5600952,0.998291,79.0
925,0.37178993,1.8693295,-1.5506592,1.7544434,1.5600952,0.998291,79.0
926,0.37178993,1.8693295,-1.5506592,1.3232666,1.7618774,1.0089111,79.0
927,-0.47181892,1.6693287,-1.2359619,1.3232666,1.7618774,1.0089111,79.0
928,-0.47181892,1.6693287,-1.2359619,0.8623535,1.8776368,1.0407715,79.0
929,-1.6661997,1.3080578,-1.1737823,0.8623535,1.8776368,1.0407715,79.0
930,-1.6661997,1.3080578,-1.1737823,0.4895874,1.9498535,1.1469727,79.0
931,-2.4850101,1.0956402,-1.2991943,0.4895874,1.9498535,1.1469727,79.0
932,-2.4850101,1.0956402,-1.2991943,0.1901001,1.9944581,1.3052124,79.0
933,-2.6984215,1.0309925,-1.4496613,0.1901001,1.9944581,1.3052124,79.0
934,-2.6984215,1.0309925,-1.4496613,-0.04141846,2.0295045,1.4698242,79.0
935,-2.4905357,0.9800434,-1.529541,-0.04141846,2.0295045,1.4698242,79.0
936,-2.4905357,0.9800434,-1.529541,-0.25913087,2.0518067,1.6078857,79.0
937,-2.1557102,0.8642235,-1.5267181,-0.25913087,2.0518067,1.6078857,79.0
938,-2.1557102,0.8642235,-1.5267181,-0.4428589,2.0475585,1.6981567,79.0
939,-1.8417187,0.6810875,-1.4434204,-0.4428589,2.0475585,1.6981567,79.0
940,-1.8417187,0.6810875,-1.4434204,-0.5511841,2.0093262,1.7374512,79.0
941,-1.5859966,0.4818325,-1.2779694,-0.5511841,2.0093262,1.7374512,79.0
942,-1.5859966,0.4818325,-1.2779694,-0.56392825,1.9434814,1.7310791,79.0
943,-1.4461775,0.33906555,-1.0709076,-0.56392825,1.9434814,1.7310791,79.0
944,-1.4461775,0.33906555,-1.0709076,-0.5278198,1.8277222,1.6843506,79.0
945,-1.3991785,0.3080082,-0.8699341,-0.5278198,1.8277222,1.6843506,79.0
946,-1.3991785,0.3080082,-0.8699341,-0.5097656,1.6716064,1.6057618,79.0
947,-1.3991785,0.3080082,-0.8699341,-0.5363159,1.4708862,1.5016845,79.0
948,-1.4142771,0.36862373,-0.720871,-0.5363159,1.4708862,1.5016845,79.0
949,-1.5534186,0.5961437,-0.41036987,-0.5363159,1.4708862,1.5016845,79.0
950,-1.5534186,0.5961437,-0.41036987,-0.58623046,1.2160034,1.3657471,79.0
951,-1.5534186,0.5961437,-0.41036987,-0.61065674,0.91014403,1.1629028,79.0
952,-1.5534186,0.5961437,-0.41036987,-0.56392825,0.55968016,0.8687256,79.0
953,-1.0066023,0.43115044,-0.112701416,-0.56392825,0.55968016,0.8687256,79.0
954,-1.0066023,0.43115044,-0.112701416,-0.45666504,0.15930176,0.4715332,79.0
955,-1.0066023,0.43115044,-0.112701416,-0.45666504,0.15930176,0.4715332,79.0
956,-0.3863368,0.2273655,0.22053528,-0.45666504,0.15930176,0.4715332,79.0
957,-0.3863368,0.2273655,0.22053528,-0.31860352,-0.28461915,-0.0010620117,79.0
958,0.23359394,-0.020486832,0.50239563,-0.31860352,-0.28461915,-0.0010620117,79.0
959,0.23359394,-0.020486832,0.50239563,-0.14868164,-0.75615233,-0.5256958,79.0
960,1.0219946,-0.22867012,0.66851807,-0.14868164,-0.75615233,-0.5256958,79.0
961,1.0219946,-0.22867012,0.66851807,0.010620117,-1.273352,-1.083252,79.0
962,1.9849906,-0.3003559,0.80241394,0.010620117,-1.273352,-1.083252,79.0
963,1.9849906,-0.3003559,0.80241394,0.25700685,-1.8351563,-1.5685914,79.0
964,2.5879927,-0.3031273,1.0075073,0.25700685,-1.8351563,-1.5685914,79.0
965,2.5879927,-0.3031273,1.0075073,0.6000366,-2.3958986,-1.989148,79.0
966,2.392892,-0.35404968,1.4039307,0.6000366,-2.3958986,-1.989148,79.0
967,2.392892,-0.35404968,1.4039307,1.1342286,-3.0054932,-2.263147,79.0
968,1.479682,-0.41405106,2.0327454,1.1342286,-3.0054932,-2.263147,79.0
969,1.479682,-0.41405106,2.0327454,1.906311,-3.5672975,-2.3258057,79.0
970,0.5447197,-0.32539368,2.6226044,1.906311,-3.5672975,-2.3258057,79.0
971,0.5447197,-0.32539368,2.6226044,2.8759277,-4.0983033,-2.2196045,79.0
972,0.40651512,0.052770615,2.593277,2.8759277,-4.0983033,-2.2196045,79.0
973,0.40651512,0.052770615,2.593277,3.8243043,-4.443457,-1.987024,79.0
974,1.2671556,0.8892746,1.4888458,3.8243043,-4.443457,-1.987024,79.0
975,1.2671556,0.8892746,1.4888458,4.190698,-4.3563724,-1.7406372,79.0
976,2.5046062,2.2467957,-0.4841919,4.190698,-4.3563724,-1.7406372,79.0
977,2.5046062,2.2467957,-0.4841919,3.2147095,-3.6437624,-1.4528321,79.0
978,3.0454578,3.5950928,-2.3604584,3.2147095,-3.6437624,-1.4528321,79.0
979,3.0454578,3.5950928,-2.3604584,1.177771,-2.4628053,-1.359375,79.0
980,2.306837,4.142872,-3.2060547,1.177771,-2.4628053,-1.359375,79.0
981,2.306837,4.142872,-3.2060547,-0.96430665,-1.2744141,-1.1990112,79.0
982,0.734581,3.4887123,-2.6970673,-0.96430665,-1.2744141,-1.1990112,79.0
983,0.734581,3.4887123,-2.6970673,-2.7729127,-0.2984253,-0.89846194,79.0
984,-0.7246151,1.8169956,-1.1878204,-2.7729127,-0.2984253,-0.89846194,79.0
985,-0.7246151,1.8169956,-1.1878204,-4.15459,0.44710693,-0.43011475,79.0
986,-1.5957079,-0.37050056,0.5140228,-4.15459,0.44710693,-0.43011475,79.0
987,-1.5957079,-0.37050056,0.5140228,-4.8587036,0.9717407,0.04248047,79.0
988,-1.9477463,-2.487709,1.7160034,-4.8587036,0.9717407,0.04248047,79.0
989,-1.9477463,-2.487709,1.7160034,-4.8756957,1.2786621,0.35046387,79.0
990,-2.0515566,-3.9698792,2.230072,-4.8756957,1.2786621,0.35046387,79.0
991,-2.0515566,-3.9698792,2.230072,-4.4572635,1.3763672,0.5129517,79.0
992,-2.1935892,-4.5464363,2.1429443,-4.4572635,1.3763672,0.5129517,79.0
993,-2.1935892,-4.5464363,2.1429443,-3.7552736,1.2967163,0.4991455,79.0
994,-2.3932142,-4.383793,1.7476807,-3.7552736,1.2967163,0.4991455,79.0
995,-2.3932142,-4.383793,1.7476807,-2.8578737,1.1140503,0.32816163,79.0
996,-2.4471645,-3.7828636,1.3992767,-2.8578737,1.1140503,0.32816163,79.0
997,-2.4471645,-3.7828636,1.3992767,-1.9201173,0.8442993,0.07965088,79.0
998,-2.2309494,-2.9610329,1.2574921,-1.9201173,0.8442993,0.07965088,79.0
999,-2.2309494,-2.9610329,1.2574921,-1.0747559,0.5171997,-0.1901001,79.0
1000,-1.8090882,-2.0912495,1.2241821,-1.0747559,0.5171997,-0.1901001,79.0
1001,-1.8090882,-2.0912495,1.2241821,-0.44073486,0.16354981,-0.4354248,79.0
1002,-1.3281789,-1.3415165,1.1745758,-0.44073486,0.16354981,-0.4354248,79.0
1003,-1.3281789,-1.3415165,1.1745758,-0.10620117,-0.19753419,-0.62977296,79.0
1004,-0.8451972,-0.85578156,1.0721436,-0.10620117,-0.19753419,-0.62977296,79.0
1005,-0.8451972,-0.85578156,1.0721436,0.06159668,-0.5256958,-0.7763306,79.0
1006,-0.35387993,-0.71263885,0.9609375,0.06159668,-0.5256958,-0.7763306,79.0
1007,-0.35387993,-0.71263885,0.9609375,0.24001466,-0.79119873,-0.8666016,79.0
1008,0.19066334,-0.7997856,0.8357086,0.24001466,-0.79119873,-0.8666016,79.0
1009,0.19066334,-0.7997856,0.8357086,0.4725952,-0.9781128,-0.9239502,79.0
1010,0.8518348,-0.8775234,0.6829834,0.4725952,-0.9781128,-0.9239502,79.0
1011,0.8518348,-0.8775234,0.6829834,0.7614624,-1.0917481,-0.95581055,79.0
1012,1.6398907,-0.8007374,0.51716614,0.7614624,-1.0917481,-0.95581055,79.0
1013,1.6398907,-0.8007374,0.51716614,1.0662597,-1.1342286,-0.9505005,79.0
1014,2.568944,-0.5996971,0.23973083,1.0662597,-1.1342286,-0.9505005,79.0
1015,2.568944,-0.5996971,0.23973083,1.2765381,-1.084314,-0.8995239,79.0
1016,3.765665,-0.3371315,-0.19625854,1.2765381,-1.084314,-0.8995239,79.0
1017,3.765665,-0.3371315,-0.19625854,1.2234375,-0.9218262,-0.7848267,79.0
1018,4.760762,-0.0673008,-0.44514465,1.2234375,-0.9218262,-0.7848267,79.0
1019,4.760762,-0.0673008,-0.44514465,0.98448485,-0.5883545,-0.52675784,79.0
1020,4.670866,0.096660614,-0.12893677,0.98448485,-0.5883545,-0.52675784,79.0
1021,4.670866,0.096660614,-0.12893677,0.80181885,-0.27506104,-0.17416993,79.0
1022,3.291625,0.11398697,0.47984314,0.80181885,-0.27506104,-0.17416993,79.0
1023,3.291625,0.11398697,0.47984314,0.8772217,0.021240234,0.2516968,79.0
1024,1.4377918,0.049612045,0.5610504,0.8772217,0.021240234,0.2516968,79.0
1025,1.4377918,0.049612045,0.5610504,1.3742431,0.23151855,0.6690674,79.0
1026,0.42830944,0.21661758,-0.27130127,1.3742431,0.23151855,0.6690674,79.0
1027,0.42830944,0.21661758,-0.27130127,2.0348146,0.54375,1.0471436,79.0
1028,0.5334072,0.8275299,-1.4683838,2.0348146,0.54375,1.0471436,79.0
1029,0.5334072,0.8275299,-1.4683838,2.4670532,0.99935305,1.3200806,79.0
1030,0.9477215,1.757227,-2.320404,2.4670532,0.99935305,1.3200806,79.0
1031,0.9477215,1.757227,-2.320404,2.5732543,1.5027466,1.4719483,79.0
1032,0.8327503,2.633236,-2.4852295,2.5732543,1.5027466,1.4719483,79.0
1033,0.8327503,2.633236,-2.4852295,2.3035035,1.9774659,1.5303589,79.0
1034,-0.1498642,3.0192337,-2.0590057,2.3035035,1.9774659,1.5303589,79.0
1035,-0.1498642,3.0192337,-2.0590057,1.8224121,2.2493408,1.5685914,79.0
1036,-1.5266905,2.7790833,-1.4063721,1.8224121,2.2493408,1.5685914,79.0
1037,-1.5266905,2.7790833,-1.4063721,1.2595459,2.342798,1.6195679,79.0
1038,-2.5968895,2.1969967,-0.950058,1.2595459,2.342798,1.6195679,79.0
1039,-2.5968895,2.1969967,-0.950058,0.7062378,2.3204956,1.6928467,79.0
1040,-3.062192,1.6071091,-0.88357544,0.7062378,2.3204956,1.6928467,79.0
1041,-3.062192,1.6071091,-0.88357544,0.26337892,2.247217,1.7724975,79.0
1042,-2.989109,1.1620178,-1.1074219,0.26337892,2.247217,1.7724975,79.0
1043,-2.989109,1.1620178,-1.1074219,0.0031860352,2.162256,1.8351563,79.0
1044,-2.602933,0.8706913,-1.4076233,0.0031860352,2.162256,1.8351563,79.0
1045,-2.602933,0.8706913,-1.4076233,-0.09133301,2.1017213,1.8755127,79.0
1046,-2.1347513,0.6894245,-1.6551208,-0.09133301,2.1017213,1.8755127,79.0
1047,-2.1347513,0.6894245,-1.6551208,-0.06796875,2.0581787,1.8702027,79.0
1048,-1.7144175,0.6005497,-1.758255,-0.06796875,2.0581787,1.8702027,79.0
1049,-1.7144175,0.6005497,-1.758255,0.009558106,2.0135744,1.8181641,79.0
1050,-1.7144175,0.6005497,-1.758255,0.009558106,2.0135744,1.8181641,79.0
1051,-1.3607798,0.5773392,-1.709137,0.009558106,2.0135744,1.8181641,79.0
1052,-1.3607798,0.5773392,-1.709137,0.08602295,1.9551636,1.718335,79.0
1053,-1.0642099,0.5976124,-1.5317688,0.08602295,1.9551636,1.718335,79.0
1054,-1.0642099,0.5976124,-1.5317688,0.10301514,1.8585205,1.5685914,79.0
1055,-0.80170965,0.6292858,-1.2781372,0.10301514,1.8585205,1.5685914,79.0
1056,-0.80170965,0.6292858,-1.2781372,0.029736329,1.7098389,1.364685,79.0
1057,-0.54822826,0.62408257,-0.98594666,0.029736329,1.7098389,1.364685,79.0
1058,-0.54822826,0.62408257,-0.98594666,-0.1178833,1.5069946,1.1055542,79.0
1059,-0.54822826,0.62408257,-0.98594666,-0.28568116,1.264856,0.8241211,79.0
1060,-0.4041829,0.52531624,-0.6963196,-0.28568116,1.264856,0.8241211,79.0
1061,-1.0954533,0.15882874,-0.18431091,-0.28568116,1.264856,0.8241211,79.0
1062,-1.0954533,0.15882874,-0.18431091,-0.43967286,0.97492677,0.53525394,79.0
1063,-1.0954533,0.15882874,-0.18431091,-0.5649902,0.63720703,0.25700685,79.0
1064,-1.0954533,0.15882874,-0.18431091,-0.6287109,0.25063476,-0.0180542,79.0
1065,-0.8763628,0.12706375,-0.14744568,-0.6287109,0.25063476,-0.0180542,79.0
1066,0.760653,-0.22483826,0.54270935,-0.6287109,0.25063476,-0.0180542,79.0
1067,0.760653,-0.22483826,0.54270935,-0.5915405,-0.16885987,-0.29630128,79.0
1068,0.760653,-0.22483826,0.54270935,-0.48533937,-0.6117188,-0.631897,79.0
1069,0.760653,-0.22483826,0.54270935,-0.32709962,-1.1331666,-1.0503296,79.0
1070,1.6724262,-0.38215256,0.750412,-0.32709962,-1.1331666,-1.0503296,79.0
1071,1.6724262,-0.38215256,0.750412,-0.06690674,-1.6609863,-1.445398,79.0
1072,1.775917,-0.5356407,1.0260773,-0.06690674,-1.6609863,-1.445398,79.0
1073,1.775917,-0.5356407,1.0260773,0.26019287,-2.1834962,-1.8234742,79.0
1074,1.1803284,-0.6739731,1.4127655,0.26019287,-2.1834962,-1.8234742,79.0
1075,1.1803284,-0.6739731,1.4127655,0.7540283,-2.727246,-2.073047,79.0
1076,0.50148964,-0.7954273,1.9044037,0.7540283,-2.727246,-2.073047,79.0
1077,0.50148964,-0.7954273,1.9044037,1.5154908,-3.2168336,-2.162256,79.0
1078,0.34044933,-0.7180443,2.232254,1.5154908,-3.2168336,-2.162256,79.0
1079,0.34044933,-0.7180443,2.232254,2.4043946,-3.6543825,-2.1293335,79.0
1080,0.9188442,-0.27267838,1.9525452,2.4043946,-3.6543825,-2.1293335,79.0
1081,0.9188442,-0.27267838,1.9525452,3.1945312,-3.9039552,-1.9997681,79.0
1082,1.9766283,0.59900856,0.7950897,3.1945312,-3.9039552,-1.9997681,79.0
1083,1.9766283,0.59900856,0.7950897,3.3687012,-3.7499635,-1.8245362,79.0
1084,2.7402506,1.8382149,-0.8454437,3.3687012,-3.7499635,-1.8245362,79.0
1085,2.7402506,1.8382149,-0.8454437,2.350232,-3.075586,-1.5760254,79.0
1086,2.4602423,2.9197655,-2.0947113,2.350232,-3.075586,-1.5760254,79.0
1087,2.4602423,2.9197655,-2.0947113,0.4704712,-2.1303957,-1.3880494,79.0
1088,1.2644835,3.2503014,-2.2628784,0.4704712,-2.1303957,-1.3880494,79.0
1089,1.2644835,3.2503014,-2.2628784,-1.4995606,-1.2351197,-1.0768799,79.0
1090,-0.099692345,2.5329685,-1.2285614,-1.4995606,-1.2351197,-1.0768799,79.0
1091,-0.099692345,2.5329685,-1.2285614,-3.0139892,-0.544812,-0.6988037,79.0
1092,-1.0513601,0.8927078,0.41319275,-3.0139892,-0.544812,-0.6988037,79.0
1093,-1.0513601,0.8927078,0.41319275,-3.797754,-0.05628662,-0.23151855,79.0
1094,-1.6240234,-1.0431328,1.7846222,-3.797754,-0.05628662,-0.23151855,79.0
1095,-1.6240234,-1.0431328,1.7846222,-3.805188,0.2442627,0.09770508,79.0
1096,-2.0378418,-2.5901337,2.3588715,-3.805188,0.2442627,0.09770508,79.0
1097,-2.0378418,-2.5901337,2.3588715,-3.2625,0.3717041,0.23364258,79.0
1098,-2.28866,-3.314087,2.2172241,-3.2625,0.3717041,0.23364258,79.0
1099,-2.28866,-3.314087,2.2172241,-2.4861696,0.39294434,0.23364258,79.0
1100,-2.330391,-3.236414,1.7856445,-2.4861696,0.39294434,0.23364258,79.0
1101,-2.330391,-3.236414,1.7856445,-1.6928467,0.35789797,0.12213135,79.0
1102,-2.1236267,-2.6454296,1.4389648,-1.6928467,0.35789797,0.12213135,79.0
1103,-2.1236267,-2.6454296,1.4389648,-1.0524536,0.27399904,-0.040356446,79.0
1104,-1.7049198,-1.8203487,1.2508392,-1.0524536,0.27399904,-0.040356446,79.0
1105,-1.7049198,-1.8203487,1.2508392,-0.7104859,0.15611573,-0.19116211,79.0
1106,-1.1709671,-0.98693085,1.1256714,-0.7104859,0.15611573,-0.19116211,79.0
1107,-1.1709671,-0.98693085,1.1256714,-0.7041138,0.027612304,-0.2984253,79.0
1108,-0.66349506,-0.4542179,0.9600525,-0.7041138,0.027612304,-0.2984253,79.0
1109,-0.66349506,-0.4542179,0.9600525,-0.8485474,-0.10513916,-0.38763428,79.0
1110,-0.25875044,-0.4166584,0.7780609,-0.8485474,-0.10513916,-0.38763428,79.0
1111,-0.25875044,-0.4166584,0.7780609,-0.9759888,-0.23364258,-0.45135498,79.0
1112,0.08038998,-0.75507927,0.6338196,-0.9759888,-0.23364258,-0.45135498,79.0
1113,0.08038998,-0.75507927,0.6338196,-0.97492677,-0.3430298,-0.49277344,79.0
1114,0.39443874,-1.1869125,0.55303955,-0.97492677,-0.3430298,-0.49277344,79.0
1115,0.39443874,-1.1869125,0.55303955,-0.7848267,-0.4428589,-0.51932377,79.0
1116,0.39443874,-1.1869125,0.55303955,-0.45878908,-0.54906005,-0.5320679,79.0
1117,0.7319937,-1.446661,0.55700684,-0.45878908,-0.54906005,-0.5320679,79.0
1118,1.1690664,-1.4241257,0.6598511,-0.45878908,-0.54906005,-0.5320679,79.0
1119,1.1690664,-1.4241257,0.6598511,-0.052038576,-0.63720703,-0.51932377,79.0
1120,1.1690664,-1.4241257,0.6598511,0.30161133,-0.6966797,-0.48109132,79.0
1121,1.6260853,-1.1917286,0.727829,0.30161133,-0.6966797,-0.48109132,79.0
1122,2.200099,-0.88637924,0.55677795,0.30161133,-0.6966797,-0.48109132,79.0
1123,2.200099,-0.88637924,0.55677795,0.48321533,-0.7476563,-0.452417,79.0
1124,3.1531334,-0.6023903,0.22523499,0.48321533,-0.7476563,-0.452417,79.0
1125,3.1531334,-0.6023903,0.22523499,0.5076416,-0.68924564,-0.4056885,79.0
1126,3.931858,-0.43226624,0.09022522,0.5076416,-0.68924564,-0.4056885,79.0
1127,3.931858,-0.43226624,0.09022522,0.49171144,-0.541626,-0.31010744,79.0
1128,3.6726112,-0.44044304,0.34306335,0.49171144,-0.541626,-0.31010744,79.0
1129,3.6726112,-0.44044304,0.34306335,0.63614506,-0.3706421,-0.1444336,79.0
1130,2.2649689,-0.5548935,0.6300812,0.63614506,-0.3706421,-0.1444336,79.0
1131,2.2649689,-0.5548935,0.6300812,1.0471436,-0.17735596,0.095581055,79.0
1132,0.5250368,-0.5230293,0.29208374,1.0471436,-0.17735596,0.095581055,79.0
1133,0.5250368,-0.5230293,0.29208374,1.6609863,0.023364259,0.4078125,79.0
1134,-0.35390854,-0.053590775,-0.6936798,1.6609863,0.023364259,0.4078125,79.0
1135,-0.35390854,-0.053590775,-0.6936798,2.3385499,0.2782471,0.7072998,79.0
1136,-0.021907806,0.89157677,-1.7181244,2.3385499,0.2782471,0.7072998,79.0
1137,-0.021907806,0.89157677,-1.7181244,2.7261841,0.7168579,0.9876709,79.0
1138,-0.021907806,0.89157677,-1.7181244,2.7261841,0.7168579,0.9876709,77.0
1139,0.74137306,1.9865036,-2.3057556,2.7261841,0.7168579,0.9876709,77.0
1140,0.74137306,1.9865036,-2.3057556,2.6635253,1.2064453,1.1660889,77.0
1141,1.0330524,2.8002148,-2.3658295,2.6635253,1.2064453,1.1660889,77.0
1142,1.0330524,2.8002148,-2.3658295,2.162256,1.7098389,1.269104,77.0
1143,0.50422573,3.00449,-2.0995483,2.162256,1.7098389,1.269104,77.0
1144,0.50422573,3.00449,-2.0995483,1.4730103,2.075171,1.3338867,77.0
1145,-0.5521374,2.58041,-1.7363129,1.4730103,2.075171,1.3338867,77.0
1146,-0.5521374,2.58041,-1.7363129,0.7954468,2.2928834,1.4145997,77.0
1147,-1.5427351,1.8367023,-1.3704681,0.7954468,2.2928834,1.4145997,77.0
1148,-1.5427351,1.8367023,-1.3704681,0.13699952,2.351294,1.4995606,77.0
1149,-2.0913048,1.1331558,-1.05336,0.13699952,2.351294,1.4995606,77.0
1150,-2.0913048,1.1331558,-1.05336,-0.33771974,2.3151855,1.5877075,77.0
1151,-2.2343235,0.6150341,-0.9065552,-0.33771974,2.3151855,1.5877075,77.0
1152,-2.2343235,0.6150341,-0.9065552,-0.64570314,2.2450929,1.6588624,77.0
1153,-2.205391,0.28149223,-0.96247864,-0.64570314,2.2450929,1.6588624,77.0
1154,-2.205391,0.28149223,-0.96247864,-0.7763306,2.1590698,1.7077149,77.0
1155,-2.1650457,0.07094574,-1.1139984,-0.7763306,2.1590698,1.7077149,77.0
1156,-2.1650457,0.07094574,-1.1139984,-0.7434082,2.071985,1.7332032,77.0
1157,-2.1198902,-0.03601837,-1.1500244,-0.7434082,2.071985,1.7332032,77.0
1158,-2.1198902,-0.03601837,-1.1500244,-0.55543214,1.9594116,1.7385132,77.0
1159,-1.943532,-0.051252365,-1.0382843,-0.55543214,1.9594116,1.7385132,77.0
1160,-1.943532,-0.051252365,-1.0382843,-0.28461915,1.8532104,1.6981567,77.0
1161,-1.660429,0.042812347,-0.9554138,-0.28461915,1.8532104,1.6981567,77.0
1162,-1.660429,0.042812347,-0.9554138,-0.059472658,1.7416992,1.6365601,77.0
1163,-1.3847027,0.22060204,-0.9510193,-0.059472658,1.7416992,1.6365601,77.0
1164,-1.3847027,0.22060204,-0.9510193,0.081774905,1.6015137,1.544165,77.0
1165,-1.3847027,0.22060204,-0.9510193,0.115759276,1.4241577,1.4294678,77.0
1166,-1.1489611,0.4246502,-0.89930725,0.115759276,1.4241577,1.4294678,77.0
1167,-0.9400673,0.595665,-0.7446747,0.115759276,1.4241577,1.4294678,77.0
1168,-0.9400673,0.595665,-0.7446747,0.06903076,1.2053833,1.26698,77.0
1169,-0.7348299,0.6728096,-0.5181427,0.06903076,1.2053833,1.26698,77.0
1170,-0.7348299,0.6728096,-0.5181427,-0.027612304,0.9281983,1.0333375,77.0
1171,-0.46010494,0.6193619,-0.25917053,-0.027612304,0.9281983,1.0333375,77.0
1172,-0.46010494,0.6193619,-0.25917053,-0.12531738,0.60322267,0.71154785,77.0
1173,-0.1023736,0.45111847,-0.0039367676,-0.12531738,0.60322267,0.71154785,77.0
1174,-0.1023736,0.45111847,-0.0039367676,-0.19222413,0.2347046,0.3154175,77.0
1175,0.24930239,0.20552254,0.23165894,-0.19222413,0.2347046,0.3154175,77.0
1176,0.24930239,0.20552254,0.23165894,-0.21558838,-0.17841797,-0.12956543,77.0
1177,0.5317297,-0.029294968,0.41133118,-0.21558838,-0.17841797,-0.12956543,77.0
1178,0.5317297,-0.029294968,0.41133118,-0.19541016,-0.60322267,-0.5713623,77.0
1179,0.9796438,-0.119823456,0.47503662,-0.19541016,-0.60322267,-0.5713623,77.0
1180,0.9796438,-0.119823456,0.47503662,-0.15930176,-1.0386475,-1.0174073,77.0
1181,1.7064447,-0.105428696,0.47938538,-0.15930176,-1.0386475,-1.0174073,77.0
1182,1.7064447,-0.105428696,0.47938538,-0.09664307,-1.5059327,-1.44646,77.0
1183,2.088728,-0.16235924,0.58625793,-0.09664307,-1.5059327,-1.44646,77.0
1184,2.088728,-0.16235924,0.58625793,0.039294433,-1.9233032,-1.806482,77.0
1185,1.7284527,-0.37393188,0.9608154,0.039294433,-1.9233032,-1.806482,77.0
1186,1.7284527,-0.37393188,0.9608154,0.34833986,-2.3863404,-2.1038454,77.0
1187,0.99838734,-0.6555176,1.5637512,0.34833986,-2.3863404,-2.1038454,77.0
1188,0.99838734,-0.6555176,1.5637512,0.8973999,-2.811145,-2.2302246,77.0
1189,0.544816,-0.7341919,1.9750824,0.8973999,-2.811145,-2.2302246,77.0
1190,0.544816,-0.7341919,1.9750824,1.5707153,-3.1796632,-2.2387207,77.0
1191,0.803504,-0.37139893,1.691803,1.5707153,-3.1796632,-2.2387207,77.0
1192,0.803504,-0.37139893,1.691803,2.1038454,-3.3771973,-2.1590698,77.0
1193,1.6147633,0.38947868,0.6316223,2.1038454,-3.3771973,-2.1590698,77.0
1194,1.6147633,0.38947868,0.6316223,2.165442,-3.256128,-2.0549927,77.0
1195,2.3001366,1.3125954,-0.70332336,2.165442,-3.256128,-2.0549927,77.0
1196,2.3001366,1.3125954,-0.70332336,1.44115,-2.7633545,-1.905249,77.0
1197,2.0839329,1.9932766,-1.584137,1.44115,-2.7633545,-1.905249,77.0
1198,2.0839329,1.9932766,-1.584137,0.09133301,-2.0008302,-1.7236451,77.0
1199,0.90732,2.1188774,-1.535614,0.09133301,-2.0008302,-1.7236451,77.0
1200,0.90732,2.1188774,-1.535614,-1.5186768,-1.2712281,-1.4560181,77.0
1201,-0.5055895,1.4983368,-0.5742645,-1.5186768,-1.2712281,-1.4560181,77.0
1202,-0.5055895,1.4983368,-0.5742645,-2.9247804,-0.6839356,-1.1321045,77.0
1203,-1.505228,0.17727089,0.77474976,-2.9247804,-0.6839356,-1.1321045,77.0
1204,-1.505228,0.17727089,0.77474976,-3.7510254,-0.26656494,-0.73809814,77.0
1205,-2.066084,-1.4105263,1.7913818,-3.7510254,-0.26656494,-0.73809814,77.0
1206,-2.066084,-1.4105263,1.7913818,-3.9198854,-0.016992187,-0.41418457,77.0
1207,-2.3689566,-2.7149925,2.0352173,-3.9198854,-0.016992187,-0.41418457,77.0
1208,-2.3689566,-2.7149925,2.0352173,-3.5513673,0.10195313,-0.24532472,77.0
1209,-2.4761105,-3.3979702,1.6982269,-3.5513673,0.10195313,-0.24532472,77.0
1210,-2.4761105,-3.3979702,1.6982269,-2.8886719,0.16354981,-0.19222413,77.0
1211,-2.3681812,-3.4540215,1.3472443,-2.8886719,0.16354981,-0.19222413,77.0
1212,-2.3681812,-3.4540215,1.3472443,-2.0932252,0.14230958,-0.23895264,77.0
1213,-2.0011854,-3.0517788,1.2768402,-2.0932252,0.14230958,-0.23895264,77.0
1214,-2.0011854,-3.0517788,1.2768402,-1.3657471,0.06903076,-0.32497558,77.0
1215,-1.4463463,-2.40551,1.3362732,-1.3657471,0.06903076,-0.32497558,77.0
1216,-1.4463463,-2.40551,1.3362732,-0.8294312,-0.03186035,-0.41843262,77.0
1217,-0.903769,-1.669281,1.3104095,-0.8294312,-0.03186035,-0.41843262,77.0
1218,-0.903769,-1.669281,1.3104095,-0.60216063,-0.15930176,-0.47790527,77.0
1219,-0.472991,-1.0382214,1.1802063,-0.60216063,-0.15930176,-0.47790527,77.0
1220,-0.472991,-1.0382214,1.1802063,-0.55755615,-0.29736328,-0.50233155,77.0
1221,-0.13170052,-0.72512054,1.0393829,-0.55755615,-0.29736328,-0.50233155,77.0
1222,-0.13170052,-0.72512054,1.0393829,-0.5246338,-0.4333008,-0.48640138,77.0
1223,0.18816996,-0.7492752,0.9422455,-0.5246338,-0.4333008,-0.48640138,77.0
1224,0.18816996,-0.7492752,0.9422455,-0.4067505,-0.54906005,-0.4428589,77.0
1225,0.18816996,-0.7492752,0.9422455,-0.14124756,-0.6510132,-0.39294434,77.0
1226,0.5431752,-0.9396057,0.89549255,-0.14124756,-0.6510132,-0.39294434,77.0
1227,1.8188667,-1.1486816,1.0362396,-0.14124756,-0.6510132,-0.39294434,77.0
1228,1.8188667,-1.1486816,1.0362396,0.26019287,-0.724292,-0.33984375,77.0
1229,1.8188667,-1.1486816,1.0362396,0.67331547,-0.73703617,-0.271875,77.0
1230,2.30264,-0.7377434,0.76408386,0.67331547,-0.73703617,-0.271875,77.0
1231,2.30264,-0.7377434,0.76408386,0.9388184,-0.6966797,-0.18160401,77.0
1232,2.9557104,-0.24759293,0.3127594,0.9388184,-0.6966797,-0.18160401,77.0
1233,2.9557104,-0.24759293,0.3127594,0.96218264,-0.63614506,-0.118945315,77.0
1234,3.8063536,0.16182709,-0.02003479,0.96218264,-0.63614506,-0.118945315,77.0
1235,3.8063536,0.16182709,-0.02003479,0.8007569,-0.40250245,0.0063720704,77.0
1236,4.044729,0.34269524,0.03437805,0.8007569,-0.40250245,0.0063720704,77.0
1237,4.044729,0.34269524,0.03437805,0.634021,-0.1529297,0.15823975,77.0
1238,3.1714287,0.23748589,0.3340454,0.634021,-0.1529297,0.15823975,77.0
1239,3.1714287,0.23748589,0.3340454,0.64782715,0.093457036,0.35895997,77.0
1240,1.6522427,0.05048752,0.37205505,0.64782715,0.093457036,0.35895997,77.0
1241,1.6522427,0.05048752,0.37205505,0.9568726,0.3451538,0.62127686,77.0
1242,0.3596115,0.1045742,-0.20657349,0.9568726,0.3451538,0.62127686,77.0
1243,0.3596115,0.1045742,-0.20657349,0.9568726,0.3451538,0.62127686,76.0
1244,0.3596115,0.1045742,-0.20657349,1.4018555,0.6159668,0.89846194,76.0
1245,0.014239311,0.54631805,-1.124176,1.4018555,0.6159668,0.89846194,76.0
1246,0.014239311,0.54631805,-1.124176,1.7693115,0.95368654,1.1289185,76.0
1247,0.5599146,1.2459412,-1.839447,1.7693115,0.95368654,1.1289185,76.0
1248,0.5599146,1.2459412,-1.839447,1.8946289,1.359375,1.3041505,76.0
1249,1.1148872,1.9629631,-2.0941162,1.8946289,1.359375,1.3041505,76.0
1250,1.1148872,1.9629631,-2.0941162,1.6854126,1.8011719,1.4156617,76.0
1251,0.75708294,2.3595428,-1.9435425,1.6854126,1.8011719,1.4156617,76.0
1252,0.75708294,2.3595428,-1.9435425,1.2903442,2.1399536,1.4974365,76.0
1253,-0.5364237,2.232214,-1.6101532,1.2903442,2.1399536,1.4974365,76.0
1254,-0.5364237,2.232214,-1.6101532,0.8485474,2.3173096,1.5792115,76.0
1255,-1.9646006,1.7823544,-1.3264008,0.8485474,2.3173096,1.5792115,76.0
1256,-1.9646006,1.7823544,-1.3264008,0.3791382,2.3746583,1.6662964,76.0
1257,-2.8819342,1.294157,-1.1757965,0.3791382,2.3746583,1.6662964,76.0
1258,-2.8819342,1.294157,-1.1757965,-0.039294433,2.347046,1.7459472,76.0
1259,-3.1490173,0.9021454,-1.1154175,-0.039294433,2.347046,1.7459472,76.0
1260,-3.1490173,0.9021454,-1.1154175,-0.3090454,2.2546508,1.7937378,76.0
1261,-2.857788,0.592968,-1.0568542,-0.3090454,2.2546508,1.7937378,76.0
1262,-2.857788,0.592968,-1.0568542,-0.37595215,2.1335816,1.7863038,76.0
1263,-2.3585815,0.3475666,-1.0338898,-0.37595215,2.1335816,1.7863038,76.0
1264,-2.3585815,0.3475666,-1.0338898,-0.31329346,2.0475585,1.7353271,76.0
1265,-2.024683,0.19728088,-1.1292725,-0.31329346,2.0475585,1.7353271,76.0
1266,-2.024683,0.19728088,-1.1292725,-0.18691407,1.9572877,1.632312,76.0
1267,-1.9071245,0.18416786,-1.2669525,-0.18691407,1.9572877,1.632312,76.0
1268,-1.9071245,0.18416786,-1.2669525,-0.07434082,1.8744507,1.5101807,76.0
1269,-1.8437538,0.28779984,-1.310379,-0.07434082,1.8744507,1.5101807,76.0
1270,-1.8437538,0.28779984,-1.310379,-0.015930176,1.7693115,1.3763672,76.0
1271,-1.6816559,0.4225731,-1.2208862,-0.015930176,1.7693115,1.3763672,76.0
1272,-1.6816559,0.4225731,-1.2208862,-0.052038576,1.6397461,1.2287476,76.0
1273,-1.4069824,0.5123253,-1.0514679,-0.052038576,1.6397461,1.2287476,76.0
1274,-1.4069824,0.5123253,-1.0514679,-0.16992188,1.4698242,1.0524536,76.0
1275,-1.12854,0.49986267,-0.8497925,-0.16992188,1.4698242,1.0524536,76.0
1276,-1.12854,0.49986267,-0.8497925,-0.32285157,1.264856,0.8421753,76.0
1277,-1.12854,0.49986267,-0.8497925,-0.4630371,1.0131592,0.58198243,76.0
1278,-0.9574218,0.392725,-0.61753845,-0.4630371,1.0131592,0.58198243,76.0
1279,-0.9611397,-0.15699959,0.070892334,-0.4630371,1.0131592,0.58198243,76.0
1280,-0.9611397,-0.15699959,0.070892334,-0.55755615,0.7083618,0.26337892,76.0
1281,-0.9611397,-0.15699959,0.070892334,-0.58623046,0.5341919,0.083898924,76.0
1282,-0.9611397,-0.15699959,0.070892334,-0.54587406,-0.07752686,-0.5214478,76.0
1283,-0.6623564,-0.29410553,0.26174927,-0.54587406,-0.07752686,-0.5214478,76.0
1284,-0.6623564,-0.29410553,0.26174927,-0.48321533,-0.30479738,-0.7317261,76.0
1285,0.4341526,-0.5493088,0.71580505,-0.48321533,-0.30479738,-0.7317261,76.0
1286,0.4341526,-0.5493088,0.71580505,-0.20072022,-1.002539,-1.359375,76.0
1287,0.8508134,-0.5413265,0.7344513,-0.20072022,-1.002539,-1.359375,76.0
1288,0.8508134,-0.5413265,0.7344513,-0.12850343,-1.2552979,-1.5866455,76.0
1289,2.6867542,-0.6435356,0.84095764,-0.12850343,-1.2552979,-1.5866455,76.0
1290,2.6867542,-0.6435356,0.84095764,0.21877442,-1.996582,-2.1962402,76.0
1291,2.6004534,-0.6679058,0.8413391,0.21877442,-1.996582,-2.1962402,76.0
1292,2.6004534,-0.6679058,0.8413391,0.3802002,-2.2142944,-2.3587282,76.0
1293,1.9281654,-0.85159683,1.5646973,0.3802002,-2.2142944,-2.3587282,76.0
1294,1.9281654,-0.85159683,1.5646973,1.0970582,-2.8684938,-2.5095336,76.0
1295,1.0390902,-0.71951103,1.6808777,1.0970582,-2.8684938,-2.5095336,76.0
1296,1.0390902,-0.71951103,1.6808777,1.4284058,-3.0554078,-2.4553711,76.0
1297,-0.33896732,-0.41411018,2.3654327,1.4284058,-3.0554078,-2.4553711,76.0
1298,-0.33896732,-0.41411018,2.3654327,2.4150147,-3.4972045,-2.0995972,76.0
1299,-0.06192112,0.020090103,1.7459259,2.4150147,-3.4972045,-2.0995972,76.0
1300,-0.06192112,0.020090103,1.7459259,2.618921,-3.5471191,-1.9679078,76.0
1301,2.0562248,1.3052063,0.0026855469,2.618921,-3.5471191,-1.9679078,76.0
1302,2.0562248,1.3052063,0.0026855469,2.1888063,-3.085144,-1.632312,76.0
1303,2.5490208,1.6534424,-0.8186035,2.1888063,-3.085144,-1.632312,76.0
1304,2.5490208,1.6534424,-0.8186035,1.6493043,-2.6911378,-1.5335449,76.0
1305,3.0739574,2.2526627,-1.9474945,1.6493043,-2.6911378,-1.5335449,76.0
1306,3.0739574,2.2526627,-1.9474945,0.2623169,-1.7470093,-1.3699951,76.0
1307,2.134056,2.276825,-1.9904175,0.2623169,-1.7470093,-1.3699951,76.0
1308,2.134056,2.276825,-1.9904175,-1.3922974,-0.90270996,-1.0683838,76.0
1309,0.49934673,1.6224594,-0.85298157,-1.3922974,-0.90270996,-1.0683838,76.0
1310,0.49934673,1.6224594,-0.85298157,-3.0076172,-0.24957275,-0.6881836,76.0
1311,-0.94192886,0.21904755,0.8372803,-3.0076172,-0.24957275,-0.6881836,76.0
1312,-0.94192886,0.21904755,0.8372803,-3.984668,0.16248779,-0.23789063,76.0
1313,-2.3742704,-2.140667,2.5838928,-3.984668,0.16248779,-0.23789063,76.0
1314,-2.3742704,-2.140667,2.5838928,-3.802002,0.2357666,0.19328614,76.0
1315,-2.303359,-2.7036724,2.5740967,-3.802002,0.2357666,0.19328614,76.0
1316,-2.303359,-2.7036724,2.5740967,-3.4090576,0.19647217,0.2538208,76.0
1317,-2.7336788,-3.5931149,1.9308777,-3.4090576,0.19647217,0.2538208,76.0
1318,-2.7336788,-3.5931149,1.9308777,-1.7363892,0.027612304,0.1901001,76.0
1319,-2.405095,-3.182293,1.4915009,-1.7363892,0.027612304,0.1901001,76.0
1320,-2.405095,-3.182293,1.4915009,-1.1427246,-0.047790527,0.10195313,76.0
1321,-2.296794,-2.3076515,1.2398071,-1.1427246,-0.047790527,0.10195313,76.0
1322,-2.296794,-2.3076515,1.2398071,0.1996582,-0.29099122,-0.22302246,76.0
1323,-1.8357263,-1.5062275,1.1332397,0.1996582,-0.29099122,-0.22302246,76.0
1324,-1.8357263,-1.5062275,1.1332397,0.36745605,-0.37701416,-0.32285157,76.0
1325,-1.4030781,-0.42276764,1.2180328,0.36745605,-0.37701416,-0.32285157,76.0
1326,-1.4030781,-0.42276764,1.2180328,0.5076416,-0.54906005,-0.5256958,76.0
1327,-0.9612808,0.32466507,1.1425171,0.5076416,-0.54906005,-0.5256958,76.0
1328,-0.9612808,0.32466507,1.1425171,0.43117675,-0.6839356,-0.6414551,76.0
1329,-0.5096493,0.6019325,0.91763306,0.43117675,-0.6839356,-0.6414551,76.0
1330,-0.5096493,0.6019325,0.91763306,0.21346436,-0.76464844,-0.71791995,76.0
1331,-0.07302666,0.39323997,0.69825745,0.21346436,-0.76464844,-0.71791995,76.0
1332,-0.07302666,0.39323997,0.69825745,0.035046387,-0.7965088,-0.7880127,76.0
1333,0.3867321,-0.07913208,0.57954407,0.035046387,-0.7965088,-0.7880127,76.0
1334,0.3867321,-0.07913208,0.57954407,-0.004248047,-0.78164065,-0.8464233,76.0
1335,0.9336901,-0.50798416,0.5070038,-0.004248047,-0.78164065,-0.8464233,76.0
1336,0.9336901,-0.50798416,0.5070038,0.107263185,-0.7391602,-0.8687256,76.0
1337,1.5570107,-0.7421646,0.41033936,0.107263185,-0.7391602,-0.8687256,76.0
1338,1.5570107,-0.7421646,0.41033936,0.31966552,-0.6531372,-0.83474123,76.0
1339,1.5570107,-0.7421646,0.41033936,0.31966552,-0.6531372,-0.83474123,73.0
1340,2.1045322,-0.7496891,0.18756104,0.31966552,-0.6531372,-0.83474123,73.0
1341,2.1045322,-0.7496891,0.18756104,0.50233155,-0.50020754,-0.72323,73.0
1342,3.24864,-0.5988846,-0.38589478,0.50233155,-0.50020754,-0.72323,73.0
1343,3.24864,-0.5988846,-0.38589478,0.4630371,-0.2782471,-0.49277344,73.0
1344,3.309886,-0.4125309,-0.49162292,0.4630371,-0.2782471,-0.49277344,73.0
1345,3.309886,-0.4125309,-0.49162292,0.36320803,-0.121069334,-0.36639404,73.0
1346,3.8924637,-0.30310822,-0.4194641,0.36320803,-0.121069334,-0.36639404,73.0
1347,3.8924637,-0.30310822,-0.4194641,0.21452637,0.19541016,-0.06265869,73.0
1348,3.2675724,-0.41334915,0.007965088,0.21452637,0.19541016,-0.06265869,73.0
1349,3.2675724,-0.41334915,0.007965088,0.3345337,0.45029297,0.2814331,73.0
1350,1.8247995,-0.56339455,0.13406372,0.3345337,0.45029297,0.2814331,73.0
1351,1.8247995,-0.56339455,0.13406372,0.6966797,0.6605713,0.6573853,73.0
1352,0.79442215,-0.43377304,-0.5021057,0.6966797,0.6605713,0.6573853,73.0
1353,0.79442215,-0.43377304,-0.5021057,1.1979493,0.9281983,1.0227174,73.0
1354,0.777627,0.090883255,-1.532196,1.1979493,0.9281983,1.0227174,73.0
1355,0.777627,0.090883255,-1.532196,1.5717773,1.3062744,1.3243287,73.0
1356,1.3004093,0.8699722,-2.2999115,1.5717773,1.3062744,1.3243287,73.0
1357,1.3004093,0.8699722,-2.2999115,1.6694825,1.7523193,1.5600952,73.0
1358,1.5011787,1.6738701,-2.5095673,1.6694825,1.7523193,1.5600952,73.0
1359,1.5011787,1.6738701,-2.5095673,1.4984986,2.175,1.7661256,73.0
1360,0.87333107,2.1708221,-2.2219543,1.4984986,2.175,1.7661256,73.0
1361,0.87333107,2.1708221,-2.2219543,1.1182984,2.441565,1.9275513,73.0
1362,-0.30853748,2.1576405,-1.7299805,1.1182984,2.441565,1.9275513,73.0
1363,-0.30853748,2.1576405,-1.7299805,0.6637573,2.5700684,2.078357,73.0
1364,-1.4705238,1.7783222,-1.3123474,0.6637573,2.5700684,2.078357,73.0
1365,-1.4705238,1.7783222,-1.3123474,0.21983643,2.5859985,2.2100465,73.0
1366,-2.2527618,1.3303719,-1.0840454,0.21983643,2.5859985,2.2100465,73.0
1367,-2.2527618,1.3303719,-1.0840454,-0.10089111,2.5190918,2.3279297,73.0
1368,-2.638916,0.9908714,-1.0218658,-0.10089111,2.5190918,2.3279297,73.0
1369,-2.638916,0.9908714,-1.0218658,-0.28674316,2.4128907,2.4288208,73.0
1370,-2.8000612,0.7798538,-1.0886383,-0.28674316,2.4128907,2.4288208,73.0
1371,-2.8000612,0.7798538,-1.0886383,-0.32603762,2.2812011,2.4840455,73.0
1372,-2.8179665,0.65447426,-1.1670074,-0.32603762,2.2812011,2.4840455,73.0
1373,-2.8179665,0.65447426,-1.1670074,-0.23258057,2.1325195,2.4840455,73.0
1374,-2.7027988,0.5623627,-1.1227264,-0.23258057,2.1325195,2.4840455,73.0
1375,-2.7027988,0.5623627,-1.1227264,0.0063720704,1.9657837,2.4266968,73.0
1376,-2.453292,0.52206993,-0.93930054,0.0063720704,1.9657837,2.4266968,73.0
1377,-2.453292,0.52206993,-0.93930054,0.31966552,1.7905518,2.2992554,73.0
1378,-2.108508,0.5729904,-0.8013916,0.31966552,1.7905518,2.2992554,73.0
1379,-2.108508,0.5729904,-0.8013916,0.58198243,1.629126,2.1049073,73.0
1380,-1.7563496,0.7303524,-0.8462219,0.58198243,1.629126,2.1049073,73.0
1381,-1.7563496,0.7303524,-0.8462219,0.6903076,1.4698242,1.8648926,73.0
1382,-1.4667983,0.95160484,-0.98828125,0.6903076,1.4698242,1.8648926,73.0
1383,-1.4667983,0.95160484,-0.98828125,0.58198243,1.3041505,1.5823975,73.0
1384,-1.4667983,0.95160484,-0.98828125,0.3345337,1.1044922,1.26698,73.0
1385,-1.2826548,1.1319733,-1.0413513,0.3345337,1.1044922,1.26698,73.0
1386,-1.1528935,1.0147705,-0.4875946,0.3345337,1.1044922,1.26698,73.0
1387,-1.1528935,1.0147705,-0.4875946,0.004248047,0.8506714,0.904834,73.0
1388,-1.1528935,1.0147705,-0.4875946,-0.29736328,0.53100586,0.47578126,73.0
1389,-1.1528935,1.0147705,-0.4875946,-0.5140137,0.14974366,-0.015930176,73.0
1390,-0.92231464,0.81181717,-0.39007568,-0.5140137,0.14974366,-0.015930176,73.0
1391,0.5454736,-0.39563942,0.56433105,-0.5140137,0.14974366,-0.015930176,73.0
1392,0.5454736,-0.39563942,0.56433105,-0.63720703,-0.28780517,-0.54693604,73.0
1393,0.5454736,-0.39563942,0.56433105,-0.6414551,-0.99510497,-1.3253907,73.0
1394,0.5454736,-0.39563942,0.56433105,-0.62764895,-1.2308716,-1.5792115,73.0
1395,1.5304341,-0.44433212,0.5928345,-0.62764895,-1.2308716,-1.5792115,73.0
1396,1.5304341,-0.44433212,0.5928345,-0.62127686,-1.7523193,-2.1155274,73.0
1397,2.4894724,-0.57266617,0.6337433,-0.62127686,-1.7523193,-2.1155274,73.0
1398,2.4894724,-0.57266617,0.6337433,-0.4980835,-2.266333,-2.6051147,73.0
1399,2.9234753,-0.8947792,0.90385437,-0.4980835,-2.266333,-2.6051147,73.0
1400,2.9234753,-0.8947792,0.90385437,-0.1901001,-2.797339,-3.0182374,73.0
1401,2.7213488,-1.2752228,1.5174408,-0.1901001,-2.797339,-3.0182374,73.0
1402,2.7213488,-1.2752228,1.5174408,0.40144044,-3.3740113,-3.2848022,73.0
1403,2.2967815,-1.5496464,2.3112335,0.40144044,-3.3740113,-3.2848022,73.0
1404,2.2967815,-1.5496464,2.3112335,1.3880494,-3.9485595,-3.3931274,73.0
1405,2.2690773,-1.4645824,2.6498566,1.3880494,-3.9485595,-3.3931274,73.0
1406,2.2690773,-1.4645824,2.6498566,2.5658205,-4.425403,-3.265686,73.0
1407,2.7424583,-0.7675152,1.8977509,2.5658205,-4.425403,-3.265686,73.0
1408,2.7424583,-0.7675152,1.8977509,3.432422,-4.53479,-2.9460206,73.0
1409,3.105795,0.50852203,0.19470215,3.432422,-4.53479,-2.9460206,73.0
1410,3.105795,0.50852203,0.19470215,3.3655152,-4.072815,-2.4851074,73.0
1411,2.5230274,2.0271778,-1.436264,3.3655152,-4.072815,-2.4851074,73.0
1412,2.5230274,2.0271778,-1.436264,1.9041871,-3.0670898,-1.983838,73.0
1413,0.9420185,3.1419086,-2.046997,1.9041871,-3.0670898,-1.983838,73.0
1414,0.9420185,3.1419086,-2.046997,-0.27612305,-1.987024,-1.4390259,73.0
1415,-0.73555756,3.1735725,-1.4710236,-0.27612305,-1.987024,-1.4390259,73.0
1416,-0.73555756,3.1735725,-1.4710236,-2.0942872,-1.0864381,-0.86766356,73.0
1417,-1.7903385,2.0530052,-0.25679016,-2.0942872,-1.0864381,-0.86766356,73.0
1418,-1.7903385,2.0530052,-0.25679016,-3.1308105,-0.35789797,-0.23151855,73.0
1419,-2.3215532,0.3471527,0.8317261,-3.1308105,-0.35789797,-0.23151855,73.0
1420,-2.3215532,0.3471527,0.8317261,-3.6501343,0.19222413,0.27718505,73.0
1421,-2.610734,-1.3716183,1.3468018,-3.6501343,0.19222413,0.27718505,73.0
1422,-2.610734,-1.3716183,1.3468018,-3.6883667,0.6117188,0.5777344,73.0
1423,-2.7344494,-2.6835861,1.4399261,-3.6883667,0.6117188,0.5777344,73.0
1424,-2.7344494,-2.6835861,1.4399261,-3.3750732,0.8846558,0.6573853,73.0
1425,-2.7321157,-3.31324,1.4688721,-3.3750732,0.8846558,0.6573853,73.0
1426,-2.7321157,-3.31324,1.4688721,-2.9311523,1.0131592,0.5883545,73.0
1427,-2.6718378,-3.3364449,1.5394745,-2.9311523,1.0131592,0.5883545,73.0
1428,-2.6718378,-3.3364449,1.5394745,-2.3799684,0.99510497,0.4088745,73.0
1429,-2.5343084,-2.9722805,1.5805359,-2.3799684,0.99510497,0.4088745,73.0
1430,-2.5343084,-2.9722805,1.5805359,-1.7863038,0.8612915,0.16036378,73.0
1431,-2.2387261,-2.3914108,1.5496063,-1.7863038,0.8612915,0.16036378,73.0
1432,-2.2387261,-2.3914108,1.5496063,-1.2234375,0.62977296,-0.08496094,73.0
1433,-1.7966938,-1.7621155,1.4515381,-1.2234375,0.62977296,-0.08496094,73.0
1434,-1.7966938,-1.7621155,1.4515381,-0.79119873,0.35046387,-0.30373535,73.0
1435,-1.2807264,-1.2610607,1.3053436,-0.79119873,0.35046387,-0.30373535,73.0
1436,-1.2807264,-1.2610607,1.3053436,-0.55755615,0.0361084,-0.47578126,73.0
1437,-0.71524286,-0.9802723,1.1202393,-0.55755615,0.0361084,-0.47578126,73.0
1438,-0.71524286,-0.9802723,1.1202393,-0.46622315,-0.24957275,-0.56605226,73.0
1439,-0.18984604,-0.9237442,0.905365,-0.46622315,-0.24957275,-0.56605226,73.0
1440,-0.18984604,-0.9237442,0.905365,-0.3079834,-0.47578126,-0.5649902,73.0
1441,-0.18984604,-0.9237442,0.905365,-0.0021240234,-0.6467652,-0.5065796,73.0
1442,0.2475009,-0.9952202,0.70388794,-0.0021240234,-0.6467652,-0.5065796,73.0
1443,2.489871,-0.79943466,0.2441101,-0.0021240234,-0.6467652,-0.5065796,73.0
1444,2.489871,-0.79943466,0.2441101,-0.0021240234,-0.6467652,-0.5065796,72.0
1445,2.489871,-0.79943466,0.2441101,0.4354248,-0.7476563,-0.41312256,72.0
1446,2.489871,-0.79943466,0.2441101,0.8952759,-0.7657105,-0.2899292,72.0
1447,2.489871,-0.79943466,0.2441101,1.2085694,-0.68499756,-0.1539917,72.0
1448,3.2549095,-0.24253845,-0.22227478,1.2085694,-0.68499756,-0.1539917,72.0
1449,3.2549095,-0.24253845,-0.22227478,1.1926392,-0.5649902,-0.04885254,72.0
1450,4.266074,0.2631111,-0.57421875,1.1926392,-0.5649902,-0.04885254,72.0
1451,4.266074,0.2631111,-0.57421875,0.9398804,-0.26019287,0.09770508,72.0
1452,4.6468315,0.5108185,-0.4128723,0.9398804,-0.26019287,0.09770508,72.0
1453,4.6468315,0.5108185,-0.4128723,0.77526855,0.0361084,0.24744873,72.0
1454,3.825241,0.35677528,0.23223877,0.77526855,0.0361084,0.24744873,72.0
1455,3.825241,0.35677528,0.23223877,0.8464233,0.22408448,0.4078125,72.0
1456,2.5000248,-0.04663658,0.64437866,0.8464233,0.22408448,0.4078125,72.0
1457,2.5000248,-0.04663658,0.64437866,1.3307008,0.3802002,0.58304447,72.0
1458,1.5012646,-0.18816376,0.09489441,1.3307008,0.3802002,0.58304447,72.0
1459,1.5012646,-0.18816376,0.09489441,1.983838,0.635083,0.79226077,72.0
1460,1.0643425,0.32429695,-1.1407471,1.983838,0.635083,0.79226077,72.0
1461,1.0643425,0.32429695,-1.1407471,2.5095336,0.99085695,0.99510497,72.0
1462,0.9075899,1.3478527,-2.2009583,2.5095336,0.99085695,0.99510497,72.0
1463,0.9075899,1.3478527,-2.2009583,2.613611,1.4209718,1.2021973,72.0
1464,0.6704807,2.4137554,-2.5932922,2.613611,1.4209718,1.2021973,72.0
1465,0.6704807,2.4137554,-2.5932922,2.257837,1.8309082,1.3784913,72.0
1466,0.14949512,3.0294285,-2.387558,2.257837,1.8309082,1.3784913,72.0
1467,0.14949512,3.0294285,-2.387558,1.5643433,2.163318,1.5271729,72.0
1468,-0.67266464,2.9048786,-1.9097443,1.5643433,2.163318,1.5271729,72.0
1469,-0.67266464,2.9048786,-1.9097443,0.86978763,2.35979,1.6238159,72.0
1470,-1.5769749,2.19944,-1.4086914,0.86978763,2.35979,1.6238159,72.0
1471,-1.5769749,2.19944,-1.4086914,0.27718505,2.436255,1.7098389,72.0
1472,-2.3091145,1.3640213,-1.0517578,0.27718505,2.436255,1.7098389,72.0
1473,-2.3091145,1.3640213,-1.0517578,-0.17416993,2.4298828,1.7693115,72.0
1474,-2.7752943,0.746624,-0.9494171,-0.17416993,2.4298828,1.7693115,72.0
1475,-2.7752943,0.746624,-0.9494171,-0.43861085,2.3725343,1.8001099,72.0
1476,-2.9553547,0.41551208,-1.0432281,-0.43861085,2.3725343,1.8001099,72.0
1477,-2.9553547,0.41551208,-1.0432281,-0.5501221,2.2907593,1.8043579,72.0
1478,-2.8873062,0.2730713,-1.1721039,-0.5501221,2.2907593,1.8043579,72.0
1479,-2.8873062,0.2730713,-1.1721039,-0.542688,2.1973023,1.7788696,72.0
1480,-2.6689634,0.2160778,-1.2033386,-0.542688,2.1973023,1.7788696,72.0
1481,-2.6689634,0.2160778,-1.2033386,-0.44710693,2.085791,1.7278931,72.0
1482,-2.4150171,0.19368744,-1.1063843,-0.44710693,2.085791,1.7278931,72.0
1483,-2.4150171,0.19368744,-1.1063843,-0.29948732,1.9445435,1.6493043,72.0
1484,-2.1464424,0.19898033,-0.9384613,-0.29948732,1.9445435,1.6493043,72.0
1485,-2.1464424,0.19898033,-0.9384613,-0.15611573,1.7841797,1.5335449,72.0
1486,-1.8610139,0.22706604,-0.78260803,-0.15611573,1.7841797,1.5335449,72.0
1487,-1.8610139,0.22706604,-0.78260803,-0.047790527,1.5940796,1.3763672,72.0
1488,-1.557097,0.2682495,-0.6634674,-0.047790527,1.5940796,1.3763672,72.0
1489,-1.557097,0.2682495,-0.6634674,-0.0010620117,1.3806152,1.1862671,72.0
1490,-1.2309804,0.31383133,-0.56863403,-0.0010620117,1.3806152,1.1862671,72.0
1491,-1.2309804,0.31383133,-0.56863403,-0.022302246,1.1459106,0.9589966,72.0
1492,-1.2309804,0.31383133,-0.56863403,-0.11151123,0.8846558,0.6881836,72.0
1493,-0.87935257,0.36533546,-0.477417,-0.11151123,0.8846558,0.6881836,72.0
1494,0.25325632,0.32073593,-0.15444946,-0.11151123,0.8846558,0.6881836,72.0
1495,0.25325632,0.32073593,-0.15444946,-0.28461915,0.60959476,0.35683593,72.0
1496,0.25325632,0.32073593,-0.15444946,-0.5055176,0.29736328,-0.038232423,72.0
1497,0.25325632,0.32073593,-0.15444946,-0.71367186,-0.04460449,-0.47365722,72.0
1498,0.6969657,-0.023086548,0.11982727,-0.71367186,-0.04460449,-0.47365722,72.0
1499,0.6969657,-0.023086548,0.11982727,-0.8517334,-0.41524658,-0.9197022,72.0
1500,1.2875533,-0.31467438,0.34683228,-0.8517334,-0.41524658,-0.9197022,72.0
1501,1.2875533,-0.31467438,0.34683228,-0.99722904,-0.8294312,-1.4262818,72.0
1502,2.1256113,-0.5623474,0.5038147,-0.99722904,-0.8294312,-1.4262818,72.0
1503,2.1256113,-0.5623474,0.5038147,-1.0694458,-1.3137085,-1.9466676,72.0
1504,2.6192265,-0.92912674,0.76860046,-1.0694458,-1.3137085,-1.9466676,72.0
1505,2.6192265,-0.92912674,0.76860046,-0.8867798,-1.8245362,-2.3990846,72.0
1506,2.1863966,-1.4047146,1.379303,-0.8867798,-1.8245362,-2.3990846,72.0
1507,2.1863966,-1.4047146,1.379303,-0.33984375,-2.436255,-2.712378,72.0
1508,1.1412315,-1.7715874,2.311264,-0.33984375,-2.436255,-2.712378,72.0
1509,1.1412315,-1.7715874,2.311264,0.6149048,-3.0426636,-2.817517,72.0
1510,0.48648357,-1.7738991,3.009903,0.6149048,-3.0426636,-2.817517,72.0
1511,0.48648357,-1.7738991,3.009903,1.8755127,-3.6522584,-2.7559204,72.0
1512,0.87217045,-1.2539711,2.7855682,1.8755127,-3.6522584,-2.7559204,72.0
1513,0.87217045,-1.2539711,2.7855682,3.1265626,-4.12804,-2.543518,72.0
1514,2.1627264,-0.21931458,1.3525696,3.1265626,-4.12804,-2.543518,72.0
1515,2.1627264,-0.21931458,1.3525696,3.9082031,-4.162024,-2.2397828,72.0
1516,3.2116623,1.2377815,-0.7024231,3.9082031,-4.162024,-2.2397828,72.0
1517,3.2116623,1.2377815,-0.7024231,3.4823365,-3.5460572,-1.8500245,72.0
1518,2.7337704,2.735672,-2.1363068,3.4823365,-3.5460572,-1.8500245,72.0
1519,2.7337704,2.735672,-2.1363068,1.6036377,-2.5477662,-1.5346069,72.0
1520,1.0114422,3.5924568,-2.2171783,1.6036377,-2.5477662,-1.5346069,72.0
1521,1.0114422,3.5924568,-2.2171783,-0.74871826,-1.630188,-1.1448487,72.0
1522,-0.64048004,3.2404099,-1.173111,-0.74871826,-1.630188,-1.1448487,72.0
1523,-0.64048004,3.2404099,-1.173111,-2.6157348,-0.8602295,-0.68287355,72.0
1524,-1.5357599,1.7492619,0.2496643,-2.6157348,-0.8602295,-0.68287355,72.0
1525,-1.5357599,1.7492619,0.2496643,-3.5439332,-0.26975098,-0.118945315,72.0
1526,-1.9347486,-0.2144928,1.2918701,-3.5439332,-0.26975098,-0.118945315,72.0
1527,-1.9347486,-0.2144928,1.2918701,-3.7690797,0.14018555,0.271875,72.0
1528,-2.1528034,-1.9469833,1.6392975,-3.7690797,0.14018555,0.271875,72.0
1529,-2.1528034,-1.9469833,1.6392975,-3.4653442,0.41843262,0.4694092,72.0
1530,-2.246132,-2.982563,1.5745392,-3.4653442,0.41843262,0.4694092,72.0
1531,-2.246132,-2.982563,1.5745392,-2.9226563,0.5522461,0.47578126,72.0
1532,-2.2277164,-3.2481728,1.5327759,-2.9226563,0.5522461,0.47578126,72.0
1533,-2.2277164,-3.2481728,1.5327759,-2.2939453,0.5798584,0.34940186,72.0
1534,-2.100191,-2.9627228,1.6038971,-2.2939453,0.5798584,0.34940186,72.0
1535,-2.100191,-2.9627228,1.6038971,-1.718335,0.5129517,0.13699952,72.0
1536,-1.8823624,-2.387352,1.6562958,-1.718335,0.5129517,0.13699952,72.0
1537,-1.8823624,-2.387352,1.6562958,-1.2213135,0.35046387,-0.10620117,72.0
1538,-1.5478573,-1.6993484,1.6137238,-1.2213135,0.35046387,-0.10620117,72.0
1539,-1.5478573,-1.6993484,1.6137238,-0.82836914,0.13062744,-0.30479738,72.0
1540,-1.1560836,-1.0778389,1.4911194,-0.82836914,0.13062744,-0.30479738,72.0
1541,-1.1560836,-1.0778389,1.4911194,-0.63720703,-0.107263185,-0.44498292,72.0
1542,-0.7900524,-0.7429352,1.3006592,-0.63720703,-0.107263185,-0.44498292,72.0
1543,-0.7900524,-0.7429352,1.3006592,-0.5671143,-0.34727785,-0.55755615,72.0
1544,-0.38698578,-0.74388504,1.0917816,-0.5671143,-0.34727785,-0.55755615,72.0
1545,-0.38698578,-0.74388504,1.0917816,-0.5671143,-0.34727785,-0.55755615,73.0
1546,-0.38698578,-0.74388504,1.0917816,-0.44498292,-0.53525394,-0.6053467,73.0
1547,-0.38698578,-0.74388504,1.0917816,-0.24320069,-0.6637573,-0.6117188,73.0
1548,0.05015278,-0.9208164,0.88316345,-0.24320069,-0.6637573,-0.6117188,73.0
1549,2.104844,-1.143673,0.5960541,-0.24320069,-0.6637573,-0.6117188,73.0
1550,2.104844,-1.143673,0.5960541,0.0637207,-0.7423462,-0.59897465,73.0
1551,2.104844,-1.143673,0.5960541,0.4354248,-0.77102053,-0.57242435,73.0
1552,2.104844,-1.143673,0.5960541,0.7476563,-0.72854006,-0.5246338,73.0
1553,2.9324713,-0.743248,0.22035217,0.7476563,-0.72854006,-0.5246338,73.0
1554,2.9324713,-0.743248,0.22035217,0.83686525,-0.6881836,-0.5012695,73.0
1555,4.18626,-0.45929527,-0.06866455,0.83686525,-0.6881836,-0.5012695,73.0
1556,4.18626,-0.45929527,-0.06866455,0.7965088,-0.54587406,-0.47471926,73.0
1557,5.1850796,-0.402483,0.05064392,0.7965088,-0.54587406,-0.47471926,73.0
1558,5.1850796,-0.402483,0.05064392,0.7954468,-0.30054933,-0.36427003,73.0
1559,4.899309,-0.5604496,0.56903076,0.7954468,-0.30054933,-0.36427003,73.0
1560,4.899309,-0.5604496,0.56903076,1.0036011,-0.07646485,-0.18797608,73.0
1561,3.3086681,-0.6897049,0.8762207,1.0036011,-0.07646485,-0.18797608,73.0
1562,3.3086681,-0.6897049,0.8762207,1.450708,0.22514649,0.13699952,73.0
1563,1.279417,-0.3501053,0.22038269,1.450708,0.22514649,0.13699952,73.0
1564,1.279417,-0.3501053,0.22038269,1.9360474,0.5883545,0.5692383,73.0
1565,-0.054872513,0.6449528,-1.2772675,1.9360474,0.5883545,0.5692383,73.0
1566,-0.054872513,0.6449528,-1.2772675,2.1728761,1.0662597,1.0227174,73.0
1567,-0.24994087,1.9272537,-2.6594543,2.1728761,1.0662597,1.0227174,73.0
1568,-0.24994087,1.9272537,-2.6594543,2.0199463,1.6556762,1.4230957,73.0
1569,0.19474983,2.9184875,-3.245224,2.0199463,1.6556762,1.4230957,73.0
1570,0.19474983,2.9184875,-3.245224,1.4592041,2.3045654,1.7321411,73.0
1571,0.40743542,3.174511,-3.0529175,1.4592041,2.3045654,1.7321411,73.0
1572,0.40743542,3.174511,-3.0529175,0.7582764,2.901416,1.9148072,73.0
1573,-0.13994503,2.6794033,-2.358307,0.7582764,2.901416,1.9148072,73.0
1574,-0.13994503,2.6794033,-2.358307,0.07115479,3.2391357,2.061365,73.0
1575,-1.2648735,1.7637005,-1.4917297,0.07115479,3.2391357,2.061365,73.0
1576,-1.2648735,1.7637005,-1.4917297,-0.52888185,3.3209107,2.1505737,73.0
1577,-2.3868742,0.85168266,-0.796402,-0.52888185,3.3209107,2.1505737,73.0
1578,-2.3868742,0.85168266,-0.796402,-0.9197022,3.1828492,2.2015502,73.0
1579,-3.108389,0.24532318,-0.44999695,-0.9197022,3.1828492,2.2015502,73.0
1580,-3.108389,0.24532318,-0.44999695,-1.1193603,2.9173462,2.1930542,73.0
1581,-3.3620892,-0.049627304,-0.43510437,-1.1193603,2.9173462,2.1930542,73.0
1582,-3.3620892,-0.049627304,-0.43510437,-1.0970582,2.5913086,2.1208375,73.0
1583,-3.2992296,-0.17164803,-0.5986786,-1.0970582,2.5913086,2.1208375,73.0
1584,-3.2992296,-0.17164803,-0.5986786,-0.90058595,2.2493408,1.993396,73.0
1585,-3.0986977,-0.1966095,-0.78712463,-0.90058595,2.2493408,1.993396,73.0
1586,-3.0986977,-0.1966095,-0.78712463,-0.5703003,1.9254273,1.8213501,73.0
1587,-2.847208,-0.14766884,-0.91111755,-0.5703003,1.9254273,1.8213501,73.0
1588,-2.847208,-0.14766884,-0.91111755,-0.16354981,1.632312,1.6100098,73.0
1589,-2.536531,-0.016830444,-0.95939636,-0.16354981,1.632312,1.6100098,73.0
1590,-2.536531,-0.016830444,-0.95939636,0.22939454,1.364685,1.3731812,73.0
1591,-2.1737437,0.17344856,-0.94696045,0.22939454,1.364685,1.3731812,73.0
1592,-2.1737437,0.17344856,-0.94696045,0.5649902,1.1098022,1.1236085,73.0
1593,-1.8242126,0.39024734,-0.8835144,0.5649902,1.1098022,1.1236085,73.0
1594,-1.8242126,0.39024734,-0.8835144,0.73597413,0.8708496,0.8846558,73.0
1595,-1.5479441,0.6306076,-0.802948,0.73597413,0.8708496,0.8846558,73.0
1596,-1.5479441,0.6306076,-0.802948,0.68287355,0.631897,0.6531372,73.0
1597,-1.5479441,0.6306076,-0.802948,0.5065796,0.3812622,0.42692873,73.0
1598,-1.307838,0.8042526,-0.70466614,0.5065796,0.3812622,0.42692873,73.0
1599,-0.36461735,0.7300968,-0.30871582,0.5065796,0.3812622,0.42692873,73.0
1600,-0.36461735,0.7300968,-0.30871582,0.30054933,0.1178833,0.18160401,73.0
1601,-0.36461735,0.7300968,-0.30871582,0.15080567,-0.15611573,-0.12000733,73.0
1602,-0.36461735,0.7300968,-0.30871582,0.07115479,-0.45666504,-0.49064943,73.0
1603,0.30542564,0.37732697,0.015777588,0.07115479,-0.45666504,-0.49064943,73.0
1604,0.30542564,0.37732697,0.015777588,0.0541626,-0.77102053,-0.8857178,73.0
1605,0.97499275,0.07991409,0.276474,0.0541626,-0.77102053,-0.8857178,73.0
1606,0.97499275,0.07991409,0.276474,0.033984374,-1.0864381,-1.2999023,73.0
1607,1.8393812,-0.116708755,0.35882568,0.033984374,-1.0864381,-1.2999023,73.0
1608,1.8393812,-0.116708755,0.35882568,-0.06584473,-1.4379638,-1.7491333,73.0
1609,2.7915487,-0.23794746,0.36358643,-0.06584473,-1.4379638,-1.7491333,73.0
1610,2.7915487,-0.23794746,0.36358643,-0.18797608,-1.8054199,-2.1473877,73.0
1611,3.2169056,-0.40169907,0.5673065,-0.18797608,-1.8054199,-2.1473877,73.0
1612,3.2169056,-0.40169907,0.5673065,-0.24001466,-2.2089844,-2.4681153,73.0
1613,2.7273207,-0.7466755,1.2200165,-0.24001466,-2.2089844,-2.4681153,73.0
1614,2.7273207,-0.7466755,1.2200165,0.06584473,-2.71344,-2.6550293,73.0
1615,1.555294,-1.2398567,2.329071,0.06584473,-2.71344,-2.6550293,73.0
1616,1.555294,-1.2398567,2.329071,1.0152832,-3.2763062,-2.6539674,73.0
1617,0.625803,-1.5158596,3.2966766,1.0152832,-3.2763062,-2.6539674,73.0
1618,0.625803,-1.5158596,3.2966766,2.4086425,-3.8412964,-2.450061,73.0
1619,0.6665602,-1.1201591,3.2092896,2.4086425,-3.8412964,-2.450061,73.0
1620,0.6665602,-1.1201591,3.2092896,3.7701416,-4.2161865,-2.0709229,73.0
1621,1.6284142,0.18041039,1.5278931,3.7701416,-4.2161865,-2.0709229,73.0
1622,1.6284142,0.18041039,1.5278931,4.34469,-4.015466,-1.6163819,73.0
1623,2.478159,2.270195,-1.02948,4.34469,-4.015466,-1.6163819,73.0
1624,2.478159,2.270195,-1.02948,3.0203614,-3.0362916,-1.1236085,73.0
1625,2.1144733,4.1442184,-2.8479614,3.0203614,-3.0362916,-1.1236085,73.0
1626,2.1144733,4.1442184,-2.8479614,0.5055176,-1.8659546,-0.8782837,73.0
1627,0.7683735,4.4638977,-2.978012,0.5055176,-1.8659546,-0.8782837,73.0
1628,0.7683735,4.4638977,-2.978012,-1.6185058,-0.88253176,-0.58623046,73.0
1629,-0.5970192,3.066431,-1.6604156,-1.6185058,-0.88253176,-0.58623046,73.0
1630,-0.5970192,3.066431,-1.6604156,-2.9428346,-0.118945315,-0.18797608,73.0
1631,-1.5048866,0.9007778,0.1073761,-2.9428346,-0.118945315,-0.18797608,73.0
1632,-1.5048866,0.9007778,0.1073761,-3.6565063,0.44816896,0.24320069,73.0
