,accx,accy,accz,gyrox,gyroy,gyroz,heart rate
1,walk,walk,walk,walk,walk,walk,walk
2,0.0,0.0,0.0,-0.0053100586,0.19434814,0.11363526,0.0
3,-6.8264894,-59.291553,32.2004,-0.0053100586,0.19434814,0.11363526,0.0
4,-5.2982645,-47.595673,25.903316,-0.0053100586,0.19434814,0.11363526,0.0
5,-5.2982645,-47.595673,25.903316,0.11151123,-0.10301514,0.032922365,0.0
6,-4.3675175,-38.297825,20.516062,0.11151123,-0.10301514,0.032922365,0.0
7,-4.3675175,-38.297825,20.516062,0.06159668,0.0361084,0.06796875,0.0
8,-3.5920734,-30.632572,16.260689,0.06159668,0.0361084,0.06796875,0.0
9,-3.5920734,-30.632572,16.260689,0.118945315,-0.004248047,0.033984374,0.0
10,-3.5920734,-30.632572,16.260689,0.08071289,0.03079834,0.013806152,0.0
11,-2.862831,-24.373917,12.994831,0.08071289,0.03079834,0.013806152,0.0
12,-2.2803526,-19.265419,10.44207,0.08071289,0.03079834,0.013806152,0.0
13,-2.2803526,-19.265419,10.44207,-0.070092775,0.078588866,-0.032922365,0.0
14,-1.8105373,-15.20998,8.45252,-0.070092775,0.078588866,-0.032922365,0.0
15,-1.8105373,-15.20998,8.45252,-0.10513916,0.09664307,-0.03079834,0.0
16,-1.4301925,-12.2042885,6.7713165,-0.10513916,0.09664307,-0.03079834,0.0
17,-1.4301925,-12.2042885,6.7713165,-0.098767094,0.06584473,-0.032922365,0.0
18,-1.1399059,-9.985199,5.2980576,-0.098767094,0.06584473,-0.032922365,0.0
19,-1.1399059,-9.985199,5.2980576,-0.04248047,0.029736329,-0.021240234,0.0
20,-0.9425645,-8.191185,4.11203,-0.04248047,0.029736329,-0.021240234,0.0
21,-0.9425645,-8.191185,4.11203,-0.015930176,-0.010620117,-0.0053100586,0.0
22,-0.8059683,-6.599457,3.2383652,-0.015930176,-0.010620117,-0.0053100586,0.0
23,-0.8059683,-6.599457,3.2383652,-0.025488282,-0.043542482,0.004248047,0.0
24,-0.65934944,-5.226219,2.6419754,-0.025488282,-0.043542482,0.004248047,0.0
25,-0.65934944,-5.226219,2.6419754,-0.052038576,-0.047790527,0.021240234,0.0
26,-0.5237684,-4.164299,2.2159958,-0.052038576,-0.047790527,0.021240234,0.0
27,-0.5237684,-4.164299,2.2159958,-0.028674318,-0.050976563,0.023364259,0.0
28,-0.40893173,-3.3439636,1.8423653,-0.028674318,-0.050976563,0.023364259,0.0
29,-0.40893173,-3.3439636,1.8423653,-0.004248047,-0.059472658,0.026550293,0.0
30,-0.31951618,-2.6507645,1.4856949,-0.004248047,-0.059472658,0.026550293,0.0
31,-0.31951618,-2.6507645,1.4856949,0.0021240234,-0.04885254,0.027612304,0.0
32,-0.30386734,-2.02845,1.1960144,0.0021240234,-0.04885254,0.027612304,0.0
33,-0.30386734,-2.02845,1.1960144,0.011682129,-0.03717041,0.0180542,0.0
34,-0.30914593,-1.558136,0.97519684,0.011682129,-0.03717041,0.0180542,0.0
35,-0.30914593,-1.558136,0.97519684,-0.011682129,-0.035046387,-0.016992187,0.0
36,-0.28713608,-1.2398453,0.81591034,-0.011682129,-0.035046387,-0.016992187,0.0
37,-0.28713608,-1.2398453,0.81591034,-0.014868164,-0.020178223,-0.040356446,0.0
38,-0.21571922,-1.0314026,0.70409393,-0.014868164,-0.020178223,-0.040356446,0.0
39,-0.21571922,-1.0314026,0.70409393,0.07646485,-0.021240234,-0.032922365,0.0
40,-0.14192295,-0.90618896,0.5497856,0.07646485,-0.021240234,-0.032922365,0.0
41,-0.14192295,-0.90618896,0.5497856,0.15930176,-0.039294433,-0.020178223,0.0
42,-0.069153786,-0.78215027,0.35829926,0.15930176,-0.039294433,-0.020178223,0.0
43,-0.069153786,-0.78215027,0.35829926,0.059472658,0.03186035,-0.016992187,0.0
44,-0.046497345,-0.5691681,0.20755005,0.059472658,0.03186035,-0.016992187,0.0
45,-0.056399345,-0.3379898,0.13886642,0.059472658,0.03186035,-0.016992187,0.0
46,-0.056399345,-0.3379898,0.13886642,0.10513916,-0.039294433,-0.050976563,0.0
47,-0.056399345,-0.3379898,0.13886642,-0.020178223,-0.013806152,-0.12319336,0.0
48,-0.02643013,-0.28040314,0.16496277,-0.020178223,-0.013806152,-0.12319336,0.0
49,-0.02643013,-0.28040314,0.16496277,-0.04460449,-0.010620117,-0.11682129,0.0
50,0.092344284,-0.35192108,0.1875,-0.04460449,-0.010620117,-0.11682129,0.0
51,0.092344284,-0.35192108,0.1875,-0.0063720704,0.022302246,-0.08283692,0.0
52,0.23013783,-0.38545227,0.18672943,-0.0063720704,0.022302246,-0.08283692,0.0
53,0.23013783,-0.38545227,0.18672943,-0.070092775,0.040356446,-0.038232423,0.0
54,0.23013783,-0.38545227,0.18672943,-0.16248779,0.06478272,0.016992187,0.0
55,0.2247839,-0.32283783,0.1664505,-0.16248779,0.06478272,0.016992187,0.0
56,0.15802479,-0.16622925,0.27376175,-0.16248779,0.06478272,0.016992187,0.0
57,0.15802479,-0.16622925,0.27376175,-0.26125488,0.11363526,0.029736329,0.0
58,0.16064835,-0.21829987,0.6471329,-0.26125488,0.11363526,0.029736329,0.0
59,0.16064835,-0.21829987,0.6471329,0.3462158,0.1263794,0.022302246,0.0
60,0.19825745,-0.6669464,0.8757248,0.3462158,0.1263794,0.022302246,0.0
61,0.19825745,-0.6669464,0.8757248,0.57561034,0.21983643,0.12213135,0.0
62,0.07853985,-0.71447754,0.58286667,0.57561034,0.21983643,0.12213135,0.0
63,0.07853985,-0.71447754,0.58286667,0.33134767,0.16248779,0.09664307,0.0
64,-0.41607475,0.18679047,-0.023174286,0.33134767,0.16248779,0.09664307,0.0
65,-0.41607475,0.18679047,-0.023174286,-0.050976563,0.0541626,0.0031860352,0.0
66,-0.8655987,0.9764862,-0.4768982,-0.050976563,0.0541626,0.0031860352,0.0
67,-0.8655987,0.9764862,-0.4768982,-0.13487549,0.046728518,-0.025488282,0.0
68,-0.7899523,0.76296234,-0.5262451,-0.13487549,0.046728518,-0.025488282,0.0
69,-0.7899523,0.76296234,-0.5262451,-0.060534667,0.032922365,-0.025488282,0.0
70,-0.4739418,0.03152466,-0.37014008,-0.060534667,0.032922365,-0.025488282,0.0
71,-0.4739418,0.03152466,-0.37014008,0.038232423,-0.016992187,-0.029736329,0.0
72,-0.35505676,-0.390625,-0.36273956,0.038232423,-0.016992187,-0.029736329,0.0
73,-0.35505676,-0.390625,-0.36273956,0.011682129,-0.07327881,-0.028674318,0.0
74,-0.42238808,-0.4204712,-0.5371399,0.011682129,-0.07327881,-0.028674318,0.0
75,-0.42238808,-0.4204712,-0.5371399,-0.057348635,-0.1083252,-0.022302246,0.0
76,-0.49293995,-0.31705475,-0.63468933,-0.057348635,-0.1083252,-0.022302246,0.0
77,-0.49293995,-0.31705475,-0.63468933,-0.12000733,-0.15080567,-0.020178223,0.0
78,-0.46261406,-0.29988098,-0.5116577,-0.12000733,-0.15080567,-0.020178223,0.0
79,-0.46261406,-0.29988098,-0.5116577,-0.12213135,-0.19222413,-0.027612304,0.0
80,-0.46261406,-0.29988098,-0.5116577,-0.008496094,-0.2516968,-0.04248047,0.0
81,-0.33433723,-0.5220947,-0.20053864,-0.008496094,-0.2516968,-0.04248047,0.0
82,-0.1494646,-0.8535385,0.079143524,-0.008496094,-0.2516968,-0.04248047,0.0
83,-0.1494646,-0.8535385,0.079143524,-0.09770508,-0.25700685,-0.016992187,0.0
84,-0.043863297,-0.8186798,0.14785004,-0.09770508,-0.25700685,-0.016992187,0.0
85,-0.043863297,-0.8186798,0.14785004,-0.3355957,-0.270813,0.039294433,0.0
86,-0.12897491,-0.30389404,-0.020088196,-0.3355957,-0.270813,0.039294433,0.0
87,-0.12897491,-0.30389404,-0.020088196,-0.6786255,-0.29417726,0.07646485,0.0
88,-0.32238197,0.40870667,-0.32918167,-0.6786255,-0.29417726,0.07646485,0.0
89,-0.32238197,0.40870667,-0.32918167,-1.1671509,-0.32497558,0.045666505,0.0
90,-0.52848625,1.0312576,-0.6215248,-1.1671509,-0.32497558,0.045666505,0.0
91,-0.52848625,1.0312576,-0.6215248,-1.1852051,-0.46516114,-0.07752686,0.0
92,-0.6850691,1.0653305,-0.8630028,-1.1852051,-0.46516114,-0.07752686,0.0
93,-0.6850691,1.0653305,-0.8630028,-0.73809814,-0.67650145,-0.28461915,0.0
94,-0.61981964,0.40205383,-0.9276695,-0.73809814,-0.67650145,-0.28461915,0.0
95,-0.61981964,0.40205383,-0.9276695,-0.41206056,-0.7827026,-0.40037844,0.0
96,-0.16348267,-0.3217926,-0.7273903,-0.41206056,-0.7827026,-0.40037844,0.0
97,-0.16348267,-0.3217926,-0.7273903,-0.49489745,-0.8379273,-0.49171144,0.0
98,0.2810421,-0.22932434,-0.56417465,-0.49489745,-0.8379273,-0.49171144,0.0
99,0.2810421,-0.22932434,-0.56417465,-1.0450195,-1.0195312,-0.56605226,0.0
100,0.2810421,-0.22932434,-0.56417465,-1.0450195,-1.0195312,-0.56605226,76.0
101,0.32898426,0.73329926,-0.66620636,-1.0450195,-1.0195312,-0.56605226,76.0
102,0.32898426,0.73329926,-0.66620636,-1.7332032,-1.1639649,-0.6573853,76.0
103,0.21887589,1.6539764,-0.8453064,-1.7332032,-1.1639649,-0.6573853,76.0
104,0.21887589,1.6539764,-0.8453064,-1.8691406,-1.4124756,-0.8358032,76.0
105,0.2512722,1.6007538,-0.9218979,-1.8691406,-1.4124756,-0.8358032,76.0
106,0.2512722,1.6007538,-0.9218979,-1.4400879,-1.7289551,-1.1427246,76.0
107,0.6045456,0.48182678,-0.6798668,-1.4400879,-1.7289551,-1.1427246,76.0
108,0.6045456,0.48182678,-0.6798668,-1.0949341,-1.8595825,-1.3476928,76.0
109,1.4239073,-0.87542725,-0.14456558,-1.0949341,-1.8595825,-1.3476928,76.0
110,1.4239073,-0.87542725,-0.14456558,-1.0237793,-1.721521,-1.5866455,76.0
111,2.197671,-1.1325684,0.21063995,-1.0237793,-1.721521,-1.5866455,76.0
112,2.197671,-1.1325684,0.21063995,-1.3965454,-1.7799317,-1.6779785,76.0
113,2.1827097,-0.074401855,0.21849823,-1.3965454,-1.7799317,-1.6779785,76.0
114,2.1827097,-0.074401855,0.21849823,-1.906311,-1.8956909,-1.7427613,76.0
115,1.701026,1.0714798,0.012187958,-1.906311,-1.8956909,-1.7427613,76.0
116,1.701026,1.0714798,0.012187958,-2.5859985,-1.9286133,-1.8510865,76.0
117,1.5256033,1.5100784,-0.22650528,-2.5859985,-1.9286133,-1.8510865,76.0
118,1.5256033,1.5100784,-0.22650528,-3.1286867,-1.8606446,-1.9987061,76.0
119,1.7325068,1.199028,-0.36608124,-3.1286867,-1.8606446,-1.9987061,76.0
120,1.7325068,1.199028,-0.36608124,-3.2497559,-1.6854126,-2.2089844,76.0
121,1.9541087,0.31746674,-0.42793655,-3.2497559,-1.6854126,-2.2089844,76.0
122,1.9541087,0.31746674,-0.42793655,-2.974695,-1.4432739,-2.3842163,76.0
123,1.9133968,-0.6368103,-0.44953918,-2.974695,-1.4432739,-2.3842163,76.0
124,1.9133968,-0.6368103,-0.44953918,-2.5116577,-1.2351197,-2.4489992,76.0
125,1.4996629,-1.1992874,-0.45396805,-2.5116577,-1.2351197,-2.4489992,76.0
126,1.4996629,-1.1992874,-0.45396805,-1.9742798,-1.1490967,-2.450061,76.0
127,0.85208654,-1.3030701,-0.45365143,-1.9742798,-1.1490967,-2.450061,76.0
128,0.85208654,-1.3030701,-0.45365143,-1.4942505,-1.1406006,-2.3874023,76.0
129,0.31410313,-1.1246567,-0.45261765,-1.4942505,-1.1406006,-2.3874023,76.0
130,0.31410313,-1.1246567,-0.45261765,-1.1055542,-1.1374146,-2.2950075,76.0
131,0.11406326,-0.9439163,-0.4477501,-1.1055542,-1.1374146,-2.2950075,76.0
132,0.11406326,-0.9439163,-0.4477501,-0.8092529,-1.1363525,-2.2079225,76.0
133,0.16479778,-0.8832092,-0.32078552,-0.8092529,-1.1363525,-2.2079225,76.0
134,0.16479778,-0.8832092,-0.32078552,-0.69349366,-1.1533448,-2.1346436,76.0
135,0.3085227,-0.86447906,-0.031822205,-0.69349366,-1.1533448,-2.1346436,76.0
136,0.3085227,-0.86447906,-0.031822205,-0.631897,-1.1321045,-2.0348146,76.0
137,0.48098564,-0.906868,0.24839401,-0.631897,-1.1321045,-2.0348146,76.0
138,0.48098564,-0.906868,0.24839401,-0.5065796,-1.0705079,-1.9509156,76.0
139,0.5425396,-1.0471573,0.41530228,-0.5065796,-1.0705079,-1.9509156,76.0
140,0.5425396,-1.0471573,0.41530228,-0.35152587,-1.0322754,-1.8287842,76.0
141,0.41447592,-1.181076,0.5172386,-0.35152587,-1.0322754,-1.8287842,76.0
142,0.41447592,-1.181076,0.5172386,-0.20284425,-0.9526245,-1.6832886,76.0
143,0.27776003,-1.1989594,0.6156349,-0.20284425,-0.9526245,-1.6832886,76.0
144,0.27776003,-1.1989594,0.6156349,-0.14018555,-0.8336792,-1.5239868,76.0
145,0.23254728,-1.1119003,0.6492691,-0.14018555,-0.8336792,-1.5239868,76.0
146,0.23254728,-1.1119003,0.6492691,-0.0998291,-0.7168579,-1.3742431,76.0
147,0.124453545,-1.0416718,0.5811844,-0.0998291,-0.7168579,-1.3742431,76.0
148,0.124453545,-1.0416718,0.5811844,-0.0010620117,-0.6637573,-1.2319336,76.0
149,-0.11650133,-1.0078354,0.50626755,-0.0010620117,-0.6637573,-1.2319336,76.0
150,-0.11650133,-1.0078354,0.50626755,0.08920898,-0.59260255,-1.0779419,76.0
151,-0.25225878,-0.98462677,0.5002785,0.08920898,-0.59260255,-1.0779419,76.0
152,-0.25225878,-0.98462677,0.5002785,0.19753419,-0.5055176,-0.9398804,76.0
153,-0.1899538,-1.0100479,0.49850082,0.19753419,-0.5055176,-0.9398804,76.0
154,-0.1899538,-1.0100479,0.49850082,0.33134767,-0.4598511,-0.82836914,76.0
155,0.019081593,-1.0707016,0.42742538,0.33134767,-0.4598511,-0.82836914,76.0
156,0.019081593,-1.0707016,0.42742538,0.45666504,-0.38657227,-0.7168579,76.0
157,0.37334633,-1.1045227,0.31508636,0.45666504,-0.38657227,-0.7168579,76.0
158,0.37334633,-1.1045227,0.31508636,0.5384399,-0.26019287,-0.56817627,76.0
159,0.7481642,-1.0897598,0.18996048,0.5384399,-0.26019287,-0.56817627,76.0
160,0.7481642,-1.0897598,0.18996048,0.57454836,-0.15080567,-0.34940186,76.0
161,1.0345907,-1.0064392,0.015468597,0.57454836,-0.15080567,-0.34940186,76.0
162,1.0345907,-1.0064392,0.015468597,0.632959,0.14018555,-0.0541626,76.0
163,0.93422794,-0.81829834,-0.15840149,0.632959,0.14018555,-0.0541626,76.0
164,0.93422794,-0.81829834,-0.15840149,0.61915284,0.20072022,0.3440918,76.0
165,0.18904495,-0.45025635,-0.3852768,0.61915284,0.20072022,0.3440918,76.0
166,0.18904495,-0.45025635,-0.3852768,0.76358646,0.19753419,0.72216797,76.0
167,-0.49821472,-0.1035614,-0.685894,0.76358646,0.19753419,0.72216797,76.0
168,-0.49821472,-0.1035614,-0.685894,1.0651978,0.22302246,1.0482056,76.0
169,-0.39692402,0.011634827,-0.7997513,1.0651978,0.22302246,1.0482056,76.0
170,-0.39692402,0.011634827,-0.7997513,1.4167236,0.28461915,1.3211426,76.0
171,0.2816062,-0.08622742,-0.6149483,1.4167236,0.28461915,1.3211426,76.0
172,0.2816062,-0.08622742,-0.6149483,1.8319702,0.38657227,1.538855,76.0
173,1.0280313,-0.18619537,-0.44275284,1.8319702,0.38657227,1.538855,76.0
174,1.0280313,-0.18619537,-0.44275284,2.083667,0.62977296,1.7703736,76.0
175,1.4112556,0.09866333,-0.5323372,2.083667,0.62977296,1.7703736,76.0
176,1.4112556,0.09866333,-0.5323372,2.0284424,0.80819094,2.078357,76.0
177,1.0439215,0.80301666,-0.73020554,2.0284424,0.80819094,2.078357,76.0
178,1.0439215,0.80301666,-0.73020554,1.9402955,0.8666016,2.3778443,76.0
179,0.12344265,1.4473953,-0.87021255,1.9402955,0.8666016,2.3778443,76.0
180,0.12344265,1.4473953,-0.87021255,1.9179932,0.84323734,2.5796266,76.0
181,-0.6191292,1.7638397,-0.947464,1.9179932,0.84323734,2.5796266,76.0
182,-0.6191292,1.7638397,-0.947464,1.902063,0.80394286,2.707068,76.0
183,-0.810379,1.8289642,-0.91112137,1.902063,0.80394286,2.707068,76.0
184,-0.810379,1.8289642,-0.91112137,1.9487915,0.80394286,2.795215,76.0
185,-0.65434575,1.7851105,-0.71102524,1.9487915,0.80394286,2.795215,76.0
186,-0.65434575,1.7851105,-0.71102524,2.0167603,0.83049315,2.8568115,76.0
187,-0.5970359,1.726181,-0.4263878,2.0167603,0.83049315,2.8568115,76.0
188,-0.5970359,1.726181,-0.4263878,2.0305665,0.87191164,2.9088502,76.0
189,-0.79592705,1.7211761,-0.23282242,2.0305665,0.87191164,2.9088502,76.0
190,-0.79592705,1.7211761,-0.23282242,1.8840088,0.90270996,2.9194703,76.0
191,-1.0278182,1.8538971,-0.2753067,1.8840088,0.90270996,2.9194703,76.0
192,-1.0278182,1.8538971,-0.2753067,1.6556762,0.9345703,2.8557496,76.0
193,-1.0979991,2.0124054,-0.49617386,1.6556762,0.9345703,2.8557496,76.0
194,-1.0979991,2.0124054,-0.49617386,1.4326538,0.9281983,2.7251222,76.0
195,-1.0635557,2.0528793,-0.6925583,1.4326538,0.9281983,2.7251222,76.0
196,-1.0635557,2.0528793,-0.6925583,1.263794,0.92501223,2.5690064,76.0
197,-1.0665183,1.9575043,-0.71660995,1.263794,0.92501223,2.5690064,76.0
198,-1.0665183,1.9575043,-0.71660995,1.1034302,0.9143921,2.4150147,76.0
199,-1.0665183,1.9575043,-0.71660995,1.1034302,0.9143921,2.4150147,76.0
200,-1.153337,1.8152466,-0.59682465,1.1034302,0.9143921,2.4150147,76.0
201,-1.153337,1.8152466,-0.59682465,0.9547486,0.87403566,2.262085,76.0
202,-1.2902236,1.6793823,-0.4941101,0.9547486,0.87403566,2.262085,76.0
203,-1.2902236,1.6793823,-0.4941101,0.8846558,0.77526855,2.1218994,76.0
204,-1.4472055,1.5498581,-0.4684677,0.8846558,0.77526855,2.1218994,76.0
205,-1.4472055,1.5498581,-0.4684677,0.83049315,0.631897,1.9434814,76.0
206,-1.4721079,1.4981384,-0.38926315,0.83049315,0.631897,1.9434814,76.0
207,-1.4721079,1.4981384,-0.38926315,0.6881836,0.53737795,1.718335,76.0
208,-1.2106209,1.4991455,-0.201828,0.6881836,0.53737795,1.718335,76.0
209,-1.2106209,1.4991455,-0.201828,0.48427734,0.4364868,1.3986695,76.0
210,-0.7577543,1.3906174,-0.075366974,0.48427734,0.4364868,1.3986695,76.0
211,-0.7577543,1.3906174,-0.075366974,0.2793091,0.3069214,0.9568726,76.0
212,-0.28764915,1.1129303,-0.10487366,0.2793091,0.3069214,0.9568726,76.0
213,-0.28764915,1.1129303,-0.10487366,0.07752686,0.1539917,0.5129517,76.0
214,0.02964592,0.7593155,-0.13023758,0.07752686,0.1539917,0.5129517,76.0
215,0.02964592,0.7593155,-0.13023758,-0.1529297,-0.0010620117,0.16142578,76.0
216,0.085240364,0.48204803,0.03926468,-0.1529297,-0.0010620117,0.16142578,76.0
217,0.085240364,0.48204803,0.03926468,-0.4078125,-0.19222413,-0.15505372,76.0
218,-0.020467758,0.40090942,0.32401276,-0.4078125,-0.19222413,-0.15505372,76.0
219,-0.020467758,0.40090942,0.32401276,-0.5522461,-0.38444826,-0.5076416,76.0
220,-0.018583775,0.34287262,0.5122261,-0.5522461,-0.38444826,-0.5076416,76.0
221,-0.018583775,0.34287262,0.5122261,-0.56817627,-0.4885254,-0.81987303,76.0
222,0.030323505,0.13552094,0.5765419,-0.56817627,-0.4885254,-0.81987303,76.0
223,0.030323505,0.13552094,0.5765419,-0.67225343,-0.61702883,-1.0705079,76.0
224,-0.32930565,0.00983429,0.6566086,-0.67225343,-0.61702883,-1.0705079,76.0
225,-0.32930565,0.00983429,0.6566086,-0.90058595,-0.75721437,-1.2213135,76.0
226,-0.9973192,0.009414673,0.74705124,-0.90058595,-0.75721437,-1.2213135,76.0
227,-0.9973192,0.009414673,0.74705124,-1.0216553,-0.95368654,-1.3912354,76.0
228,-1.3030434,-0.12662506,0.7654495,-1.0216553,-0.95368654,-1.3912354,76.0
229,-1.3030434,-0.12662506,0.7654495,-0.98129886,-1.175647,-1.6885986,76.0
230,-0.67743206,-0.51371765,0.80376434,-0.98129886,-1.175647,-1.6885986,76.0
231,-0.67743206,-0.51371765,0.80376434,-0.76464844,-1.2903442,-2.0549927,76.0
232,0.769578,-1.0911713,1.0111504,-0.76464844,-1.2903442,-2.0549927,76.0
233,0.769578,-1.0911713,1.0111504,-0.5129517,-1.1671509,-2.3109376,76.0
234,1.9767222,-1.611412,1.291111,-0.5129517,-1.1671509,-2.3109376,76.0
235,1.9767222,-1.611412,1.291111,-0.41949463,-1.0375855,-2.3035035,76.0
236,1.7896056,-1.7773819,1.4257965,-0.41949463,-1.0375855,-2.3035035,76.0
237,1.7896056,-1.7773819,1.4257965,-0.49064943,-0.9420044,-2.1017213,76.0
238,0.41841507,-1.4861908,1.3012199,-0.49064943,-0.9420044,-2.1017213,76.0
239,-0.95119286,-0.9219971,0.9802208,-0.49064943,-0.9420044,-2.1017213,76.0
240,-0.95119286,-0.9219971,0.9802208,-0.68074954,-0.90908206,-1.8595825,76.0
241,-0.95119286,-0.9219971,0.9802208,-0.8931519,-0.89208984,-1.7034668,76.0
242,-1.4864058,-0.4066925,0.6217499,-0.8931519,-0.89208984,-1.7034668,76.0
243,-1.4864058,-0.4066925,0.6217499,-1.1108643,-0.86766356,-1.6864747,76.0
244,-1.1678109,-0.33650208,0.3164444,-1.1108643,-0.86766356,-1.6864747,76.0
245,-1.1678109,-0.33650208,0.3164444,-1.3317627,-0.817749,-1.7427613,76.0
246,-0.49988556,-0.80261993,0.16127396,-1.3317627,-0.817749,-1.7427613,76.0
247,-0.49988556,-0.80261993,0.16127396,-1.4602661,-0.7412842,-1.8425903,76.0
248,0.07727671,-1.4498825,0.21229553,-1.4602661,-0.7412842,-1.8425903,76.0
249,0.07727671,-1.4498825,0.21229553,-1.5154908,-0.6403931,-1.9264892,76.0
250,0.40868425,-1.886795,0.43121338,-1.5154908,-0.6403931,-1.9264892,76.0
251,0.40868425,-1.886795,0.43121338,-1.5144287,-0.5564942,-1.9848999,76.0
252,0.5255432,-1.9658966,0.6178818,-1.5144287,-0.5564942,-1.9848999,76.0
253,0.5255432,-1.9658966,0.6178818,-1.4804443,-0.51188964,-1.9944581,76.0
254,0.48244667,-1.8183212,0.57619095,-1.4804443,-0.51188964,-1.9944581,76.0
255,0.48244667,-1.8183212,0.57619095,-1.3784913,-0.5543701,-1.9243653,76.0
256,0.4487872,-1.6799011,0.38838196,-1.3784913,-0.5543701,-1.9243653,76.0
257,0.4487872,-1.6799011,0.38838196,-1.2298096,-0.5766724,-1.812854,76.0
258,0.70505047,-1.6202164,0.26917648,-1.2298096,-0.5766724,-1.812854,76.0
259,0.70505047,-1.6202164,0.26917648,-1.0673218,-0.49277344,-1.719397,76.0
260,1.1229882,-1.5640182,0.28775406,-1.0673218,-0.49277344,-1.719397,76.0
261,1.1229882,-1.5640182,0.28775406,-1.0131592,-0.40356445,-1.6057618,76.0
262,1.2218528,-1.4925995,0.30648422,-1.0131592,-0.40356445,-1.6057618,76.0
263,1.2218528,-1.4925995,0.30648422,-0.98129886,-0.38763428,-1.4751343,76.0
264,0.9520426,-1.4534531,0.21232605,-0.98129886,-0.38763428,-1.4751343,76.0
265,0.9520426,-1.4534531,0.21232605,-0.8793457,-0.41099855,-1.3126465,76.0
266,0.85937595,-1.4659042,0.12420654,-0.8793457,-0.41099855,-1.3126465,76.0
267,0.85937595,-1.4659042,0.12420654,-0.7519043,-0.36320803,-1.171399,76.0
268,1.2840095,-1.5286407,0.15339279,-0.7519043,-0.36320803,-1.171399,76.0
269,1.2840095,-1.5286407,0.15339279,-0.541626,-0.29736328,-1.075818,76.0
270,1.862742,-1.6749039,0.2252388,-0.541626,-0.29736328,-1.075818,76.0
271,1.862742,-1.6749039,0.2252388,-0.25594482,-0.20284425,-0.9717407,76.0
272,2.037105,-1.7820358,0.2560463,-0.25594482,-0.20284425,-0.9717407,76.0
273,2.037105,-1.7820358,0.2560463,-0.1720459,-0.1731079,-0.72854006,76.0
274,1.7267056,-1.6209259,0.24630356,-0.1720459,-0.1731079,-0.72854006,76.0
275,1.7267056,-1.6209259,0.24630356,-0.12850343,-0.023364259,-0.4364868,76.0
276,1.2719893,-1.2295914,0.21492767,-0.12850343,-0.023364259,-0.4364868,76.0
277,1.2719893,-1.2295914,0.21492767,-0.016992187,0.14230958,-0.09770508,76.0
278,0.38402224,-0.84308624,0.19731903,-0.016992187,0.14230958,-0.09770508,76.0
279,0.38402224,-0.84308624,0.19731903,0.31223145,0.008496094,0.2888672,76.0
280,-0.5692105,-0.6477585,0.09429169,0.31223145,0.008496094,0.2888672,76.0
281,-0.5692105,-0.6477585,0.09429169,0.97386473,0.081774905,0.6149048,76.0
282,-0.4419651,-0.6904144,0.030303955,0.97386473,0.081774905,0.6149048,76.0
283,-0.4419651,-0.6904144,0.030303955,1.6429322,0.1720459,0.904834,76.0
284,0.47148895,-0.7542496,0.07828522,1.6429322,0.1720459,0.904834,76.0
285,0.47148895,-0.7542496,0.07828522,2.1134033,0.3717041,1.1544068,76.0
286,1.2601991,-0.48615265,0.015727997,2.1134033,0.3717041,1.1544068,76.0
287,1.2601991,-0.48615265,0.015727997,2.3119996,0.59472656,1.4602661,76.0
288,1.3131886,0.28913116,-0.15987778,2.3119996,0.59472656,1.4602661,76.0
289,1.3131886,0.28913116,-0.15987778,2.2482789,0.74871826,1.7852417,76.0
290,0.47356105,1.2623749,-0.3405609,2.2482789,0.74871826,1.7852417,76.0
291,0.47356105,1.2623749,-0.3405609,2.1388917,0.8209351,2.1080933,76.0
292,-0.70904183,1.9426041,-0.4832878,2.1388917,0.8209351,2.1080933,76.0
293,-0.70904183,1.9426041,-0.4832878,2.0401247,0.86978763,2.353418,76.0
294,-1.4498262,2.2193527,-0.5580025,2.0401247,0.86978763,2.353418,76.0
295,-1.4498262,2.2193527,-0.5580025,1.9307374,0.996167,2.5498903,76.0
296,-1.5883155,2.282051,-0.5220833,1.9307374,0.996167,2.5498903,76.0
297,-1.5883155,2.282051,-0.5220833,1.7841797,1.09281,2.709192,76.0
298,-1.6382914,2.309723,-0.48116684,1.7841797,1.09281,2.709192,76.0
299,-1.6382914,2.309723,-0.48116684,1.5908936,1.175647,2.8461914,76.0
300,-1.7482672,2.355919,-0.5614586,1.5908936,1.175647,2.8461914,76.0
301,-1.7482672,2.355919,-0.5614586,1.4284058,1.2361816,2.9109743,76.0
302,-1.7593436,2.3853607,-0.8210068,1.4284058,1.2361816,2.9109743,76.0
303,-1.7593436,2.3853607,-0.8210068,1.4284058,1.2361816,2.9109743,76.0
304,-1.7593436,2.3853607,-0.8210068,1.2945923,1.2531738,2.8759277,76.0
305,-1.6528606,2.388588,-1.1575623,1.2945923,1.2531738,2.8759277,76.0
306,-1.6528606,2.388588,-1.1575623,1.2138795,1.2096313,2.7899048,76.0
307,-1.4848986,2.346161,-1.341835,1.2138795,1.2096313,2.7899048,76.0
308,-1.4848986,2.346161,-1.341835,1.1852051,1.1597168,2.6614015,76.0
309,-1.2813878,2.2272491,-1.2768974,1.1852051,1.1597168,2.6614015,76.0
310,-1.2813878,2.2272491,-1.2768974,1.173523,1.1236085,2.4936035,76.0
311,-1.0134525,2.0636368,-1.069664,1.173523,1.1236085,2.4936035,76.0
312,-1.0134525,2.0636368,-1.069664,1.0938721,1.1161743,2.3003175,76.0
313,-0.7247634,1.9355164,-0.89149857,1.0938721,1.1161743,2.3003175,76.0
314,-0.7247634,1.9355164,-0.89149857,0.91014403,1.084314,2.0995972,76.0
315,-0.475636,1.873352,-0.90971756,0.91014403,1.084314,2.0995972,76.0
316,-0.475636,1.873352,-0.90971756,0.6414551,0.996167,1.8765748,76.0
317,-0.26824093,1.8504868,-1.041153,0.6414551,0.996167,1.8765748,76.0
318,-0.26824093,1.8504868,-1.041153,0.32603762,0.87403566,1.63125,76.0
319,-0.033501625,1.809906,-1.0652237,0.32603762,0.87403566,1.63125,76.0
320,-0.033501625,1.809906,-1.0652237,0.038232423,0.7614624,1.351941,76.0
321,0.24730778,1.6508789,-0.9508743,0.038232423,0.7614624,1.351941,76.0
322,0.24730778,1.6508789,-0.9508743,-0.22514649,0.5979126,1.0312134,76.0
323,0.4743719,1.3772583,-0.8123245,-0.22514649,0.5979126,1.0312134,76.0
324,0.4743719,1.3772583,-0.8123245,-0.43117675,0.41312256,0.69986576,76.0
325,0.5363946,1.0684891,-0.66191864,-0.43117675,0.41312256,0.69986576,76.0
326,0.5363946,1.0684891,-0.66191864,-0.5533081,0.21134034,0.3982544,76.0
327,0.32785845,0.8258743,-0.3806572,-0.5533081,0.21134034,0.3982544,76.0
328,0.32785845,0.8258743,-0.3806572,-0.72216797,-0.0361084,0.083898924,76.0
329,0.065179825,0.70220184,-0.029586792,-0.72216797,-0.0361084,0.083898924,76.0
330,0.065179825,0.70220184,-0.029586792,-0.8209351,-0.18585205,-0.24744873,76.0
331,0.015571594,0.5431595,0.19285965,-0.8209351,-0.18585205,-0.24744873,76.0
332,0.015571594,0.5431595,0.19285965,-0.8241211,-0.36639404,-0.52038574,76.0
333,-0.3085022,0.358078,0.3705101,-0.8241211,-0.36639404,-0.52038574,76.0
334,-0.3085022,0.358078,0.3705101,-0.91120607,-0.61915284,-0.77314454,76.0
335,-0.89084435,0.27329254,0.59542084,-0.91120607,-0.61915284,-0.77314454,76.0
336,-0.89084435,0.27329254,0.59542084,-0.8814697,-0.78164065,-1.002539,76.0
337,-1.0359054,0.06326294,0.7966118,-0.8814697,-0.78164065,-1.002539,76.0
338,-1.0359054,0.06326294,0.7966118,-0.8400513,-1.0057251,-1.2977784,76.0
339,-0.4985242,-0.3009796,0.99095154,-0.8400513,-1.0057251,-1.2977784,76.0
340,-0.4985242,-0.3009796,0.99095154,-0.7614624,-1.0959961,-1.6461182,76.0
341,0.6074796,-0.706337,1.2413101,-0.7614624,-1.0959961,-1.6461182,76.0
342,0.6074796,-0.706337,1.2413101,-0.54375,-0.99510497,-1.8956909,76.0
343,1.5143771,-1.1240997,1.5050125,-0.54375,-0.99510497,-1.8956909,76.0
344,1.5143771,-1.1240997,1.5050125,-0.49171144,-0.85385746,-1.9498535,76.0
345,1.2835965,-1.293747,1.5771179,-0.49171144,-0.85385746,-1.9498535,76.0
346,1.2835965,-1.293747,1.5771179,-0.6669434,-0.77526855,-1.901001,76.0
347,0.0339818,-0.9940033,1.2286377,-0.6669434,-0.77526855,-1.901001,76.0
348,0.0339818,-0.9940033,1.2286377,-0.9526245,-0.7986328,-1.8266602,76.0
349,-1.2841063,-0.52116394,0.5759163,-0.9526245,-0.7986328,-1.8266602,76.0
350,-1.2841063,-0.52116394,0.5759163,-1.0471436,-0.91120607,-1.8309082,76.0
351,-1.8809104,-0.49443054,0.09200668,-1.0471436,-0.91120607,-1.8309082,76.0
352,-1.8809104,-0.49443054,0.09200668,-1.0354614,-0.97386473,-1.9190552,76.0
353,-1.6578045,-0.9543228,0.22670746,-1.0354614,-0.97386473,-1.9190552,76.0
354,-1.6578045,-0.9543228,0.22670746,-1.0715698,-0.9759888,-2.0879152,76.0
355,-1.0773172,-1.4467239,0.8786545,-1.0715698,-0.9759888,-2.0879152,76.0
356,-1.0773172,-1.4467239,0.8786545,-1.0598878,-0.9451904,-2.2344728,76.0
357,-0.6499281,-1.8019943,1.4502525,-1.0598878,-0.9451904,-2.2344728,76.0
358,-0.6499281,-1.8019943,1.4502525,-0.93775636,-0.92501223,-2.351294,76.0
359,-0.40939522,-2.004776,1.4711037,-0.93775636,-0.92501223,-2.351294,76.0
360,-0.40939522,-2.004776,1.4711037,-0.84323734,-0.8963379,-2.4213867,76.0
361,-0.04283619,-2.0028687,1.0581322,-0.84323734,-0.8963379,-2.4213867,76.0
362,-0.04283619,-2.0028687,1.0581322,-0.83474123,-0.85598147,-2.4521852,76.0
363,0.4465046,-1.9362869,0.6111069,-0.83474123,-0.85598147,-2.4521852,76.0
364,0.4465046,-1.9362869,0.6111069,-0.8219971,-0.84748536,-2.4691772,76.0
365,0.81862926,-1.9785843,0.4263115,-0.8219971,-0.84748536,-2.4691772,76.0
366,0.81862926,-1.9785843,0.4263115,-0.87615967,-0.86978763,-2.4022706,76.0
367,1.1502161,-2.0727463,0.58138275,-0.87615967,-0.86978763,-2.4022706,76.0
368,1.1502161,-2.0727463,0.58138275,-0.92076415,-0.81881106,-2.2981935,76.0
369,1.6615791,-2.1810532,0.8815613,-0.92076415,-0.81881106,-2.2981935,76.0
370,1.6615791,-2.1810532,0.8815613,-0.85385746,-0.71367186,-2.18031,76.0
371,2.1208038,-2.3698044,1.0632324,-0.85385746,-0.71367186,-2.18031,76.0
372,2.1208038,-2.3698044,1.0632324,-0.6244629,-0.6669434,-2.0433106,76.0
373,2.1208038,-2.3698044,1.0632324,-0.44073486,-0.56180423,-1.803296,76.0
374,2.260632,-2.5200348,1.0376587,-0.44073486,-0.56180423,-1.803296,76.0
375,3.173264,-3.1753159,0.95492935,-0.44073486,-0.56180423,-1.803296,76.0
376,3.173264,-3.1753159,0.95492935,-0.4322388,-0.35046387,-1.5494751,76.0
377,3.173264,-3.1753159,0.95492935,-0.49277344,-0.15186767,-1.2839721,76.0
378,3.173264,-3.1753159,0.95492935,-0.5564942,-0.060534667,-0.9122681,76.0
379,2.7735724,-2.7046585,0.4574852,-0.5564942,-0.060534667,-0.9122681,76.0
380,2.7735724,-2.7046585,0.4574852,-0.53950197,0.32285157,-0.4991455,76.0
381,2.3435407,-2.2706375,0.0017547607,-0.53950197,0.32285157,-0.4991455,76.0
382,2.3435407,-2.2706375,0.0017547607,-0.54587406,0.40356445,0.0361084,76.0
383,1.2521029,-1.7331085,-0.28372955,-0.54587406,0.40356445,0.0361084,76.0
384,1.2521029,-1.7331085,-0.28372955,-0.2984253,0.3419678,0.55755615,76.0
385,0.20455098,-1.1676178,-0.39260864,-0.2984253,0.3419678,0.55755615,76.0
386,0.20455098,-1.1676178,-0.39260864,0.31435546,0.5341919,0.9388184,76.0
387,0.05560851,-0.8314209,-0.24110031,0.31435546,0.5341919,0.9388184,76.0
388,0.05560851,-0.8314209,-0.24110031,0.90695804,0.5501221,1.3243287,76.0
389,0.30164003,-0.54981995,-0.17045593,0.90695804,0.5501221,1.3243287,76.0
390,0.30164003,-0.54981995,-0.17045593,1.2935303,0.64995116,1.6588624,76.0
391,0.729398,-0.06075287,-0.544899,1.2935303,0.64995116,1.6588624,76.0
392,0.729398,-0.06075287,-0.544899,1.447522,0.813501,1.9328613,76.0
393,1.0132058,0.7226639,-1.0723343,1.447522,0.813501,1.9328613,76.0
394,1.0132058,0.7226639,-1.0723343,1.4337158,0.9260742,2.1813722,76.0
395,0.54137516,1.5860138,-1.288826,1.4337158,0.9260742,2.1813722,76.0
396,0.54137516,1.5860138,-1.288826,1.3954834,0.9133301,2.4298828,76.0
397,-0.5227592,2.179161,-1.1150703,1.3954834,0.9133301,2.4298828,76.0
398,-0.5227592,2.179161,-1.1150703,1.4570801,0.9303223,2.5966187,76.0
399,-1.4317694,2.382393,-0.8503456,1.4570801,0.9303223,2.5966187,76.0
400,-1.4317694,2.382393,-0.8503456,1.5335449,0.9547486,2.7261841,76.0
401,-1.9492607,2.3952484,-0.6990738,1.5335449,0.9547486,2.7261841,76.0
402,-1.9492607,2.3952484,-0.6990738,1.535669,0.93563235,2.8408813,76.0
403,-2.2945647,2.4353027,-0.7098808,1.535669,0.93563235,2.8408813,76.0
404,-2.2945647,2.4353027,-0.7098808,1.4592041,0.89846194,2.9088502,76.0
405,-2.4843946,2.5506744,-0.886776,1.4592041,0.89846194,2.9088502,76.0
406,-2.4843946,2.5506744,-0.886776,1.3774292,0.80181885,2.9279664,76.0
407,-2.4131384,2.6496735,-1.0841751,1.3774292,0.80181885,2.9279664,76.0
408,-2.4131384,2.6496735,-1.0841751,1.3381348,0.727478,2.8801758,76.0
409,-2.4131384,2.6496735,-1.0841751,1.3381348,0.727478,2.8801758,77.0
410,-2.0713186,2.622116,-1.1118965,1.3381348,0.727478,2.8801758,77.0
411,-2.0713186,2.622116,-1.1118965,1.3498169,0.65419924,2.7622926,77.0
412,-1.5876217,2.4499512,-0.99300766,1.3498169,0.65419924,2.7622926,77.0
413,-1.5876217,2.4499512,-0.99300766,1.442212,0.6000366,2.5913086,77.0
414,-1.1433887,2.177185,-0.8237152,1.442212,0.6000366,2.5913086,77.0
415,-1.1433887,2.177185,-0.8237152,1.4708862,0.5533081,2.4033325,77.0
416,-0.8110976,1.9122696,-0.6769409,1.4708862,0.5533081,2.4033325,77.0
417,-0.8110976,1.9122696,-0.6769409,1.3933594,0.5278198,2.170752,77.0
418,-0.59599686,1.7716446,-0.6523323,1.3933594,0.5278198,2.170752,77.0
419,-0.59599686,1.7716446,-0.6523323,1.263794,0.4715332,1.9339234,77.0
420,-0.5891876,1.7571106,-0.68743134,1.263794,0.4715332,1.9339234,77.0
421,-0.5891876,1.7571106,-0.68743134,1.0705079,0.3355957,1.6631104,77.0
422,-0.7011719,1.7684937,-0.6587601,1.0705079,0.3355957,1.6631104,77.0
423,-0.7011719,1.7684937,-0.6587601,0.8889038,0.21134034,1.3073364,77.0
424,-0.5760622,1.6204453,-0.5491638,0.8889038,0.21134034,1.3073364,77.0
425,-0.5760622,1.6204453,-0.5491638,0.73703617,0.0998291,0.88253176,77.0
426,-0.12876987,1.245369,-0.33078384,0.73703617,0.0998291,0.88253176,77.0
427,-0.12876987,1.245369,-0.33078384,0.5522461,0.04991455,0.47578126,77.0
428,0.32783127,0.7936325,-0.08401108,0.5522461,0.04991455,0.47578126,77.0
429,0.32783127,0.7936325,-0.08401108,0.30161133,-0.040356446,0.20921631,77.0
430,0.29839802,0.53643036,0.06175995,0.30161133,-0.040356446,0.20921631,77.0
431,0.29839802,0.53643036,0.06175995,0.09133301,-0.24957275,0.014868164,77.0
432,-0.1753931,0.56088257,0.19453812,0.09133301,-0.24957275,0.014868164,77.0
433,-0.1753931,0.56088257,0.19453812,-0.04248047,-0.4885254,-0.21983643,77.0
434,-0.21940374,0.5550995,0.3714981,-0.04248047,-0.4885254,-0.21983643,77.0
435,-0.21940374,0.5550995,0.3714981,-0.05522461,-0.5649902,-0.5161377,77.0
436,0.38600016,0.20051575,0.5121269,-0.05522461,-0.5649902,-0.5161377,77.0
437,0.38600016,0.20051575,0.5121269,-0.0031860352,-0.725354,-0.75615233,77.0
438,0.4146595,-0.17552185,0.71907806,-0.0031860352,-0.725354,-0.75615233,77.0
439,0.4146595,-0.17552185,0.71907806,-0.107263185,-0.9547486,-0.8666016,77.0
440,-0.24047661,-0.21295166,1.043232,-0.107263185,-0.9547486,-0.8666016,77.0
441,-0.24047661,-0.21295166,1.043232,-0.22727051,-1.1066163,-0.901648,77.0
442,-0.388402,-0.17288971,1.2874794,-0.22727051,-1.1066163,-0.901648,77.0
443,-0.388402,-0.17288971,1.2874794,-0.32816163,-1.2499878,-1.0343994,77.0
444,0.33098984,-0.29640198,1.2978668,-0.32816163,-1.2499878,-1.0343994,77.0
445,0.33098984,-0.29640198,1.2978668,-0.31966552,-1.2414917,-1.1214844,77.0
446,0.7471161,-0.49848175,1.2312126,-0.31966552,-1.2414917,-1.1214844,77.0
447,0.7471161,-0.49848175,1.2312126,-0.0180542,-1.178833,-1.2584839,77.0
448,1.3159428,-0.9874649,1.353672,-0.0180542,-1.178833,-1.2584839,77.0
449,1.3159428,-0.9874649,1.353672,0.10938721,-1.1342286,-1.2393677,77.0
450,0.84585714,-1.0485764,1.3914719,0.10938721,-1.1342286,-1.2393677,77.0
451,0.84585714,-1.0485764,1.3914719,0.12850343,-0.99935305,-1.1480347,77.0
452,-0.6526842,-0.8002548,1.5693436,0.12850343,-0.99935305,-1.1480347,77.0
453,-0.6526842,-0.8002548,1.5693436,0.009558106,-0.9802368,-1.1554688,77.0
454,-0.99260616,-0.6477356,1.3454895,0.009558106,-0.9802368,-1.1554688,77.0
455,-0.99260616,-0.6477356,1.3454895,-0.2888672,-1.0875,-1.3285767,77.0
456,-1.7786922,-0.358078,0.75665283,-0.2888672,-1.0875,-1.3285767,77.0
457,-1.7786922,-0.358078,0.75665283,-0.34727785,-1.1246704,-1.4145997,77.0
458,-1.5310106,-0.55397797,0.7337532,-0.34727785,-1.1246704,-1.4145997,77.0
459,-1.5310106,-0.55397797,0.7337532,-0.38869628,-1.1416626,-1.6599244,77.0
460,-1.1725502,-1.0787277,1.362648,-0.38869628,-1.1416626,-1.6599244,77.0
461,-1.1725502,-1.0787277,1.362648,-0.36639404,-1.1331666,-1.724707,77.0
462,-0.83277893,-1.312149,1.5970879,-0.36639404,-1.1331666,-1.724707,77.0
463,-0.83277893,-1.312149,1.5970879,-0.17735596,-1.1289185,-1.9254273,77.0
464,-0.5264282,-1.7389755,1.9879723,-0.17735596,-1.1289185,-1.9254273,77.0
465,-0.5264282,-1.7389755,1.9879723,-0.03079834,-1.173523,-1.991272,77.0
466,-0.30737305,-1.8072815,1.7554779,-0.03079834,-1.173523,-1.991272,77.0
467,-0.30737305,-1.8072815,1.7554779,0.4333008,-1.3487549,-2.1112792,77.0
468,0.31551552,-2.0342636,1.705822,0.4333008,-1.3487549,-2.1112792,77.0
469,0.31551552,-2.0342636,1.705822,0.5256958,-1.3434448,-2.167566,77.0
470,0.846797,-2.029152,1.8128891,0.5256958,-1.3434448,-2.167566,77.0
471,0.846797,-2.029152,1.8128891,0.8400513,-1.0089111,-2.1888063,77.0
472,2.391036,-2.4425125,2.3881989,0.8400513,-1.0089111,-2.1888063,77.0
473,2.391036,-2.4425125,2.3881989,0.87615967,-0.9388184,-2.1197755,77.0
474,2.2835808,-2.2994614,2.1680298,0.87615967,-0.9388184,-2.1197755,77.0
475,2.2835808,-2.2994614,2.1680298,1.0184692,-0.7306641,-1.7002808,77.0
476,1.7583952,-2.0544128,1.9274902,1.0184692,-0.7306641,-1.7002808,77.0
477,1.7583952,-2.0544128,1.9274902,1.1299804,-0.63933104,-1.5685914,77.0
478,1.4014549,-1.7626419,1.6836433,1.1299804,-0.63933104,-1.5685914,77.0
479,1.4014549,-1.7626419,1.6836433,1.454956,-0.4959595,-1.2085694,77.0
480,1.4258757,-1.6942902,1.1511993,1.454956,-0.4959595,-1.2085694,77.0
481,1.4258757,-1.6942902,1.1511993,1.4984986,-0.3982544,-1.1044922,77.0
482,1.5360737,-1.5286865,0.87384033,1.4984986,-0.3982544,-1.1044922,77.0
483,1.5360737,-1.5286865,0.87384033,1.3073364,0.10407715,-0.7699585,77.0
484,2.6228166,-1.4323807,0.53731537,1.3073364,0.10407715,-0.7699585,77.0
485,2.6228166,-1.4323807,0.53731537,1.1512207,0.30267334,-0.59260255,77.0
486,2.3382316,-1.0384064,0.30574036,1.1512207,0.30267334,-0.59260255,77.0
487,2.3382316,-1.0384064,0.30574036,0.8092529,0.5894165,0.1444336,77.0
488,1.4215498,-0.40940094,-0.6456909,0.8092529,0.5894165,0.1444336,77.0
489,1.4215498,-0.40940094,-0.6456909,0.8931519,0.67225343,0.40144044,77.0
490,0.7196007,-0.11300659,-0.88887787,0.8931519,0.67225343,0.40144044,77.0
491,0.7196007,-0.11300659,-0.88887787,1.359375,0.90908206,0.81243896,77.0
492,-0.24286222,0.26142883,-1.2382126,1.359375,0.90908206,0.81243896,77.0
493,-0.24286222,0.26142883,-1.2382126,1.6907227,0.8793457,1.175647,77.0
494,-0.875442,0.7855606,-1.4172325,1.6907227,0.8793457,1.175647,77.0
495,-0.875442,0.7855606,-1.4172325,1.6960328,1.0248413,1.3731812,77.0
496,-0.6165037,1.3613968,-1.7547951,1.6960328,1.0248413,1.3731812,77.0
497,-0.6165037,1.3613968,-1.7547951,1.5165528,1.1554688,1.4900025,77.0
498,0.2494607,1.656784,-2.1593552,1.5165528,1.1554688,1.4900025,77.0
499,0.2494607,1.656784,-2.1593552,0.9568726,1.269104,1.5526612,77.0
500,0.95685625,1.8071442,-2.5119324,0.9568726,1.269104,1.5526612,77.0
501,0.95685625,1.8071442,-2.5119324,0.72854006,1.2627319,1.63125,77.0
502,0.6969547,1.7706909,-2.2380219,0.72854006,1.2627319,1.63125,77.0
503,0.6969547,1.7706909,-2.2380219,0.36639404,1.2967163,1.8563966,77.0
504,0.2598586,1.7977524,-1.9112549,0.36639404,1.2967163,1.8563966,77.0
505,0.2598586,1.7977524,-1.9112549,0.24107666,1.2468017,2.1463258,77.0
506,-0.5855212,1.8727112,-1.5775261,0.24107666,1.2468017,2.1463258,77.0
507,-0.5855212,1.8727112,-1.5775261,0.36639404,1.0184692,2.456433,77.0
508,-1.7665615,2.0911407,-1.2621689,0.36639404,1.0184692,2.456433,77.0
509,-1.7665615,2.0911407,-1.2621689,0.5883545,0.79969484,2.6698976,77.0
510,-2.6270432,2.3638916,-0.9590378,0.5883545,0.79969484,2.6698976,77.0
511,-2.6270432,2.3638916,-0.9590378,0.75615233,0.65207523,2.799463,77.0
512,-2.7797837,2.505188,-0.7192955,0.75615233,0.65207523,2.799463,77.0
513,-2.7797837,2.505188,-0.7192955,0.8241211,0.5384399,2.8260133,77.0
514,-2.448876,2.4887848,-0.6107788,0.8241211,0.5384399,2.8260133,77.0
515,-2.448876,2.4887848,-0.6107788,0.8315552,0.4630371,2.7697265,77.0
516,-1.9479437,2.4211807,-0.5648308,0.8315552,0.4630371,2.7697265,77.0
517,-1.9479437,2.4211807,-0.5648308,0.79969484,0.4056885,2.6794555,77.0
518,-1.470489,2.3430557,-0.43671417,0.79969484,0.4056885,2.6794555,77.0
519,-1.470489,2.3430557,-0.43671417,0.59897465,0.35895997,2.445813,77.0
520,-1.0164914,2.3169632,-0.0905838,0.59897465,0.35895997,2.445813,77.0
521,-1.0164914,2.3169632,-0.0905838,0.5097656,0.35046387,2.3194337,77.0
522,-0.6717138,2.2075958,-0.022506714,0.5097656,0.35046387,2.3194337,77.0
523,-0.6717138,2.2075958,-0.022506714,0.36851808,0.34090576,2.0263183,77.0
524,-0.26668072,2.0114288,0.098716736,0.36851808,0.34090576,2.0263183,77.0
525,-0.26668072,2.0114288,0.098716736,0.3069214,0.2782471,1.6811646,77.0
526,0.07223892,1.6522675,0.14186096,0.3069214,0.2782471,1.6811646,77.0
527,0.07223892,1.6522675,0.14186096,0.3164795,0.23045655,1.3168945,77.0
528,0.32032776,1.2640839,0.16275787,0.3164795,0.23045655,1.3168945,77.0
529,0.32032776,1.2640839,0.16275787,0.3079834,0.17841797,1.0004151,77.0
530,0.39775372,1.0124512,0.23003387,0.3079834,0.17841797,1.0004151,77.0
531,0.39775372,1.0124512,0.23003387,0.3079834,0.17841797,1.0004151,77.0
532,0.39775372,1.0124512,0.23003387,0.22408448,0.115759276,0.6786255,77.0
533,0.37253618,0.9382553,0.31796265,0.22408448,0.115759276,0.6786255,77.0
534,0.37253618,0.9382553,0.31796265,0.046728518,0.08920898,0.32497558,77.0
535,0.5422063,0.9219513,0.3604126,0.046728518,0.08920898,0.32497558,77.0
536,0.5422063,0.9219513,0.3604126,-0.16673584,0.095581055,0.06478272,77.0
537,0.7840948,0.7708969,0.42092133,-0.16673584,0.095581055,0.06478272,77.0
538,0.7840948,0.7708969,0.42092133,-0.38444826,0.043542482,-0.16354981,77.0
539,0.74200964,0.5649338,0.58132935,-0.38444826,0.043542482,-0.16354981,77.0
540,0.74200964,0.5649338,0.58132935,-0.77526855,-0.013806152,-0.3982544,77.0
541,0.5441818,0.45800018,0.6526108,-0.77526855,-0.013806152,-0.3982544,77.0
542,0.5441818,0.45800018,0.6526108,-1.173523,0.028674318,-0.6085327,77.0
543,0.2949767,0.34431458,0.49795532,-1.173523,0.028674318,-0.6085327,77.0
544,0.2949767,0.34431458,0.49795532,-1.4570801,-0.06690674,-0.92076415,77.0
545,-0.15541267,0.123313904,0.30999756,-1.4570801,-0.06690674,-0.92076415,77.0
546,-0.15541267,0.123313904,0.30999756,-1.6832886,-0.090270996,-1.1607789,77.0
547,-0.74500847,-0.17377472,0.39582443,-1.6832886,-0.090270996,-1.1607789,77.0
548,-0.74500847,-0.17377472,0.39582443,-1.8054199,-0.19116211,-1.3530029,77.0
549,-1.2489972,-0.4653778,0.7737999,-1.8054199,-0.19116211,-1.3530029,77.0
550,-1.2489972,-0.4653778,0.7737999,-1.8797607,-0.30161133,-1.63125,77.0
551,-1.0900912,-0.8503418,0.96658325,-1.8797607,-0.30161133,-1.63125,77.0
552,-1.0900912,-0.8503418,0.96658325,-1.6928467,-0.21134034,-1.903125,77.0
553,-0.18334007,-1.3891373,0.7007065,-1.6928467,-0.21134034,-1.903125,77.0
554,-0.18334007,-1.3891373,0.7007065,-1.5781494,-0.13912354,-2.1962402,77.0
555,0.56049347,-1.7386017,0.23698044,-1.5781494,-0.13912354,-2.1962402,77.0
556,0.56049347,-1.7386017,0.23698044,-1.6036377,-0.11044922,-2.3799684,77.0
557,0.6817322,-1.8429184,-0.10052872,-1.6036377,-0.11044922,-2.3799684,77.0
558,0.6817322,-1.8429184,-0.10052872,-1.5877075,-0.0541626,-2.4691772,77.0
559,0.44465303,-1.8951492,-0.17817688,-1.5877075,-0.0541626,-2.4691772,77.0
560,0.44465303,-1.8951492,-0.17817688,-1.6758546,0.026550293,-2.5148437,77.0
561,0.0796361,-1.8543549,-0.055274963,-1.6758546,0.026550293,-2.5148437,77.0
562,0.0796361,-1.8543549,-0.055274963,-1.9073731,0.09451904,-2.535022,77.0
563,-0.3441162,-1.7706299,0.0018005371,-1.9073731,0.09451904,-2.535022,77.0
564,-0.3441162,-1.7706299,0.0018005371,-2.16969,0.1274414,-2.5445802,77.0
565,-0.7107668,-1.7990494,-0.12786865,-2.16969,0.1274414,-2.5445802,77.0
566,-0.7107668,-1.7990494,-0.12786865,-2.357666,0.14337158,-2.53396,77.0
567,-0.8445778,-1.9901352,-0.2841034,-2.357666,0.14337158,-2.53396,77.0
568,-0.8445778,-1.9901352,-0.2841034,-2.3024414,0.18479005,-2.529712,77.0
569,-0.5893583,-2.2795715,-0.38904953,-2.3024414,0.18479005,-2.529712,77.0
570,-0.5893583,-2.2795715,-0.38904953,-2.1102173,0.2177124,-2.529712,77.0
571,0.023301125,-2.5594635,-0.5719223,-2.1102173,0.2177124,-2.529712,77.0
572,0.023301125,-2.5594635,-0.5719223,-1.8786987,0.2357666,-2.540332,77.0
573,0.70340633,-2.7693253,-0.84586716,-1.8786987,0.2357666,-2.540332,77.0
574,0.70340633,-2.7693253,-0.84586716,-1.7385132,0.19541016,-2.5392702,77.0
575,1.2380304,-2.898613,-1.0616417,-1.7385132,0.19541016,-2.5392702,77.0
576,1.2380304,-2.898613,-1.0616417,-1.7831177,0.124255374,-2.5307739,77.0
577,1.6365666,-2.926056,-1.0631561,-1.7831177,0.124255374,-2.5307739,77.0
578,1.6365666,-2.926056,-1.0631561,-1.8871949,0.08602295,-2.4851074,77.0
579,1.9028692,-2.9543457,-0.792675,-1.8871949,0.08602295,-2.4851074,77.0
580,1.9028692,-2.9543457,-0.792675,-1.8287842,0.050976563,-2.4033325,77.0
581,1.9144831,-3.0596313,-0.3239479,-1.8287842,0.050976563,-2.4033325,77.0
582,1.9144831,-3.0596313,-0.3239479,-1.5431031,-0.0021240234,-2.261023,77.0
583,1.7520089,-3.1069489,0.082466125,-1.5431031,-0.0021240234,-2.261023,77.0
584,1.7520089,-3.1069489,0.082466125,-1.1140503,0.009558106,-2.0581787,77.0
585,1.6112876,-3.0944672,0.14469528,-1.1140503,0.009558106,-2.0581787,77.0
586,1.6112876,-3.0944672,0.14469528,-0.70305175,-0.013806152,-1.7703736,77.0
587,1.5059733,-3.0775757,-0.06785965,-0.70305175,-0.013806152,-1.7703736,77.0
588,1.5059733,-3.0775757,-0.06785965,-0.45772704,-0.0053100586,-1.4050416,77.0
589,1.5043149,-2.8862,-0.22234344,-0.45772704,-0.0053100586,-1.4050416,77.0
590,1.5043149,-2.8862,-0.22234344,-0.34090576,0.014868164,-1.0036011,77.0
591,1.6454682,-2.5094604,-0.22932816,-0.34090576,0.014868164,-1.0036011,77.0
592,1.6454682,-2.5094604,-0.22932816,-0.26444092,0.07540283,-0.5671143,77.0
593,1.7095509,-2.0570297,-0.1848526,-0.26444092,0.07540283,-0.5671143,77.0
594,1.7095509,-2.0570297,-0.1848526,-0.07434082,0.04141846,-0.046728518,77.0
595,1.501332,-1.5774612,-0.10342407,-0.07434082,0.04141846,-0.046728518,77.0
596,1.501332,-1.5774612,-0.10342407,0.5384399,0.10513916,0.44710693,77.0
597,1.0110264,-1.1435242,0.086997986,0.5384399,0.10513916,0.44710693,77.0
598,1.0110264,-1.1435242,0.086997986,1.2839721,0.06796875,0.94731444,77.0
599,0.3237381,-0.6512451,0.16408157,1.2839721,0.06796875,0.94731444,77.0
600,0.3237381,-0.6512451,0.16408157,1.9721558,0.087084964,1.3498169,77.0
601,-0.06788945,-0.04915619,-0.06436539,1.9721558,0.087084964,1.3498169,77.0
602,-0.06788945,-0.04915619,-0.06436539,2.4585571,0.16673584,1.6801026,77.0
603,0.0012550354,0.6234207,-0.2718048,2.4585571,0.16673584,1.6801026,77.0
604,0.0012550354,0.6234207,-0.2718048,2.540332,0.3355957,1.9902099,77.0
605,0.007180929,1.483963,-0.20619202,2.540332,0.3355957,1.9902099,77.0
606,0.007180929,1.483963,-0.20619202,2.275891,0.50870365,2.3013794,77.0
607,-0.4256153,2.3889694,-0.05500412,2.275891,0.50870365,2.3013794,77.0
608,-0.4256153,2.3889694,-0.05500412,1.989148,0.64782715,2.6051147,77.0
609,-1.1850722,3.0191345,-0.067222595,1.989148,0.64782715,2.6051147,77.0
610,-1.1850722,3.0191345,-0.067222595,1.8277222,0.7051758,2.89823,77.0
611,-1.9087877,3.2508545,-0.2217102,1.8277222,0.7051758,2.89823,77.0
612,-1.9087877,3.2508545,-0.2217102,1.8298463,0.6956177,3.1021364,77.0
613,-2.2960486,3.2230453,-0.40924072,1.8298463,0.6956177,3.1021364,77.0
614,-2.2960486,3.2230453,-0.40924072,1.901001,0.6669434,3.2093995,77.0
615,-2.2191143,3.123581,-0.54395676,1.901001,0.6669434,3.2093995,77.0
616,-2.2191143,3.123581,-0.54395676,1.991272,0.62764895,3.2614381,77.0
617,-2.2191143,3.123581,-0.54395676,1.991272,0.62764895,3.2614381,76.0
618,-1.7470202,3.0284042,-0.5529251,1.991272,0.62764895,3.2614381,76.0
619,-1.7470202,3.0284042,-0.5529251,2.1027832,0.64782715,3.2253296,76.0
620,-1.0612025,2.9134216,-0.49737167,2.1027832,0.64782715,3.2253296,76.0
621,-1.0612025,2.9134216,-0.49737167,2.1335816,0.70305175,3.1223145,76.0
622,-0.38270235,2.810257,-0.49822617,2.1335816,0.70305175,3.1223145,76.0
623,-0.38270235,2.810257,-0.49822617,2.1049073,0.811377,2.9608886,76.0
624,0.07164574,2.7734375,-0.6149864,2.1049073,0.811377,2.9608886,76.0
625,0.07164574,2.7734375,-0.6149864,1.9084351,0.91864014,2.7930908,76.0
626,0.12100029,2.8321533,-0.77014923,1.9084351,0.91864014,2.7930908,76.0
627,0.12100029,2.8321533,-0.77014923,1.5951416,0.98236084,2.625293,76.0
628,-0.19178629,2.9292145,-0.89866257,1.5951416,0.98236084,2.625293,76.0
629,-0.19178629,2.9292145,-0.89866257,1.2468017,0.9855469,2.4596193,76.0
630,-0.61096096,2.9646835,-0.9630966,1.2468017,0.9855469,2.4596193,76.0
631,-0.61096096,2.9646835,-0.9630966,0.9451904,0.9366943,2.2780151,76.0
632,-0.88757277,2.8695755,-0.9071579,0.9451904,0.9366943,2.2780151,76.0
633,-0.88757277,2.8695755,-0.9071579,0.73809814,0.85704345,2.0464966,76.0
634,-0.9085078,2.6043396,-0.7690506,0.73809814,0.85704345,2.0464966,76.0
635,-0.9085078,2.6043396,-0.7690506,0.59047854,0.75509036,1.7480713,76.0
636,-0.64912033,2.211258,-0.6811104,0.59047854,0.75509036,1.7480713,76.0
637,-0.64912033,2.211258,-0.6811104,0.45347902,0.6138428,1.3976074,76.0
638,-0.23821735,1.8198242,-0.7110138,0.45347902,0.6138428,1.3976074,76.0
639,-0.23821735,1.8198242,-0.7110138,0.32709962,0.43861085,1.0216553,76.0
640,0.0635643,1.5056992,-0.749012,0.32709962,0.43861085,1.0216553,76.0
641,0.0635643,1.5056992,-0.749012,0.22089843,0.25063476,0.66481936,76.0
642,-0.06822777,1.2660446,-0.59046936,0.22089843,0.25063476,0.66481936,76.0
643,-0.06822777,1.2660446,-0.59046936,0.10938721,-0.03717041,0.36851808,76.0
644,-0.6832566,1.1178894,-0.15386963,0.10938721,-0.03717041,0.36851808,76.0
645,-0.6832566,1.1178894,-0.15386963,0.027612304,-0.38763428,0.047790527,76.0
646,-1.0712757,0.98093414,0.37851334,0.027612304,-0.38763428,0.047790527,76.0
647,-1.0712757,0.98093414,0.37851334,-0.06796875,-0.54375,-0.2824951,76.0
648,-0.90296793,0.724823,0.7469139,-0.06796875,-0.54375,-0.2824951,76.0
649,-0.90296793,0.724823,0.7469139,-0.22408448,-0.81881106,-0.5713623,76.0
650,-0.9434929,0.46379852,0.91692734,-0.22408448,-0.81881106,-0.5713623,76.0
651,-0.9434929,0.46379852,0.91692734,-0.36108398,-1.1002442,-0.7986328,76.0
652,-1.4533663,0.28897095,1.0561981,-0.36108398,-1.1002442,-0.7986328,76.0
653,-1.4533663,0.28897095,1.0561981,-0.3440918,-1.450708,-0.9526245,76.0
654,-1.8395243,0.065574646,1.3763924,-0.3440918,-1.450708,-0.9526245,76.0
655,-1.8395243,0.065574646,1.3763924,-0.20284425,-1.7608155,-1.1586548,76.0
656,-1.3316536,-0.3259201,1.8157883,-0.20284425,-1.7608155,-1.1586548,76.0
657,-1.3316536,-0.3259201,1.8157883,0.18160401,-1.8946289,-1.4443359,76.0
658,0.062045097,-0.9064865,2.1888962,0.18160401,-1.8946289,-1.4443359,76.0
659,0.062045097,-0.9064865,2.1888962,0.69136965,-1.899939,-1.7470093,76.0
660,1.2239037,-1.4720154,2.3095016,0.69136965,-1.899939,-1.7470093,76.0
661,1.2239037,-1.4720154,2.3095016,1.0959961,-1.910559,-1.9498535,76.0
662,1.3066492,-1.6925278,2.0977325,1.0959961,-1.910559,-1.9498535,76.0
663,1.3066492,-1.6925278,2.0977325,1.363623,-1.9562256,-2.0390625,76.0
664,0.6207218,-1.5078659,1.7163315,1.363623,-1.9562256,-2.0390625,76.0
665,0.6207218,-1.5078659,1.7163315,1.3997315,-1.9477295,-2.0295045,76.0
666,-0.041544914,-1.1233673,1.3820229,1.3997315,-1.9477295,-2.0295045,76.0
667,-0.041544914,-1.1233673,1.3820229,1.1161743,-1.896753,-1.9583496,76.0
668,-0.29312325,-0.72867584,1.3236465,1.1161743,-1.896753,-1.9583496,76.0
669,-0.29312325,-0.72867584,1.3236465,0.5872925,-1.7937378,-1.8691406,76.0
670,-0.15980339,-0.47146606,1.6097221,0.5872925,-1.7937378,-1.8691406,76.0
671,-0.15980339,-0.47146606,1.6097221,0.098767094,-1.6408081,-1.8202881,76.0
672,0.17558765,-0.58522034,1.9716148,0.098767094,-1.6408081,-1.8202881,76.0
673,0.17558765,-0.58522034,1.9716148,-0.04885254,-1.5069946,-1.812854,76.0
674,0.44142246,-1.1066818,2.0805664,-0.04885254,-1.5069946,-1.812854,76.0
675,0.44142246,-1.1066818,2.0805664,0.08920898,-1.4623902,-1.8234742,76.0
676,0.56540585,-1.6997604,1.9407349,0.08920898,-1.4623902,-1.8234742,76.0
677,0.56540585,-1.6997604,1.9407349,0.40144044,-1.447522,-1.8255981,76.0
678,0.6980157,-2.0299988,1.76091,0.40144044,-1.447522,-1.8255981,76.0
679,0.6980157,-2.0299988,1.76091,0.71154785,-1.3901733,-1.7576294,76.0
680,0.81114674,-1.986229,1.7288437,0.71154785,-1.3901733,-1.7576294,76.0
681,0.81114674,-1.986229,1.7288437,0.8358032,-1.351941,-1.6238159,76.0
682,0.7812414,-1.646431,1.8887787,0.8358032,-1.351941,-1.6238159,76.0
683,0.7812414,-1.646431,1.8887787,0.8251831,-1.270166,-1.4783204,76.0
684,0.6845021,-1.2304001,2.0764275,0.8251831,-1.270166,-1.4783204,76.0
685,0.6845021,-1.2304001,2.0764275,0.76464844,-1.1533448,-1.2988404,76.0
686,0.7143378,-0.984848,2.122528,0.76464844,-1.1533448,-1.2988404,76.0
687,0.7143378,-0.984848,2.122528,0.66588134,-0.9133301,-1.1236085,76.0
688,1.0245953,-0.9231415,1.8670158,0.66588134,-0.9133301,-1.1236085,76.0
689,1.0245953,-0.9231415,1.8670158,0.45454103,-0.6265869,-0.9515625,76.0
690,1.4608994,-0.87807465,1.2117271,0.45454103,-0.6265869,-0.9515625,76.0
691,1.4608994,-0.87807465,1.2117271,0.18054199,-0.35683593,-0.77526855,76.0
692,1.7097592,-0.8264923,0.37530518,0.18054199,-0.35683593,-0.77526855,76.0
693,1.7097592,-0.8264923,0.37530518,-0.13699952,-0.14974366,-0.6117188,76.0
694,1.7093358,-0.7906647,-0.20711517,-0.13699952,-0.14974366,-0.6117188,76.0
695,1.7093358,-0.7906647,-0.20711517,-0.3440918,-0.10407715,-0.46622315,76.0
696,1.7845955,-0.9103241,-0.37942505,-0.3440918,-0.10407715,-0.46622315,76.0
697,1.7845955,-0.9103241,-0.37942505,-0.1901001,0.19647217,-0.40356445,76.0
698,2.0349154,-1.2972412,-0.30114746,-0.1901001,0.19647217,-0.40356445,76.0
699,2.0349154,-1.2972412,-0.30114746,0.16248779,0.3802002,-0.32391357,76.0
700,1.5996485,-1.5937042,-0.09856033,0.16248779,0.3802002,-0.32391357,76.0
701,1.5996485,-1.5937042,-0.09856033,0.5533081,0.3058594,-0.1083252,76.0
702,0.57215047,-1.4720688,-0.02180481,0.5533081,0.3058594,-0.1083252,76.0
703,0.57215047,-1.4720688,-0.02180481,1.0736939,0.33134767,0.10089111,76.0
704,0.25243473,-1.1396408,-0.2956543,1.0736939,0.33134767,0.10089111,76.0
705,0.25243473,-1.1396408,-0.2956543,1.6652344,0.38975832,0.29523927,76.0
706,0.84711385,-0.8436203,-0.8484497,1.6652344,0.38975832,0.29523927,76.0
707,0.84711385,-0.8436203,-0.8484497,2.0995972,0.59047854,0.4885254,76.0
708,1.3659968,-0.47843933,-1.390686,2.0995972,0.59047854,0.4885254,76.0
709,1.3659968,-0.47843933,-1.390686,2.257837,0.69986576,0.8379273,76.0
710,0.8768916,0.18997955,-1.5702286,2.257837,0.69986576,0.8379273,76.0
711,0.8768916,0.18997955,-1.5702286,2.258899,0.7412842,1.2383057,76.0
712,-0.3169315,1.1364212,-1.3213425,2.258899,0.7412842,1.2383057,76.0
713,-0.3169315,1.1364212,-1.3213425,2.2769532,0.7742066,1.5739014,76.0
714,-0.3169315,1.1364212,-1.3213425,2.3300538,0.901648,1.8224121,76.0
715,-1.1652393,1.9970932,-0.9764252,2.3300538,0.901648,1.8224121,76.0
716,-1.1652393,1.9970932,-0.9764252,2.3300538,0.901648,1.8224121,76.0
717,-2.2103043,3.8822708,-1.241127,2.3300538,0.901648,1.8224121,76.0
718,-2.2103043,3.8822708,-1.241127,2.253589,1.0046631,2.081543,76.0
719,-2.2103043,3.8822708,-1.241127,2.0284424,1.1108643,2.337488,76.0
720,-2.2103043,3.8822708,-1.241127,1.716211,1.1915772,2.5987427,76.0
721,-2.3037171,3.9233856,-1.3643723,1.716211,1.1915772,2.5987427,76.0
722,-2.3037171,3.9233856,-1.3643723,1.3965454,1.2436157,2.805835,76.0
723,-2.2160082,3.9508286,-1.5119324,1.3965454,1.2436157,2.805835,76.0
724,-2.2160082,3.9508286,-1.5119324,1.1204224,1.2712281,2.9290283,76.0
725,-1.9250889,3.8805847,-1.5904427,1.1204224,1.2712281,2.9290283,76.0
726,-1.9250889,3.8805847,-1.5904427,0.91864014,1.264856,2.981067,76.0
727,-1.5074539,3.6627731,-1.5563889,0.91864014,1.264856,2.981067,76.0
728,-1.5074539,3.6627731,-1.5563889,0.7858887,1.2744141,2.9438965,76.0
729,-0.9856262,3.3284454,-1.4827957,0.7858887,1.2744141,2.9438965,76.0
730,-0.9856262,3.3284454,-1.4827957,0.7189819,1.2414917,2.8430054,76.0
731,-0.4467287,2.9596786,-1.4386177,0.7189819,1.2414917,2.8430054,76.0
732,-0.4467287,2.9596786,-1.4386177,0.6881836,1.1809571,2.6433473,76.0
733,0.039968014,2.6496124,-1.4008713,0.6881836,1.1809571,2.6433473,76.0
734,0.039968014,2.6496124,-1.4008713,0.6414551,1.1119263,2.3682861,76.0
735,0.40427685,2.3896713,-1.3353081,0.6414551,1.1119263,2.3682861,76.0
736,0.40427685,2.3896713,-1.3353081,0.5065796,1.0163453,2.0358765,76.0
737,0.5736294,2.169159,-1.1869621,0.5065796,1.0163453,2.0358765,76.0
738,0.5736294,2.169159,-1.1869621,0.25063476,0.86553955,1.6726685,76.0
739,0.5879688,1.991684,-0.9778671,0.25063476,0.86553955,1.6726685,76.0
740,0.5879688,1.991684,-0.9778671,-0.06478272,0.6839356,1.2552979,76.0
741,0.6512103,1.7651978,-0.7740402,-0.06478272,0.6839356,1.2552979,76.0
742,0.6512103,1.7651978,-0.7740402,-0.38338622,0.4980835,0.7880127,76.0
743,0.8160248,1.4312897,-0.6201134,-0.38338622,0.4980835,0.7880127,76.0
744,0.8160248,1.4312897,-0.6201134,-0.6287109,0.2782471,0.35471192,76.0
745,0.72211933,1.0481339,-0.3938446,-0.6287109,0.2782471,0.35471192,76.0
746,0.72211933,1.0481339,-0.3938446,-0.8591675,-0.035046387,-0.016992187,76.0
747,0.30999565,0.7562103,0.008483887,-0.8591675,-0.035046387,-0.016992187,76.0
748,0.30999565,0.7562103,0.008483887,-0.9632446,-0.24851075,-0.43861085,76.0
749,-0.031580925,0.49033356,0.36133957,-0.9632446,-0.24851075,-0.43861085,76.0
750,-0.031580925,0.49033356,0.36133957,-0.80394286,-0.49277344,-0.75721437,76.0
751,-0.6036339,0.15789032,0.616272,-0.80394286,-0.49277344,-0.75721437,76.0
752,-0.6036339,0.15789032,0.616272,-0.7763306,-0.8251831,-0.9653687,76.0
753,-1.4324188,-0.020584106,0.9274788,-0.7763306,-0.8251831,-0.9653687,76.0
754,-1.4324188,-0.020584106,0.9274788,-0.83049315,-1.0375855,-1.1034302,76.0
755,-1.6529903,-0.04663086,1.2903862,-0.83049315,-1.0375855,-1.1034302,76.0
756,-1.6529903,-0.04663086,1.2903862,-0.901648,-1.2414917,-1.356189,76.0
757,-0.8114672,-0.19766998,1.4806252,-0.901648,-1.2414917,-1.356189,76.0
758,-0.8114672,-0.19766998,1.4806252,-0.8973999,-1.3243287,-1.7650635,76.0
759,0.8287802,-0.6435013,1.3211212,-0.8973999,-1.3243287,-1.7650635,76.0
760,0.8287802,-0.6435013,1.3211212,-0.7476563,-1.2956543,-2.1442018,76.0
761,2.1513295,-1.3465652,1.0239868,-0.7476563,-1.2956543,-2.1442018,76.0
762,2.1513295,-1.3465652,1.0239868,-0.61702883,-1.2510499,-2.352356,76.0
763,2.0612984,-1.8684387,1.008667,-0.61702883,-1.2510499,-2.352356,76.0
764,2.0612984,-1.8684387,1.008667,-0.49489745,-1.2786621,-2.3247437,76.0
765,0.8413601,-1.9231186,1.329895,-0.49489745,-1.2786621,-2.3247437,76.0
766,0.8413601,-1.9231186,1.329895,-0.37701416,-1.2542359,-2.2227905,76.0
767,-0.38399172,-1.6106262,1.6473007,-0.37701416,-1.2542359,-2.2227905,76.0
768,-0.38399172,-1.6106262,1.6473007,-0.33134767,-1.2160034,-2.1102173,76.0
769,-1.0459261,-1.2483139,1.7026672,-0.33134767,-1.2160034,-2.1102173,76.0
770,-1.0459261,-1.2483139,1.7026672,-0.42692873,-1.1087402,-1.992334,76.0
771,-1.2711034,-1.1045609,1.5508766,-0.42692873,-1.1087402,-1.992334,76.0
772,-1.2711034,-1.1045609,1.5508766,-0.6690674,-0.98448485,-1.811792,76.0
773,-1.4272585,-1.1683502,1.3595123,-0.6690674,-0.98448485,-1.811792,76.0
774,-1.4272585,-1.1683502,1.3595123,-0.905896,-0.87615967,-1.6078857,76.0
775,-1.5933571,-1.2515869,1.2368393,-0.905896,-0.87615967,-1.6078857,76.0
776,-1.5933571,-1.2515869,1.2368393,-1.0726318,-0.7720825,-1.4772583,76.0
777,-1.5571685,-1.2923203,1.134491,-1.0726318,-0.7720825,-1.4772583,76.0
778,-1.5571685,-1.2923203,1.134491,-1.1629028,-0.68499756,-1.4114136,76.0
779,-1.2360182,-1.4059677,0.99658203,-1.1629028,-0.68499756,-1.4114136,76.0
780,-1.2360182,-1.4059677,0.99658203,-1.1968873,-0.62127686,-1.3774292,76.0
781,-0.7541342,-1.6045761,0.88160324,-1.1968873,-0.62127686,-1.3774292,76.0
782,-0.7541342,-1.6045761,0.88160324,-1.171399,-0.5511841,-1.3859253,76.0
783,-0.15577316,-1.814682,0.78886414,-1.171399,-0.5511841,-1.3859253,76.0
784,-0.15577316,-1.814682,0.78886414,-1.1023682,-0.4885254,-1.442212,76.0
785,0.50223684,-1.9752579,0.6889801,-1.1023682,-0.4885254,-1.442212,76.0
786,0.50223684,-1.9752579,0.6889801,-1.0450195,-0.43117675,-1.5186768,76.0
787,1.0845656,-2.092682,0.60614014,-1.0450195,-0.43117675,-1.5186768,76.0
788,1.0845656,-2.092682,0.60614014,-1.0375855,-0.4078125,-1.5930176,76.0
789,1.5218396,-2.1621933,0.56357574,-1.0375855,-0.4078125,-1.5930176,76.0
790,1.5218396,-2.1621933,0.56357574,-1.0460815,-0.40993652,-1.628064,76.0
791,1.927506,-2.2153397,0.50263214,-1.0460815,-0.40993652,-1.628064,76.0
792,1.927506,-2.2153397,0.50263214,-1.0312134,-0.3451538,-1.6110718,76.0
793,2.4880986,-2.3629684,0.36861038,-1.0312134,-0.3451538,-1.6110718,76.0
794,2.4880986,-2.3629684,0.36861038,-0.9876709,-0.17416993,-1.5590333,76.0
795,3.0205817,-2.5776443,0.18104553,-0.9876709,-0.17416993,-1.5590333,76.0
796,3.0205817,-2.5776443,0.18104553,-0.9505005,-0.0053100586,-1.3891114,76.0
797,2.9992414,-2.6822968,0.049583435,-0.9505005,-0.0053100586,-1.3891114,76.0
798,2.9992414,-2.6822968,0.049583435,-0.9876709,-0.035046387,-1.083252,76.0
799,2.424259,-2.5008087,0.0014724731,-0.9876709,-0.035046387,-1.083252,76.0
800,2.424259,-2.5008087,0.0014724731,-0.8209351,0.19116211,-0.7625244,76.0
801,1.683145,-2.1726074,0.03781128,-0.8209351,0.19116211,-0.7625244,76.0
802,1.683145,-2.1726074,0.03781128,-0.41524658,0.34727785,-0.34833986,76.0
803,0.31166506,-1.7585526,0.19389725,-0.41524658,0.34727785,-0.34833986,76.0
804,0.31166506,-1.7585526,0.19389725,-0.06265869,0.28461915,0.18266602,76.0
805,-1.4922938,-1.0976639,0.21575928,-0.06265869,0.28461915,0.18266602,76.0
806,-1.4922938,-1.0976639,0.21575928,0.36108398,0.08920898,0.65419924,76.0
807,-1.9685054,-0.46668243,-0.05739975,0.36108398,0.08920898,0.65419924,76.0
808,-1.9685054,-0.46668243,-0.05739975,1.0450195,0.10195313,1.0057251,76.0
809,-0.29309034,-0.38011932,-0.35744476,1.0450195,0.10195313,1.0057251,76.0
810,-0.29309034,-0.38011932,-0.35744476,1.62594,0.5097656,1.0715698,76.0
811,1.9070196,-0.47627258,-0.5899353,1.62594,0.5097656,1.0715698,76.0
812,1.9070196,-0.47627258,-0.5899353,1.5133667,0.76464844,1.3413209,76.0
813,2.2246392,0.31308746,-0.88848877,1.5133667,0.76464844,1.3413209,76.0
814,2.2246392,0.31308746,-0.88848877,1.1182984,0.76677245,1.7693115,76.0
815,0.52657413,1.7411194,-1.1900177,1.1182984,0.76677245,1.7693115,76.0
816,0.52657413,1.7411194,-1.1900177,1.0227174,0.724292,2.1399536,76.0
817,-1.2817557,2.6693878,-1.2473488,1.0227174,0.724292,2.1399536,76.0
818,-1.2817557,2.6693878,-1.2473488,1.0875,0.7072998,2.4139526,76.0
819,-2.2191668,2.9367065,-0.9173126,1.0875,0.7072998,2.4139526,76.0
820,-2.2191668,2.9367065,-0.9173126,1.0875,0.7072998,2.4139526,75.0
821,-2.2191668,2.9367065,-0.9173126,1.2510499,0.60216063,2.6603394,75.0
822,-2.5949621,2.894638,-0.5224838,1.2510499,0.60216063,2.6603394,75.0
823,-2.5949621,2.894638,-0.5224838,1.5123047,0.5214478,2.8589356,75.0
824,-2.6091485,2.7923584,-0.42664337,1.5123047,0.5214478,2.8589356,75.0
825,-2.6091485,2.7923584,-0.42664337,1.7937378,0.49383545,2.9938111,75.0
826,-2.2631001,2.7940674,-0.6303787,1.7937378,0.49383545,2.9938111,75.0
827,-2.2631001,2.7940674,-0.6303787,1.9456055,0.5235718,3.0543458,75.0
828,-1.716608,2.967163,-0.9358444,1.9456055,0.5235718,3.0543458,75.0
829,-1.716608,2.967163,-0.9358444,1.9551636,0.5649902,3.0394776,75.0
830,-1.1601515,3.2013168,-1.156414,1.9551636,0.5649902,3.0394776,75.0
831,-1.1601515,3.2013168,-1.156414,1.8627685,0.62340087,2.9630127,75.0
832,-0.64925146,3.3162308,-1.2281342,1.8627685,0.62340087,2.9630127,75.0
833,-0.64925146,3.3162308,-1.2281342,1.6832886,0.68499756,2.8302612,75.0
834,-0.111112595,3.230278,-1.2100601,1.6832886,0.68499756,2.8302612,75.0
835,-0.111112595,3.230278,-1.2100601,1.4698242,0.7540283,2.630603,75.0
836,0.491127,2.9852371,-1.1651573,1.4698242,0.7540283,2.630603,75.0
837,0.491127,2.9852371,-1.1651573,1.2000732,0.86341554,2.3449218,75.0
838,1.0921936,2.6832352,-1.1678429,1.2000732,0.86341554,2.3449218,75.0
839,1.0921936,2.6832352,-1.1678429,0.83049315,0.9483765,2.0241945,75.0
840,1.4609499,2.4040604,-1.2314911,0.83049315,0.9483765,2.0241945,75.0
841,1.4609499,2.4040604,-1.2314911,0.37595215,0.9876709,1.6992188,75.0
842,1.4845314,2.143364,-1.2286987,0.37595215,0.9876709,1.6992188,75.0
843,1.4845314,2.143364,-1.2286987,-0.10938721,0.9653687,1.3795532,75.0
844,1.284842,1.8783875,-1.0807266,-0.10938721,0.9653687,1.3795532,75.0
845,1.284842,1.8783875,-1.0807266,-0.5384399,0.9133301,1.0397094,75.0
846,1.0186205,1.5605469,-0.8535576,-0.5384399,0.9133301,1.0397094,75.0
847,1.0186205,1.5605469,-0.8535576,-0.7784546,0.78376466,0.68499756,75.0
848,0.5610757,1.1658554,-0.61989594,-0.7784546,0.78376466,0.68499756,75.0
849,0.5610757,1.1658554,-0.61989594,-0.905896,0.51932377,0.2824951,75.0
850,0.042768955,0.7822342,-0.31999207,-0.905896,0.51932377,0.2824951,75.0
851,0.042768955,0.7822342,-0.31999207,-1.0078491,0.38444826,-0.15505372,75.0
852,-0.09769392,0.42105103,-0.067726135,-1.0078491,0.38444826,-0.15505372,75.0
853,-0.09769392,0.42105103,-0.067726135,-0.99722904,0.25594482,-0.5171997,75.0
854,-0.495965,0.106666565,0.09719849,-0.99722904,0.25594482,-0.5171997,75.0
855,-0.495965,0.106666565,0.09719849,-1.1023682,-0.15080567,-0.82730716,75.0
856,-1.4537182,0.0030975342,0.33638,-1.1023682,-0.15080567,-0.82730716,75.0
857,-1.4537182,0.0030975342,0.33638,-1.173523,-0.4439209,-1.1512207,75.0
858,-1.6213732,-0.12648773,0.6572876,-1.173523,-0.4439209,-1.1512207,75.0
859,-1.6213732,-0.12648773,0.6572876,-1.1937011,-0.6202149,-1.6100098,75.0
860,-0.32069492,-0.5938797,0.90979004,-1.1937011,-0.6202149,-1.6100098,75.0
861,-0.32069492,-0.5938797,0.90979004,-1.1310425,-0.66588134,-2.1282716,75.0
862,1.3940544,-1.2936554,0.9654541,-1.1310425,-0.66588134,-2.1282716,75.0
863,1.3940544,-1.2936554,0.9654541,-1.0535157,-0.60322267,-2.4543092,75.0
864,1.9060149,-1.8766556,0.90930176,-1.0535157,-0.60322267,-2.4543092,75.0
865,1.9060149,-1.8766556,0.90930176,-0.8889038,-0.6265869,-2.5063477,75.0
866,0.7806101,-2.0850754,0.9568939,-0.8889038,-0.6265869,-2.5063477,75.0
867,0.7806101,-2.0850754,0.9568939,-0.630835,-0.65419924,-2.445813,75.0
868,-0.86443996,-1.8908768,1.0186424,-0.630835,-0.65419924,-2.445813,75.0
869,-0.86443996,-1.8908768,1.0186424,-0.36533204,-0.7306641,-2.345984,75.0
870,-1.8594351,-1.4784698,0.8550148,-0.36533204,-0.7306641,-2.345984,75.0
871,-1.8594351,-1.4784698,0.8550148,-0.1178833,-0.80819094,-2.2875733,75.0
872,-2.0152216,-1.208519,0.53735733,-0.1178833,-0.80819094,-2.2875733,75.0
873,-2.0152216,-1.208519,0.53735733,-0.07115479,-0.84536135,-2.177124,75.0
874,-1.8053417,-1.2445221,0.46006012,-0.07115479,-0.84536135,-2.177124,75.0
875,-1.8053417,-1.2445221,0.46006012,-0.2347046,-0.8219971,-2.0231323,75.0
876,-1.600584,-1.3466187,0.7866745,-0.2347046,-0.8219971,-2.0231323,75.0
877,-1.600584,-1.3466187,0.7866745,-0.4885254,-0.7625244,-1.9094971,75.0
878,-1.3997545,-1.3292465,1.1261635,-0.4885254,-0.7625244,-1.9094971,75.0
879,-1.3997545,-1.3292465,1.1261635,-0.7051758,-0.7104859,-1.8606446,75.0
880,-1.1665077,-1.3733597,1.1305542,-0.7051758,-0.7104859,-1.8606446,75.0
881,-1.1665077,-1.3733597,1.1305542,-0.84748536,-0.6945557,-1.8383423,75.0
882,-0.8833647,-1.559845,0.9481926,-0.84748536,-0.6945557,-1.8383423,75.0
883,-0.8833647,-1.559845,0.9481926,-0.89208984,-0.6690674,-1.7894897,75.0
884,-0.41102552,-1.7857819,0.8514099,-0.89208984,-0.6690674,-1.7894897,75.0
885,-0.41102552,-1.7857819,0.8514099,-0.88253176,-0.61915284,-1.7597535,75.0
886,0.24163818,-1.9640121,0.8156967,-0.88253176,-0.61915284,-1.7597535,75.0
887,0.24163818,-1.9640121,0.8156967,-0.81668705,-0.6159668,-1.7512573,75.0
888,0.8562498,-2.0759354,0.7097244,-0.81668705,-0.6159668,-1.7512573,75.0
889,0.8562498,-2.0759354,0.7097244,-0.81031495,-0.6244629,-1.7024049,75.0
890,1.441433,-2.1051254,0.62522507,-0.81031495,-0.6244629,-1.7024049,75.0
891,1.441433,-2.1051254,0.62522507,-0.86766356,-0.5979126,-1.6503662,75.0
892,2.066733,-2.1081238,0.65151215,-0.86766356,-0.5979126,-1.6503662,75.0
893,2.066733,-2.1081238,0.65151215,-0.88040775,-0.5246338,-1.5930176,75.0
894,2.5202808,-2.2047882,0.7029457,-0.88040775,-0.5246338,-1.5930176,75.0
895,2.5202808,-2.2047882,0.7029457,-0.8315552,-0.48640138,-1.5154908,75.0
896,2.5870624,-2.3502579,0.7413597,-0.8315552,-0.48640138,-1.5154908,75.0
897,2.5870624,-2.3502579,0.7413597,-0.6754395,-0.4354248,-1.3954834,75.0
898,2.4208217,-2.4439774,0.74661255,-0.6754395,-0.4354248,-1.3954834,75.0
899,2.4208217,-2.4439774,0.74661255,-0.5278198,-0.36851808,-1.2521118,75.0
900,2.2590451,-2.402237,0.6773834,-0.5278198,-0.36851808,-1.2521118,75.0
901,2.2590451,-2.402237,0.6773834,-0.41312256,-0.270813,-0.9897949,75.0
902,2.2640355,-2.21904,0.5509262,-0.41312256,-0.270813,-0.9897949,75.0
903,2.2640355,-2.21904,0.5509262,-0.32922363,0.2538208,-0.7614624,75.0
904,1.7609112,-1.939682,0.46238327,-0.32922363,0.2538208,-0.7614624,75.0
905,1.7609112,-1.939682,0.46238327,-0.34940186,0.3717041,-0.27612305,75.0
906,-0.11704016,-1.3385468,0.3534279,-0.34940186,0.3717041,-0.27612305,75.0
907,-0.11704016,-1.3385468,0.3534279,-0.20072022,0.15080567,0.29417726,75.0
908,-1.9078169,-0.65935516,0.14321518,-0.20072022,0.15080567,0.29417726,75.0
909,-1.9078169,-0.65935516,0.14321518,0.5533081,0.040356446,0.72323,75.0
910,-1.3221765,-0.57870483,-0.047100067,0.5533081,0.040356446,0.72323,75.0
911,-1.3221765,-0.57870483,-0.047100067,1.5664673,0.36851808,0.90802,75.0
912,-1.3221765,-0.57870483,-0.047100067,1.5664673,0.36851808,0.90802,75.0
913,1.116209,-1.0051727,-0.18898773,1.5664673,0.36851808,0.90802,75.0
914,1.116209,-1.0051727,-0.18898773,2.1399536,0.7540283,1.0545777,75.0
915,2.5798204,-0.75974274,-0.50704956,2.1399536,0.7540283,1.0545777,75.0
916,2.5798204,-0.75974274,-0.50704956,1.8797607,0.88359374,1.3965454,75.0
917,1.7188611,0.76988983,-0.9489136,1.8797607,0.88359374,1.3965454,75.0
918,1.7188611,0.76988983,-0.9489136,1.4337158,0.9165161,1.8638306,75.0
919,-0.21328998,2.4554596,-1.2164917,1.4337158,0.9165161,1.8638306,75.0
920,-0.21328998,2.4554596,-1.2164917,1.2075074,0.98236084,2.2312868,75.0
921,-1.6562886,3.2679443,-1.0983162,1.2075074,0.98236084,2.2312868,75.0
922,-1.6562886,3.2679443,-1.0983162,1.0981201,1.0057251,2.5594482,75.0
923,-2.4044132,3.3701324,-0.7291298,1.0981201,1.0057251,2.5594482,75.0
924,-2.4044132,3.3701324,-0.7291298,1.1161743,0.98129886,2.8546875,75.0
925,-2.730208,3.1737518,-0.5502739,1.1161743,0.98129886,2.8546875,75.0
926,-2.730208,3.1737518,-0.5502739,1.2595459,0.9409424,3.081958,75.0
927,-2.6753774,2.9662476,-0.74394226,1.2595459,0.9409424,3.081958,75.0
928,-2.6753774,2.9662476,-0.74394226,1.4761963,0.904834,3.2285156,75.0
929,-2.2547426,2.9059677,-1.1362305,1.4761963,0.904834,3.2285156,75.0
930,-2.2547426,2.9059677,-1.1362305,1.629126,0.8867798,3.274182,75.0
931,-1.5794659,3.0053635,-1.467041,1.629126,0.8867798,3.274182,75.0
932,-1.5794659,3.0053635,-1.467041,1.6705445,0.903772,3.2083375,75.0
933,-0.8007312,3.143036,-1.6053009,1.6705445,0.903772,3.2083375,75.0
934,-0.8007312,3.143036,-1.6053009,1.6025757,0.92926025,3.0639038,75.0
935,-0.06740379,3.1590729,-1.5706062,1.6025757,0.92926025,3.0639038,75.0
936,-0.06740379,3.1590729,-1.5706062,1.4199097,0.99722904,2.8398194,75.0
937,0.590291,3.0252533,-1.4594765,1.4199097,0.99722904,2.8398194,75.0
938,0.590291,3.0252533,-1.4594765,1.1639649,1.0673218,2.5594482,75.0
939,1.133573,2.7752533,-1.3349495,1.1639649,1.0673218,2.5594482,75.0
940,1.133573,2.7752533,-1.3349495,0.82836914,1.1671509,2.2461548,75.0
941,1.4261823,2.485695,-1.2885399,0.82836914,1.1671509,2.2461548,75.0
942,1.4261823,2.485695,-1.2885399,0.38551027,1.2181275,1.9413575,75.0
943,1.320499,2.240425,-1.32341,0.38551027,1.2181275,1.9413575,75.0
944,1.320499,2.240425,-1.32341,-0.09133301,1.1852051,1.630188,75.0
945,0.8592434,2.0628967,-1.314331,-0.09133301,1.1852051,1.630188,75.0
946,0.8592434,2.0628967,-1.314331,-0.50233155,1.0513916,1.3073364,75.0
947,0.3616867,1.8695526,-1.1692162,-0.50233155,1.0513916,1.3073364,75.0
948,0.3616867,1.8695526,-1.1692162,-0.6669434,0.98236084,1.1437867,75.0
949,0.16925669,1.5500717,-0.9054413,-0.6669434,0.98236084,1.1437867,75.0
950,0.16925669,1.5500717,-0.9054413,-0.9547486,0.72323,0.62764895,75.0
951,-0.32523918,1.089035,-0.45303726,-0.9547486,0.72323,0.62764895,75.0
952,-0.32523918,1.089035,-0.45303726,-0.99085695,0.5936646,0.4364868,75.0
953,-0.5138655,0.74150085,-0.14445114,-0.99085695,0.5936646,0.4364868,75.0
954,-0.5138655,0.74150085,-0.14445114,-0.9515625,0.18585205,-0.24851075,75.0
955,-0.88393164,0.28873444,0.3824234,-0.9515625,0.18585205,-0.24851075,75.0
956,-0.88393164,0.28873444,0.3824234,-0.88253176,0.12319336,-0.4704712,75.0
957,-0.8353925,0.0013656616,0.51626587,-0.88253176,0.12319336,-0.4704712,75.0
958,-0.8353925,0.0013656616,0.51626587,-0.89421386,-0.2357666,-0.9388184,75.0
959,-1.4990025,-0.10095978,0.96435547,-0.89421386,-0.2357666,-0.9388184,75.0
960,-1.4990025,-0.10095978,0.96435547,-0.998291,-0.3440918,-1.0821899,75.0
961,-1.56324,-0.16664124,1.0969238,-0.998291,-0.3440918,-1.0821899,75.0
962,-1.56324,-0.16664124,1.0969238,-1.2850342,-0.55543214,-1.630188,75.0
963,-0.40892935,-0.38492584,0.9812126,-1.2850342,-0.55543214,-1.630188,75.0
964,-0.40892935,-0.38492584,0.9812126,-1.2860962,-0.5872925,-1.8829468,75.0
965,0.36072302,-0.85993195,0.76815796,-1.2860962,-0.5872925,-1.8829468,75.0
966,0.36072302,-0.85993195,0.76815796,-1.2170655,-0.59047854,-2.5583863,75.0
967,2.396574,-1.86586,0.37501144,-1.2170655,-0.59047854,-2.5583863,75.0
968,2.396574,-1.86586,0.37501144,-1.1374146,-0.5915405,-2.6815796,75.0
969,1.9475813,-2.1020355,0.5125427,-1.1374146,-0.5915405,-2.6815796,75.0
970,1.9475813,-2.1020355,0.5125427,-0.7476563,-0.64782715,-2.7580445,75.0
971,0.2859826,-2.310669,1.3076286,-0.7476563,-0.64782715,-2.7580445,75.0
972,0.2859826,-2.310669,1.3076286,-0.632959,-0.64782715,-2.7537963,75.0
973,-0.4222269,-2.1575546,1.3900719,-0.632959,-0.64782715,-2.7537963,75.0
974,-0.4222269,-2.1575546,1.3900719,-0.38338622,-0.6680054,-2.6667116,75.0
975,-1.6038461,-1.7799835,1.3035965,-0.38338622,-0.6680054,-2.6667116,75.0
976,-1.6038461,-1.7799835,1.3035965,-0.3727661,-0.6690674,-2.618921,75.0
977,-1.562386,-1.6933975,1.0131264,-0.3727661,-0.6690674,-2.618921,75.0
978,-1.562386,-1.6933975,1.0131264,-0.4694092,-0.6595093,-2.4787354,75.0
979,-1.5617495,-1.5788269,0.59070206,-0.4694092,-0.6595093,-2.4787354,75.0
980,-1.5617495,-1.5788269,0.59070206,-0.5703003,-0.66588134,-2.3130615,75.0
981,-1.4249487,-1.5544052,0.33802795,-0.5703003,-0.66588134,-2.3130615,75.0
982,-1.4249487,-1.5544052,0.33802795,-0.62127686,-0.6595093,-2.1176515,75.0
983,-1.1815357,-1.6737137,0.49461746,-0.62127686,-0.6595093,-2.1176515,75.0
984,-1.1815357,-1.6737137,0.49461746,-0.6818115,-0.6435791,-2.0687988,75.0
985,-0.8923111,-1.730339,0.6600609,-0.6818115,-0.6435791,-2.0687988,75.0
986,-0.8923111,-1.730339,0.6600609,-0.81243896,-0.6202149,-1.9700317,75.0
987,-0.56205463,-2.0113983,1.0977249,-0.81243896,-0.6202149,-1.9700317,75.0
988,-0.56205463,-2.0113983,1.0977249,-0.78164065,-0.62764895,-1.9519776,75.0
989,-0.2982521,-2.0465546,1.0177307,-0.78164065,-0.62764895,-1.9519776,75.0
990,-0.2982521,-2.0465546,1.0177307,-0.6552612,-0.5894165,-1.9073731,75.0
991,0.22624207,-2.188736,0.8884125,-0.6552612,-0.5894165,-1.9073731,75.0
992,0.22624207,-2.188736,0.8884125,-0.63933104,-0.54693604,-1.8638306,75.0
993,0.8915529,-2.2298584,0.6984253,-0.63933104,-0.54693604,-1.8638306,75.0
994,0.8915529,-2.2298584,0.6984253,-0.79119873,-0.5012695,-1.8192261,75.0
995,1.5459938,-2.190712,0.4634018,-0.79119873,-0.5012695,-1.8192261,75.0
996,1.5459938,-2.190712,0.4634018,-0.9611206,-0.44073486,-1.7512573,75.0
997,2.1104035,-2.195572,0.2578659,-0.9611206,-0.44073486,-1.7512573,75.0
998,2.1104035,-2.195572,0.2578659,-1.0917481,-0.3419678,-1.6397461,75.0
999,2.4604177,-2.2928314,0.23972702,-1.0917481,-0.3419678,-1.6397461,75.0
1000,2.4604177,-2.2928314,0.23972702,-1.0875,-0.21877442,-1.4953126,75.0
1001,2.4182243,-2.4377594,0.34742355,-1.0875,-0.21877442,-1.4953126,75.0
1002,2.4182243,-2.4377594,0.34742355,-0.8750977,-0.1444336,-1.1575928,75.0
1003,1.882956,-2.7481842,0.40434265,-0.8750977,-0.1444336,-1.1575928,75.0
1004,1.882956,-2.7481842,0.40434265,-0.81031495,-0.19541016,-0.98873293,75.0
1005,1.5673635,-2.483017,0.27856445,-0.81031495,-0.19541016,-0.98873293,75.0
1006,1.5673635,-2.483017,0.27856445,-0.5766724,-0.0637207,-0.62340087,75.0
1007,1.5498502,-2.2220306,0.11627197,-0.5766724,-0.0637207,-0.62340087,75.0
1008,1.5498502,-2.2220306,0.11627197,-0.37489015,0.21027832,-0.22514649,75.0
1009,1.0339231,-1.7381973,0.17584229,-0.37489015,0.21027832,-0.22514649,75.0
1010,1.0339231,-1.7381973,0.17584229,-0.39294434,0.2081543,0.32922363,75.0
1011,-0.48125982,-0.8527298,0.28873444,-0.39294434,0.2081543,0.32922363,75.0
1012,-0.48125982,-0.8527298,0.28873444,-0.095581055,0.008496094,0.79969484,75.0
1013,-1.3360212,-0.19519806,0.082523346,-0.095581055,0.008496094,0.79969484,75.0
1014,-1.3360212,-0.19519806,0.082523346,0.7582764,-0.0053100586,1.1565307,75.0
1015,-0.13361168,-0.31964874,-0.28871918,0.7582764,-0.0053100586,1.1565307,75.0
1016,-0.13361168,-0.31964874,-0.28871918,1.6970948,0.34090576,1.2786621,75.0
1017,-0.13361168,-0.31964874,-0.28871918,1.6970948,0.34090576,1.2786621,74.0
1018,1.9113967,-0.6479187,-0.54470825,1.6970948,0.34090576,1.2786621,74.0
1019,1.9113967,-0.6479187,-0.54470825,2.0422485,0.61702883,1.5176147,74.0
1020,2.314225,0.0054473877,-0.6469879,2.0422485,0.61702883,1.5176147,74.0
1021,2.314225,0.0054473877,-0.6469879,1.8415283,0.6287109,1.8850708,74.0
1022,0.62998104,1.6795425,-0.6980972,1.8415283,0.6287109,1.8850708,74.0
1023,0.62998104,1.6795425,-0.6980972,1.6928467,0.57242435,2.4606812,74.0
1024,-1.9566841,3.5045319,-0.674263,1.6928467,0.57242435,2.4606812,74.0
1025,-1.9566841,3.5045319,-0.674263,1.6928467,0.58623046,2.6040528,74.0
1026,-2.0627718,3.5620728,-0.55418015,1.6928467,0.58623046,2.6040528,74.0
1027,-2.0627718,3.5620728,-0.55418015,1.7374512,0.5851685,2.8408813,74.0
1028,-2.1992288,3.547104,-0.36509705,1.7374512,0.5851685,2.8408813,74.0
1029,-2.1992288,3.547104,-0.36509705,1.7852417,0.6064087,3.0246093,74.0
1030,-2.0500813,3.3531723,-0.41496277,1.7852417,0.6064087,3.0246093,74.0
1031,-2.0500813,3.3531723,-0.41496277,1.8383423,0.6467652,3.1488647,74.0
1032,-1.7639418,3.2343369,-0.72079086,1.8383423,0.6467652,3.1488647,74.0
1033,-1.7639418,3.2343369,-0.72079086,1.9169312,0.68499756,3.1945312,74.0
1034,-1.3871303,3.2373123,-1.082344,1.9169312,0.68499756,3.1945312,74.0
1035,-1.3871303,3.2373123,-1.082344,1.906311,0.7497803,3.1541748,74.0
1036,-0.9629388,3.3285294,-1.320015,1.906311,0.7497803,3.1541748,74.0
1037,-0.9629388,3.3285294,-1.320015,1.8043579,0.80819094,3.0437257,74.0
1038,-0.57782173,3.388626,-1.4194756,1.8043579,0.80819094,3.0437257,74.0
1039,-0.57782173,3.388626,-1.4194756,1.622754,0.8326172,2.9067261,74.0
1040,-0.23480368,3.3212433,-1.3957138,1.622754,0.8326172,2.9067261,74.0
1041,-0.23480368,3.3212433,-1.3957138,1.3944215,0.89102787,2.6953857,74.0
1042,0.15352678,3.1033707,-1.2821808,1.3944215,0.89102787,2.6953857,74.0
1043,0.15352678,3.1033707,-1.2821808,1.1363525,0.9494385,2.4213867,74.0
1044,0.53972816,2.7882614,-1.2126465,1.1363525,0.9494385,2.4213867,74.0
1045,0.53972816,2.7882614,-1.2126465,0.81243896,0.96643066,2.1282716,74.0
1046,0.74185324,2.5012283,-1.1675186,0.81243896,0.96643066,2.1282716,74.0
1047,0.74185324,2.5012283,-1.1675186,0.41949463,0.9197022,1.807544,74.0
1048,0.72588015,2.240219,-1.0012283,0.41949463,0.9197022,1.807544,74.0
1049,0.72588015,2.240219,-1.0012283,0.08814698,0.8793457,1.3922974,74.0
1050,0.66994953,1.8995361,-0.8289032,0.08814698,0.8793457,1.3922974,74.0
1051,0.66994953,1.8995361,-0.8289032,-0.14337158,0.79332274,0.93138427,74.0
1052,0.6629009,1.4315338,-0.7976074,-0.14337158,0.79332274,0.93138427,74.0
1053,0.6629009,1.4315338,-0.7976074,-0.30373535,0.68287355,0.4704712,74.0
1054,0.5174422,0.9619522,-0.78100586,-0.30373535,0.68287355,0.4704712,74.0
1055,0.5174422,0.9619522,-0.78100586,-0.45135498,0.48746338,0.025488282,74.0
1056,0.11621237,0.64398956,-0.5700531,-0.45135498,0.48746338,0.025488282,74.0
1057,0.11621237,0.64398956,-0.5700531,-0.632959,0.2527588,-0.45135498,74.0
1058,-0.096837044,0.43042755,-0.2707367,-0.632959,0.2527588,-0.45135498,74.0
1059,-0.096837044,0.43042755,-0.2707367,-0.7805786,0.14868164,-0.8262451,74.0
1060,-0.23258448,0.18651581,-0.0129776,-0.7805786,0.14868164,-0.8262451,74.0
1061,-0.23258448,0.18651581,-0.0129776,-1.0184692,-0.14761963,-1.1172364,74.0
1062,-0.89987373,0.028327942,0.3268509,-1.0184692,-0.14761963,-1.1172364,74.0
1063,-0.89987373,0.028327942,0.3268509,-1.265918,-0.4333008,-1.3413209,74.0
1064,-1.4500871,-0.11141968,0.70913696,-1.265918,-0.4333008,-1.3413209,74.0
1065,-1.4500871,-0.11141968,0.70913696,-1.3328247,-0.6690674,-1.6769165,74.0
1066,-0.8802967,-0.55080414,0.8673096,-1.3328247,-0.6690674,-1.6769165,74.0
1067,-0.8802967,-0.55080414,0.8673096,-1.176709,-0.815625,-2.1282716,74.0
1068,0.7084093,-1.2938995,0.7992439,-1.176709,-0.815625,-2.1282716,74.0
1069,0.7084093,-1.2938995,0.7992439,-0.9388184,-0.8071289,-2.4851074,74.0
1070,2.0649333,-2.0140762,0.8643799,-0.9388184,-0.8071289,-2.4851074,74.0
1071,2.0649333,-2.0140762,0.8643799,-0.7582764,-0.7540283,-2.5552003,74.0
1072,1.9026179,-2.3345413,1.1378632,-0.7582764,-0.7540283,-2.5552003,74.0
1073,1.9026179,-2.3345413,1.1378632,-0.6403931,-0.7317261,-2.437317,74.0
1074,0.4801755,-2.122635,1.2446785,-0.6403931,-0.7317261,-2.437317,74.0
1075,0.4801755,-2.122635,1.2446785,-0.6085327,-0.7168579,-2.2291627,74.0
1076,-0.96615267,-1.5649414,0.98929596,-0.6085327,-0.7168579,-2.2291627,74.0
1077,-0.96615267,-1.5649414,0.98929596,-0.5713623,-0.725354,-2.0252564,74.0
1078,-1.744895,-1.0523529,0.66371536,-0.5713623,-0.725354,-2.0252564,74.0
1079,-1.744895,-1.0523529,0.66371536,-0.67437744,-0.6945557,-1.8372803,74.0
1080,-1.9586844,-0.82829285,0.66928864,-0.67437744,-0.6945557,-1.8372803,74.0
1081,-1.9586844,-0.82829285,0.66928864,-1.0142212,-0.58304447,-1.6163819,74.0
1082,-2.0012493,-0.8697052,0.9402542,-1.0142212,-0.58304447,-1.6163819,74.0
1083,-2.0012493,-0.8697052,0.9402542,-1.3806152,-0.46834716,-1.4071655,74.0
1084,-2.0121937,-1.1060638,1.0308418,-1.3806152,-0.46834716,-1.4071655,74.0
1085,-2.0121937,-1.1060638,1.0308418,-1.5218629,-0.39294434,-1.2786621,74.0
1086,-1.8370008,-1.4129791,0.81749344,-1.5218629,-0.39294434,-1.2786621,74.0
1087,-1.8370008,-1.4129791,0.81749344,-1.4815063,-0.32922363,-1.2404298,74.0
1088,-1.4074183,-1.66082,0.5735245,-1.4815063,-0.32922363,-1.2404298,74.0
1089,-1.4074183,-1.66082,0.5735245,-1.3965454,-0.3345337,-1.2860962,74.0
1090,-0.8580265,-1.7857208,0.49748993,-1.3965454,-0.3345337,-1.2860962,74.0
1091,-0.8580265,-1.7857208,0.49748993,-1.2786621,-0.39400634,-1.4230957,74.0
1092,-0.21408224,-1.8835449,0.5470772,-1.2786621,-0.39400634,-1.4230957,74.0
1093,-0.21408224,-1.8835449,0.5470772,-1.1575928,-0.45666504,-1.6131958,74.0
1094,0.64200354,-2.0949097,0.58898926,-1.1575928,-0.45666504,-1.6131958,74.0
1095,0.64200354,-2.0949097,0.58898926,-1.0195312,-0.46622315,-1.8553345,74.0
1096,1.5772138,-2.42865,0.6229477,-1.0195312,-0.46622315,-1.8553345,74.0
1097,1.5772138,-2.42865,0.6229477,-0.9260742,-0.46516114,-2.0369384,74.0
1098,2.2056065,-2.6625519,0.7239952,-0.9260742,-0.46516114,-2.0369384,74.0
1099,2.2056065,-2.6625519,0.7239952,-0.88996583,-0.5065796,-2.1272094,74.0
1100,2.3840408,-2.6656265,0.8087845,-0.88996583,-0.5065796,-2.1272094,74.0
1101,2.3840408,-2.6656265,0.8087845,-0.79969484,-0.5055176,-2.1049073,74.0
1102,2.353351,-2.6609268,0.81360626,-0.79969484,-0.5055176,-2.1049073,74.0
1103,2.353351,-2.6609268,0.81360626,-0.58410645,-0.42268068,-2.0178223,74.0
1104,2.2500148,-2.7758331,0.8556824,-0.58410645,-0.42268068,-2.0178223,74.0
1105,2.2500148,-2.7758331,0.8556824,-0.42692873,-0.271875,-1.806482,74.0
1106,1.9952145,-2.7711334,0.92232895,-0.42692873,-0.271875,-1.806482,74.0
1107,1.9952145,-2.7711334,0.92232895,-0.51082766,-0.21134034,-1.4931885,74.0
1108,1.7428513,-2.4486084,0.7281227,-0.51082766,-0.21134034,-1.4931885,74.0
1109,1.7428513,-2.4486084,0.7281227,-0.52038574,0.021240234,-1.1363525,74.0
1110,1.7144837,-2.044838,0.25755692,-0.52038574,0.021240234,-1.1363525,74.0
1111,1.7144837,-2.044838,0.25755692,-0.4439209,0.4619751,-0.75615233,74.0
1112,0.99191165,-1.7219696,0.030982971,-0.4439209,0.4619751,-0.75615233,74.0
1113,0.99191165,-1.7219696,0.030982971,-0.47578126,0.4439209,-0.15823975,74.0
1114,-0.8061533,-1.1841583,-0.018478394,-0.47578126,0.4439209,-0.15823975,74.0
1115,-0.8061533,-1.1841583,-0.018478394,-0.24851075,0.24957275,0.38551027,74.0
1116,-1.5553842,-0.66477966,-0.37165833,-0.24851075,0.24957275,0.38551027,74.0
1117,-1.5553842,-0.66477966,-0.37165833,0.44604492,0.2442627,0.7965088,74.0
1118,-1.5553842,-0.66477966,-0.37165833,0.44604492,0.2442627,0.7965088,72.0
1119,0.15502119,-0.7133026,-0.86782455,0.44604492,0.2442627,0.7965088,72.0
1120,0.15502119,-0.7133026,-0.86782455,1.1873292,0.6552612,0.97067875,72.0
1121,2.6476622,-1.0308838,-1.158905,1.1873292,0.6552612,0.97067875,72.0
1122,2.6476622,-1.0308838,-1.158905,1.354065,0.9759888,1.264856,72.0
1123,2.9465842,-0.3931656,-1.2052994,1.354065,0.9759888,1.264856,72.0
1124,2.9465842,-0.3931656,-1.2052994,1.0524536,0.8485474,1.7671875,72.0
1125,0.66728926,1.2599182,-1.0567703,1.0524536,0.8485474,1.7671875,72.0
1126,0.66728926,1.2599182,-1.0567703,1.0545777,0.73703617,2.2079225,72.0
1127,-1.7081852,2.5976334,-0.7798042,1.0545777,0.73703617,2.2079225,72.0
1128,-1.7081852,2.5976334,-0.7798042,1.2064453,0.6637573,2.5052857,72.0
1129,-2.7665849,3.106758,-0.45994186,1.2064453,0.6637573,2.5052857,72.0
1130,-2.7665849,3.106758,-0.45994186,1.3976074,0.5649902,2.714502,72.0
1131,-2.9814441,3.11557,-0.28134537,1.3976074,0.5649902,2.714502,72.0
1132,-2.9814441,3.11557,-0.28134537,1.6471802,0.49489745,2.8642457,72.0
1133,-2.8976798,2.944336,-0.3587799,1.6471802,0.49489745,2.8642457,72.0
1134,-2.8976798,2.944336,-0.3587799,1.9169312,0.4428589,2.9672608,72.0
1135,-2.6596966,2.8790665,-0.61237717,1.9169312,0.4428589,2.9672608,72.0
1136,-2.6596966,2.8790665,-0.61237717,2.080481,0.43861085,3.0054932,72.0
1137,-2.2607527,3.053276,-0.8777542,2.080481,0.43861085,3.0054932,72.0
1138,-2.2607527,3.053276,-0.8777542,2.1346436,0.4598511,2.9502685,72.0
1139,-1.7621422,3.328804,-1.0309372,2.1346436,0.4598511,2.9502685,72.0
1140,-1.7621422,3.328804,-1.0309372,2.0634887,0.5012695,2.8217652,72.0
1141,-1.2466645,3.4719162,-1.049263,2.0634887,0.5012695,2.8217652,72.0
1142,-1.2466645,3.4719162,-1.049263,1.9158691,0.540564,2.614673,72.0
1143,-0.6452074,3.35849,-1.0289383,1.9158691,0.540564,2.614673,72.0
1144,-0.6452074,3.35849,-1.0289383,1.7406372,0.5979126,2.3289917,72.0
1145,0.10874891,3.0301895,-1.0614204,1.7406372,0.5979126,2.3289917,72.0
1146,0.10874891,3.0301895,-1.0614204,1.5675293,0.69349366,2.0231323,72.0
1147,0.8567381,2.6130066,-1.1253586,1.5675293,0.69349366,2.0231323,72.0
1148,0.8567381,2.6130066,-1.1253586,1.3200806,0.79332274,1.7523193,72.0
1149,1.2877951,2.2573395,-1.132,1.3200806,0.79332274,1.7523193,72.0
1150,1.2877951,2.2573395,-1.132,0.9122681,0.8442993,1.5346069,72.0
1151,1.3143544,2.090454,-1.108738,0.9122681,0.8442993,1.5346069,72.0
1152,1.3143544,2.090454,-1.108738,0.43011475,0.83049315,1.2839721,72.0
1153,1.2664986,2.0340805,-1.1215477,0.43011475,0.83049315,1.2839721,72.0
1154,1.2664986,2.0340805,-1.1215477,-0.0637207,0.80394286,0.991919,72.0
1155,1.4345856,1.86026,-1.1501465,-0.0637207,0.80394286,0.991919,72.0
1156,1.4345856,1.86026,-1.1501465,-0.4630371,0.7593384,0.69349366,72.0
1157,1.4775515,1.4559708,-1.0528831,-0.4630371,0.7593384,0.69349366,72.0
1158,1.4775515,1.4559708,-1.0528831,-0.72854006,0.6446411,0.41312256,72.0
1159,0.8364477,0.97114563,-0.67297363,-0.72854006,0.6446411,0.41312256,72.0
1160,0.8364477,0.97114563,-0.67297363,-0.8931519,0.32816163,0.15930176,72.0
1161,-0.109369755,0.5965576,-0.09543228,-0.8931519,0.32816163,0.15930176,72.0
1162,-0.109369755,0.5965576,-0.09543228,-0.9409424,0.2166504,-0.08283692,72.0
1163,-0.56364346,0.31498718,0.35224533,-0.9409424,0.2166504,-0.08283692,72.0
1164,-0.56364346,0.31498718,0.35224533,-0.9239502,-0.010620117,-0.27612305,72.0
1165,-0.96768713,0.16040039,0.5989456,-0.9239502,-0.010620117,-0.27612305,72.0
1166,-0.96768713,0.16040039,0.5989456,-1.0322754,-0.32603762,-0.48427734,72.0
1167,-1.3720379,0.13558197,0.74741745,-1.0322754,-0.32603762,-0.48427734,72.0
1168,-1.3720379,0.13558197,0.74741745,-1.1512207,-0.52250975,-0.8028809,72.0
1169,-0.7665634,-0.085624695,0.71836853,-1.1512207,-0.52250975,-0.8028809,72.0
1170,-0.7665634,-0.085624695,0.71836853,-1.1586548,-0.6467652,-1.2563599,72.0
1171,0.7539005,-0.62812805,0.57375336,-1.1586548,-0.6467652,-1.2563599,72.0
1172,0.7539005,-0.62812805,0.57375336,-1.0726318,-0.72854006,-1.6885986,72.0
1173,1.9313798,-1.2769165,0.63126755,-1.0726318,-0.72854006,-1.6885986,72.0
1174,1.9313798,-1.2769165,0.63126755,-0.88040775,-0.7858887,-1.9169312,72.0
1175,1.7118154,-1.7345734,1.0481911,-0.88040775,-0.7858887,-1.9169312,72.0
1176,1.7118154,-1.7345734,1.0481911,-0.6117188,-0.8708496,-1.9296753,72.0
1177,0.29730892,-1.7805405,1.54562,-0.6117188,-0.8708496,-1.9296753,72.0
1178,0.29730892,-1.7805405,1.54562,-0.32922363,-0.94412845,-1.8723267,72.0
1179,-1.202302,-1.4670792,1.7473602,-0.32922363,-0.94412845,-1.8723267,72.0
1180,-1.202302,-1.4670792,1.7473602,-0.12850343,-0.94412845,-1.7746216,72.0
1181,-2.0290294,-1.0257416,1.5835114,-0.12850343,-0.94412845,-1.7746216,72.0
1182,-2.0290294,-1.0257416,1.5835114,-0.09451904,-0.88040775,-1.6599244,72.0
1183,-2.2485409,-0.699913,1.2052498,-0.09451904,-0.88040775,-1.6599244,72.0
1184,-2.2485409,-0.699913,1.2052498,-0.24957275,-0.7784546,-1.5165528,72.0
1185,-2.1993818,-0.60092926,0.8225479,-0.24957275,-0.7784546,-1.5165528,72.0
1186,-2.1993818,-0.60092926,0.8225479,-0.52250975,-0.6510132,-1.356189,72.0
1187,-2.036703,-0.6353836,0.53821564,-0.52250975,-0.6510132,-1.356189,72.0
1188,-2.036703,-0.6353836,0.53821564,-0.84111327,-0.5564942,-1.2319336,72.0
1189,-1.7249923,-0.67536926,0.42679977,-0.84111327,-0.5564942,-1.2319336,72.0
1190,-1.7249923,-0.67536926,0.42679977,-1.09281,-0.4704712,-1.2287476,72.0
1191,-1.1852183,-0.8394165,0.47592163,-1.09281,-0.4704712,-1.2287476,72.0
1192,-1.1852183,-0.8394165,0.47592163,-1.2489258,-0.4163086,-1.3009644,72.0
1193,-0.4468565,-1.2096558,0.63256836,-1.2489258,-0.4163086,-1.3009644,72.0
1194,-0.4468565,-1.2096558,0.63256836,-1.3083985,-0.37489015,-1.4666382,72.0
1195,0.3295269,-1.6835785,0.77227783,-1.3083985,-0.37489015,-1.4666382,72.0
1196,0.3295269,-1.6835785,0.77227783,-1.2744141,-0.34727785,-1.6556762,72.0
1197,0.9956651,-2.1677628,0.7392578,-1.2744141,-0.34727785,-1.6556762,72.0
1198,0.9956651,-2.1677628,0.7392578,-1.1597168,-0.35152587,-1.8797607,72.0
1199,1.3753896,-2.4972382,0.61709213,-1.1597168,-0.35152587,-1.8797607,72.0
1200,1.3753896,-2.4972382,0.61709213,-1.0290893,-0.4067505,-2.0380006,72.0
1201,1.4866276,-2.5851288,0.6240463,-1.0290893,-0.4067505,-2.0380006,72.0
1202,1.4866276,-2.5851288,0.6240463,-1.0120972,-0.43967286,-2.1134033,72.0
1203,1.6099687,-2.5262299,0.7020912,-1.0120972,-0.43967286,-2.1134033,72.0
1204,1.6099687,-2.5262299,0.7020912,-1.0099732,-0.42799073,-2.1080933,72.0
1205,1.898778,-2.5263824,0.6823273,-1.0099732,-0.42799073,-2.1080933,72.0
1206,1.898778,-2.5263824,0.6823273,-0.97280276,-0.36108398,-2.0411866,72.0
1207,2.2850137,-2.6144562,0.58182144,-0.97280276,-0.36108398,-2.0411866,72.0
1208,2.2850137,-2.6144562,0.58182144,-0.9526245,-0.1985962,-1.8617066,72.0
1209,2.5520225,-2.6676254,0.45739746,-0.9526245,-0.1985962,-1.8617066,72.0
1210,2.5520225,-2.6676254,0.45739746,-0.97492677,0.014868164,-1.5834595,72.0
1211,2.276884,-2.5555954,0.27598953,-0.97492677,0.014868164,-1.5834595,72.0
1212,2.276884,-2.5555954,0.27598953,-1.0290893,-0.026550293,-1.2372437,72.0
1213,1.6416976,-2.2741547,0.0072631836,-1.0290893,-0.026550293,-1.2372437,72.0
1214,1.6416976,-2.2741547,0.0072631836,-0.8050049,0.32709962,-0.8867798,72.0
1215,0.966593,-2.0634232,-0.14479828,-0.8050049,0.32709962,-0.8867798,72.0
1216,0.966593,-2.0634232,-0.14479828,-0.452417,0.4439209,-0.46409914,72.0
1217,-0.40076137,-1.8319168,-0.0650444,-0.452417,0.4439209,-0.46409914,72.0
1218,-0.40076137,-1.8319168,-0.0650444,-0.15930176,0.14549561,-0.02442627,72.0
1219,-1.6382482,-1.2871933,-0.11263275,-0.15930176,0.14549561,-0.02442627,72.0
1220,-1.6382482,-1.2871933,-0.11263275,0.4343628,0.004248047,0.31860352,72.0
1221,-1.6382482,-1.2871933,-0.11263275,0.4343628,0.004248047,0.31860352,71.0
1222,-0.6895294,-0.9540863,-0.39894485,0.4343628,0.004248047,0.31860352,71.0
1223,-0.6895294,-0.9540863,-0.39894485,1.3498169,0.29630128,0.4333008,71.0
1224,1.7725587,-1.223526,-0.5982094,1.3498169,0.29630128,0.4333008,71.0
1225,1.7725587,-1.223526,-0.5982094,1.6737305,0.7062378,0.6754395,71.0
1226,2.864739,-0.98272705,-0.76659393,1.6737305,0.7062378,0.6754395,71.0
1227,2.864739,-0.98272705,-0.76659393,1.3020264,0.7412842,1.1278565,71.0
1228,1.3868961,0.489563,-1.0820274,1.3020264,0.7412842,1.1278565,71.0
1229,1.3868961,0.489563,-1.0820274,1.0917481,0.68499756,1.621692,71.0
1230,-0.85493636,2.0109482,-1.223423,1.0917481,0.68499756,1.621692,71.0
1231,-0.85493636,2.0109482,-1.223423,1.1023682,0.67437744,1.9753418,71.0
1232,-2.2049088,2.7314987,-0.88090134,1.1023682,0.67437744,1.9753418,71.0
1233,-2.2049088,2.7314987,-0.88090134,1.1172364,0.5894165,2.2790773,71.0
1234,-2.797875,2.8721542,-0.35126877,1.1172364,0.5894165,2.2790773,71.0
1235,-2.797875,2.8721542,-0.35126877,1.2000732,0.49383545,2.5424562,71.0
1236,-3.0184512,2.75737,-0.09458923,1.2000732,0.49383545,2.5424562,71.0
1237,-3.0184512,2.75737,-0.09458923,1.356189,0.42268068,2.7537963,71.0
1238,-2.9002833,2.659996,-0.20546722,1.356189,0.42268068,2.7537963,71.0
1239,-2.9002833,2.659996,-0.20546722,1.4963745,0.38975832,2.89823,71.0
1240,-2.4629269,2.7440643,-0.4591751,1.4963745,0.38975832,2.89823,71.0
1241,-2.4629269,2.7440643,-0.4591751,1.4953126,0.40037844,2.9619508,71.0
1242,-1.7901044,2.9801483,-0.66454315,1.4953126,0.40037844,2.9619508,71.0
1243,-1.7901044,2.9801483,-0.66454315,1.4400879,0.44179687,2.9375246,71.0
1244,-1.0644078,3.1390533,-0.7671547,1.4400879,0.44179687,2.9375246,71.0
1245,-1.0644078,3.1390533,-0.7671547,1.3307008,0.48640138,2.8451295,71.0
1246,-1.0644078,3.1390533,-0.7671547,1.1639649,0.5649902,2.6762695,71.0
1247,-0.36217117,3.0806427,-0.7678757,1.1639649,0.5649902,2.6762695,71.0
1248,0.43014812,2.8664017,-0.75126266,1.1639649,0.5649902,2.6762695,71.0
1249,0.43014812,2.8664017,-0.75126266,0.98873293,0.7104859,2.4585571,71.0
1250,1.2923727,2.563774,-0.81759644,0.98873293,0.7104859,2.4585571,71.0
1251,1.2923727,2.563774,-0.81759644,0.73703617,0.8496094,2.2461548,71.0
1252,1.839953,2.2775574,-0.98137283,0.73703617,0.8496094,2.2461548,71.0
1253,1.839953,2.2775574,-0.98137283,0.40250245,0.90802,2.0549927,71.0
1254,1.8254662,2.101944,-1.1405563,0.40250245,0.90802,2.0549927,71.0
1255,1.8254662,2.101944,-1.1405563,0.078588866,0.8230591,1.8479004,71.0
1256,1.5241423,2.0291138,-1.1212578,0.078588866,0.8230591,1.8479004,71.0
1257,1.5241423,2.0291138,-1.1212578,-0.21877442,0.7423462,1.5887696,71.0
1258,1.4648824,1.9177628,-0.9392662,-0.21877442,0.7423462,1.5887696,71.0
1259,1.4648824,1.9177628,-0.9392662,-0.39188233,0.6711914,1.2765381,71.0
1260,1.472199,1.61409,-0.75378036,-0.39188233,0.6711914,1.2765381,71.0
1261,1.472199,1.61409,-0.75378036,-0.41312256,0.47896728,0.88996583,71.0
1262,0.9294925,1.1727524,-0.5005951,-0.41312256,0.47896728,0.88996583,71.0
1263,0.9294925,1.1727524,-0.5005951,-0.41099855,0.16248779,0.43117675,71.0
1264,0.10675335,0.79650116,-0.09471512,-0.41099855,0.16248779,0.43117675,71.0
1265,0.10675335,0.79650116,-0.09471512,-0.34940186,0.028674318,-0.07752686,71.0
1266,-0.38068628,0.49214172,0.21719742,-0.34940186,0.028674318,-0.07752686,71.0
1267,-0.38068628,0.49214172,0.21719742,-0.2793091,-0.15823975,-0.46834716,71.0
1268,-1.0164876,0.2419815,0.37218475,-0.2793091,-0.15823975,-0.46834716,71.0
1269,-1.0164876,0.2419815,0.37218475,-0.40037844,-0.4609131,-0.727478,71.0
1270,-1.9578438,0.23784637,0.6490555,-0.40037844,-0.4609131,-0.727478,71.0
1271,-1.9578438,0.23784637,0.6490555,-0.55543214,-0.69986576,-0.97386473,71.0
1272,-2.0667753,0.26987457,0.9682312,-0.55543214,-0.69986576,-0.97386473,71.0
1273,-2.0667753,0.26987457,0.9682312,-0.6202149,-0.85598147,-1.3753052,71.0
1274,-0.5913229,-0.10393524,0.967186,-0.6202149,-0.85598147,-1.3753052,71.0
1275,-0.5913229,-0.10393524,0.967186,-0.4598511,-0.8400513,-1.8617066,71.0
1276,1.7080698,-0.88223267,0.68187714,-0.4598511,-0.8400513,-1.8617066,71.0
1277,1.7080698,-0.88223267,0.68187714,-0.37489015,-0.6488892,-2.1303957,71.0
1278,2.862525,-1.5557251,0.5069046,-0.37489015,-0.6488892,-2.1303957,71.0
1279,2.862525,-1.5557251,0.5069046,-0.45029297,-0.5798584,-2.168628,71.0
1280,1.7740774,-1.7137833,0.6274605,-0.45029297,-0.5798584,-2.168628,71.0
1281,1.7740774,-1.7137833,0.6274605,-0.47684327,-0.55968016,-2.061365,71.0
1282,-0.44231033,-1.4260178,0.88142395,-0.47684327,-0.55968016,-2.061365,71.0
1283,-0.44231033,-1.4260178,0.88142395,-0.47578126,-0.54906005,-1.8680786,71.0
1284,-2.1157746,-0.9638214,1.0052261,-0.47578126,-0.54906005,-1.8680786,71.0
1285,-2.1157746,-0.9638214,1.0052261,-0.4322388,-0.5150757,-1.7055908,71.0
1286,-2.784246,-0.64225006,0.92733765,-0.4322388,-0.5150757,-1.7055908,71.0
1287,-2.784246,-0.64225006,0.92733765,-0.46409914,-0.45560303,-1.5866455,71.0
1288,-2.8155193,-0.63565826,0.7438202,-0.46409914,-0.45560303,-1.5866455,71.0
1289,-2.8155193,-0.63565826,0.7438202,-0.63826907,-0.39613038,-1.454956,71.0
1290,-2.6071029,-0.8377228,0.5380478,-0.63826907,-0.39613038,-1.454956,71.0
1291,-2.6071029,-0.8377228,0.5380478,-0.80394286,-0.3451538,-1.3763672,71.0
1292,-2.226686,-1.0548935,0.3226967,-0.80394286,-0.3451538,-1.3763672,71.0
1293,-2.226686,-1.0548935,0.3226967,-0.94412845,-0.29417726,-1.3922974,71.0
1294,-1.6547494,-1.2140121,0.19221497,-0.94412845,-0.29417726,-1.3922974,71.0
1295,-1.6547494,-1.2140121,0.19221497,-1.0513916,-0.27506104,-1.4655762,71.0
1296,-0.99211025,-1.3648148,0.24211502,-1.0513916,-0.27506104,-1.4655762,71.0
1297,-0.99211025,-1.3648148,0.24211502,-1.1257324,-0.2899292,-1.5887696,71.0
1298,-0.28380013,-1.5894547,0.4180336,-1.1257324,-0.2899292,-1.5887696,71.0
1299,-0.28380013,-1.5894547,0.4180336,-1.1310425,-0.32603762,-1.7555054,71.0
1300,0.47753716,-1.8949432,0.57699203,-1.1310425,-0.32603762,-1.7555054,71.0
1301,0.47753716,-1.8949432,0.57699203,-1.0790039,-0.3430298,-1.989148,71.0
1302,1.2819567,-2.2422943,0.65616226,-1.0790039,-0.3430298,-1.989148,71.0
1303,1.2819567,-2.2422943,0.65616226,-1.0269654,-0.32285157,-2.1919923,71.0
1304,1.9883342,-2.5663376,0.6956558,-1.0269654,-0.32285157,-2.1919923,71.0
1305,1.9883342,-2.5663376,0.6956558,-0.98873293,-0.28780517,-2.3130615,71.0
1306,2.3423033,-2.719864,0.7210541,-0.98873293,-0.28780517,-2.3130615,71.0
1307,2.3423033,-2.719864,0.7210541,-0.9855469,-0.3175415,-2.2780151,71.0
1308,2.3571434,-2.6985016,0.6686516,-0.9855469,-0.3175415,-2.2780151,71.0
1309,2.3571434,-2.6985016,0.6686516,-0.9388184,-0.2888672,-2.1526978,71.0
1310,2.4351287,-2.7205887,0.5301857,-0.9388184,-0.2888672,-2.1526978,71.0
1311,2.4351287,-2.7205887,0.5301857,-0.7625244,-0.16673584,-1.9190552,71.0
1312,2.6560621,-2.8398743,0.37540436,-0.7625244,-0.16673584,-1.9190552,71.0
1313,2.6560621,-2.8398743,0.37540436,-0.6690674,-0.0541626,-1.5600952,71.0
1314,2.7467003,-2.845047,0.23048401,-0.6690674,-0.0541626,-1.5600952,71.0
1315,2.7467003,-2.845047,0.23048401,-0.77951664,0.0,-1.1034302,71.0
1316,2.8566864,-2.595604,-0.057273865,-0.77951664,0.0,-1.1034302,71.0
1317,2.8566864,-2.595604,-0.057273865,-0.7880127,0.36851808,-0.65419924,71.0
1318,2.3322241,-2.2209778,-0.26329803,-0.7880127,0.36851808,-0.65419924,71.0
1319,2.3322241,-2.2209778,-0.26329803,-0.631897,0.35789797,-0.07434082,71.0
1320,0.2789507,-1.6970215,-0.14260864,-0.631897,0.35789797,-0.07434082,71.0
1321,0.2789507,-1.6970215,-0.14260864,-0.2824951,0.16354981,0.48215333,71.0
1322,-1.818502,-0.94016266,0.051757812,-0.2824951,0.16354981,0.48215333,71.0
1323,-1.818502,-0.94016266,0.051757812,0.3090454,0.013806152,0.8612915,71.0
1324,-1.8221111,-0.38799286,-0.06247711,0.3090454,0.013806152,0.8612915,71.0
1325,-1.8221111,-0.38799286,-0.06247711,1.1140503,0.07540283,1.0577637,71.0
1326,0.08975983,-0.40267944,-0.43943405,1.1140503,0.07540283,1.0577637,71.0
1327,0.08975983,-0.40267944,-0.43943405,1.6673584,0.3706421,1.175647,71.0
1328,1.7574403,-0.372818,-0.7798805,1.6673584,0.3706421,1.175647,71.0
1329,1.7574403,-0.372818,-0.7798805,1.4931885,0.57242435,1.4655762,71.0
1330,1.4099073,0.6123886,-0.9426689,1.4931885,0.57242435,1.4655762,71.0
1331,1.4099073,0.6123886,-0.9426689,1.1533448,0.5161377,1.8457764,71.0
1332,-0.4859171,2.07341,-0.92362976,1.1533448,0.5161377,1.8457764,71.0
1333,-0.4859171,2.07341,-0.92362976,1.0524536,0.47578126,2.1813722,71.0
1334,-0.4859171,2.07341,-0.92362976,1.0524536,0.47578126,2.1813722,70.0
1335,-2.0749643,2.9343414,-0.7091446,1.0524536,0.47578126,2.1813722,70.0
1336,-2.0749643,2.9343414,-0.7091446,1.1129884,0.42374268,2.4543092,70.0
1337,-2.7190046,3.0528107,-0.35009003,1.1129884,0.42374268,2.4543092,70.0
1338,-2.7190046,3.0528107,-0.35009003,1.3317627,0.34090576,2.6730835,70.0
1339,-2.8361416,2.8418655,-0.11674118,1.3317627,0.34090576,2.6730835,70.0
1340,-2.8361416,2.8418655,-0.11674118,1.6397461,0.27718505,2.8419435,70.0
1341,-2.6394334,2.6734314,-0.2246666,1.6397461,0.27718505,2.8419435,70.0
1342,-2.6394334,2.6734314,-0.2246666,1.9679078,0.24001466,2.9715087,70.0
1343,-2.166381,2.7356339,-0.547493,1.9679078,0.24001466,2.9715087,70.0
1344,-2.166381,2.7356339,-0.547493,2.176062,0.2516968,3.0182374,70.0
1345,-1.5076041,3.0117264,-0.8836365,2.176062,0.2516968,3.0182374,70.0
1346,-1.5076041,3.0117264,-0.8836365,2.2142944,0.2888672,2.983191,70.0
1347,-0.81748486,3.3023605,-1.113987,2.2142944,0.2888672,2.983191,70.0
1348,-0.81748486,3.3023605,-1.113987,2.0709229,0.33665773,2.8780518,70.0
1349,-0.19558907,3.4445648,-1.1820488,2.0709229,0.33665773,2.8780518,70.0
1350,-0.19558907,3.4445648,-1.1820488,1.8245362,0.37807617,2.6996338,70.0
1351,0.37016487,3.362793,-1.1124344,1.8245362,0.37807617,2.6996338,70.0
1352,0.37016487,3.362793,-1.1124344,1.5197388,0.4343628,2.434131,70.0
1353,0.9438858,3.0882034,-0.9839668,1.5197388,0.4343628,2.434131,70.0
1354,0.9438858,3.0882034,-0.9839668,1.1852051,0.5246338,2.1495118,70.0
1355,1.4487977,2.7067566,-0.84734344,1.1852051,0.5246338,2.1495118,70.0
1356,1.4487977,2.7067566,-0.84734344,0.7699585,0.6180908,1.8298463,70.0
1357,1.6145191,2.3311005,-0.74785614,0.7699585,0.6180908,1.8298463,70.0
1358,1.6145191,2.3311005,-0.74785614,0.30267334,0.6552612,1.5069946,70.0
1359,1.3750138,2.0184097,-0.7171593,0.30267334,0.6552612,1.5069946,70.0
1360,1.3750138,2.0184097,-0.7171593,-0.121069334,0.6488892,1.1618408,70.0
1361,1.0593004,1.7189102,-0.70985794,-0.121069334,0.6488892,1.1618408,70.0
1362,1.0593004,1.7189102,-0.70985794,-0.46516114,0.6265869,0.8007569,70.0
1363,0.893888,1.3903351,-0.63871384,-0.46516114,0.6265869,0.8007569,70.0
1364,0.893888,1.3903351,-0.63871384,-0.6786255,0.5703003,0.46409914,70.0
1365,0.5754986,1.0070419,-0.42310333,-0.6786255,0.5703003,0.46409914,70.0
1366,0.5754986,1.0070419,-0.42310333,-0.814563,0.362146,0.12319336,70.0
1367,-0.078211784,0.6669235,-0.058906555,-0.814563,0.362146,0.12319336,70.0
1368,-0.078211784,0.6669235,-0.058906555,-0.8931519,0.15186767,-0.29523927,70.0
1369,-0.38985205,0.36328888,0.2975998,-0.8931519,0.15186767,-0.29523927,70.0
1370,-0.38985205,0.36328888,0.2975998,-0.8973999,0.083898924,-0.65844727,70.0
1371,-0.3557539,0.007820129,0.5498619,-0.8973999,0.083898924,-0.65844727,70.0
1372,-0.3557539,0.007820129,0.5498619,-0.9685547,-0.12319336,-0.9717407,70.0
1373,-0.81866074,-0.2319107,0.7385483,-0.9685547,-0.12319336,-0.9717407,70.0
1374,-0.81866074,-0.2319107,0.7385483,-1.0917481,-0.39400634,-1.265918,70.0
1375,-1.2951632,-0.37521362,0.82966995,-1.0917481,-0.39400634,-1.265918,70.0
1376,-1.2951632,-0.37521362,0.82966995,-1.0779419,-0.6000366,-1.6503662,70.0
1377,-0.61219263,-0.75955963,0.7524185,-1.0779419,-0.6000366,-1.6503662,70.0
1378,-0.61219263,-0.75955963,0.7524185,-0.79226077,-0.7072998,-2.1367676,70.0
1379,1.1146402,-1.4244843,0.6904259,-0.79226077,-0.7072998,-2.1367676,70.0
1380,1.1146402,-1.4244843,0.6904259,-0.5235718,-0.70942384,-2.4787354,70.0
1381,2.342042,-1.9750977,0.82873154,-0.5235718,-0.70942384,-2.4787354,70.0
1382,2.342042,-1.9750977,0.82873154,-0.362146,-0.71791995,-2.5541382,70.0
1383,1.8490362,-2.1187134,1.0586395,-0.362146,-0.71791995,-2.5541382,70.0
1384,1.8490362,-2.1187134,1.0586395,-0.21983643,-0.7455322,-2.4882934,70.0
1385,0.14785719,-1.9007568,1.1547699,-0.21983643,-0.7455322,-2.4882934,70.0
1386,0.14785719,-1.9007568,1.1547699,-0.15823975,-0.7508423,-2.3268678,70.0
1387,-1.3616338,-1.4568024,1.0529175,-0.15823975,-0.7508423,-2.3268678,70.0
1388,-1.3616338,-1.4568024,1.0529175,-0.18266602,-0.71791995,-2.1250856,70.0
1389,-2.0396976,-1.0330429,0.8777466,-0.18266602,-0.71791995,-2.1250856,70.0
1390,-2.0396976,-1.0330429,0.8777466,-0.30373535,-0.6244629,-1.9169312,70.0
1391,-2.1295733,-0.8343353,0.7398567,-0.30373535,-0.6244629,-1.9169312,70.0
1392,-2.1295733,-0.8343353,0.7398567,-0.5214478,-0.5246338,-1.6949707,70.0
1393,-2.0173426,-0.87072754,0.60178375,-0.5214478,-0.5246338,-1.6949707,70.0
1394,-2.0173426,-0.87072754,0.60178375,-0.70942384,-0.4067505,-1.4900025,70.0
1395,-1.781672,-1.0167236,0.3904724,-0.70942384,-0.4067505,-1.4900025,70.0
1396,-1.781672,-1.0167236,0.3904724,-0.8336792,-0.2984253,-1.3137085,70.0
1397,-1.4441366,-1.1666718,0.20339203,-0.8336792,-0.2984253,-1.3137085,70.0
1398,-1.4441366,-1.1666718,0.20339203,-0.9717407,-0.23364258,-1.176709,70.0
1399,-1.1388664,-1.2705154,0.23863983,-0.9717407,-0.23364258,-1.176709,70.0
1400,-1.1388664,-1.2705154,0.23863983,-1.09281,-0.19222413,-1.083252,70.0
1401,-0.8468962,-1.3523254,0.45716095,-1.09281,-0.19222413,-1.083252,70.0
1402,-0.8468962,-1.3523254,0.45716095,-1.2468017,-0.13699952,-1.0322754,70.0
1403,-0.40865707,-1.3901749,0.5846977,-1.2468017,-0.13699952,-1.0322754,70.0
1404,-0.40865707,-1.3901749,0.5846977,-1.4029175,-0.11044922,-1.0365235,70.0
1405,0.116482735,-1.4578094,0.45550156,-1.4029175,-0.11044922,-1.0365235,70.0
1406,0.116482735,-1.4578094,0.45550156,-1.4698242,-0.124255374,-1.0864381,70.0
1407,0.6639137,-1.6796646,0.1411438,-1.4698242,-0.124255374,-1.0864381,70.0
1408,0.6639137,-1.6796646,0.1411438,-1.3795532,-0.16673584,-1.177771,70.0
1409,1.1953034,-2.0343475,-0.059009552,-1.3795532,-0.16673584,-1.177771,70.0
1410,1.1953034,-2.0343475,-0.059009552,-1.1575928,-0.23364258,-1.26698,70.0
1411,1.6960378,-2.4242096,0.079452515,-1.1575928,-0.23364258,-1.26698,70.0
1412,1.6960378,-2.4242096,0.079452515,-0.9345703,-0.25913087,-1.3296387,70.0
1413,2.1345034,-2.6467514,0.3957634,-0.9345703,-0.25913087,-1.3296387,70.0
1414,2.1345034,-2.6467514,0.3957634,-0.7434082,-0.2623169,-1.2956543,70.0
1415,2.2847266,-2.63311,0.56594086,-0.7434082,-0.2623169,-1.2956543,70.0
1416,2.2847266,-2.63311,0.56594086,-0.5787964,-0.24107666,-1.1660889,70.0
1417,2.0345926,-2.4193268,0.49137878,-0.5787964,-0.24107666,-1.1660889,70.0
1418,2.0345926,-2.4193268,0.49137878,-0.55968016,-0.32285157,-0.994043,70.0
1419,1.7555795,-1.9947128,0.24542236,-0.55968016,-0.32285157,-0.994043,70.0
1420,1.7555795,-1.9947128,0.24542236,-0.44816896,-0.15930176,-0.79119873,70.0
1421,1.8047199,-1.6770172,0.106788635,-0.44816896,-0.15930176,-0.79119873,70.0
1422,1.8047199,-1.6770172,0.106788635,-0.27612305,0.10195313,-0.52250975,70.0
1423,1.2161882,-1.5596313,0.38912964,-0.27612305,0.10195313,-0.52250975,70.0
1424,1.2161882,-1.5596313,0.38912964,-0.18372802,0.13062744,-0.1731079,70.0
1425,-0.41043568,-1.2647934,0.6754761,-0.18372802,0.13062744,-0.1731079,70.0
1426,-0.41043568,-1.2647934,0.6754761,0.08283692,0.025488282,0.14655761,70.0
1427,-1.2901282,-0.7923279,0.33310318,0.08283692,0.025488282,0.14655761,70.0
1428,-1.2901282,-0.7923279,0.33310318,0.7742066,0.027612304,0.41312256,70.0
1429,-0.16125298,-0.5982208,-0.40774536,0.7742066,0.027612304,0.41312256,70.0
1430,-0.16125298,-0.5982208,-0.40774536,1.4666382,0.3345337,0.56392825,70.0
1431,1.8852065,-0.639061,-0.8998909,1.4666382,0.3345337,0.56392825,70.0
1432,1.8852065,-0.639061,-0.8998909,1.538855,0.66269535,0.83686525,70.0
1433,1.8852065,-0.639061,-0.8998909,1.538855,0.66269535,0.83686525,69.0
1434,2.466478,-0.040496826,-0.99282455,1.538855,0.66269535,0.83686525,69.0
1435,2.466478,-0.040496826,-0.99282455,1.1862671,0.67437744,1.2839721,69.0
1436,0.8458388,1.2720566,-0.9270706,1.1862671,0.67437744,1.2839721,69.0
1437,0.8458388,1.2720566,-0.9270706,1.0099732,0.6053467,1.7310791,69.0
1438,-1.2010756,2.3316345,-0.79959106,1.0099732,0.6053467,1.7310791,69.0
1439,-1.2010756,2.3316345,-0.79959106,1.0577637,0.59047854,2.071985,69.0
1440,-2.2975426,2.7651749,-0.5166397,1.0577637,0.59047854,2.071985,69.0
1441,-2.2975426,2.7651749,-0.5166397,1.1575928,0.4980835,2.342798,69.0
1442,-2.6899629,2.790268,-0.20045853,1.1575928,0.4980835,2.342798,69.0
1443,-2.6899629,2.790268,-0.20045853,1.26167,0.44179687,2.5583863,69.0
1444,-2.720635,2.6868668,-0.10192108,1.26167,0.44179687,2.5583863,69.0
1445,-2.720635,2.6868668,-0.10192108,1.3678712,0.41099855,2.717688,69.0
1446,-2.417182,2.6356125,-0.29171753,1.3678712,0.41099855,2.717688,69.0
1447,-2.417182,2.6356125,-0.29171753,1.4602661,0.42374268,2.7909667,69.0
1448,-1.8382745,2.698349,-0.620739,1.4602661,0.42374268,2.7909667,69.0
1449,-1.8382745,2.698349,-0.620739,1.5165528,0.45878908,2.7824707,69.0
1450,-1.1622334,2.8216095,-0.86943054,1.5165528,0.45878908,2.7824707,69.0
1451,-1.1622334,2.8216095,-0.86943054,1.5208008,0.5033936,2.703882,69.0
1452,-0.57539225,2.8962631,-0.97154236,1.5208008,0.5033936,2.703882,69.0
1453,-0.57539225,2.8962631,-0.97154236,1.4868164,0.52038574,2.642285,69.0
1454,-0.21783304,2.7954178,-0.9565811,1.4868164,0.52038574,2.642285,69.0
1455,-0.21783304,2.7954178,-0.9565811,1.2871583,0.59472656,2.3353639,69.0
1456,0.45316267,2.7594452,-0.9060135,1.2871583,0.59472656,2.3353639,69.0
1457,0.45316267,2.7594452,-0.9060135,1.2075074,0.63826907,2.2153566,69.0
1458,0.67769146,2.5055695,-0.8721237,1.2075074,0.63826907,2.2153566,69.0
1459,0.67769146,2.5055695,-0.8721237,0.84748536,0.7189819,1.8447144,69.0
1460,1.031692,2.2577515,-0.8907776,0.84748536,0.7189819,1.8447144,69.0
1461,1.031692,2.2577515,-0.8907776,0.6818115,0.725354,1.713025,69.0
1462,0.93443537,2.015747,-0.8461914,0.6818115,0.725354,1.713025,69.0
1463,0.93443537,2.015747,-0.8461914,0.17416993,0.6839356,1.2404298,69.0
1464,0.90949917,1.9031296,-0.8677139,0.17416993,0.6839356,1.2404298,69.0
1465,0.90949917,1.9031296,-0.8677139,0.020178223,0.65419924,1.0354614,69.0
1466,0.83250666,1.5933151,-0.7873955,0.020178223,0.65419924,1.0354614,69.0
1467,0.83250666,1.5933151,-0.7873955,-0.3079834,0.5607422,0.4248047,69.0
1468,0.9729023,1.1154938,-0.6258049,-0.3079834,0.5607422,0.4248047,69.0
1469,0.9729023,1.1154938,-0.6258049,-0.39082032,0.5341919,0.24107666,69.0
1470,0.73930836,0.7318497,-0.3871193,-0.39082032,0.5341919,0.24107666,69.0
1471,0.73930836,0.7318497,-0.3871193,-0.7083618,0.26337892,-0.32391357,69.0
1472,0.13264513,0.3409958,-0.050502777,-0.7083618,0.26337892,-0.32391357,69.0
1473,0.13264513,0.3409958,-0.050502777,-0.7540283,0.18691407,-0.5363159,69.0
1474,-0.021008015,0.10631561,-0.011581421,-0.7540283,0.18691407,-0.5363159,69.0
1475,-0.021008015,0.10631561,-0.011581421,-0.64995116,0.025488282,-0.9515625,69.0
1476,-0.40824938,-0.2545929,0.054237366,-0.64995116,0.025488282,-0.9515625,69.0
1477,-0.40824938,-0.2545929,0.054237366,-0.7327881,-0.26656494,-1.0906861,69.0
1478,-1.3534307,-0.33089447,0.46052933,-0.7327881,-0.26656494,-1.0906861,69.0
1479,-1.3534307,-0.33089447,0.46052933,-0.80394286,-0.5511841,-1.2956543,69.0
1480,-1.4734058,-0.36945343,0.7126999,-0.80394286,-0.5511841,-1.2956543,69.0
1481,-1.4734058,-0.36945343,0.7126999,-0.77739257,-0.6446411,-1.4432739,69.0
1482,-0.8324599,-0.5969391,0.6761627,-0.77739257,-0.6446411,-1.4432739,69.0
1483,-0.8324599,-0.5969391,0.6761627,-0.5214478,-0.7582764,-1.7905518,69.0
1484,1.0532951,-1.1564178,0.50063324,-0.5214478,-0.7582764,-1.7905518,69.0
1485,1.0532951,-1.1564178,0.50063324,-0.2516968,-0.7306641,-2.0571167,69.0
1486,2.5085545,-1.7309418,0.5531311,-0.2516968,-0.7306641,-2.0571167,69.0
1487,2.5085545,-1.7309418,0.5531311,-0.043542482,-0.7147339,-2.0114503,69.0
1488,1.5643263,-1.884903,0.90999603,-0.043542482,-0.7147339,-2.0114503,69.0
1489,1.5643263,-1.884903,0.90999603,0.007434082,-0.721106,-1.9487915,69.0
1490,0.43721533,-1.6167145,0.8801956,0.007434082,-0.721106,-1.9487915,69.0
1491,0.43721533,-1.6167145,0.8801956,0.015930176,-0.78376466,-1.6737305,69.0
1492,-1.8983603,-0.84950256,0.64613724,0.015930176,-0.78376466,-1.6737305,69.0
1493,-1.8983603,-0.84950256,0.64613724,0.014868164,-0.79969484,-1.5823975,69.0
1494,-1.991796,-0.670311,0.5549736,0.014868164,-0.79969484,-1.5823975,69.0
1495,-2.170268,-0.5164261,0.57518005,0.014868164,-0.79969484,-1.5823975,69.0
1496,-2.170268,-0.5164261,0.57518005,-0.022302246,-0.78376466,-1.4167236,69.0
1497,-2.170268,-0.5164261,0.57518005,-0.21240234,-0.72854006,-1.2393677,69.0
1498,-2.0668907,-0.5921478,0.7342186,-0.21240234,-0.72854006,-1.2393677,69.0
1499,-2.0668907,-0.5921478,0.7342186,-0.51188964,-0.6531372,-1.1214844,69.0
1500,-1.8185759,-0.6942749,0.71418,-0.51188964,-0.6531372,-1.1214844,69.0
1501,-1.8185759,-0.6942749,0.71418,-0.79013675,-0.5979126,-1.1034302,69.0
1502,-1.4255152,-0.7955551,0.4556961,-0.79013675,-0.5979126,-1.1034302,69.0
1503,-1.4255152,-0.7955551,0.4556961,-0.9770508,-0.5766724,-1.1607789,69.0
1504,-0.92862034,-0.9881668,0.303936,-0.9770508,-0.5766724,-1.1607789,69.0
1505,-0.92862034,-0.9881668,0.303936,-1.0705079,-0.56605226,-1.2531738,69.0
1506,-0.32570887,-1.3017044,0.5273285,-1.0705079,-0.56605226,-1.2531738,69.0
1507,-0.32570887,-1.3017044,0.5273285,-1.1894531,-0.48321533,-1.4305298,69.0
1508,0.6572428,-1.8156662,0.99967957,-1.1894531,-0.48321533,-1.4305298,69.0
1509,0.6572428,-1.8156662,0.99967957,-1.1852051,-0.45347902,-1.4900025,69.0
1510,0.8131232,-1.9162674,0.9030304,-1.1852051,-0.45347902,-1.4900025,69.0
1511,0.8131232,-1.9162674,0.9030304,-1.0906861,-0.46834716,-1.5802735,69.0
1512,1.0007186,-2.1314163,0.7047119,-1.0906861,-0.46834716,-1.5802735,69.0
1513,1.0007186,-2.1314163,0.7047119,-0.9653687,-0.5341919,-1.5908936,69.0
1514,1.147181,-2.188591,0.6423073,-0.9653687,-0.5341919,-1.5908936,69.0
1515,1.147181,-2.188591,0.6423073,-0.8750977,-0.5543701,-1.539917,69.0
1516,1.6279497,-2.1734924,0.7969513,-0.8750977,-0.5543701,-1.539917,69.0
1517,1.6279497,-2.1734924,0.7969513,-0.7104859,-0.5076416,-1.4645141,69.0
1518,2.1702065,-2.2223969,0.95864105,-0.7104859,-0.5076416,-1.4645141,69.0
1519,2.1702065,-2.2223969,0.95864105,-0.45454103,-0.48215333,-1.3413209,69.0
1520,2.3392172,-2.2426987,0.99628067,-0.45454103,-0.48215333,-1.3413209,69.0
1521,2.3392172,-2.2426987,0.99628067,-0.2262085,-0.38657227,-1.1182984,69.0
1522,2.1768546,-2.0932922,0.8812523,-0.2262085,-0.38657227,-1.1182984,69.0
1523,2.1768546,-2.0932922,0.8812523,-0.24638672,-0.37701416,-0.87403566,69.0
1524,2.0444012,-1.7021713,0.56098175,-0.24638672,-0.37701416,-0.87403566,69.0
1525,2.0444012,-1.7021713,0.56098175,-0.26444092,-0.1444336,-0.5511841,69.0
1526,2.1660385,-1.3000183,0.22123337,-0.26444092,-0.1444336,-0.5511841,69.0
1527,2.1660385,-1.3000183,0.22123337,-0.24744873,0.33878174,0.0,69.0
1528,0.8826721,-1.0606308,0.28251648,-0.24744873,0.33878174,0.0,69.0
1529,0.8826721,-1.0606308,0.28251648,-0.2888672,0.31966552,0.21983643,69.0
1530,-0.15591073,-0.6879425,0.17832184,-0.2888672,0.31966552,0.21983643,69.0
1531,-0.15591073,-0.6879425,0.17832184,-0.13912354,0.20603028,0.5511841,69.0
1532,-1.0556002,-0.18994904,-0.2901535,-0.13912354,0.20603028,0.5511841,69.0
1533,-1.0556002,-0.18994904,-0.2901535,0.46409914,0.271875,0.72960204,69.0
1534,0.3258567,-0.26548004,-0.848259,0.46409914,0.271875,0.72960204,69.0
1535,0.3258567,-0.26548004,-0.848259,1.1108643,0.6552612,0.74871826,69.0
1536,2.4617963,-0.63443756,-1.0629845,1.1108643,0.6552612,0.74871826,69.0
1537,2.4617963,-0.63443756,-1.0629845,1.1809571,1.0099732,0.9398804,69.0
1538,2.7158847,-0.22666168,-1.04245,1.1809571,1.0099732,0.9398804,69.0
1539,2.7158847,-0.22666168,-1.04245,0.8230591,0.994043,1.3328247,69.0
1540,0.649966,1.0554733,-1.1044922,0.8230591,0.994043,1.3328247,69.0
1541,0.649966,1.0554733,-1.1044922,0.72854006,0.89102787,1.7501954,69.0
1542,-1.5999856,2.1414642,-1.221241,0.72854006,0.89102787,1.7501954,69.0
1543,-1.5999856,2.1414642,-1.221241,0.85704345,0.8262451,2.0634887,69.0
1544,-2.6980915,2.579544,-1.0449753,0.85704345,0.8262451,2.0634887,69.0
1545,-2.6980915,2.579544,-1.0449753,1.0503296,0.66269535,2.2875733,69.0
1546,-3.0087175,2.603714,-0.63783646,1.0503296,0.66269535,2.2875733,69.0
1547,-3.0087175,2.603714,-0.63783646,1.2563599,0.540564,2.4691772,69.0
1548,-2.9553747,2.481041,-0.38276672,1.2563599,0.540564,2.4691772,69.0
1549,-2.9553747,2.481041,-0.38276672,1.4315919,0.44923097,2.5934327,69.0
1550,-2.6305962,2.3955383,-0.4446907,1.4315919,0.44923097,2.5934327,69.0
1551,-2.6305962,2.3955383,-0.4446907,1.5707153,0.41206056,2.6401613,69.0
1552,-2.0778656,2.4709625,-0.70617676,1.5707153,0.41206056,2.6401613,69.0
1553,-2.0778656,2.4709625,-0.70617676,1.632312,0.41206056,2.5785644,69.0
1554,-1.3990841,2.687172,-0.99342346,1.632312,0.41206056,2.5785644,69.0
1555,-1.3990841,2.687172,-0.99342346,1.6439942,0.42905274,2.4659913,69.0
1556,-0.7393966,2.8353195,-1.1474953,1.6439942,0.42905274,2.4659913,69.0
1557,-0.7393966,2.8353195,-1.1474953,1.6439942,0.42905274,2.4659913,67.0
1558,-0.7393966,2.8353195,-1.1474953,1.5632813,0.49489745,2.3109376,67.0
1559,-0.15256453,2.7606506,-1.1149445,1.5632813,0.49489745,2.3109376,67.0
1560,-0.15256453,2.7606506,-1.1149445,1.3731812,0.5703003,2.1293335,67.0
1561,0.34486723,2.5183945,-0.97950745,1.3731812,0.5703003,2.1293335,67.0
1562,0.34486723,2.5183945,-0.97950745,1.0949341,0.66269535,1.9572877,67.0
1563,0.73315716,2.2592697,-0.8651352,1.0949341,0.66269535,1.9572877,67.0
1564,0.73315716,2.2592697,-0.8651352,0.7349121,0.7306641,1.7863038,67.0
1565,0.9087305,2.1093063,-0.8279877,0.7349121,0.7306641,1.7863038,67.0
1566,0.9087305,2.1093063,-0.8279877,0.3440918,0.7434082,1.5739014,67.0
1567,0.86249447,2.030426,-0.8569336,0.3440918,0.7434082,1.5739014,67.0
1568,0.86249447,2.030426,-0.8569336,-0.004248047,0.68712157,1.2956543,67.0
1569,0.75089645,1.8633194,-0.85630035,-0.004248047,0.68712157,1.2956543,67.0
1570,0.75089645,1.8633194,-0.85630035,-0.3419678,0.60322267,0.91120607,67.0
1571,0.77033424,1.5310974,-0.7399483,-0.3419678,0.60322267,0.91120607,67.0
1572,0.77033424,1.5310974,-0.7399483,-0.5872925,0.52888185,0.50870365,67.0
1573,0.84124327,1.035141,-0.46120834,-0.5872925,0.52888185,0.50870365,67.0
1574,0.84124327,1.035141,-0.46120834,-0.77951664,0.4364868,0.1263794,67.0
1575,0.595541,0.51426697,-0.09111023,-0.77951664,0.4364868,0.1263794,67.0
1576,0.595541,0.51426697,-0.09111023,-0.994043,0.21877442,-0.26656494,67.0
1577,0.15569305,0.17733002,0.14278412,-0.994043,0.21877442,-0.26656494,67.0
1578,0.15569305,0.17733002,0.14278412,-1.0428956,0.13699952,-0.631897,67.0
1579,-0.092303276,-0.065963745,0.1830368,-1.0428956,0.13699952,-0.631897,67.0
1580,-0.092303276,-0.065963745,0.1830368,-0.98873293,-0.087084964,-0.91120607,67.0
1581,-0.4998436,-0.285141,0.3298149,-0.98873293,-0.087084964,-0.91120607,67.0
1582,-0.4998436,-0.285141,0.3298149,-1.1013062,-0.29630128,-1.1862671,67.0
1583,-0.79872704,-0.4398651,0.6296234,-1.1013062,-0.29630128,-1.1862671,67.0
1584,-0.79872704,-0.4398651,0.6296234,-1.1267945,-0.43861085,-1.4655762,67.0
1585,-0.23616171,-0.7038193,0.79442215,-1.1267945,-0.43861085,-1.4655762,67.0
1586,-0.23616171,-0.7038193,0.79442215,-0.99298096,-0.54693604,-1.7650635,67.0
1587,0.86341476,-1.1652374,0.8635254,-0.99298096,-0.54693604,-1.7650635,67.0
1588,0.86341476,-1.1652374,0.8635254,-0.8251831,-0.5522461,-1.988086,67.0
1589,1.7001557,-1.5930786,0.9743767,-0.8251831,-0.5522461,-1.988086,67.0
1590,1.7001557,-1.5930786,0.9743767,-0.6977417,-0.5214478,-1.9827759,67.0
1591,1.5169849,-1.7913208,1.0702972,-0.6977417,-0.5214478,-1.9827759,67.0
1592,1.5169849,-1.7913208,1.0702972,-0.63720703,-0.53525394,-1.906311,67.0
1593,0.34068775,-1.6390991,1.0600204,-0.63720703,-0.53525394,-1.906311,67.0
1594,0.34068775,-1.6390991,1.0600204,-0.62552494,-0.5713623,-1.811792,67.0
1595,-0.9078207,-1.2486954,0.86637497,-0.62552494,-0.5713623,-1.811792,67.0
1596,-0.9078207,-1.2486954,0.86637497,-0.4428589,-0.5628662,-1.7661256,67.0
1597,-1.5604606,-1.0570221,0.5885353,-0.4428589,-0.5628662,-1.7661256,67.0
1598,-1.5604606,-1.0570221,0.5885353,-0.31860352,-0.544812,-1.7523193,67.0
1599,-1.7511272,-1.1675949,0.42388153,-0.31860352,-0.544812,-1.7523193,67.0
1600,-1.7511272,-1.1675949,0.42388153,-0.30161133,-0.5384399,-1.720459,67.0
1601,-1.8406725,-1.3205261,0.44463348,-0.30161133,-0.5384399,-1.720459,67.0
1602,-1.8406725,-1.3205261,0.44463348,-0.2888672,-0.5097656,-1.6471802,67.0
1603,-1.8928623,-1.3380127,0.56835175,-0.2888672,-0.5097656,-1.6471802,67.0
1604,-1.8928623,-1.3380127,0.56835175,-0.39294434,-0.46516114,-1.5505371,67.0
1605,-1.7839432,-1.193016,0.6375809,-0.39294434,-0.46516114,-1.5505371,67.0
1606,-1.7839432,-1.193016,0.6375809,-0.6202149,-0.41737062,-1.4825684,67.0
1607,-1.5092468,-1.0103912,0.5319748,-0.6202149,-0.41737062,-1.4825684,67.0
1608,-1.5092468,-1.0103912,0.5319748,-0.8050049,-0.40993652,-1.445398,67.0
1609,-1.1384034,-1.0386734,0.35446167,-0.8050049,-0.40993652,-1.445398,67.0
1610,-1.1384034,-1.0386734,0.35446167,-0.88253176,-0.42374268,-1.4167236,67.0
1611,-0.5665822,-1.3028717,0.32967758,-0.88253176,-0.42374268,-1.4167236,67.0
1612,-0.5665822,-1.3028717,0.32967758,-0.8995239,-0.4088745,-1.4284058,67.0
1613,0.18251324,-1.6116943,0.49310303,-0.8995239,-0.4088745,-1.4284058,67.0
1614,0.18251324,-1.6116943,0.49310303,-0.8666016,-0.41949463,-1.4602661,67.0
1615,0.86017084,-1.8377457,0.6207657,-0.8666016,-0.41949463,-1.4602661,67.0
1616,0.86017084,-1.8377457,0.6207657,-0.81881106,-0.4354248,-1.4740723,67.0
1617,1.3587179,-1.9735031,0.62537384,-0.81881106,-0.4354248,-1.4740723,67.0
1618,1.3587179,-1.9735031,0.62537384,-0.7805786,-0.45666504,-1.445398,67.0
1619,1.7639275,-2.0297089,0.62442017,-0.7805786,-0.45666504,-1.445398,67.0
