,accx,accy,accz,gyrox,gyroy,gyroz,heart rate
1,walk,walk,walk,walk,walk,walk,walk
2,-7.64065,-54.067528,31.29872,0.0,0.0,0.0,0.0
3,-7.64065,-54.067528,31.29872,-0.0180542,0.023364259,-0.04248047,0.0
4,-6.108101,-43.243027,25.00786,-0.0180542,0.023364259,-0.04248047,0.0
5,-6.108101,-43.243027,25.00786,-0.007434082,0.020178223,-0.0361084,0.0
6,-4.9023986,-34.567055,19.986599,-0.007434082,0.020178223,-0.0361084,0.0
7,-4.9023986,-34.567055,19.986599,-0.023364259,0.013806152,-0.0361084,0.0
8,-3.936738,-27.658539,15.988657,-0.023364259,0.013806152,-0.0361084,0.0
9,-3.936738,-27.658539,15.988657,-0.027612304,0.0031860352,-0.02442627,0.0
10,-3.1455693,-22.17279,12.802412,-0.027612304,0.0031860352,-0.02442627,0.0
11,-3.1455693,-22.17279,12.802412,-0.013806152,-0.0053100586,-0.013806152,0.0
12,-2.4973025,-17.759838,10.256969,-0.013806152,-0.0053100586,-0.013806152,0.0
13,-2.4973025,-17.759838,10.256969,-0.027612304,-0.0053100586,-0.012744141,0.0
14,-2.0133939,-14.1766815,8.220041,-0.027612304,-0.0053100586,-0.012744141,0.0
15,-2.0133939,-14.1766815,8.220041,-0.040356446,-0.007434082,0.0031860352,0.0
16,-1.6544042,-11.296471,6.605549,-0.040356446,-0.007434082,0.0031860352,0.0
17,-1.6544042,-11.296471,6.605549,-0.050976563,-0.011682129,0.014868164,0.0
18,-1.3360968,-9.039669,5.340996,-0.050976563,-0.011682129,0.014868164,0.0
19,-1.3360968,-9.039669,5.340996,-0.03186035,-0.010620117,0.027612304,0.0
20,-1.0519829,-7.2567215,4.330181,-0.03186035,-0.010620117,0.027612304,0.0
21,-1.0519829,-7.2567215,4.330181,-0.016992187,-0.007434082,0.035046387,0.0
22,-1.0519829,-7.2567215,4.330181,-0.016992187,-0.007434082,0.035046387,87.0
23,-0.8275852,-5.778694,3.4942093,-0.016992187,-0.007434082,0.035046387,87.0
24,-0.8275852,-5.778694,3.4942093,-0.032922365,0.0063720704,0.03186035,87.0
25,-0.6729202,-4.5904007,2.797966,-0.032922365,0.0063720704,0.03186035,87.0
26,-0.6729202,-4.5904007,2.797966,-0.039294433,0.015930176,0.046728518,87.0
27,-0.5416441,-3.679718,2.2336502,-0.039294433,0.015930176,0.046728518,87.0
28,-0.5416441,-3.679718,2.2336502,-0.02442627,0.014868164,0.052038576,87.0
29,-0.4087305,-2.9362564,1.7821465,-0.02442627,0.014868164,0.052038576,87.0
30,-0.4087305,-2.9362564,1.7821465,-0.026550293,0.02442627,0.047790527,87.0
31,-0.3090639,-2.3348846,1.436348,-0.026550293,0.02442627,0.047790527,87.0
32,-0.3090639,-2.3348846,1.436348,-0.0180542,0.028674318,0.060534667,87.0
33,-0.24146461,-1.860405,1.1526909,-0.0180542,0.028674318,0.060534667,87.0
34,-0.24146461,-1.860405,1.1526909,0.011682129,0.025488282,0.060534667,87.0
35,-0.15702629,-1.4465485,0.8951874,0.011682129,0.025488282,0.060534667,87.0
36,-0.15702629,-1.4465485,0.8951874,-0.0053100586,0.025488282,0.052038576,87.0
37,-0.07131195,-1.1050797,0.6453972,-0.0053100586,0.025488282,0.052038576,87.0
38,-0.07131195,-1.1050797,0.6453972,-0.053100586,0.039294433,0.025488282,87.0
39,-0.021222115,-0.89668274,0.43390656,-0.053100586,0.039294433,0.025488282,87.0
40,-0.021222115,-0.89668274,0.43390656,-0.04460449,0.040356446,0.027612304,87.0
41,-0.050266266,-0.7701187,0.31109238,-0.04460449,0.040356446,0.027612304,87.0
42,-0.050266266,-0.7701187,0.31109238,-0.03079834,0.039294433,0.035046387,87.0
43,-0.13017845,-0.6542053,0.26390076,-0.03079834,0.039294433,0.035046387,87.0
44,-0.13017845,-0.6542053,0.26390076,0.0021240234,0.016992187,0.047790527,87.0
45,-0.15546131,-0.524498,0.23070145,0.0021240234,0.016992187,0.047790527,87.0
46,-0.15546131,-0.524498,0.23070145,0.0010620117,0.004248047,0.03186035,87.0
47,-0.08702755,-0.41897583,0.19221497,0.0010620117,0.004248047,0.03186035,87.0
48,-0.08702755,-0.41897583,0.19221497,-0.014868164,0.0053100586,0.019116212,87.0
49,-0.024565697,-0.37754822,0.14168549,-0.014868164,0.0053100586,0.019116212,87.0
50,-0.024565697,-0.37754822,0.14168549,-0.033984374,0.007434082,0.019116212,87.0
51,-0.0012559891,-0.3742447,0.093437195,-0.033984374,0.007434082,0.019116212,87.0
52,-0.0012559891,-0.3742447,0.093437195,-0.03079834,0.0031860352,0.012744141,87.0
53,0.0060510635,-0.3461151,0.08571243,-0.03079834,0.0031860352,0.012744141,87.0
54,0.0060510635,-0.3461151,0.08571243,-0.026550293,-0.0010620117,0.0053100586,87.0
55,0.019672394,-0.28806305,0.13752747,-0.026550293,-0.0010620117,0.0053100586,87.0
56,0.019672394,-0.28806305,0.13752747,-0.007434082,-0.009558106,0.007434082,87.0
57,0.05733967,-0.22244263,0.1828003,-0.007434082,-0.009558106,0.007434082,87.0
58,0.05733967,-0.22244263,0.1828003,-0.010620117,-0.007434082,0.0031860352,87.0
59,0.09183121,-0.15130615,0.16850662,-0.010620117,-0.007434082,0.0031860352,87.0
60,0.09183121,-0.15130615,0.16850662,-0.04141846,-0.0031860352,-0.016992187,87.0
61,0.09261799,-0.10825348,0.12615204,-0.04141846,-0.0031860352,-0.016992187,87.0
62,0.09261799,-0.10825348,0.12615204,-0.040356446,0.0,-0.0180542,87.0
63,0.062607765,-0.10298157,0.1080513,-0.040356446,0.0,-0.0180542,87.0
64,0.062607765,-0.10298157,0.1080513,-0.021240234,0.004248047,-0.007434082,87.0
65,0.04211521,-0.07835388,0.09410858,-0.021240234,0.004248047,-0.007434082,87.0
66,0.04211521,-0.07835388,0.09410858,-0.0180542,0.0010620117,-0.0010620117,87.0
67,0.03751278,-0.023963928,0.039985657,-0.0180542,0.0010620117,-0.0010620117,87.0
68,0.03751278,-0.023963928,0.039985657,-0.04460449,0.0010620117,-0.009558106,87.0
69,0.010857582,-0.01020813,-0.02645874,-0.04460449,0.0010620117,-0.009558106,87.0
70,0.010857582,-0.01020813,-0.02645874,-0.038232423,-0.004248047,-0.0063720704,87.0
71,-0.0257864,-0.05267334,-0.040599823,-0.038232423,-0.004248047,-0.0063720704,87.0
72,-0.0257864,-0.05267334,-0.040599823,-0.0180542,-0.009558106,-0.004248047,87.0
73,-0.0257864,-0.05267334,-0.040599823,-0.019116212,-0.008496094,-0.010620117,87.0
74,-0.04361534,-0.06894684,-0.017147064,-0.019116212,-0.008496094,-0.010620117,87.0
75,-0.042557716,-0.03340149,-0.025718689,-0.019116212,-0.008496094,-0.010620117,87.0
76,-0.042557716,-0.03340149,-0.025718689,-0.029736329,-0.007434082,-0.009558106,87.0
77,-0.05025673,-0.012535095,-0.024799347,-0.029736329,-0.007434082,-0.009558106,87.0
78,-0.05025673,-0.012535095,-0.024799347,-0.02442627,-0.012744141,-0.0053100586,87.0
79,-0.058540344,-0.030220032,0.018306732,-0.02442627,-0.012744141,-0.0053100586,87.0
80,-0.058540344,-0.030220032,0.018306732,-0.025488282,-0.016992187,0.015930176,87.0
81,-0.0350523,-0.03617096,0.07193375,-0.025488282,-0.016992187,0.015930176,87.0
82,-0.0350523,-0.03617096,0.07193375,-0.025488282,-0.016992187,0.032922365,87.0
83,-0.005092621,0.026535034,0.0761261,-0.025488282,-0.016992187,0.032922365,87.0
84,-0.005092621,0.026535034,0.0761261,-0.047790527,-0.014868164,0.040356446,87.0
85,0.00835228,0.111816406,0.03636551,-0.047790527,-0.014868164,0.040356446,87.0
86,0.00835228,0.111816406,0.03636551,-0.07327881,-0.011682129,0.029736329,87.0
87,-7.648468E-4,0.12107849,-0.010360718,-0.07327881,-0.011682129,0.029736329,87.0
88,-7.648468E-4,0.12107849,-0.010360718,-0.05522461,-0.019116212,0.028674318,87.0
89,-0.016431808,0.05921936,-0.031555176,-0.05522461,-0.019116212,0.028674318,87.0
90,-0.016431808,0.05921936,-0.031555176,-0.025488282,-0.021240234,0.03717041,87.0
91,-0.015025139,0.021766663,-0.013233185,-0.025488282,-0.021240234,0.03717041,87.0
92,-0.015025139,0.021766663,-0.013233185,-0.012744141,-0.028674318,0.04991455,87.0
93,0.005191803,0.047843933,0.027805328,-0.012744141,-0.028674318,0.04991455,87.0
94,0.005191803,0.047843933,0.027805328,-0.029736329,-0.02442627,0.04885254,87.0
95,0.022316933,0.077178955,0.06803131,-0.029736329,-0.02442627,0.04885254,87.0
96,0.022316933,0.077178955,0.06803131,-0.027612304,-0.021240234,0.04460449,87.0
97,0.022316933,0.077178955,0.06803131,-0.03186035,-0.010620117,0.038232423,87.0
98,0.022871017,0.08907318,0.084625244,-0.03186035,-0.010620117,0.038232423,87.0
99,0.009569168,0.0749588,0.07865143,-0.03186035,-0.010620117,0.038232423,87.0
100,0.009569168,0.0749588,0.07865143,-0.027612304,-0.0021240234,0.022302246,87.0
101,-0.010935783,0.060836792,0.05814743,-0.027612304,-0.0021240234,0.022302246,87.0
102,-0.010935783,0.060836792,0.05814743,-0.043542482,0.011682129,-0.0021240234,87.0
103,-0.022896767,0.08375549,0.025180817,-0.043542482,0.011682129,-0.0021240234,87.0
104,-0.022896767,0.08375549,0.025180817,-0.070092775,0.03186035,-0.03717041,87.0
105,-0.022896767,0.08375549,0.025180817,-0.02442627,0.045666505,-0.0361084,87.0
106,-0.053058624,0.12878418,0.0069007874,-0.02442627,0.045666505,-0.0361084,87.0
107,0.0018644333,0.19649506,0.047489166,-0.02442627,0.045666505,-0.0361084,87.0
108,0.0018644333,0.19649506,0.047489166,0.012744141,0.04885254,-0.13275146,87.0
109,0.014162064,0.2481842,0.14211655,0.012744141,0.04885254,-0.13275146,87.0
110,0.014162064,0.2481842,0.14211655,-0.039294433,0.10195313,-0.10513916,87.0
111,-0.05080414,0.1259613,0.17209244,-0.039294433,0.10195313,-0.10513916,87.0
112,-0.05080414,0.1259613,0.17209244,0.107263185,0.07540283,-0.10195313,87.0
113,0.015374184,-0.039649963,0.026981354,0.107263185,0.07540283,-0.10195313,87.0
114,0.015374184,-0.039649963,0.026981354,0.045666505,0.10195313,-0.14868164,87.0
115,0.07717991,-0.12911987,-0.19733429,0.045666505,0.10195313,-0.14868164,87.0
116,0.07717991,-0.12911987,-0.19733429,0.04248047,0.08814698,-0.13912354,87.0
117,0.08731747,-0.15504456,-0.35694122,0.04248047,0.08814698,-0.13912354,87.0
118,0.08731747,-0.15504456,-0.35694122,0.027612304,0.0637207,-0.12850343,87.0
119,0.06686306,-0.12715912,-0.41738892,0.027612304,0.0637207,-0.12850343,87.0
120,0.06686306,-0.12715912,-0.41738892,-0.052038576,0.04885254,-0.15930176,87.0
121,0.022789955,-0.14252472,-0.41239166,-0.052038576,0.04885254,-0.15930176,87.0
122,0.022789955,-0.14252472,-0.41239166,-0.05628662,0.012744141,-0.14337158,87.0
123,0.022789955,-0.14252472,-0.41239166,-0.028674318,-0.025488282,-0.11469727,87.0
124,-0.014995575,-0.18863678,-0.36873245,-0.028674318,-0.025488282,-0.11469727,87.0
125,-0.014995575,-0.18863678,-0.36873245,-0.06159668,-0.046728518,-0.12956543,87.0
126,1.6212463E-4,-0.10496521,-0.32214737,-0.06159668,-0.046728518,-0.12956543,87.0
127,0.034724236,0.075279236,-0.28281403,-0.06159668,-0.046728518,-0.12956543,87.0
128,0.034724236,0.075279236,-0.28281403,-0.13062744,-0.05628662,-0.16885987,87.0
129,0.03254032,0.20925903,-0.2480774,-0.13062744,-0.05628662,-0.16885987,87.0
130,0.03254032,0.20925903,-0.2480774,-0.15930176,-0.08283692,-0.18797608,87.0
131,0.0154361725,0.29466248,-0.22833252,-0.15930176,-0.08283692,-0.18797608,87.0
132,0.0154361725,0.29466248,-0.22833252,-0.20284425,-0.11682129,-0.21558838,87.0
133,0.027216911,0.3846283,-0.29787445,-0.20284425,-0.11682129,-0.21558838,87.0
134,0.027216911,0.3846283,-0.29787445,-0.2782471,-0.15717773,-0.27718505,87.0
135,0.0640707,0.4657135,-0.48807907,-0.2782471,-0.15717773,-0.27718505,87.0
136,0.0640707,0.4657135,-0.48807907,-0.3419678,-0.22089843,-0.3430298,87.0
137,0.12913704,0.5073471,-0.7164421,-0.3419678,-0.22089843,-0.3430298,87.0
138,0.12913704,0.5073471,-0.7164421,-0.40144044,-0.30267334,-0.42692873,87.0
139,0.12913704,0.5073471,-0.7164421,-0.40144044,-0.30267334,-0.42692873,90.0
140,0.21329498,0.48870087,-0.88233185,-0.40144044,-0.30267334,-0.42692873,90.0
141,0.21329498,0.48870087,-0.88233185,-0.44710693,-0.41099855,-0.5150757,90.0
142,0.3161564,0.42617798,-0.9245529,-0.44710693,-0.41099855,-0.5150757,90.0
143,0.3161564,0.42617798,-0.9245529,-0.47578126,-0.5161377,-0.6446411,90.0
144,0.42273712,0.33582306,-0.814373,-0.47578126,-0.5161377,-0.6446411,90.0
145,0.42273712,0.33582306,-0.814373,-0.51826173,-0.5851685,-0.7965088,90.0
146,0.5060482,0.11101532,-0.5403786,-0.51826173,-0.5851685,-0.7965088,90.0
147,0.5060482,0.11101532,-0.5403786,-0.5479981,-0.635083,-0.90058595,90.0
148,0.5244312,-0.17933655,-0.24663544,-0.5479981,-0.635083,-0.90058595,90.0
149,0.5244312,-0.17933655,-0.24663544,-0.6138428,-0.67331547,-1.0099732,90.0
150,0.4562273,-0.3271637,-0.12527466,-0.6138428,-0.67331547,-1.0099732,90.0
151,0.4562273,-0.3271637,-0.12527466,-0.7338501,-0.7306641,-1.1246704,90.0
152,0.34785557,-0.28354645,-0.22493744,-0.7338501,-0.7306641,-1.1246704,90.0
153,0.34785557,-0.28354645,-0.22493744,-0.8889038,-0.81031495,-1.2595459,90.0
154,0.241395,-0.13683319,-0.43541718,-0.8889038,-0.81031495,-1.2595459,90.0
155,0.241395,-0.13683319,-0.43541718,-1.0651978,-0.8846558,-1.3997315,90.0
156,0.069726944,-0.080825806,-0.5138359,-1.0651978,-0.8846558,-1.3997315,90.0
157,0.069726944,-0.080825806,-0.5138359,-1.1682129,-0.97280276,-1.5133667,90.0
158,-0.15549755,-0.2374649,-0.32618332,-1.1682129,-0.97280276,-1.5133667,90.0
159,-0.15549755,-0.2374649,-0.32618332,-1.1841431,-1.084314,-1.5908936,90.0
160,-0.33727646,-0.45414734,0.04177475,-1.1841431,-1.084314,-1.5908936,90.0
161,-0.33727646,-0.45414734,0.04177475,-1.1618408,-1.2096313,-1.6620483,90.0
162,-0.40280437,-0.5519638,0.38718033,-1.1618408,-1.2096313,-1.6620483,90.0
163,-0.40280437,-0.5519638,0.38718033,-1.2351197,-1.3530029,-1.7724975,90.0
164,-0.46554184,-0.54306793,0.58039856,-1.2351197,-1.3530029,-1.7724975,90.0
165,-0.46554184,-0.54306793,0.58039856,-1.3168945,-1.450708,-1.896753,90.0
166,-0.6856661,-0.5191498,0.7082634,-1.3168945,-1.450708,-1.896753,90.0
167,-0.6856661,-0.5191498,0.7082634,-1.2744141,-1.5887696,-1.9487915,90.0
168,-0.8172226,-0.5344696,0.93356705,-1.2744141,-1.5887696,-1.9487915,90.0
169,-0.8172226,-0.5344696,0.93356705,-1.2722901,-1.6875366,-1.993396,90.0
170,-0.63063335,-0.67134094,1.2344742,-1.2722901,-1.6875366,-1.993396,90.0
171,-0.63063335,-0.67134094,1.2344742,-1.3253907,-1.720459,-1.991272,90.0
172,-0.36364937,-0.9416275,1.4867477,-1.3253907,-1.720459,-1.991272,90.0
173,-0.36364937,-0.9416275,1.4867477,-1.2765381,-1.7512573,-1.910559,90.0
174,-0.27476978,-0.95978546,1.4756165,-1.2765381,-1.7512573,-1.910559,90.0
175,-0.27476978,-0.95978546,1.4756165,-1.3349488,-1.8521484,-1.8171021,90.0
176,-0.28320694,-0.57038116,1.1512337,-1.3349488,-1.8521484,-1.8171021,90.0
177,-0.28320694,-0.57038116,1.1512337,-1.4900025,-1.9201173,-1.81073,90.0
178,-0.20498371,-0.22706604,0.77746964,-1.4900025,-1.9201173,-1.81073,90.0
179,-0.20498371,-0.22706604,0.77746964,-1.5792115,-2.001892,-1.7682495,90.0
180,-0.02686596,-0.2425766,0.8649063,-1.5792115,-2.001892,-1.7682495,90.0
181,-0.02686596,-0.2425766,0.8649063,-1.5898316,-1.9328613,-1.724707,90.0
182,0.06793594,-0.6015549,1.537117,-1.5898316,-1.9328613,-1.724707,90.0
183,0.06793594,-0.6015549,1.537117,-1.5101807,-1.8372803,-1.5059327,90.0
184,-0.0743618,-0.94869995,2.043953,-1.5101807,-1.8372803,-1.5059327,90.0
185,-0.0743618,-0.94869995,2.043953,-1.2776002,-1.8574585,-1.4783204,90.0
186,-0.3929367,-0.88812256,1.8900566,-1.2776002,-1.8574585,-1.4783204,90.0
187,-0.3929367,-0.88812256,1.8900566,-1.1427246,-1.8850708,-1.5484132,90.0
188,-0.6669979,-0.5387802,1.5754356,-1.1427246,-1.8850708,-1.5484132,90.0
189,-0.6669979,-0.5387802,1.5754356,-0.9239502,-1.903125,-1.5006226,90.0
190,-0.8283863,-0.100502014,1.7532082,-0.9239502,-1.903125,-1.5006226,90.0
191,-0.8283863,-0.100502014,1.7532082,-0.7126099,-1.9254273,-1.453894,90.0
192,-0.6532974,0.23910522,2.3378716,-0.7126099,-1.9254273,-1.453894,90.0
193,-0.6532974,0.23910522,2.3378716,-0.77526855,-1.8850708,-1.3020264,90.0
194,-0.005194664,0.10103607,2.795929,-0.77526855,-1.8850708,-1.3020264,90.0
195,-0.005194664,0.10103607,2.795929,-0.8336792,-1.7778076,-1.1820191,90.0
196,0.61475277,-0.2534485,2.8045654,-0.8336792,-1.7778076,-1.1820191,90.0
197,0.61475277,-0.2534485,2.8045654,-0.84536135,-1.6482422,-1.1267945,90.0
198,0.83231735,-0.21899414,2.3610077,-0.84536135,-1.6482422,-1.1267945,90.0
199,0.83231735,-0.21899414,2.3610077,-1.0609497,-1.4581422,-1.1204224,90.0
200,0.8065882,0.22949219,1.8889656,-1.0609497,-1.4581422,-1.1204224,90.0
201,0.8065882,0.22949219,1.8889656,-1.4868164,-1.2266235,-1.0768799,90.0
202,0.79424477,0.56677246,1.5533371,-1.4868164,-1.2266235,-1.0768799,90.0
203,0.79424477,0.56677246,1.5533371,-2.1218994,-0.8666016,-1.0938721,90.0
204,0.868453,0.05014801,1.0605774,-2.1218994,-0.8666016,-1.0938721,90.0
205,0.868453,0.05014801,1.0605774,-2.170752,-0.6223389,-1.0004151,90.0
206,0.92067814,-1.1557693,0.40706635,-2.170752,-0.6223389,-1.0004151,90.0
207,0.92067814,-1.1557693,0.40706635,-1.4677002,-0.50870365,-0.92501223,90.0
208,0.81698704,-1.7878723,-0.060699463,-1.4677002,-0.50870365,-0.92501223,90.0
209,0.81698704,-1.7878723,-0.060699463,-0.8464233,-0.4885254,-0.84536135,90.0
210,0.72437763,-1.2963715,-0.07912445,-0.8464233,-0.4885254,-0.84536135,90.0
211,0.72437763,-1.2963715,-0.07912445,-0.6000366,-0.42374268,-0.7519043,90.0
212,0.9649391,-0.39608002,0.13986206,-0.6000366,-0.42374268,-0.7519043,90.0
213,0.9649391,-0.39608002,0.13986206,-0.62127686,-0.25806886,-0.60322267,90.0
214,1.3193874,0.2461853,0.11633301,-0.62127686,-0.25806886,-0.60322267,90.0
215,1.3193874,0.2461853,0.11633301,-0.91864014,0.095581055,-0.4439209,90.0
216,1.321672,0.47575378,-0.40733337,-0.91864014,0.095581055,-0.4439209,90.0
217,1.321672,0.47575378,-0.40733337,-1.2287476,0.5171997,-0.26868898,90.0
218,1.0362196,0.28772736,-1.2593155,-1.2287476,0.5171997,-0.26868898,90.0
219,1.0362196,0.28772736,-1.2593155,-1.2712281,0.8050049,-0.0998291,90.0
220,0.83257675,-0.10598755,-2.0444412,-1.2712281,0.8050049,-0.0998291,90.0
221,0.83257675,-0.10598755,-2.0444412,-1.2276856,0.89846194,0.0063720704,90.0
222,0.833066,-0.34513092,-2.4759216,-1.2276856,0.89846194,0.0063720704,90.0
223,0.833066,-0.34513092,-2.4759216,-1.2595459,0.94625247,0.015930176,90.0
224,0.9194679,-0.29450226,-2.6039696,-1.2595459,0.94625247,0.015930176,90.0
225,0.9194679,-0.29450226,-2.6039696,-1.3699951,1.0354614,0.06159668,90.0
226,0.8251376,-0.068862915,-2.6668549,-1.3699951,1.0354614,0.06159668,90.0
227,0.8251376,-0.068862915,-2.6668549,-1.535669,1.1437867,0.1274414,90.0
228,0.38446283,0.14225769,-2.8054428,-1.535669,1.1437867,0.1274414,90.0
229,0.38446283,0.14225769,-2.8054428,-1.5611572,1.2319336,0.271875,90.0
230,-0.31104565,0.2230835,-2.960102,-1.5611572,1.2319336,0.271875,90.0
231,-0.31104565,0.2230835,-2.960102,-1.3816773,1.2436157,0.3971924,90.0
232,-1.0017295,0.22916412,-2.997467,-1.3816773,1.2436157,0.3971924,90.0
233,-1.0017295,0.22916412,-2.997467,-1.0120972,1.1841431,0.53525394,90.0
234,-1.4096723,0.35718536,-2.8365135,-1.0120972,1.1841431,0.53525394,90.0
235,-1.4096723,0.35718536,-2.8365135,-0.6425171,1.0609497,0.59897465,90.0
236,-1.4483314,0.741127,-2.5876198,-0.6425171,1.0609497,0.59897465,90.0
237,-1.4483314,0.741127,-2.5876198,-0.542688,0.9515625,0.59260255,90.0
238,-1.2786236,1.1847382,-2.388443,-0.542688,0.9515625,0.59260255,90.0
239,-1.2786236,1.1847382,-2.388443,-0.68499756,0.8358032,0.51188964,90.0
240,-1.0641222,1.4178085,-2.2183723,-0.68499756,0.8358032,0.51188964,90.0
241,-1.0641222,1.4178085,-2.2183723,-0.8750977,0.6754395,0.3727661,90.0
242,-0.7982092,1.3952789,-1.988224,-0.8750977,0.6754395,0.3727661,90.0
243,-0.7982092,1.3952789,-1.988224,-1.0790039,0.46516114,0.22514649,90.0
244,-0.7982092,1.3952789,-1.988224,-1.0790039,0.46516114,0.22514649,91.0
245,-0.46444607,1.2366714,-1.6945724,-1.0790039,0.46516114,0.22514649,91.0
246,-0.46444607,1.2366714,-1.6945724,-1.2138795,0.2527588,0.045666505,91.0
247,-0.12609768,1.0313263,-1.3512039,-1.2138795,0.2527588,0.045666505,91.0
248,-0.12609768,1.0313263,-1.3512039,-1.2935303,0.06796875,-0.16461182,91.0
249,0.11231804,0.8631592,-0.96704865,-1.2935303,0.06796875,-0.16461182,91.0
250,0.11231804,0.8631592,-0.96704865,-1.3774292,-0.10195313,-0.4078125,91.0
251,0.22682953,0.6941681,-0.5936203,-1.3774292,-0.10195313,-0.4078125,91.0
252,0.22682953,0.6941681,-0.5936203,-1.3997315,-0.2793091,-0.68712157,91.0
253,0.33721352,0.3004532,-0.1882019,-1.3997315,-0.2793091,-0.68712157,91.0
254,0.33721352,0.3004532,-0.1882019,-1.2053833,-0.49489745,-0.99935305,91.0
255,0.60993195,-0.45474243,0.33016205,-1.2053833,-0.49489745,-0.99935305,91.0
256,0.60993195,-0.45474243,0.33016205,-0.77102053,-0.73597413,-1.2436157,91.0
257,0.97146606,-1.1898346,0.787838,-0.77102053,-0.73597413,-1.2436157,91.0
258,0.97146606,-1.1898346,0.787838,-0.20284425,-0.9154541,-1.4369019,91.0
259,1.1312008,-1.418747,1.0230331,-0.20284425,-0.9154541,-1.4369019,91.0
260,1.1312008,-1.418747,1.0230331,0.10513916,-0.97386473,-1.5515991,91.0
261,0.93209696,-1.0759888,1.1139717,0.10513916,-0.97386473,-1.5515991,91.0
262,0.93209696,-1.0759888,1.1139717,0.0722168,-0.9834229,-1.7055908,91.0
263,0.71469593,-0.44461823,1.0870285,0.0722168,-0.9834229,-1.7055908,91.0
264,0.71469593,-0.44461823,1.0870285,-0.35789797,-1.2542359,-2.0369384,91.0
265,1.0863562,-0.24260712,0.9266319,-0.35789797,-1.2542359,-2.0369384,91.0
266,1.0863562,-0.24260712,0.9266319,-0.98236084,-1.4708862,-2.3693483,91.0
267,1.7586966,-0.88951874,0.8593216,-0.98236084,-1.4708862,-2.3693483,91.0
268,1.7586966,-0.88951874,0.8593216,-1.5473511,-1.0014771,-2.8376954,91.0
269,1.803051,-1.7800751,1.0865555,-1.5473511,-1.0014771,-2.8376954,91.0
270,1.803051,-1.7800751,1.0865555,-1.6939087,-0.98873293,-2.5668824,91.0
271,1.2509737,-2.2550507,1.3148232,-1.6939087,-0.98873293,-2.5668824,91.0
272,1.2509737,-2.2550507,1.3148232,-1.81073,-1.0152832,-2.7198122,91.0
273,0.9645486,-2.194191,1.3937759,-1.81073,-1.0152832,-2.7198122,91.0
274,0.9645486,-2.194191,1.3937759,-1.8415283,-1.1947632,-2.7378662,91.0
275,1.369051,-1.968216,1.3868484,-1.8415283,-1.1947632,-2.7378662,91.0
276,1.369051,-1.968216,1.3868484,-1.897815,-1.0513916,-2.5806885,91.0
277,1.7336197,-1.7689362,1.4822311,-1.897815,-1.0513916,-2.5806885,91.0
278,1.7336197,-1.7689362,1.4822311,-1.9402955,-0.7508423,-2.1505737,91.0
279,1.1613832,-1.4471817,1.6215019,-1.9402955,-0.7508423,-2.1505737,91.0
280,1.1613832,-1.4471817,1.6215019,-2.1378295,-0.39613038,-1.7034668,91.0
281,-0.3077588,-0.92152405,1.424118,-2.1378295,-0.39613038,-1.7034668,91.0
282,-0.3077588,-0.92152405,1.424118,-2.270581,-0.10620117,-1.1480347,91.0
283,-2.0266638,-0.49607086,0.90743256,-2.270581,-0.10620117,-1.1480347,91.0
284,-2.0266638,-0.49607086,0.90743256,-2.2291627,0.08496094,-0.81243896,91.0
285,-3.3315363,-0.33859253,0.41570282,-2.2291627,0.08496094,-0.81243896,91.0
286,-3.3315363,-0.33859253,0.41570282,-2.092163,0.16885987,-0.66481936,91.0
287,-3.8296943,-0.32413483,0.11823273,-2.092163,0.16885987,-0.66481936,91.0
288,-3.8296943,-0.32413483,0.11823273,-1.8277222,0.20709229,-0.5161377,91.0
289,-3.682396,-0.28022766,-0.01158905,-1.8277222,0.20709229,-0.5161377,91.0
290,-3.682396,-0.28022766,-0.01158905,-1.5696534,0.24744873,-0.45029297,91.0
291,-3.3378477,-0.19193268,-0.09208298,-1.5696534,0.24744873,-0.45029297,91.0
292,-3.3378477,-0.19193268,-0.09208298,-1.2882203,0.24320069,-0.46622315,91.0
293,-2.928957,-0.14165497,-0.20594025,-1.2882203,0.24320069,-0.46622315,91.0
294,-2.928957,-0.14165497,-0.20594025,-0.95793456,0.15505372,-0.4980835,91.0
295,-2.3089733,-0.14894104,-0.32061386,-0.95793456,0.15505372,-0.4980835,91.0
296,-2.3089733,-0.14894104,-0.32061386,-0.59897465,0.059472658,-0.5671143,91.0
297,-1.4759016,-0.2633438,-0.26766205,-0.59897465,0.059472658,-0.5671143,91.0
298,-1.4759016,-0.2633438,-0.26766205,-0.28461915,-0.0053100586,-0.6000366,91.0
299,-0.6433792,-0.57353973,-0.010505676,-0.28461915,-0.0053100586,-0.6000366,91.0
300,-0.6433792,-0.57353973,-0.010505676,0.015930176,-0.039294433,-0.5479981,91.0
301,-0.013921738,-0.839447,0.28599167,0.015930176,-0.039294433,-0.5479981,91.0
302,-0.013921738,-0.839447,0.28599167,0.2623169,-0.0722168,-0.42055663,91.0
303,0.5282917,-0.7200165,0.5961876,0.2623169,-0.0722168,-0.42055663,91.0
304,0.5282917,-0.7200165,0.5961876,0.3419678,-0.052038576,-0.32709962,91.0
305,1.1698141,-0.30604553,0.7130928,0.3419678,-0.052038576,-0.32709962,91.0
306,1.1698141,-0.30604553,0.7130928,0.11257324,-0.023364259,-0.1996582,91.0
307,1.8308945,-0.057662964,0.52365875,0.11257324,-0.023364259,-0.1996582,91.0
308,1.8308945,-0.057662964,0.52365875,-0.19753419,0.047790527,-0.053100586,91.0
309,2.2527037,-0.15422058,0.3181343,-0.19753419,0.047790527,-0.053100586,91.0
310,2.2527037,-0.15422058,0.3181343,-0.4354248,0.13062744,0.16992188,91.0
311,2.3934832,-0.36061096,0.3738556,-0.4354248,0.13062744,0.16992188,91.0
312,2.3934832,-0.36061096,0.3738556,-0.5501221,0.029736329,0.42161867,91.0
313,2.764347,-0.5151596,0.7967529,-0.5501221,0.029736329,0.42161867,91.0
314,2.764347,-0.5151596,0.7967529,-0.41949463,-0.17735596,0.5872925,91.0
315,3.595303,-0.5730362,1.3348007,-0.41949463,-0.17735596,0.5872925,91.0
316,3.595303,-0.5730362,1.3348007,-0.16567384,-0.12319336,0.6839356,91.0
317,3.8599706,-0.5636902,1.263031,-0.16567384,-0.12319336,0.6839356,91.0
318,3.8599706,-0.5636902,1.263031,0.16248779,0.29523927,0.7412842,91.0
319,2.800428,-0.54875183,0.5016327,0.16248779,0.29523927,0.7412842,91.0
320,2.800428,-0.54875183,0.5016327,0.6053467,0.3175415,0.8814697,91.0
321,1.7304792,-0.40976715,-0.30332947,0.6053467,0.3175415,0.8814697,91.0
322,1.7304792,-0.40976715,-0.30332947,1.1119263,0.26550293,1.0630738,91.0
323,1.5091395,0.0121154785,-0.7211418,1.1119263,0.26550293,1.0630738,91.0
324,1.5091395,0.0121154785,-0.7211418,1.5866455,0.41949463,1.2308716,91.0
325,1.2854366,0.6234131,-0.81040955,1.5866455,0.41949463,1.2308716,91.0
326,1.2854366,0.6234131,-0.81040955,1.7682495,0.5894165,1.3179566,91.0
327,0.64073944,1.1080551,-0.9298248,1.7682495,0.5894165,1.3179566,91.0
328,0.64073944,1.1080551,-0.9298248,1.7916138,0.72004396,1.4103516,91.0
329,-0.14660025,1.3310623,-1.2667465,1.7916138,0.72004396,1.4103516,91.0
330,-0.14660025,1.3310623,-1.2667465,1.8617066,0.88253176,1.5473511,91.0
331,-0.9285841,1.4111252,-1.6741524,1.8617066,0.88253176,1.5473511,91.0
332,-0.9285841,1.4111252,-1.6741524,1.9179932,1.0683838,1.7533814,91.0
333,-1.6490197,1.5304718,-1.9962921,1.9179932,1.0683838,1.7533814,91.0
334,-1.6490197,1.5304718,-1.9962921,1.9615357,1.2436157,1.9827759,91.0
335,-2.1554465,1.7773819,-2.21875,1.9615357,1.2436157,1.9827759,91.0
336,-2.1554465,1.7773819,-2.21875,1.8585205,1.3296387,2.1558838,91.0
337,-2.266984,2.0518036,-2.410183,1.8585205,1.3296387,2.1558838,91.0
338,-2.266984,2.0518036,-2.410183,1.6864747,1.3753052,2.2854493,91.0
339,-2.049952,2.1978378,-2.556282,1.6864747,1.3753052,2.2854493,91.0
340,-2.049952,2.1978378,-2.556282,1.535669,1.3816773,2.3088136,91.0
341,-1.7415609,2.200615,-2.6126747,1.535669,1.3816773,2.3088136,91.0
342,-1.7415609,2.200615,-2.6126747,1.3413209,1.360437,2.2026124,91.0
343,-1.5109,2.15773,-2.5556793,1.3413209,1.360437,2.2026124,91.0
344,-1.5109,2.15773,-2.5556793,1.1660889,1.260608,1.9785279,91.0
345,-1.3520551,2.0224762,-2.3326187,1.1660889,1.260608,1.9785279,91.0
346,-1.3520551,2.0224762,-2.3326187,0.99722904,1.0949341,1.6885986,91.0
347,-1.069376,1.6868515,-1.9663162,0.99722904,1.0949341,1.6885986,91.0
348,-1.069376,1.6868515,-1.9663162,0.96430665,0.91864014,1.3838013,91.0
349,-1.069376,1.6868515,-1.9663162,0.96430665,0.91864014,1.3838013,92.0
350,-0.65456104,1.2876129,-1.5878983,0.96430665,0.91864014,1.3838013,92.0
351,-0.65456104,1.2876129,-1.5878983,0.88040775,0.77102053,1.0482056,92.0
352,-0.28347588,0.97473145,-1.258831,0.88040775,0.77102053,1.0482056,92.0
353,-0.28347588,0.97473145,-1.258831,0.73809814,0.60109866,0.6977417,92.0
354,0.029945374,0.6933212,-0.9883499,0.73809814,0.60109866,0.6977417,92.0
355,0.029945374,0.6933212,-0.9883499,0.5161377,0.42268068,0.3695801,92.0
356,0.39590454,0.5347748,-0.8030586,0.5161377,0.42268068,0.3695801,92.0
357,0.39590454,0.5347748,-0.8030586,0.2262085,0.29523927,0.11257324,92.0
358,0.7390256,0.5670929,-0.6728058,0.2262085,0.29523927,0.11257324,92.0
359,0.7390256,0.5670929,-0.6728058,-0.10938721,0.14337158,-0.09770508,92.0
360,0.95317125,0.59161377,-0.49957275,-0.10938721,0.14337158,-0.09770508,92.0
361,0.95317125,0.59161377,-0.49957275,-0.35577393,-0.046728518,-0.26019287,92.0
362,1.0028934,0.44947815,-0.21657562,-0.35577393,-0.046728518,-0.26019287,92.0
363,1.0028934,0.44947815,-0.21657562,-0.544812,-0.19328614,-0.4067505,92.0
364,0.8383498,0.21877289,0.12903595,-0.544812,-0.19328614,-0.4067505,92.0
365,0.8383498,0.21877289,0.12903595,-0.65207523,-0.40144044,-0.51826173,92.0
366,0.78253317,0.03917694,0.41957474,-0.65207523,-0.40144044,-0.51826173,92.0
367,0.78253317,0.03917694,0.41957474,-0.76464844,-0.74871826,-0.6977417,92.0
368,1.2836561,-0.0490036,0.6118927,-0.76464844,-0.74871826,-0.6977417,92.0
369,1.2836561,-0.0490036,0.6118927,-0.9674927,-1.1267945,-0.99298096,92.0
370,2.1671715,-0.14370728,0.8512459,-0.9674927,-1.1267945,-0.99298096,92.0
371,2.1671715,-0.14370728,0.8512459,-1.2298096,-1.2160034,-1.3338867,92.0
372,2.2710295,-0.28794098,1.3294449,-1.2298096,-1.2160034,-1.3338867,92.0
373,2.2710295,-0.28794098,1.3294449,-1.3954834,-0.9834229,-1.4868164,92.0
374,0.91103745,-0.4131317,1.9231644,-1.3954834,-0.9834229,-1.4868164,92.0
375,0.91103745,-0.4131317,1.9231644,-1.4347779,-0.9759888,-1.5048707,92.0
376,-0.5445709,-0.5350952,2.2974167,-1.4347779,-0.9759888,-1.5048707,92.0
377,-0.5445709,-0.5350952,2.2974167,-1.3838013,-1.3466309,-1.6238159,92.0
378,-0.4331422,-0.75561523,2.3557663,-1.3838013,-1.3466309,-1.6238159,92.0
379,-0.4331422,-0.75561523,2.3557663,-1.0641358,-1.5197388,-1.7353271,92.0
380,0.7553663,-0.97203064,2.2890816,-1.0641358,-1.5197388,-1.7353271,92.0
381,0.7553663,-0.97203064,2.2890816,-0.9133301,-1.442212,-1.7873658,92.0
382,1.0687099,-0.9901123,2.1345978,-0.9133301,-1.442212,-1.7873658,92.0
383,1.0687099,-0.9901123,2.1345978,-0.9568726,-1.354065,-1.7724975,92.0
384,1.1461911,-0.86592865,2.295372,-0.9568726,-1.354065,-1.7724975,92.0
385,1.1461911,-0.86592865,2.295372,-1.2892822,-0.8878418,-1.6588624,92.0
386,0.40818834,-0.74645233,2.170147,-1.2892822,-0.8878418,-1.6588624,92.0
387,0.40818834,-0.74645233,2.170147,-1.3795532,-0.73597413,-1.5643433,92.0
388,-1.7495604,-0.6478424,2.313034,-1.3795532,-0.73597413,-1.5643433,92.0
389,-1.7495604,-0.6478424,2.313034,-1.7406372,-0.5384399,-1.4825684,92.0
390,-2.0287375,-0.70230865,1.9066391,-1.7406372,-0.5384399,-1.4825684,92.0
391,-2.0287375,-0.70230865,1.9066391,-1.7459472,-0.51826173,-1.4708862,92.0
392,-2.459135,-1.2472,0.8788605,-1.7459472,-0.51826173,-1.4708862,92.0
393,-2.459135,-1.2472,0.8788605,-1.5048707,-0.43861085,-1.545227,92.0
394,-2.0765243,-1.3246384,0.47174072,-1.5048707,-0.43861085,-1.545227,92.0
395,-2.0765243,-1.3246384,0.47174072,-1.3922974,-0.41206056,-1.5685914,92.0
396,-1.8966808,-1.7321472,0.0047836304,-1.3922974,-0.41206056,-1.5685914,92.0
397,-1.8966808,-1.7321472,0.0047836304,-1.0864381,-0.35895997,-1.5622193,92.0
398,-1.6359239,-1.6859818,0.07438278,-1.0864381,-0.35895997,-1.5622193,92.0
399,-1.6359239,-1.6859818,0.07438278,-0.9589966,-0.3536499,-1.538855,92.0
400,-1.6118641,-1.8118134,0.3033409,-0.9589966,-0.3536499,-1.538855,92.0
401,-1.6118641,-1.8118134,0.3033409,-0.63720703,-0.31435546,-1.4103516,92.0
402,-1.398695,-1.6664886,0.33533478,-0.63720703,-0.31435546,-1.4103516,92.0
403,-1.398695,-1.6664886,0.33533478,-0.5628662,-0.29311523,-1.3391968,92.0
404,-1.3733749,-1.6494293,0.3025818,-0.5628662,-0.29311523,-1.3391968,92.0
405,-1.3733749,-1.6494293,0.3025818,-0.3971924,-0.25913087,-1.0503296,92.0
406,-1.1102476,-1.4992065,0.22182465,-0.3971924,-0.25913087,-1.0503296,92.0
407,-1.1102476,-1.4992065,0.22182465,-0.33028564,-0.25700685,-0.9345703,92.0
408,-0.5824604,-1.5011749,-0.0073165894,-0.33028564,-0.25700685,-0.9345703,92.0
409,-0.5824604,-1.5011749,-0.0073165894,-0.10407715,-0.2442627,-0.6042847,92.0
410,-0.29425144,-1.3362198,0.008098602,-0.10407715,-0.2442627,-0.6042847,92.0
411,-0.29425144,-1.3362198,0.008098602,-0.033984374,-0.2347046,-0.5129517,92.0
412,0.13170052,-1.2481766,0.12537384,-0.033984374,-0.2347046,-0.5129517,92.0
413,0.13170052,-1.2481766,0.12537384,0.057348635,-0.20921631,-0.35046387,92.0
414,0.47893238,-1.1038666,0.31378555,0.057348635,-0.20921631,-0.35046387,92.0
415,0.47893238,-1.1038666,0.31378555,0.093457036,-0.19647217,-0.19328614,92.0
416,1.0647984,-0.7445526,0.37838364,0.093457036,-0.19647217,-0.19328614,92.0
417,1.0647984,-0.7445526,0.37838364,0.0541626,-0.17735596,0.04141846,92.0
418,1.1119461,-0.4764557,0.30619812,0.0541626,-0.17735596,0.04141846,92.0
419,1.1119461,-0.4764557,0.30619812,0.03186035,-0.1539917,0.14230958,92.0
420,1.8661075,-0.30545807,0.4691887,0.03186035,-0.1539917,0.14230958,92.0
421,1.8661075,-0.30545807,0.4691887,-0.0021240234,-0.1539917,0.49489745,92.0
422,1.945828,-0.29716492,0.6207962,-0.0021240234,-0.1539917,0.49489745,92.0
423,1.945828,-0.29716492,0.6207962,0.05628662,-0.10301514,0.6053467,92.0
424,2.558237,-0.50710297,1.1469536,0.05628662,-0.10301514,0.6053467,92.0
425,2.558237,-0.50710297,1.1469536,0.26337892,0.39294434,0.93138427,92.0
426,1.9100299,-0.26872253,0.87984467,0.26337892,0.39294434,0.93138427,92.0
427,1.9100299,-0.26872253,0.87984467,0.38551027,0.41737062,1.0556396,92.0
428,0.9391327,0.04598236,0.19552612,0.38551027,0.41737062,1.0556396,92.0
429,0.9391327,0.04598236,0.19552612,0.8527954,0.28355715,1.2149414,92.0
430,0.8557496,0.30107117,-0.60910416,0.8527954,0.28355715,1.2149414,92.0
431,0.8557496,0.30107117,-0.60910416,1.4613281,0.27612305,1.2839721,92.0
432,1.2932787,0.6096115,-0.99959946,1.4613281,0.27612305,1.2839721,92.0
433,1.2932787,0.6096115,-0.99959946,1.81073,0.44179687,1.3381348,92.0
434,1.2226114,0.9874191,-1.1015244,1.81073,0.44179687,1.3381348,92.0
435,1.2226114,0.9874191,-1.1015244,1.8871949,0.541626,1.363623,92.0
436,0.4841075,1.4536285,-1.3830147,1.8871949,0.541626,1.363623,92.0
437,0.4841075,1.4536285,-1.3830147,1.7289551,0.7062378,1.3668091,92.0
438,0.19295025,1.3996353,-1.3861694,1.7289551,0.7062378,1.3668091,92.0
439,0.19295025,1.3996353,-1.3861694,1.634436,0.79013675,1.3986695,92.0
440,-0.44919205,1.4733658,-1.5649261,1.634436,0.79013675,1.3986695,92.0
441,-0.44919205,1.4733658,-1.5649261,1.4400879,0.9197022,1.5229248,92.0
442,-1.1253815,1.5196075,-1.7393036,1.4400879,0.9197022,1.5229248,92.0
443,-1.1253815,1.5196075,-1.7393036,1.3275146,1.0259033,1.6896607,92.0
444,-1.5883055,1.5679321,-1.9099731,1.3275146,1.0259033,1.6896607,92.0
445,-1.5883055,1.5679321,-1.9099731,1.2839721,1.088562,1.8436524,92.0
446,-1.718667,1.669487,-2.0447502,1.2839721,1.088562,1.8436524,92.0
447,-1.718667,1.669487,-2.0447502,1.2234375,1.1129884,1.9519776,92.0
448,-1.718667,1.669487,-2.0447502,1.2234375,1.1129884,1.9519776,91.0
449,-1.6184397,1.8059158,-2.0778542,1.2234375,1.1129884,1.9519776,91.0
450,-1.6184397,1.8059158,-2.0778542,1.1151123,1.088562,1.9817139,91.0
451,-1.4248419,1.8884354,-1.9849777,1.1151123,1.088562,1.9817139,91.0
452,-1.4248419,1.8884354,-1.9849777,1.0089111,1.0152832,1.9551636,91.0
453,-1.1801076,1.8365936,-1.8249435,1.0089111,1.0152832,1.9551636,91.0
454,-1.1801076,1.8365936,-1.8249435,0.9239502,0.92501223,1.8638306,91.0
455,-0.9108343,1.6423187,-1.6470528,0.9239502,0.92501223,1.8638306,91.0
456,-0.9108343,1.6423187,-1.6470528,0.91757816,0.7965088,1.6981567,91.0
457,-0.6685114,1.293457,-1.4431038,0.91757816,0.7965088,1.6981567,91.0
458,-0.6685114,1.293457,-1.4431038,0.9834229,0.61915284,1.3965454,91.0
459,-0.4601388,1.1169205,-1.2319603,0.9834229,0.61915284,1.3965454,91.0
460,-0.4601388,1.1169205,-1.2319603,0.9324463,0.5501221,1.2531738,91.0
461,-0.30463457,1.1029205,-1.0163422,0.9324463,0.5501221,1.2531738,91.0
462,-0.30463457,1.1029205,-1.0163422,0.8007569,0.3982544,0.9759888,91.0
463,-0.09319496,1.0820541,-0.78186035,0.8007569,0.3982544,0.9759888,91.0
464,-0.09319496,1.0820541,-0.78186035,0.6690674,0.23151855,0.7072998,91.0
465,0.1886034,1.0056229,-0.5385628,0.6690674,0.23151855,0.7072998,91.0
466,0.1886034,1.0056229,-0.5385628,0.4885254,0.095581055,0.46409914,91.0
467,0.49783087,0.91999817,-0.36022186,0.4885254,0.095581055,0.46409914,91.0
468,0.49783087,0.91999817,-0.36022186,0.25063476,-0.03186035,0.26125488,91.0
469,0.75323296,0.8448334,-0.21515656,0.25063476,-0.03186035,0.26125488,91.0
470,0.75323296,0.8448334,-0.21515656,0.04248047,-0.16248779,0.07646485,91.0
471,0.8739853,0.7374115,-0.017108917,0.04248047,-0.16248779,0.07646485,91.0
472,0.8739853,0.7374115,-0.017108917,-0.10195313,-0.30161133,-0.058410645,91.0
473,0.88936186,0.51351166,0.28128433,-0.10195313,-0.30161133,-0.058410645,91.0
474,0.88936186,0.51351166,0.28128433,-0.1709839,-0.46728516,-0.2081543,91.0
475,1.0459867,0.22779083,0.5757599,-0.1709839,-0.46728516,-0.2081543,91.0
476,1.0459867,0.22779083,0.5757599,-0.22089843,-0.71154785,-0.4258667,91.0
477,1.5641694,0.041023254,0.8002701,-0.22089843,-0.71154785,-0.4258667,91.0
478,1.5641694,0.041023254,0.8002701,-0.37489015,-0.9122681,-0.7338501,91.0
479,2.108953,0.006111145,1.0416336,-0.37489015,-0.9122681,-0.7338501,91.0
480,2.108953,0.006111145,1.0416336,-0.6775635,-0.87403566,-1.0036011,91.0
481,1.8511639,0.025375366,1.3485031,-0.6775635,-0.87403566,-1.0036011,91.0
482,1.8511639,0.025375366,1.3485031,-1.0567017,-0.6966797,-1.0588257,91.0
483,0.7988391,-0.056907654,1.5989914,-1.0567017,-0.6966797,-1.0588257,91.0
484,0.7988391,-0.056907654,1.5989914,-1.2574219,-0.7827026,-1.1140503,91.0
485,0.1820035,-0.32794952,1.6494217,-1.2574219,-0.7827026,-1.1140503,91.0
486,0.1820035,-0.32794952,1.6494217,-1.1862671,-0.9781128,-1.1841431,91.0
487,0.5017915,-0.6358795,1.5884933,-1.1862671,-0.9781128,-1.1841431,91.0
488,0.5017915,-0.6358795,1.5884933,-0.9653687,-0.93775636,-1.2117554,91.0
489,0.832427,-0.76405334,1.6080742,-0.9653687,-0.93775636,-1.2117554,91.0
490,0.832427,-0.76405334,1.6080742,-0.9345703,-0.8262451,-1.1968873,91.0
491,0.49446964,-0.671608,1.6338348,-0.9345703,-0.8262451,-1.1968873,91.0
492,0.49446964,-0.671608,1.6338348,-1.084314,-0.6977417,-1.1331666,91.0
493,-0.36014938,-0.43692017,1.4994736,-1.084314,-0.6977417,-1.1331666,91.0
494,-0.36014938,-0.43692017,1.4994736,-1.3105224,-0.45878908,-1.0598878,91.0
495,-1.4122772,-0.23461914,1.2070732,-1.3105224,-0.45878908,-1.0598878,91.0
496,-1.4122772,-0.23461914,1.2070732,-1.5590333,-0.2782471,-1.0216553,91.0
497,-2.3390136,-0.30619812,0.8024521,-1.5590333,-0.2782471,-1.0216553,91.0
498,-2.3390136,-0.30619812,0.8024521,-1.5898316,-0.22408448,-1.0397094,91.0
499,-2.77458,-0.64151764,0.3927803,-1.5898316,-0.22408448,-1.0397094,91.0
500,-2.77458,-0.64151764,0.3927803,-1.4592041,-0.24638672,-1.1034302,91.0
501,-2.59243,-0.98213196,0.15224838,-1.4592041,-0.24638672,-1.1034302,91.0
502,-2.59243,-0.98213196,0.15224838,-1.3041505,-0.26550293,-1.2000732,91.0
503,-2.067047,-1.1750336,0.11260605,-1.3041505,-0.26550293,-1.2000732,91.0
504,-2.067047,-1.1750336,0.11260605,-1.1512207,-0.26444092,-1.3052124,91.0
505,-1.5615358,-1.2030029,0.18962097,-1.1512207,-0.26444092,-1.3052124,91.0
506,-1.5615358,-1.2030029,0.18962097,-1.0407715,-0.27718505,-1.3816773,91.0
507,-1.2774267,-1.1289825,0.26485825,-1.0407715,-0.27718505,-1.3816773,91.0
508,-1.2774267,-1.1289825,0.26485825,-0.9717407,-0.29523927,-1.4252198,91.0
509,-1.1800346,-1.0676498,0.28373718,-0.9717407,-0.29523927,-1.4252198,91.0
510,-1.1800346,-1.0676498,0.28373718,-0.91014403,-0.36002198,-1.4432739,91.0
511,-0.9814539,-1.1222305,0.2829361,-0.91014403,-0.36002198,-1.4432739,91.0
512,-0.9814539,-1.1222305,0.2829361,-0.7805786,-0.46728516,-1.4634522,91.0
513,-0.49238968,-1.2884598,0.35853958,-0.7805786,-0.46728516,-1.4634522,91.0
514,-0.49238968,-1.2884598,0.35853958,-0.5957886,-0.5161377,-1.4666382,91.0
515,0.030575752,-1.4676666,0.5333023,-0.5957886,-0.5161377,-1.4666382,91.0
516,0.030575752,-1.4676666,0.5333023,-0.41099855,-0.5171997,-1.4092896,91.0
517,0.2890234,-1.6034088,0.71967316,-0.41099855,-0.5171997,-1.4092896,91.0
518,0.2890234,-1.6034088,0.71967316,-0.25063476,-0.52675784,-1.2903442,91.0
519,0.40760994,-1.6596222,0.8202934,-0.25063476,-0.52675784,-1.2903442,91.0
520,0.40760994,-1.6596222,0.8202934,-0.10195313,-0.5341919,-1.1437867,91.0
521,0.6060686,-1.5916977,0.8639374,-0.10195313,-0.5341919,-1.1437867,91.0
522,0.6060686,-1.5916977,0.8639374,-0.010620117,-0.49383545,-0.9653687,91.0
523,0.90442276,-1.43013,0.9396858,-0.010620117,-0.49383545,-0.9653687,91.0
524,0.90442276,-1.43013,0.9396858,-0.040356446,-0.38975832,-0.7423462,91.0
525,1.1245642,-1.2404022,1.023552,-0.040356446,-0.38975832,-0.7423462,91.0
526,1.1245642,-1.2404022,1.023552,-0.16567384,-0.27612305,-0.4619751,91.0
527,1.3803153,-1.0835648,1.0742836,-0.16567384,-0.27612305,-0.4619751,91.0
528,1.3803153,-1.0835648,1.0742836,-0.2623169,-0.25063476,-0.22302246,91.0
529,1.9335737,-1.0661545,1.0985985,-0.2623169,-0.25063476,-0.22302246,91.0
530,1.9335737,-1.0661545,1.0985985,-0.25913087,-0.16673584,-0.0361084,91.0
531,1.9335737,-1.0661545,1.0985985,-0.13487549,0.1901001,0.1720459,91.0
532,2.29703,-1.1241379,1.038475,-0.13487549,0.1901001,0.1720459,91.0
533,1.6538839,-1.0597839,0.7390442,-0.13487549,0.1901001,0.1720459,91.0
534,1.6538839,-1.0597839,0.7390442,0.13168946,0.32072756,0.45454103,91.0
535,0.8103385,-0.87323,0.19242859,0.13168946,0.32072756,0.45454103,91.0
536,0.8103385,-0.87323,0.19242859,0.7147339,0.21558838,0.6796875,91.0
537,0.97355175,-0.6040726,-0.2616577,0.7147339,0.21558838,0.6796875,91.0
538,0.97355175,-0.6040726,-0.2616577,1.3105224,0.270813,0.84111327,91.0
539,1.5522299,-0.12452698,-0.4086914,1.3105224,0.270813,0.84111327,91.0
540,1.5522299,-0.12452698,-0.4086914,1.622754,0.4322388,0.96218264,91.0
541,1.6028314,0.4866333,-0.50634766,1.622754,0.4322388,0.96218264,91.0
542,1.6028314,0.4866333,-0.50634766,1.629126,0.5692383,1.0269654,91.0
543,1.6028314,0.4866333,-0.50634766,1.629126,0.5692383,1.0269654,91.0
544,1.2086935,0.9443588,-0.7720604,1.629126,0.5692383,1.0269654,91.0
545,1.2086935,0.9443588,-0.7720604,1.5165528,0.7189819,1.0875,91.0
546,0.61964035,1.1725769,-1.106453,1.5165528,0.7189819,1.0875,91.0
547,0.61964035,1.1725769,-1.106453,1.351941,0.91014403,1.1926392,91.0
548,-0.19652414,1.2788849,-1.3798523,1.351941,0.91014403,1.1926392,91.0
549,-0.19652414,1.2788849,-1.3798523,1.2064453,1.0875,1.364685,91.0
550,-1.1468678,1.3951263,-1.6275902,1.2064453,1.0875,1.364685,91.0
551,-1.1468678,1.3951263,-1.6275902,1.1044922,1.2425537,1.5770874,91.0
552,-1.920888,1.5904694,-1.9121437,1.1044922,1.2425537,1.5770874,91.0
553,-1.920888,1.5904694,-1.9121437,1.0545777,1.3360108,1.7640015,91.0
554,-2.268705,1.824501,-2.1697273,1.0545777,1.3360108,1.7640015,91.0
555,-2.268705,1.824501,-2.1697273,1.0227174,1.364685,1.9094971,91.0
556,-2.2045512,2.0510712,-2.2999802,1.0227174,1.364685,1.9094971,91.0
557,-2.2045512,2.0510712,-2.2999802,0.9855469,1.356189,1.9604737,91.0
558,-1.9109306,2.2053146,-2.2760658,0.9855469,1.356189,1.9604737,91.0
559,-1.9109306,2.2053146,-2.2760658,0.98236084,1.3052124,1.897815,91.0
560,-1.5745087,2.2184906,-2.1457672,0.98236084,1.3052124,1.897815,91.0
561,-1.5745087,2.2184906,-2.1457672,0.9611206,1.2053833,1.7416992,91.0
562,-1.192419,2.169838,-2.034153,0.9611206,1.2053833,1.7416992,91.0
563,-1.192419,2.169838,-2.034153,0.8379273,1.0875,1.5038086,91.0
564,-0.8149829,2.099594,-1.944828,0.8379273,1.0875,1.5038086,91.0
565,-0.8149829,2.099594,-1.944828,0.74022216,0.9632446,1.171399,91.0
566,-0.47538757,1.8140106,-1.6815453,0.74022216,0.9632446,1.171399,91.0
567,-0.47538757,1.8140106,-1.6815453,0.54375,0.814563,0.8612915,91.0
568,-0.027184486,1.1861954,-1.2927704,0.54375,0.814563,0.8612915,91.0
569,-0.027184486,1.1861954,-1.2927704,0.53100586,0.70198977,0.6053467,91.0
570,0.520916,0.6334076,-1.0121841,0.53100586,0.70198977,0.6053467,91.0
571,0.520916,0.6334076,-1.0121841,0.3993164,0.60216063,0.38869628,91.0
572,0.94167185,0.5105972,-0.9648018,0.3993164,0.60216063,0.38869628,91.0
573,0.94167185,0.5105972,-0.9648018,0.18054199,0.48321533,0.22833252,91.0
574,1.0752859,0.66189575,-1.0123558,0.18054199,0.48321533,0.22833252,91.0
575,1.0752859,0.66189575,-1.0123558,-0.08071289,0.34727785,0.1263794,91.0
576,0.9503164,0.7462158,-0.90807724,-0.08071289,0.34727785,0.1263794,91.0
577,0.9503164,0.7462158,-0.90807724,-0.22939454,0.1731079,0.095581055,91.0
578,0.73126125,0.6483536,-0.5301132,-0.22939454,0.1731079,0.095581055,91.0
579,0.73126125,0.6483536,-0.5301132,-0.21452637,-0.012744141,0.06478272,91.0
580,0.46874905,0.53941345,0.013031006,-0.21452637,-0.012744141,0.06478272,91.0
581,0.46874905,0.53941345,0.013031006,-0.15505372,-0.1731079,0.007434082,91.0
582,0.17357063,0.5203705,0.4557762,-0.15505372,-0.1731079,0.007434082,91.0
583,0.17357063,0.5203705,0.4557762,-0.121069334,-0.36851808,-0.09664307,91.0
584,0.32662535,0.51841736,0.64437103,-0.121069334,-0.36851808,-0.09664307,91.0
585,0.32662535,0.51841736,0.64437103,-0.2888672,-0.7317261,-0.30161133,91.0
586,1.3926358,0.4144287,0.63246536,-0.2888672,-0.7317261,-0.30161133,91.0
587,1.3926358,0.4144287,0.63246536,-0.6552612,-1.0046631,-0.59897465,91.0
588,2.4060154,0.29634094,0.6518936,-0.6552612,-1.0046631,-0.59897465,91.0
589,2.4060154,0.29634094,0.6518936,-1.0949341,-0.80181885,-0.85704345,91.0
590,1.7639971,0.07936096,1.0568924,-1.0949341,-0.80181885,-0.85704345,91.0
591,1.7639971,0.07936096,1.0568924,-1.4156617,-0.8209351,-1.0301514,91.0
592,0.21124649,-0.54008484,1.7861633,-1.4156617,-0.8209351,-1.0301514,91.0
593,0.21124649,-0.54008484,1.7861633,-1.2436157,-1.1597168,-1.2244996,91.0
594,-0.18350554,-1.3482819,2.3710327,-1.2436157,-1.1597168,-1.2244996,91.0
595,-0.18350554,-1.3482819,2.3710327,-0.6860596,-1.3710572,-1.448584,91.0
596,0.57350826,-1.7784805,2.5624542,-0.6860596,-1.3710572,-1.448584,91.0
597,0.57350826,-1.7784805,2.5624542,-0.27612305,-1.3402588,-1.5696534,91.0
598,1.0669975,-1.5880432,2.346447,-0.27612305,-1.3402588,-1.5696534,91.0
599,1.0669975,-1.5880432,2.346447,-0.28674316,-1.2266235,-1.5717773,91.0
600,0.7346525,-1.0304718,1.8677444,-0.28674316,-1.2266235,-1.5717773,91.0
601,0.7346525,-1.0304718,1.8677444,-0.6117188,-1.0290893,-1.4698242,91.0
602,-0.10680914,-0.5050049,1.3990669,-0.6117188,-1.0290893,-1.4698242,91.0
603,-0.10680914,-0.5050049,1.3990669,-1.0864381,-0.71791995,-1.3126465,91.0
604,-1.0738506,-0.2936859,1.134819,-1.0864381,-0.71791995,-1.3126465,91.0
605,-1.0738506,-0.2936859,1.134819,-1.5112427,-0.47896728,-1.1522827,91.0
606,-1.8251696,-0.49378967,0.93429565,-1.5112427,-0.47896728,-1.1522827,91.0
607,-1.8251696,-0.49378967,0.93429565,-1.724707,-0.32497558,-1.0460815,91.0
608,-2.1559973,-0.8908844,0.64886475,-1.724707,-0.32497558,-1.0460815,91.0
609,-2.1559973,-0.8908844,0.64886475,-1.716211,-0.21240234,-0.97067875,91.0
610,-2.1702566,-1.2014313,0.36806488,-1.716211,-0.21240234,-0.97067875,91.0
611,-2.1702566,-1.2014313,0.36806488,-1.6100098,-0.16567384,-0.93138427,91.0
612,-2.0696774,-1.3356934,0.2293396,-1.6100098,-0.16567384,-0.93138427,91.0
613,-2.0696774,-1.3356934,0.2293396,-1.3689331,-0.1720459,-0.9122681,91.0
614,-1.9434252,-1.2715836,0.23352051,-1.3689331,-0.1720459,-0.9122681,91.0
615,-1.9434252,-1.2715836,0.23352051,-1.0917481,-0.19116211,-0.8889038,91.0
616,-1.8357706,-1.0568542,0.2550888,-1.0917481,-0.19116211,-0.8889038,91.0
617,-1.8357706,-1.0568542,0.2550888,-0.8793457,-0.23151855,-0.86341554,91.0
618,-1.7138071,-0.82471466,0.21426392,-0.8793457,-0.23151855,-0.86341554,91.0
619,-1.7138071,-0.82471466,0.21426392,-0.7051758,-0.29736328,-0.83686525,91.0
620,-1.4586315,-0.69410706,0.13776779,-0.7051758,-0.29736328,-0.83686525,91.0
621,-1.4586315,-0.69410706,0.13776779,-0.5543701,-0.3717041,-0.82836914,91.0
622,-1.0447006,-0.6801605,0.15110779,-0.5543701,-0.3717041,-0.82836914,91.0
623,-1.0447006,-0.6801605,0.15110779,-0.39188233,-0.40037844,-0.8230591,91.0
624,-0.66295815,-0.7766876,0.32939148,-0.39188233,-0.40037844,-0.8230591,91.0
625,-0.66295815,-0.7766876,0.32939148,-0.2081543,-0.42374268,-0.8251831,91.0
626,-0.32278633,-0.90185547,0.5734978,-0.2081543,-0.42374268,-0.8251831,91.0
627,-0.32278633,-0.90185547,0.5734978,-0.06159668,-0.45878908,-0.8517334,91.0
628,0.2314558,-0.9704666,0.75525665,-0.06159668,-0.45878908,-0.8517334,91.0
629,0.2314558,-0.9704666,0.75525665,0.004248047,-0.45347902,-0.8846558,91.0
630,0.9565878,-1.0107956,0.8700371,0.004248047,-0.45347902,-0.8846558,91.0
631,0.9565878,-1.0107956,0.8700371,-0.03079834,-0.38444826,-0.8772217,91.0
632,1.5140982,-1.0666122,0.9776802,-0.03079834,-0.38444826,-0.8772217,91.0
633,1.5140982,-1.0666122,0.9776802,-0.12213135,-0.24957275,-0.74659425,91.0
634,1.7461176,-1.115036,1.030777,-0.12213135,-0.24957275,-0.74659425,91.0
635,1.7461176,-1.115036,1.030777,-0.2357666,-0.16354981,-0.4991455,91.0
636,1.9896069,-1.184761,0.9413605,-0.2357666,-0.16354981,-0.4991455,91.0
637,1.9896069,-1.184761,0.9413605,-0.23895264,-0.17947999,-0.23682861,91.0
638,2.5825305,-1.330513,0.8174324,-0.23895264,-0.17947999,-0.23682861,91.0
639,2.5825305,-1.330513,0.8174324,-0.0010620117,-0.04248047,0.0,91.0
640,2.644052,-1.3327332,0.71295166,-0.0010620117,-0.04248047,0.0,91.0
641,2.644052,-1.3327332,0.71295166,0.22196046,0.35683593,0.32816163,91.0
642,1.5517282,-1.0114136,0.34094238,0.22196046,0.35683593,0.32816163,91.0
643,1.5517282,-1.0114136,0.34094238,0.540564,0.32922363,0.67331547,91.0
644,0.7371712,-0.5116577,-0.3709488,0.540564,0.32922363,0.67331547,91.0
645,0.7371712,-0.5116577,-0.3709488,1.0078491,0.30267334,0.8793457,91.0
646,0.7371712,-0.5116577,-0.3709488,1.3784913,0.4248047,1.0290893,91.0
647,0.89863586,-0.032287598,-0.90426636,1.3784913,0.4248047,1.0290893,91.0
648,0.9772706,0.35398102,-1.0389748,1.3784913,0.4248047,1.0290893,91.0
649,0.9772706,0.35398102,-1.0389748,1.5770874,0.5065796,1.1087402,91.0
650,0.64462185,0.620491,-1.0735512,1.5770874,0.5065796,1.1087402,91.0
651,0.64462185,0.620491,-1.0735512,1.63125,0.52038574,1.1151123,91.0
652,0.64462185,0.620491,-1.0735512,1.5908936,0.6064087,1.1119263,91.0
653,0.36558723,0.789299,-1.1932907,1.5908936,0.6064087,1.1119263,91.0
654,0.098854065,0.95560455,-1.2947807,1.5908936,0.6064087,1.1119263,91.0
655,0.098854065,0.95560455,-1.2947807,1.3933594,0.73809814,1.1639649,91.0
656,-0.45230103,1.10672,-1.3467484,1.3933594,0.73809814,1.1639649,91.0
657,-0.45230103,1.10672,-1.3467484,1.1937011,0.85598147,1.2988404,91.0
658,-1.2036495,1.2234344,-1.458992,1.1937011,0.85598147,1.2988404,91.0
659,-1.2036495,1.2234344,-1.458992,1.0790039,0.9494385,1.4868164,91.0
660,-1.8291059,1.3128052,-1.6497116,1.0790039,0.9494385,1.4868164,91.0
661,-1.8291059,1.3128052,-1.6497116,1.0736939,0.9834229,1.6620483,91.0
662,-2.0605621,1.3968887,-1.8005905,1.0736939,0.9834229,1.6620483,91.0
663,-2.0605621,1.3968887,-1.8005905,1.1013062,0.97386473,1.7894897,91.0
664,-2.0605621,1.3968887,-1.8005905,1.1013062,0.97386473,1.7894897,90.0
665,-1.8672361,1.4638214,-1.8503952,1.1013062,0.97386473,1.7894897,90.0
666,-1.8672361,1.4638214,-1.8503952,1.1098022,0.9366943,1.8436524,90.0
667,-1.4551048,1.4971085,-1.7826729,1.1098022,0.9366943,1.8436524,90.0
668,-1.4551048,1.4971085,-1.7826729,1.1533448,0.8867798,1.7926759,90.0
669,-1.0403776,1.4889221,-1.6218414,1.1533448,0.8867798,1.7926759,90.0
670,-1.0403776,1.4889221,-1.6218414,1.174585,0.811377,1.6684204,90.0
671,-0.7607689,1.4932861,-1.4304924,1.174585,0.811377,1.6684204,90.0
672,-0.7607689,1.4932861,-1.4304924,1.1172364,0.73703617,1.5016845,90.0
673,-0.6645231,1.5357285,-1.2624702,1.1172364,0.73703617,1.5016845,90.0
674,-0.6645231,1.5357285,-1.2624702,0.9632446,0.6605713,1.3094605,90.0
675,-0.71515083,1.5389328,-1.1279716,0.9632446,0.6605713,1.3094605,90.0
676,-0.71515083,1.5389328,-1.1279716,0.7986328,0.5522461,1.1034302,90.0
677,-0.6828623,1.4195862,-0.96811295,0.7986328,0.5522461,1.1034302,90.0
678,-0.6828623,1.4195862,-0.96811295,0.6701294,0.38975832,0.88253176,90.0
679,-0.362257,1.1770554,-0.73628235,0.6701294,0.38975832,0.88253176,90.0
680,-0.362257,1.1770554,-0.73628235,0.61065674,0.21558838,0.63933104,90.0
681,0.27082634,0.8719559,-0.4587021,0.61065674,0.21558838,0.63933104,90.0
682,0.27082634,0.8719559,-0.4587021,0.5734863,0.081774905,0.42374268,90.0
683,0.88482475,0.69114685,-0.24715042,0.5734863,0.081774905,0.42374268,90.0
684,0.88482475,0.69114685,-0.24715042,0.4439209,0.012744141,0.25700685,90.0
685,1.0335069,0.7229996,-0.15322495,0.4439209,0.012744141,0.25700685,90.0
686,1.0335069,0.7229996,-0.15322495,0.28674316,-0.06690674,0.16354981,90.0
687,0.697423,0.82349396,-0.05908966,0.28674316,-0.06690674,0.16354981,90.0
688,0.697423,0.82349396,-0.05908966,0.1539917,-0.16992188,0.078588866,90.0
689,0.32544327,0.811676,0.1664238,0.1539917,-0.16992188,0.078588866,90.0
690,0.32544327,0.811676,0.1664238,0.06584473,-0.32816163,-0.043542482,90.0
691,0.5312772,0.55781555,0.48220062,0.06584473,-0.32816163,-0.043542482,90.0
692,0.5312772,0.55781555,0.48220062,-0.0063720704,-0.59260255,-0.2623169,90.0
693,1.6190891,0.13934326,0.69665146,-0.0063720704,-0.59260255,-0.2623169,90.0
694,1.6190891,0.13934326,0.69665146,-0.271875,-0.8666016,-0.5894165,90.0
695,2.8047318,-0.17680359,0.79268646,-0.271875,-0.8666016,-0.5894165,90.0
696,2.8047318,-0.17680359,0.79268646,-0.630835,-0.6775635,-0.82836914,90.0
697,2.3964467,-0.22898865,0.99222946,-0.630835,-0.6775635,-0.82836914,90.0
698,2.3964467,-0.22898865,0.99222946,-1.0046631,-0.48746338,-0.8889038,90.0
699,0.52495766,-0.35627747,1.3404999,-1.0046631,-0.48746338,-0.8889038,90.0
700,0.52495766,-0.35627747,1.3404999,-1.002539,-0.74022216,-0.9303223,90.0
701,-0.453691,-0.83153534,1.6868515,-1.002539,-0.74022216,-0.9303223,90.0
702,-0.453691,-0.83153534,1.6868515,-0.5384399,-1.0163453,-0.97386473,90.0
703,0.31506252,-1.2909851,1.8748589,-0.5384399,-1.0163453,-0.97386473,90.0
704,0.31506252,-1.2909851,1.8748589,-0.0021240234,-1.0535157,-0.98873293,90.0
705,1.3573356,-1.3011475,1.8064651,-0.0021240234,-1.0535157,-0.98873293,90.0
706,1.3573356,-1.3011475,1.8064651,0.20390625,-0.9239502,-0.9122681,90.0
707,1.3332682,-0.7829132,1.5603104,0.20390625,-0.9239502,-0.9122681,90.0
708,1.3332682,-0.7829132,1.5603104,-0.039294433,-0.71367186,-0.75296634,90.0
709,0.20638514,4.9591064E-4,1.3004684,-0.039294433,-0.71367186,-0.75296634,90.0
710,0.20638514,4.9591064E-4,1.3004684,-0.5703003,-0.45135498,-0.5649902,90.0
711,-1.3037152,0.60411835,1.1447067,-0.5703003,-0.45135498,-0.5649902,90.0
712,-1.3037152,0.60411835,1.1447067,-1.085376,-0.27718505,-0.4354248,90.0
713,-2.4123201,0.59978485,0.9467087,-1.085376,-0.27718505,-0.4354248,90.0
714,-2.4123201,0.59978485,0.9467087,-1.2096313,-0.19434814,-0.37595215,90.0
715,-2.8219094,0.109054565,0.58784866,-1.2096313,-0.19434814,-0.37595215,90.0
716,-2.8219094,0.109054565,0.58784866,-1.0397094,-0.17841797,-0.39188233,90.0
717,-2.6799278,-0.3899765,0.23296356,-1.0397094,-0.17841797,-0.39188233,90.0
718,-2.6799278,-0.3899765,0.23296356,-0.83474123,-0.20390625,-0.45772704,90.0
719,-2.2361174,-0.693367,0.11009979,-0.83474123,-0.20390625,-0.45772704,90.0
720,-2.2361174,-0.693367,0.11009979,-0.6265869,-0.24638672,-0.54693604,90.0
721,-1.6990261,-0.80122375,0.24778366,-0.6265869,-0.24638672,-0.54693604,90.0
722,-1.6990261,-0.80122375,0.24778366,-0.45772704,-0.26868898,-0.63720703,90.0
723,-1.2580976,-0.7574234,0.45059586,-0.45772704,-0.26868898,-0.63720703,90.0
724,-1.2580976,-0.7574234,0.45059586,-0.36320803,-0.2793091,-0.71579593,90.0
725,-1.0510464,-0.695076,0.55740356,-0.36320803,-0.2793091,-0.71579593,90.0
726,-1.0510464,-0.695076,0.55740356,-0.2803711,-0.30373535,-0.77102053,90.0
727,-0.99769783,-0.7287445,0.545372,-0.2803711,-0.30373535,-0.77102053,90.0
728,-0.99769783,-0.7287445,0.545372,-0.20284425,-0.35789797,-0.80394286,90.0
729,-0.8380871,-0.87312317,0.47178268,-0.20284425,-0.35789797,-0.80394286,90.0
730,-0.8380871,-0.87312317,0.47178268,-0.08920898,-0.42055663,-0.8230591,90.0
731,-0.43189526,-1.1123428,0.4448967,-0.08920898,-0.42055663,-0.8230591,90.0
732,-0.43189526,-1.1123428,0.4448967,0.07646485,-0.47684327,-0.8442993,90.0
733,0.18923664,-1.3783112,0.57437515,0.07646485,-0.47684327,-0.8442993,90.0
734,0.18923664,-1.3783112,0.57437515,0.24638672,-0.49383545,-0.8591675,90.0
735,0.8030739,-1.5595932,0.8290405,0.24638672,-0.49383545,-0.8591675,90.0
736,0.8030739,-1.5595932,0.8290405,0.32391357,-0.41418457,-0.81987303,90.0
737,1.0723906,-1.5701599,0.99754715,0.32391357,-0.41418457,-0.81987303,90.0
738,1.0723906,-1.5701599,0.99754715,0.2527588,-0.2984253,-0.71367186,90.0
739,0.9795923,-1.4478989,0.8940468,0.2527588,-0.2984253,-0.71367186,90.0
740,0.9795923,-1.4478989,0.8940468,0.1359375,-0.1985962,-0.5564942,90.0
741,0.7958689,-1.2456589,0.5172615,0.1359375,-0.1985962,-0.5564942,90.0
742,0.7958689,-1.2456589,0.5172615,0.020178223,-0.15611573,-0.34833986,90.0
743,0.8725834,-1.1257782,0.04624176,0.020178223,-0.15611573,-0.34833986,90.0
744,0.8725834,-1.1257782,0.04624176,0.03079834,-0.27718505,-0.20284425,90.0
745,1.5957351,-1.3236694,-0.16552353,0.03079834,-0.27718505,-0.20284425,90.0
746,1.5957351,-1.3236694,-0.16552353,0.2177124,-0.39082032,-0.12000733,90.0
747,2.5900402,-1.749649,0.091667175,0.2177124,-0.39082032,-0.12000733,90.0
748,2.5900402,-1.749649,0.091667175,0.5065796,-0.13062744,0.057348635,90.0
749,2.531529,-1.958519,0.4529724,0.5065796,-0.13062744,0.057348635,90.0
750,2.531529,-1.958519,0.4529724,0.8294312,0.11044922,0.33134767,90.0
751,1.4431677,-1.6519928,0.203125,0.8294312,0.11044922,0.33134767,90.0
752,1.4431677,-1.6519928,0.203125,1.2138795,0.007434082,0.6202149,90.0
753,0.8742609,-1.0093536,-0.5518799,1.2138795,0.007434082,0.6202149,90.0
754,0.8742609,-1.0093536,-0.5518799,1.6769165,0.009558106,0.79226077,90.0
755,0.9192815,-0.33571625,-1.0127716,1.6769165,0.009558106,0.79226077,90.0
756,0.9192815,-0.33571625,-1.0127716,1.9848999,0.08602295,0.91864014,90.0
757,0.75186825,0.24999237,-0.96523285,1.9848999,0.08602295,0.91864014,90.0
758,0.75186825,0.24999237,-0.96523285,2.0188844,0.18054199,1.0280274,90.0
759,0.27499294,0.6736908,-0.7899246,2.0188844,0.18054199,1.0280274,90.0
760,0.27499294,0.6736908,-0.7899246,1.9509156,0.30161133,1.1161743,90.0
761,-0.28250837,0.92972565,-0.7785568,1.9509156,0.30161133,1.1161743,90.0
762,-0.28250837,0.92972565,-0.7785568,1.7852417,0.44498292,1.2191895,90.0
763,-0.84586763,1.1031952,-0.9492111,1.7852417,0.44498292,1.2191895,90.0
764,-0.84586763,1.1031952,-0.9492111,1.6121339,0.5851685,1.356189,90.0
765,-1.371738,1.2563858,-1.214325,1.6121339,0.5851685,1.356189,90.0
766,-1.371738,1.2563858,-1.214325,1.4974365,0.68712157,1.5059327,90.0
767,-1.7334862,1.3784027,-1.4454346,1.4974365,0.68712157,1.5059327,90.0
768,-1.7334862,1.3784027,-1.4454346,1.4730103,0.7497803,1.6333741,90.0
769,-1.7334862,1.3784027,-1.4454346,1.4730103,0.7497803,1.6333741,87.0
770,-1.8540134,1.4411163,-1.5804329,1.4730103,0.7497803,1.6333741,87.0
771,-1.8540134,1.4411163,-1.5804329,1.4984986,0.7625244,1.7013428,87.0
772,-1.7022657,1.4674301,-1.5998192,1.4984986,0.7625244,1.7013428,87.0
773,-1.7022657,1.4674301,-1.5998192,1.5144287,0.75509036,1.6949707,87.0
774,-1.3866539,1.4889221,-1.5113258,1.5144287,0.75509036,1.6949707,87.0
775,-1.3866539,1.4889221,-1.5113258,1.4581422,0.7519043,1.6248779,87.0
776,-1.033823,1.4885712,-1.3488808,1.4581422,0.7519043,1.6248779,87.0
777,-1.033823,1.4885712,-1.3488808,1.360437,0.72960204,1.5165528,87.0
778,-0.6879959,1.4218826,-1.1779099,1.360437,0.72960204,1.5165528,87.0
779,-0.6879959,1.4218826,-1.1779099,1.2584839,0.70092773,1.3838013,87.0
780,-0.3909607,1.344017,-1.0489578,1.2584839,0.70092773,1.3838013,87.0
781,-0.3909607,1.344017,-1.0489578,1.1236085,0.6711914,1.265918,87.0
782,-0.21644306,1.299797,-0.96439743,1.1236085,0.6711914,1.265918,87.0
783,-0.21644306,1.299797,-0.96439743,0.9791748,0.60322267,1.1214844,87.0
784,-0.0939064,1.2368851,-0.8610573,0.9791748,0.60322267,1.1214844,87.0
785,-0.0939064,1.2368851,-0.8610573,0.8772217,0.51932377,0.97386473,87.0
786,0.09016991,1.1430435,-0.71671677,0.8772217,0.51932377,0.97386473,87.0
787,0.09016991,1.1430435,-0.71671677,0.77314454,0.4428589,0.8517334,87.0
788,0.31958485,1.0668793,-0.5772934,0.77314454,0.4428589,0.8517334,87.0
789,0.31958485,1.0668793,-0.5772934,0.62552494,0.36427003,0.7625244,87.0
790,0.56565285,1.0228119,-0.45186234,0.62552494,0.36427003,0.7625244,87.0
791,0.56565285,1.0228119,-0.45186234,0.4725952,0.2814331,0.69986576,87.0
792,0.7682204,0.97792053,-0.29333878,0.4725952,0.2814331,0.69986576,87.0
793,0.7682204,0.97792053,-0.29333878,0.3812622,0.20709229,0.66481936,87.0
794,0.80437136,0.9550781,-0.13331604,0.3812622,0.20709229,0.66481936,87.0
795,0.80437136,0.9550781,-0.13331604,0.30054933,0.09770508,0.63720703,87.0
796,0.8117466,0.97125244,-0.07394791,0.30054933,0.09770508,0.63720703,87.0
797,0.8117466,0.97125244,-0.07394791,0.14337158,-0.15930176,0.53100586,87.0
798,1.3380203,0.92863464,-0.07954407,0.14337158,-0.15930176,0.53100586,87.0
799,1.3380203,0.92863464,-0.07954407,-0.13168946,-0.6159668,0.19434814,87.0
800,2.3593936,0.66898346,0.06535721,-0.13168946,-0.6159668,0.19434814,87.0
801,2.3593936,0.66898346,0.06535721,-0.36533204,-0.6690674,-0.14655761,87.0
802,2.1610012,0.35018158,0.62400055,-0.36533204,-0.6690674,-0.14655761,87.0
803,2.1610012,0.35018158,0.62400055,-0.55968016,-0.48109132,-0.29311523,87.0
804,0.017216206,0.1507721,1.346077,-0.55968016,-0.48109132,-0.29311523,87.0
805,0.017216206,0.1507721,1.346077,-0.51082766,-0.7508423,-0.3695801,87.0
806,-1.7272673,-0.11515808,1.6590881,-0.51082766,-0.7508423,-0.3695801,87.0
807,-1.7272673,-0.11515808,1.6590881,-0.12956543,-1.1692749,-0.48109132,87.0
808,-1.196621,-0.43714905,1.6092758,-0.12956543,-1.1692749,-0.48109132,87.0
809,-1.196621,-0.43714905,1.6092758,0.36002198,-1.4124756,-0.64782715,87.0
810,0.5379424,-0.5643692,1.5818062,0.36002198,-1.4124756,-0.64782715,87.0
811,0.5379424,-0.5643692,1.5818062,0.61915284,-1.4167236,-0.77102053,87.0
812,1.4893627,-0.45962524,1.7156792,0.61915284,-1.4167236,-0.77102053,87.0
813,1.4893627,-0.45962524,1.7156792,0.52038574,-1.3009644,-0.81668705,87.0
814,1.0913315,-0.24273682,1.8476639,0.52038574,-1.3009644,-0.81668705,87.0
815,1.0913315,-0.24273682,1.8476639,0.1720459,-1.1044922,-0.7965088,87.0
816,0.0013613701,-0.05114746,1.8054619,0.1720459,-1.1044922,-0.7965088,87.0
817,0.0013613701,-0.05114746,1.8054619,-0.2357666,-0.8857178,-0.77102053,87.0
818,-1.0307226,-0.04183197,1.5450058,-0.2357666,-0.8857178,-0.77102053,87.0
819,-1.0307226,-0.04183197,1.5450058,-0.56392825,-0.73703617,-0.7763306,87.0
820,-1.6648369,-0.31730652,1.1357117,-0.56392825,-0.73703617,-0.7763306,87.0
821,-1.6648369,-0.31730652,1.1357117,-0.68074954,-0.6605713,-0.7975708,87.0
822,-1.9498868,-0.77194977,0.79532623,-0.68074954,-0.6605713,-0.7975708,87.0
823,-1.9498868,-0.77194977,0.79532623,-0.58623046,-0.6425171,-0.8209351,87.0
824,-2.0447607,-1.1976624,0.7243576,-0.58623046,-0.6425171,-0.8209351,87.0
825,-2.0447607,-1.1976624,0.7243576,-0.40037844,-0.6488892,-0.8071289,87.0
826,-2.0068903,-1.4677734,0.88986206,-0.40037844,-0.6488892,-0.8071289,87.0
827,-2.0068903,-1.4677734,0.88986206,-0.12956543,-0.6552612,-0.7614624,87.0
828,-1.8399973,-1.5392838,1.0813599,-0.12956543,-0.6552612,-0.7614624,87.0
829,-1.8399973,-1.5392838,1.0813599,0.16779785,-0.6711914,-0.7072998,87.0
830,-1.5655766,-1.4178162,1.1048203,0.16779785,-0.6711914,-0.7072998,87.0
831,-1.5655766,-1.4178162,1.1048203,0.3717041,-0.6605713,-0.6605713,87.0
832,-1.2539873,-1.1880646,0.9549751,0.3717041,-0.6605713,-0.6605713,87.0
833,-1.2539873,-1.1880646,0.9549751,0.4715332,-0.6159668,-0.61915284,87.0
834,-0.9811077,-1.0061264,0.77705383,0.4715332,-0.6159668,-0.61915284,87.0
835,-0.9811077,-1.0061264,0.77705383,0.49489745,-0.5511841,-0.57561034,87.0
836,-0.67100716,-0.9865799,0.67287445,0.49489745,-0.5511841,-0.57561034,87.0
837,-0.67100716,-0.9865799,0.67287445,0.49064943,-0.49383545,-0.52675784,87.0
838,-0.20129585,-1.1005173,0.58080673,0.49064943,-0.49383545,-0.52675784,87.0
839,-0.20129585,-1.1005173,0.58080673,0.4980835,-0.42799073,-0.47578126,87.0
840,0.32689095,-1.2568588,0.48562622,0.4980835,-0.42799073,-0.47578126,87.0
841,0.32689095,-1.2568588,0.48562622,0.5479981,-0.3525879,-0.42055663,87.0
842,0.72086334,-1.3668365,0.43850327,0.5479981,-0.3525879,-0.42055663,87.0
843,0.72086334,-1.3668365,0.43850327,0.62977296,-0.2803711,-0.32497558,87.0
844,0.9528265,-1.3688354,0.3969803,0.62977296,-0.2803711,-0.32497558,87.0
845,0.9528265,-1.3688354,0.3969803,0.68712157,-0.1901001,-0.16461182,87.0
846,1.0537653,-1.2240982,0.26684952,0.68712157,-0.1901001,-0.16461182,87.0
847,1.0537653,-1.2240982,0.26684952,0.6956177,-0.1083252,0.050976563,87.0
848,1.1390696,-1.0065231,0.023464203,0.6956177,-0.1083252,0.050976563,87.0
849,1.1390696,-1.0065231,0.023464203,0.67331547,-0.13912354,0.2803711,87.0
850,1.7036018,-0.9001694,-0.19927216,0.67331547,-0.13912354,0.2803711,87.0
851,1.7036018,-0.9001694,-0.19927216,0.7688965,-0.2984253,0.41418457,87.0
852,2.9544587,-0.9948807,-0.15829468,0.7688965,-0.2984253,0.41418457,87.0
853,2.9544587,-0.9948807,-0.15829468,1.0205933,-0.22514649,0.56392825,87.0
854,3.5868216,-0.9941559,0.07364273,1.0205933,-0.22514649,0.56392825,87.0
855,3.5868216,-0.9941559,0.07364273,1.1841431,0.20496826,0.8379273,87.0
856,2.630468,-0.61515045,-0.029220581,1.1841431,0.20496826,0.8379273,87.0
857,2.630468,-0.61515045,-0.029220581,1.4209718,0.13381349,1.0938721,87.0
858,1.5202193,-0.063934326,-0.60723877,1.4209718,0.13381349,1.0938721,87.0
859,1.5202193,-0.063934326,-0.60723877,1.7416992,0.07434082,1.1979493,87.0
860,1.2069101,0.37259674,-1.0016975,1.7416992,0.07434082,1.1979493,87.0
861,1.2069101,0.37259674,-1.0016975,2.0932252,0.1274414,1.2075074,87.0
862,1.0231457,0.68730927,-0.819191,2.0932252,0.1274414,1.2075074,87.0
863,1.0231457,0.68730927,-0.819191,2.2068603,0.22833252,1.2213135,87.0
864,0.6005354,0.9931183,-0.48641968,2.2068603,0.22833252,1.2213135,87.0
865,0.6005354,0.9931183,-0.48641968,2.0528686,0.4163086,1.2521118,87.0
866,-0.13773584,1.3142242,-0.4652481,2.0528686,0.4163086,1.2521118,87.0
867,-0.13773584,1.3142242,-0.4652481,1.8287842,0.59472656,1.3190186,87.0
868,-1.089437,1.5835342,-0.789032,1.8287842,0.59472656,1.3190186,87.0
869,-1.089437,1.5835342,-0.789032,1.6386842,0.73703617,1.4305298,87.0
870,-1.089437,1.5835342,-0.789032,1.6386842,0.73703617,1.4305298,88.0
871,-1.9259682,1.7414474,-1.1904907,1.6386842,0.73703617,1.4305298,88.0
872,-1.9259682,1.7414474,-1.1904907,1.5154908,0.8496094,1.5983276,88.0
873,-2.385562,1.7796478,-1.4561386,1.5154908,0.8496094,1.5983276,88.0
874,-2.385562,1.7796478,-1.4561386,1.4974365,0.92713624,1.7523193,88.0
875,-2.3163843,1.7425537,-1.5446587,1.4974365,0.92713624,1.7523193,88.0
876,-2.3163843,1.7425537,-1.5446587,1.4061035,0.99298096,1.8574585,88.0
877,-1.8567576,1.7492294,-1.4872055,1.4061035,0.99298096,1.8574585,88.0
878,-1.8567576,1.7492294,-1.4872055,1.2829102,1.0630738,1.9073731,88.0
879,-1.2604795,1.8332596,-1.443779,1.2829102,1.0630738,1.9073731,88.0
880,-1.2604795,1.8332596,-1.443779,1.1299804,1.0354614,1.8202881,88.0
881,-0.67826843,1.9195633,-1.5495071,1.1299804,1.0354614,1.8202881,88.0
882,-0.67826843,1.9195633,-1.5495071,1.0630738,1.0014771,1.6747925,88.0
883,-0.2911501,1.9545746,-1.7352219,1.0630738,1.0014771,1.6747925,88.0
884,-0.2911501,1.9545746,-1.7352219,0.9281983,0.9420044,1.5271729,88.0
885,-0.16725826,1.9261703,-1.8854675,0.9281983,0.9420044,1.5271729,88.0
886,-0.16725826,1.9261703,-1.8854675,0.79969484,0.8772217,1.3498169,88.0
887,-0.22122097,1.8906403,-1.9024544,0.79969484,0.8772217,1.3498169,88.0
888,-0.22122097,1.8906403,-1.9024544,0.6446411,0.7699585,1.1522827,88.0
889,-0.27681828,1.8666992,-1.7661514,0.6446411,0.7699585,1.1522827,88.0
890,-0.27681828,1.8666992,-1.7661514,0.54587406,0.5894165,0.8931519,88.0
891,-0.14309788,1.6993866,-1.5180855,0.54587406,0.5894165,0.8931519,88.0
892,-0.14309788,1.6993866,-1.5180855,0.52888185,0.3993164,0.66269535,88.0
893,0.23276329,1.3167725,-1.178566,0.52888185,0.3993164,0.66269535,88.0
894,0.23276329,1.3167725,-1.178566,0.5150757,0.24532472,0.4885254,88.0
895,0.6567793,0.93377686,-0.7849426,0.5150757,0.24532472,0.4885254,88.0
896,0.6567793,0.93377686,-0.7849426,0.38657227,0.1178833,0.37595215,88.0
897,0.90356064,0.79444885,-0.3671875,0.38657227,0.1178833,0.37595215,88.0
898,0.90356064,0.79444885,-0.3671875,0.15186767,0.0031860352,0.29205322,88.0
899,0.81650114,0.7550888,-0.120471954,0.15186767,0.0031860352,0.29205322,88.0
900,0.81650114,0.7550888,-0.120471954,0.023364259,-0.04885254,0.24107666,88.0
901,0.49039602,0.9842987,0.41470718,0.023364259,-0.04885254,0.24107666,88.0
902,0.49039602,0.9842987,0.41470718,-0.31860352,-0.32391357,0.026550293,88.0
903,0.36489964,0.83973694,0.47830963,-0.31860352,-0.32391357,0.026550293,88.0
904,0.36489964,0.83973694,0.47830963,-0.42374268,-0.48109132,-0.081774905,88.0
905,1.4862924,0.29432678,0.4830742,-0.42374268,-0.48109132,-0.081774905,88.0
906,1.4862924,0.29432678,0.4830742,-0.7720825,-0.92076415,-0.5171997,88.0
907,1.725997,-0.011642456,0.5953827,-0.7720825,-0.92076415,-0.5171997,88.0
908,1.725997,-0.011642456,0.5953827,-0.8230591,-0.8666016,-0.63720703,88.0
909,1.1359005,-0.44130707,1.2605095,-0.8230591,-0.8666016,-0.63720703,88.0
910,1.1359005,-0.44130707,1.2605095,-0.89102787,-0.9589966,-0.7688965,88.0
911,0.17096376,-0.45509338,1.4730797,-0.89102787,-0.9589966,-0.7688965,88.0
912,0.17096376,-0.45509338,1.4730797,-0.86341554,-1.1098022,-0.81881106,88.0
913,-0.53559256,-0.87872314,2.1390343,-0.86341554,-1.1098022,-0.81881106,88.0
914,-0.53559256,-0.87872314,2.1390343,-0.24320069,-1.44115,-0.9770508,88.0
915,-0.099421024,-1.039978,2.1605682,-0.24320069,-1.44115,-0.9770508,88.0
916,-0.099421024,-1.039978,2.1605682,-0.014868164,-1.442212,-0.99298096,88.0
917,1.1012249,-1.1099396,2.387844,-0.014868164,-1.442212,-0.99298096,88.0
918,1.1012249,-1.1099396,2.387844,0.14868164,-1.3678712,-0.92501223,88.0
919,0.89492035,-0.87342834,2.1145859,0.14868164,-1.3678712,-0.92501223,88.0
920,0.89492035,-0.87342834,2.1145859,0.04141846,-1.3158325,-0.88359374,88.0
921,-0.021124363,-0.05456543,1.7338448,0.04141846,-1.3158325,-0.88359374,88.0
922,-0.021124363,-0.05456543,1.7338448,-0.5246338,-1.0386475,-0.7391602,88.0
923,-0.50258064,0.05317688,1.5628815,-0.5246338,-1.0386475,-0.7391602,88.0
924,-0.50258064,0.05317688,1.5628815,-0.72854006,-0.95368654,-0.7306641,88.0
925,-1.7680802,-0.17733002,1.5387459,-0.72854006,-0.95368654,-0.7306641,88.0
926,-1.7680802,-0.17733002,1.5387459,-1.0906861,-0.77526855,-0.7412842,88.0
927,-1.7841787,-0.45291138,1.3843918,-1.0906861,-0.77526855,-0.7412842,88.0
928,-1.7841787,-0.45291138,1.3843918,-1.09281,-0.73809814,-0.7604004,88.0
929,-1.9619012,-1.142067,1.0991402,-1.09281,-0.73809814,-0.7604004,88.0
930,-1.9619012,-1.142067,1.0991402,-0.98236084,-0.64570314,-0.817749,88.0
931,-1.6564469,-1.1727219,0.9355011,-0.98236084,-0.64570314,-0.817749,88.0
932,-1.6564469,-1.1727219,0.9355011,-0.94412845,-0.6265869,-0.8336792,88.0
933,-1.3938227,-1.3422165,0.7788315,-0.94412845,-0.6265869,-0.8336792,88.0
934,-1.3938227,-1.3422165,0.7788315,-0.813501,-0.5798584,-0.88359374,88.0
935,-1.1727238,-1.2887344,0.788105,-0.813501,-0.5798584,-0.88359374,88.0
936,-1.1727238,-1.2887344,0.788105,-0.7412842,-0.56605226,-0.8931519,88.0
937,-1.3681107,-1.4824905,1.1538734,-0.7412842,-0.56605226,-0.8931519,88.0
938,-1.3681107,-1.4824905,1.1538734,-0.3993164,-0.5851685,-0.903772,88.0
939,-1.279974,-1.4236374,1.1752625,-0.3993164,-0.5851685,-0.903772,88.0
940,-1.279974,-1.4236374,1.1752625,-0.28355715,-0.6053467,-0.9122681,88.0
941,-1.0067425,-1.4518356,1.2434082,-0.28355715,-0.6053467,-0.9122681,88.0
942,-1.0067425,-1.4518356,1.2434082,0.04141846,-0.5787964,-0.93775636,88.0
943,-0.6347275,-1.333786,1.0932617,0.04141846,-0.5787964,-0.93775636,88.0
944,-0.6347275,-1.333786,1.0932617,0.107263185,-0.53950197,-0.9345703,88.0
945,-0.09570885,-1.2301407,1.000927,0.107263185,-0.53950197,-0.9345703,88.0
946,-0.09570885,-1.2301407,1.000927,0.18266602,-0.45029297,-0.91864014,88.0
947,0.35470772,-1.1611633,0.974823,0.18266602,-0.45029297,-0.91864014,88.0
948,0.35470772,-1.1611633,0.974823,0.24213867,-0.33665773,-0.8644776,88.0
949,0.8290787,-1.1550522,0.95866776,0.24213867,-0.33665773,-0.8644776,88.0
950,0.8290787,-1.1550522,0.95866776,0.21134034,-0.16992188,-0.75509036,88.0
951,1.2683535,-1.1137848,0.779335,0.21134034,-0.16992188,-0.75509036,88.0
952,1.2683535,-1.1137848,0.779335,0.11044922,0.04141846,-0.5341919,88.0
953,1.6128759,-0.8664398,0.11024475,0.11044922,0.04141846,-0.5341919,88.0
954,1.6128759,-0.8664398,0.11024475,-0.27718505,0.22302246,-0.04460449,88.0
955,1.4632502,-0.6376877,-0.19607162,-0.27718505,0.22302246,-0.04460449,88.0
956,1.4632502,-0.6376877,-0.19607162,-0.36851808,0.19753419,0.090270996,88.0
957,1.8378363,-0.5157776,-0.5376892,-0.36851808,0.19753419,0.090270996,88.0
958,1.8378363,-0.5157776,-0.5376892,-0.30479738,0.18372802,0.2803711,88.0
959,2.3728566,-0.67207336,-0.41872406,-0.30479738,0.18372802,0.2803711,88.0
960,2.3728566,-0.67207336,-0.41872406,-0.115759276,0.38975832,0.45454103,88.0
961,2.1485786,-0.8738632,-0.10493851,-0.115759276,0.38975832,0.45454103,88.0
962,2.1485786,-0.8738632,-0.10493851,0.093457036,0.56392825,0.69136965,88.0
963,1.1838531,-0.7675934,-0.13132477,0.093457036,0.56392825,0.69136965,88.0
964,1.1838531,-0.7675934,-0.13132477,0.41312256,0.5299439,0.88996583,88.0
965,0.58824444,-0.39793396,-0.5255432,0.41312256,0.5299439,0.88996583,88.0
966,0.58824444,-0.39793396,-0.5255432,0.8846558,0.48427734,0.99510497,88.0
967,0.641665,0.0740509,-0.8817749,0.8846558,0.48427734,0.99510497,88.0
968,0.641665,0.0740509,-0.8817749,1.3391968,0.5246338,1.0503296,88.0
969,0.641665,0.0740509,-0.8817749,1.3391968,0.5246338,1.0503296,88.0
970,0.6937032,0.5531235,-0.9797478,1.3391968,0.5246338,1.0503296,88.0
971,0.6937032,0.5531235,-0.9797478,1.5462891,0.6053467,1.081128,88.0
972,0.48522377,0.9656067,-0.99316025,1.5462891,0.6053467,1.081128,88.0
973,0.48522377,0.9656067,-0.99316025,1.5579712,0.7062378,1.1034302,88.0
974,-0.14541483,1.43927,-1.245739,1.5579712,0.7062378,1.1034302,88.0
975,-0.14541483,1.43927,-1.245739,1.3933594,0.9324463,1.2000732,88.0
976,-0.4089465,1.4847565,-1.3390732,1.3933594,0.9324463,1.2000732,88.0
977,-0.4089465,1.4847565,-1.3390732,1.3052124,1.002539,1.2499878,88.0
978,-1.1549649,1.7216873,-1.6492233,1.3052124,1.002539,1.2499878,88.0
979,-1.1549649,1.7216873,-1.6492233,1.1214844,1.1182984,1.354065,88.0
980,-1.8253145,1.8907547,-1.9130669,1.1214844,1.1182984,1.354065,88.0
981,-1.8253145,1.8907547,-1.9130669,0.9866089,1.1671509,1.4581422,88.0
982,-2.1955056,1.9491272,-2.0654755,0.9866089,1.1671509,1.4581422,88.0
983,-2.1955056,1.9491272,-2.0654755,0.9143921,1.1512207,1.5229248,88.0
984,-2.1446857,1.9494629,-2.095314,0.9143921,1.1512207,1.5229248,88.0
985,-2.1446857,1.9494629,-2.095314,0.8071289,1.1044922,1.5250489,88.0
986,-1.7531757,1.9108124,-1.9773865,0.8071289,1.1044922,1.5250489,88.0
987,-1.7531757,1.9108124,-1.9773865,0.5979126,1.081128,1.44115,88.0
988,-1.2308493,1.7992706,-1.6873169,0.5979126,1.081128,1.44115,88.0
989,-1.2308493,1.7992706,-1.6873169,0.34090576,1.0428956,1.2967163,88.0
990,-0.6912708,1.5771942,-1.3897476,0.34090576,1.0428956,1.2967163,88.0
991,-0.6912708,1.5771942,-1.3897476,0.2442627,0.95368654,1.1119263,88.0
992,-0.23817253,1.3310318,-1.3394699,0.2442627,0.95368654,1.1119263,88.0
993,-0.23817253,1.3310318,-1.3394699,0.21877442,0.86341554,0.90802,88.0
994,-0.029576302,1.1651764,-1.5254707,0.21877442,0.86341554,0.90802,88.0
995,-0.029576302,1.1651764,-1.5254707,0.2166504,0.75615233,0.70198977,88.0
996,-0.07749367,1.0666504,-1.7061081,0.2166504,0.75615233,0.70198977,88.0
997,-0.07749367,1.0666504,-1.7061081,0.20709229,0.60959476,0.5331299,88.0
998,-0.1284008,0.9895172,-1.6494713,0.20709229,0.60959476,0.5331299,88.0
999,-0.1284008,0.9895172,-1.6494713,0.24532472,0.4258667,0.38657227,88.0
1000,0.042310715,0.8779907,-1.3291588,0.24532472,0.4258667,0.38657227,88.0
1001,0.042310715,0.8779907,-1.3291588,0.33878174,0.22514649,0.26337892,88.0
1002,0.3988018,0.78271484,-0.9080391,0.33878174,0.22514649,0.26337892,88.0
1003,0.3988018,0.78271484,-0.9080391,0.37489015,0.029736329,0.16567384,88.0
1004,0.72459507,0.8040314,-0.55093,0.37489015,0.029736329,0.16567384,88.0
1005,0.72459507,0.8040314,-0.55093,0.32178956,-0.16779785,0.08496094,88.0
1006,0.9045658,0.9175644,-0.21884537,0.32178956,-0.16779785,0.08496094,88.0
1007,0.9045658,0.9175644,-0.21884537,0.14868164,-0.32497558,-0.008496094,88.0
1008,0.91895294,0.94316864,0.1758995,0.14868164,-0.32497558,-0.008496094,88.0
1009,0.91895294,0.94316864,0.1758995,-0.029736329,-0.4694092,-0.13275146,88.0
1010,1.0454774,0.7532654,0.5317955,-0.029736329,-0.4694092,-0.13275146,88.0
1011,1.0454774,0.7532654,0.5317955,-0.22833252,-0.7126099,-0.35683593,88.0
1012,1.808733,0.33882904,0.7280464,-0.22833252,-0.7126099,-0.35683593,88.0
1013,1.808733,0.33882904,0.7280464,-0.4970215,-0.996167,-0.6839356,88.0
1014,2.8275042,-0.19329071,0.91550446,-0.4970215,-0.996167,-0.6839356,88.0
1015,2.8275042,-0.19329071,0.91550446,-0.7476563,-0.8846558,-0.9483765,88.0
1016,2.3608317,-0.5080261,1.2977982,-0.7476563,-0.8846558,-0.9483765,88.0
1017,2.3608317,-0.5080261,1.2977982,-0.94625247,-0.7508423,-0.991919,88.0
1018,0.41620445,-0.6318283,1.7174873,-0.94625247,-0.7508423,-0.991919,88.0
1019,0.41620445,-0.6318283,1.7174873,-1.0747559,-0.96643066,-1.0460815,88.0
1020,-0.5150709,-0.915535,1.9013214,-1.0747559,-0.96643066,-1.0460815,88.0
1021,-0.5150709,-0.915535,1.9013214,-0.7582764,-1.1937011,-1.1087402,88.0
1022,0.3220744,-1.225296,1.9156609,-0.7582764,-1.1937011,-1.1087402,88.0
1023,0.3220744,-1.225296,1.9156609,-0.3334717,-1.1979493,-1.1066163,88.0
1024,1.2742248,-1.2202911,1.8776321,-0.3334717,-1.1979493,-1.1066163,88.0
1025,1.2742248,-1.2202911,1.8776321,-0.19541016,-1.084314,-1.0046631,88.0
1026,1.1301956,-0.8442764,1.7456474,-0.19541016,-1.084314,-1.0046631,88.0
1027,1.1301956,-0.8442764,1.7456474,-0.46834716,-0.9281983,-0.83474123,88.0
1028,0.056048393,-0.21672821,1.5331993,-0.46834716,-0.9281983,-0.83474123,88.0
1029,0.056048393,-0.21672821,1.5331993,-1.0014771,-0.6605713,-0.66269535,88.0
1030,-1.3395853,0.2059784,1.3915253,-1.0014771,-0.6605713,-0.66269535,88.0
1031,-1.3395853,0.2059784,1.3915253,-1.4432739,-0.52888185,-0.5809204,88.0
1032,-2.4775763,0.02797699,1.303833,-1.4432739,-0.52888185,-0.5809204,88.0
1033,-2.4775763,0.02797699,1.303833,-1.535669,-0.45666504,-0.5649902,88.0
1034,-2.9848685,-0.5545578,1.1999512,-1.535669,-0.45666504,-0.5649902,88.0
1035,-2.9848685,-0.5545578,1.1999512,-1.363623,-0.4609131,-0.6085327,88.0
1036,-2.7862587,-1.1162262,1.101551,-1.363623,-0.4609131,-0.6085327,88.0
1037,-2.7862587,-1.1162262,1.101551,-1.0981201,-0.47578126,-0.6881836,88.0
1038,-2.1564121,-1.447258,1.0681076,-1.0981201,-0.47578126,-0.6881836,88.0
1039,-2.1564121,-1.447258,1.0681076,-0.7954468,-0.45878908,-0.7614624,88.0
1040,-1.5484333,-1.4269943,1.1116524,-0.7954468,-0.45878908,-0.7614624,88.0
1041,-1.5484333,-1.4269943,1.1116524,-0.540564,-0.38975832,-0.79969484,88.0
1042,-1.2658825,-1.2425613,1.1900902,-0.540564,-0.38975832,-0.79969484,88.0
1043,-1.2658825,-1.2425613,1.1900902,-0.39506838,-0.3175415,-0.80181885,88.0
1044,-1.1631575,-0.9738846,1.0794258,-0.39506838,-0.3175415,-0.80181885,88.0
1045,-1.1631575,-0.9738846,1.0794258,-0.36533204,-0.2516968,-0.7975708,88.0
1046,-1.0169153,-0.79623413,0.7933388,-0.36533204,-0.2516968,-0.7975708,88.0
1047,-1.0169153,-0.79623413,0.7933388,-0.41843262,-0.21558838,-0.79226077,88.0
1048,-1.0169153,-0.79623413,0.7933388,-0.41843262,-0.21558838,-0.79226077,88.0
1049,-0.73122025,-0.7563553,0.44745255,-0.41843262,-0.21558838,-0.79226077,88.0
1050,-0.73122025,-0.7563553,0.44745255,-0.45454103,-0.17735596,-0.79226077,88.0
1051,-0.36471272,-0.9242096,0.19774628,-0.45454103,-0.17735596,-0.79226077,88.0
1052,-0.36471272,-0.9242096,0.19774628,-0.4598511,-0.13062744,-0.7848267,88.0
1053,-0.36471272,-0.9242096,0.19774628,-0.42692873,-0.12319336,-0.7827026,88.0
1054,-0.008005142,-1.9851761,0.4953575,-0.42692873,-0.12319336,-0.7827026,88.0
1055,1.4150066,-2.1373215,0.5490074,-0.42692873,-0.12319336,-0.7827026,88.0
1056,1.4150066,-2.1373215,0.5490074,-0.28780517,-0.15505372,-0.79332274,88.0
1057,1.4150066,-2.1373215,0.5490074,-0.08602295,-0.16885987,-0.77739257,88.0
1058,1.4150066,-2.1373215,0.5490074,0.12213135,-0.16354981,-0.68712157,88.0
1059,1.6818218,-1.9901199,0.76171494,0.12213135,-0.16354981,-0.68712157,88.0
1060,1.6818218,-1.9901199,0.76171494,0.3536499,-0.10195313,-0.47578126,88.0
1061,1.8409777,-1.6928406,0.8314781,0.3536499,-0.10195313,-0.47578126,88.0
1062,1.8409777,-1.6928406,0.8314781,0.49277344,-0.06796875,-0.19541016,88.0
1063,2.1961098,-1.3707733,0.8663559,0.49277344,-0.06796875,-0.19541016,88.0
1064,2.1961098,-1.3707733,0.8663559,0.5979126,-0.05628662,-0.016992187,88.0
1065,2.6949005,-0.93520355,0.8432808,0.5979126,-0.05628662,-0.016992187,88.0
1066,2.6949005,-0.93520355,0.8432808,0.59897465,0.29630128,0.3345337,88.0
1067,2.3881226,-0.35720825,0.61941147,0.59897465,0.29630128,0.3345337,88.0
1068,2.3881226,-0.35720825,0.61941147,0.41206056,0.64995116,0.632959,88.0
1069,1.2676878,0.053077698,0.020175934,0.41206056,0.64995116,0.632959,88.0
1070,1.2676878,0.053077698,0.020175934,0.58198243,0.631897,0.8666016,88.0
1071,0.7330346,0.21827698,-0.73880386,0.58198243,0.631897,0.8666016,88.0
1072,0.7330346,0.21827698,-0.73880386,0.90908206,0.65419924,0.99085695,88.0
1073,0.99052906,0.31288147,-1.2112312,0.90908206,0.65419924,0.99085695,88.0
1074,0.99052906,0.31288147,-1.2112312,1.2085694,0.7678345,1.0577637,88.0
1075,1.0319376,0.50187683,-1.3658447,1.2085694,0.7678345,1.0577637,88.0
1076,1.0319376,0.50187683,-1.3658447,1.3434448,0.85704345,1.083252,88.0
1077,0.62165594,0.78266144,-1.4687729,1.3434448,0.85704345,1.083252,88.0
1078,0.62165594,0.78266144,-1.4687729,1.3275146,0.95368654,1.1225464,88.0
1079,0.07060385,1.1068802,-1.668953,1.3275146,0.95368654,1.1225464,88.0
1080,0.07060385,1.1068802,-1.668953,1.2287476,1.0736939,1.179895,88.0
1081,-0.57477903,1.4661789,-1.9296112,1.2287476,1.0736939,1.179895,88.0
1082,-0.57477903,1.4661789,-1.9296112,1.0184692,1.1926392,1.2712281,88.0
1083,-1.2983851,1.7704315,-2.170578,1.0184692,1.1926392,1.2712281,88.0
1084,-1.2983851,1.7704315,-2.170578,0.8230591,1.2436157,1.3827393,88.0
1085,-1.8889399,1.9255371,-2.3289795,0.8230591,1.2436157,1.3827393,88.0
1086,-1.8889399,1.9255371,-2.3289795,0.7306641,1.2584839,1.4963745,88.0
1087,-2.1830149,1.9871826,-2.3803825,0.7306641,1.2584839,1.4963745,88.0
1088,-2.1830149,1.9871826,-2.3803825,0.72004396,1.2000732,1.5993897,88.0
1089,-2.1520514,2.0364838,-2.3562584,0.72004396,1.2000732,1.5993897,88.0
1090,-2.1520514,2.0364838,-2.3562584,0.72216797,1.1098022,1.6248779,88.0
1091,-1.863841,2.060051,-2.266388,0.72216797,1.1098022,1.6248779,88.0
1092,-1.863841,2.060051,-2.266388,0.7041138,0.98448485,1.5600952,88.0
1093,-1.414999,2.0002975,-2.0940323,0.7041138,0.98448485,1.5600952,88.0
1094,-1.414999,2.0002975,-2.0940323,0.67225343,0.8527954,1.4284058,88.0
1095,-0.94247246,1.9123383,-1.8659477,0.67225343,0.8527954,1.4284058,88.0
1096,-0.94247246,1.9123383,-1.8659477,0.5543701,0.7391602,1.2329956,88.0
1097,-0.5246563,1.7741699,-1.6064415,0.5543701,0.7391602,1.2329956,88.0
1098,-0.5246563,1.7741699,-1.6064415,0.42692873,0.61915284,1.0152832,88.0
1099,-0.12545013,1.4148331,-1.3030853,0.42692873,0.61915284,1.0152832,88.0
1100,-0.12545013,1.4148331,-1.3030853,0.38232422,0.5097656,0.80181885,88.0
1101,0.2229433,0.94918823,-1.0148926,0.38232422,0.5097656,0.80181885,88.0
1102,0.2229433,0.94918823,-1.0148926,0.3812622,0.39613038,0.6074707,88.0
1103,0.2229433,0.94918823,-1.0148926,0.33134767,0.25913087,0.39082032,88.0
1104,0.4514017,0.708168,-0.8415756,0.33134767,0.25913087,0.39082032,88.0
1105,0.59298134,0.7248459,-0.7494087,0.33134767,0.25913087,0.39082032,88.0
1106,0.59298134,0.7248459,-0.7494087,0.20390625,0.10195313,0.19753419,88.0
1107,0.59298134,0.7248459,-0.7494087,-0.015930176,-0.047790527,0.060534667,88.0
1108,0.7558918,0.8156662,-0.6015434,-0.015930176,-0.047790527,0.060534667,88.0
1109,1.0578384,0.8202057,-0.0024490356,-0.015930176,-0.047790527,0.060534667,88.0
1110,1.0578384,0.8202057,-0.0024490356,-0.21346436,-0.18903808,-0.03717041,88.0
1111,1.0578384,0.8202057,-0.0024490356,-0.3430298,-0.30267334,-0.12213135,88.0
1112,0.8152404,0.61598206,0.35567093,-0.3430298,-0.30267334,-0.12213135,88.0
1113,0.8152404,0.61598206,0.35567093,-0.41737062,-0.4598511,-0.2527588,88.0
1114,0.88509035,0.40285492,0.565506,-0.41737062,-0.4598511,-0.2527588,88.0
1115,0.88509035,0.40285492,0.565506,-0.5363159,-0.7306641,-0.4980835,88.0
1116,1.7344885,0.08720398,0.72049713,-0.5363159,-0.7306641,-0.4980835,88.0
1117,1.7344885,0.08720398,0.72049713,-0.7327881,-0.92501223,-0.79332274,88.0
1118,2.429534,-0.2333374,0.9683151,-0.7327881,-0.92501223,-0.79332274,88.0
1119,2.429534,-0.2333374,0.9683151,-0.9143921,-0.7041138,-0.92076415,88.0
1120,1.5645375,-0.3826065,1.3245888,-0.9143921,-0.7041138,-0.92076415,88.0
1121,1.5645375,-0.3826065,1.3245888,-1.1629028,-0.77314454,-0.9483765,88.0
1122,0.29591703,-0.59882355,1.5179825,-1.1629028,-0.77314454,-0.9483765,88.0
1123,0.29591703,-0.59882355,1.5179825,-1.174585,-1.0715698,-1.0471436,88.0
1124,0.46050072,-1.030899,1.5365677,-1.174585,-1.0715698,-1.0471436,88.0
1125,0.46050072,-1.030899,1.5365677,-0.79969484,-1.2276856,-1.1278565,88.0
1126,1.3570967,-1.350769,1.6676102,-0.79969484,-1.2276856,-1.1278565,88.0
1127,1.3570967,-1.350769,1.6676102,-0.45135498,-1.2064453,-1.1182984,88.0
1128,1.4988241,-1.2200928,1.8955002,-0.45135498,-1.2064453,-1.1182984,88.0
1129,1.4988241,-1.2200928,1.8955002,-0.45029297,-1.1151123,-1.0237793,88.0
1130,0.65992355,-0.77830505,2.0041199,-0.45029297,-1.1151123,-1.0237793,88.0
1131,0.65992355,-0.77830505,2.0041199,-0.6956177,-0.9324463,-0.92076415,88.0
1132,-0.65034485,-0.2861786,1.9838486,-0.6956177,-0.9324463,-0.92076415,88.0
1133,-0.65034485,-0.2861786,1.9838486,-1.0259033,-0.6074707,-0.86341554,88.0
1134,-1.8966551,-0.061279297,1.8917923,-1.0259033,-0.6074707,-0.86341554,88.0
1135,-1.8966551,-0.061279297,1.8917923,-1.3816773,-0.57561034,-0.85385746,88.0
1136,-2.5732079,-0.34012604,1.5876923,-1.3816773,-0.57561034,-0.85385746,88.0
1137,-2.5732079,-0.34012604,1.5876923,-1.4284058,-0.50020754,-0.9165161,88.0
1138,-2.5814424,-0.81648254,1.13451,-1.4284058,-0.50020754,-0.9165161,88.0
1139,-2.5814424,-0.81648254,1.13451,-1.360437,-0.46728516,-1.0120972,88.0
1140,-2.2148366,-1.1836395,0.7381363,-1.360437,-0.46728516,-1.0120972,88.0
1141,-2.2148366,-1.1836395,0.7381363,-1.273352,-0.4364868,-1.0747559,88.0
1142,-1.7881656,-1.4201584,0.5507736,-1.273352,-0.4364868,-1.0747559,88.0
1143,-1.7881656,-1.4201584,0.5507736,-1.1363525,-0.4067505,-1.1087402,88.0
1144,-1.4888334,-1.5636215,0.61125946,-1.1363525,-0.4067505,-1.1087402,88.0
1145,-1.4888334,-1.5636215,0.61125946,-0.95581055,-0.38657227,-1.1161743,88.0
1146,-1.3979034,-1.6242218,0.85921097,-0.95581055,-0.38657227,-1.1161743,88.0
1147,-1.3979034,-1.6242218,0.85921097,-0.7476563,-0.3706421,-1.0991821,88.0
1148,-1.4235716,-1.5789185,1.0726471,-0.7476563,-0.3706421,-1.0991821,88.0
1149,-1.4235716,-1.5789185,1.0726471,-0.6000366,-0.362146,-1.0556396,88.0
1150,-1.3011742,-1.444252,1.0236664,-0.6000366,-0.362146,-1.0556396,88.0
1151,-1.3011742,-1.444252,1.0236664,-0.52038574,-0.34940186,-0.99722904,88.0
1152,-0.9151821,-1.311348,0.73503494,-0.52038574,-0.34940186,-0.99722904,88.0
1153,-0.9151821,-1.311348,0.73503494,-0.4364868,-0.3079834,-0.9505005,88.0
1154,-0.43398857,-1.2542801,0.43562317,-0.4364868,-0.3079834,-0.9505005,88.0
1155,-0.43398857,-1.2542801,0.43562317,-0.32391357,-0.2899292,-0.9165161,88.0
1156,-0.43398857,-1.2542801,0.43562317,-0.32391357,-0.2899292,-0.9165161,88.0
1157,0.0497694,-1.3154068,0.35318756,-0.32391357,-0.2899292,-0.9165161,88.0
1158,0.0497694,-1.3154068,0.35318756,-0.1539917,-0.2782471,-0.90695804,88.0
1159,0.5436611,-1.4360275,0.5203171,-0.1539917,-0.2782471,-0.90695804,88.0
1160,0.5436611,-1.4360275,0.5203171,-0.012744141,-0.19753419,-0.85385746,88.0
1161,0.9538622,-1.5117111,0.75624466,-0.012744141,-0.19753419,-0.85385746,88.0
1162,0.9538622,-1.5117111,0.75624466,0.04460449,-0.090270996,-0.7168579,88.0
1163,1.2201824,-1.4488373,0.81069565,0.04460449,-0.090270996,-0.7168579,88.0
1164,1.2201824,-1.4488373,0.81069565,0.0541626,0.035046387,-0.46409914,88.0
1165,1.4507551,-1.2076797,0.61660767,0.0541626,0.035046387,-0.46409914,88.0
1166,1.4507551,-1.2076797,0.61660767,0.0031860352,0.07965088,-0.14549561,88.0
1167,2.0380583,-0.91867065,0.37171555,0.0031860352,0.07965088,-0.14549561,88.0
1168,2.0380583,-0.91867065,0.37171555,0.026550293,-0.007434082,0.06796875,88.0
1169,2.9922018,-0.7150116,0.28480148,0.026550293,-0.007434082,0.06796875,88.0
1170,2.9922018,-0.7150116,0.28480148,0.11257324,0.2527588,0.31435546,88.0
1171,2.9948964,-0.46378326,0.23384476,0.11257324,0.2527588,0.31435546,88.0
1172,2.9948964,-0.46378326,0.23384476,0.052038576,0.7041138,0.6786255,88.0
1173,1.551166,-0.07077026,-0.08125687,0.052038576,0.7041138,0.6786255,88.0
1174,1.551166,-0.07077026,-0.08125687,0.2527588,0.6403931,1.0036011,88.0
1175,0.4056301,0.28894043,-0.6723671,0.2527588,0.6403931,1.0036011,88.0
1176,0.4056301,0.28894043,-0.6723671,0.70305175,0.57454836,1.170337,88.0
1177,0.38118124,0.56092834,-1.1395035,0.70305175,0.57454836,1.170337,88.0
1178,0.38118124,0.56092834,-1.1395035,1.1926392,0.6265869,1.2510499,88.0
1179,0.5330944,0.84832,-1.318779,1.1926392,0.6265869,1.2510499,88.0
1180,0.5330944,0.84832,-1.318779,1.4953126,0.65207523,1.2372437,88.0
1181,0.41837025,1.1229019,-1.3701019,1.4953126,0.65207523,1.2372437,88.0
1182,0.41837025,1.1229019,-1.3701019,1.5855836,0.6903076,1.170337,88.0
1183,0.24065304,1.3516312,-1.4162598,1.5855836,0.6903076,1.170337,88.0
1184,0.24065304,1.3516312,-1.4162598,1.5080566,0.79226077,1.1119263,88.0
1185,-0.07365179,1.5783234,-1.4629135,1.5080566,0.79226077,1.1119263,88.0
1186,-0.07365179,1.5783234,-1.4629135,1.2722901,0.91864014,1.0981201,88.0
1187,-0.6900735,1.7737656,-1.584774,1.2722901,0.91864014,1.0981201,88.0
1188,-0.6900735,1.7737656,-1.584774,1.0099732,1.0248413,1.1480347,88.0
1189,-1.4320517,1.8849106,-1.8132057,1.0099732,1.0248413,1.1480347,88.0
1190,-1.4320517,1.8849106,-1.8132057,0.81987303,1.0683838,1.2202514,88.0
1191,-1.9580069,1.8924713,-2.063202,0.81987303,1.0683838,1.2202514,88.0
1192,-1.9580069,1.8924713,-2.063202,0.69349366,1.0460815,1.2956543,88.0
1193,-2.0755973,1.7956009,-2.2047958,0.69349366,1.0460815,1.2956543,88.0
1194,-2.0755973,1.7956009,-2.2047958,0.64782715,0.991919,1.3296387,88.0
1195,-1.8322678,1.6608429,-2.1549492,0.64782715,0.991919,1.3296387,88.0
1196,-1.8322678,1.6608429,-2.1549492,0.67437744,0.9143921,1.2956543,88.0
1197,-1.3644476,1.5167694,-1.9596405,0.67437744,0.9143921,1.2956543,88.0
1198,-1.3644476,1.5167694,-1.9596405,0.7072998,0.8336792,1.2404298,88.0
1199,-0.8273001,1.4117203,-1.7389145,0.7072998,0.8336792,1.2404298,88.0
1200,-0.8273001,1.4117203,-1.7389145,0.68287355,0.7593384,1.1437867,88.0
1201,-0.41397667,1.417839,-1.5790825,0.68287355,0.7593384,1.1437867,88.0
1202,-0.41397667,1.417839,-1.5790825,0.55755615,0.6956177,1.0057251,88.0
1203,-0.27098846,1.4529648,-1.4453201,0.55755615,0.6956177,1.0057251,88.0
1204,-0.27098846,1.4529648,-1.4453201,0.40993652,0.6223389,0.8612915,88.0
1205,-0.3039732,1.3615341,-1.2446938,0.40993652,0.6223389,0.8612915,88.0
1206,-0.3039732,1.3615341,-1.2446938,0.26337892,0.5256958,0.725354,88.0
1207,-0.3039732,1.3615341,-1.2446938,0.18691407,0.38338622,0.56180423,88.0
1208,-0.28723335,1.1638031,-1.0112228,0.18691407,0.38338622,0.56180423,88.0
1209,0.48610687,1.1059799,-0.7723198,0.18691407,0.38338622,0.56180423,88.0
1210,0.48610687,1.1059799,-0.7723198,0.13168946,0.23258057,0.39082032,88.0
1211,0.48610687,1.1059799,-0.7723198,0.05522461,0.08283692,0.2527588,88.0
1212,0.48610687,1.1059799,-0.7723198,-0.11257324,-0.06796875,0.15930176,88.0
1213,0.65183735,1.0835037,-0.49876404,-0.11257324,-0.06796875,0.15930176,88.0
1214,0.65183735,1.0835037,-0.49876404,-0.28461915,-0.22302246,0.0541626,88.0
1215,0.8029156,1.0016937,-0.17631912,-0.28461915,-0.22302246,0.0541626,88.0
1216,0.8029156,1.0016937,-0.17631912,-0.37701416,-0.3717041,-0.07327881,88.0
1217,1.081346,0.7588577,0.115242004,-0.37701416,-0.3717041,-0.07327881,88.0
1218,1.081346,0.7588577,0.115242004,-0.48640138,-0.6138428,-0.29311523,88.0
1219,2.020424,0.36550903,0.2863083,-0.48640138,-0.6138428,-0.29311523,88.0
1220,2.020424,0.36550903,0.2863083,-0.78376466,-1.0428956,-0.62977296,88.0
1221,3.52807,-0.18306732,0.48690796,-0.78376466,-1.0428956,-0.62977296,88.0
1222,3.52807,-0.18306732,0.48690796,-1.0301514,-0.9600586,-0.92926025,88.0
1223,3.4507394,-0.56077576,1.0288467,-1.0301514,-0.9600586,-0.92926025,88.0
1224,3.4507394,-0.56077576,1.0288467,-1.2351197,-0.632959,-0.91864014,88.0
1225,1.0821371,-0.59417725,1.7118111,-1.2351197,-0.632959,-0.91864014,88.0
1226,1.0821371,-0.59417725,1.7118111,-1.4645141,-0.90695804,-0.98873293,88.0
1227,-0.57409763,-0.76462555,1.9911041,-1.4645141,-0.90695804,-0.98873293,88.0
1228,-0.57409763,-0.76462555,1.9911041,-1.1586548,-1.2021973,-1.1289185,88.0
1229,0.05637169,-1.1500168,1.9734726,-1.1586548,-1.2021973,-1.1289185,88.0
1230,0.05637169,-1.1500168,1.9734726,-0.64995116,-1.2340577,-1.2308716,88.0
1231,1.1416669,-1.3310394,2.0091019,-0.64995116,-1.2340577,-1.2308716,88.0
1232,1.1416669,-1.3310394,2.0091019,-0.39506838,-1.1544068,-1.2234375,88.0
1233,1.0981479,-1.1636353,2.1253357,-0.39506838,-1.1544068,-1.2234375,88.0
1234,1.0981479,-1.1636353,2.1253357,-0.4970215,-1.0142212,-1.1098022,88.0
1235,0.075063705,-0.72348785,2.1274033,-0.4970215,-1.0142212,-1.1098022,88.0
1236,0.075063705,-0.72348785,2.1274033,-0.8517334,-0.72323,-0.94731444,88.0
1237,-1.3141189,-0.24510193,1.9268112,-0.8517334,-0.72323,-0.94731444,88.0
1238,-1.3141189,-0.24510193,1.9268112,-1.3434448,-0.47471926,-0.83474123,88.0
1239,-2.5062265,-0.14699554,1.5229797,-1.3434448,-0.47471926,-0.83474123,88.0
1240,-2.5062265,-0.14699554,1.5229797,-1.4889405,-0.33240968,-0.81668705,88.0
1241,-3.0740242,-0.4512787,1.0155296,-1.4889405,-0.33240968,-0.81668705,88.0
1242,-3.0740242,-0.4512787,1.0155296,-1.4432739,-0.27293703,-0.85491943,88.0
1243,-2.934073,-0.9006119,0.5964813,-1.4432739,-0.27293703,-0.85491943,88.0
1244,-2.934073,-0.9006119,0.5964813,-1.360437,-0.2548828,-0.92501223,88.0
1245,-2.342595,-1.3669815,0.3967743,-1.360437,-0.2548828,-0.92501223,88.0
1246,-2.342595,-1.3669815,0.3967743,-1.2064453,-0.23364258,-0.99085695,88.0
1247,-1.6913128,-1.7217484,0.43754578,-1.2064453,-0.23364258,-0.99085695,88.0
1248,-1.6913128,-1.7217484,0.43754578,-0.9759888,-0.2081543,-1.0343994,88.0
1249,-1.2209702,-1.8246002,0.56601334,-0.9759888,-0.2081543,-1.0343994,88.0
1250,-1.2209702,-1.8246002,0.56601334,-0.8219971,-0.18160401,-1.0460815,88.0
1251,-0.99370766,-1.7021027,0.6202049,-0.8219971,-0.18160401,-1.0460815,88.0
1252,-0.99370766,-1.7021027,0.6202049,-0.7083618,-0.14868164,-1.0067872,88.0
1253,-0.9835892,-1.4996948,0.5499611,-0.7083618,-0.14868164,-1.0067872,88.0
1254,-0.9835892,-1.4996948,0.5499611,-0.6053467,-0.1444336,-0.93138427,88.0
1255,-0.94830894,-1.3361206,0.36205292,-0.6053467,-0.1444336,-0.93138427,88.0
1256,-0.94830894,-1.3361206,0.36205292,-0.49383545,-0.16036378,-0.8326172,88.0
1257,-0.6674118,-1.2321014,0.16481018,-0.49383545,-0.16036378,-0.8326172,88.0
1258,-0.6674118,-1.2321014,0.16481018,-0.39294434,-0.16673584,-0.72641605,88.0
1259,-0.23651695,-1.1666794,0.118751526,-0.39294434,-0.16673584,-0.72641605,88.0
1260,-0.23651695,-1.1666794,0.118751526,-0.30373535,-0.15717773,-0.6117188,88.0
1261,0.12980461,-1.1211243,0.23241425,-0.30373535,-0.15717773,-0.6117188,88.0
1262,0.12980461,-1.1211243,0.23241425,-0.2177124,-0.15186767,-0.5076416,88.0
1263,0.42842865,-1.0943375,0.3897667,-0.2177124,-0.15186767,-0.5076416,88.0
1264,0.42842865,-1.0943375,0.3897667,-0.10301514,-0.14018555,-0.42268068,88.0
1265,0.76073647,-1.0376282,0.52719116,-0.10301514,-0.14018555,-0.42268068,88.0
1266,0.76073647,-1.0376282,0.52719116,-0.10301514,-0.14018555,-0.42268068,88.0
1267,0.76073647,-1.0376282,0.52719116,-0.011682129,-0.08602295,-0.33878174,88.0
1268,1.0549879,-0.8783722,0.5958481,-0.011682129,-0.08602295,-0.33878174,88.0
1269,1.0549879,-0.8783722,0.5958481,-0.02442627,0.015930176,-0.20921631,88.0
1270,1.142806,-0.6529083,0.5167656,-0.02442627,0.015930176,-0.20921631,88.0
1271,1.142806,-0.6529083,0.5167656,-0.11469727,0.10513916,-0.010620117,88.0
1272,1.2221308,-0.47699738,0.31913757,-0.11469727,0.10513916,-0.010620117,88.0
1273,1.2221308,-0.47699738,0.31913757,-0.20284425,0.081774905,0.16248779,88.0
1274,1.7114573,-0.53926086,0.19480133,-0.20284425,0.081774905,0.16248779,88.0
1275,1.7114573,-0.53926086,0.19480133,-0.10513916,0.04885254,0.24213867,88.0
1276,2.3267589,-0.8506012,0.34384155,-0.10513916,0.04885254,0.24213867,88.0
1277,2.3267589,-0.8506012,0.34384155,0.19647217,0.21452637,0.35895997,88.0
1278,2.0794368,-1.0014038,0.5558586,0.19647217,0.21452637,0.35895997,88.0
1279,2.0794368,-1.0014038,0.5558586,0.5851685,0.3440918,0.5883545,88.0
1280,1.2115355,-0.643837,0.301342,0.5851685,0.3440918,0.5883545,88.0
1281,1.2115355,-0.643837,0.301342,1.0216553,0.28674316,0.81668705,88.0
1282,0.8819356,3.5095215E-4,-0.39500046,1.0216553,0.28674316,0.81668705,88.0
1283,0.8819356,3.5095215E-4,-0.39500046,1.5133667,0.29630128,0.96643066,88.0
1284,1.0565004,0.57710266,-0.87429047,1.5133667,0.29630128,0.96643066,88.0
1285,1.0565004,0.57710266,-0.87429047,1.903125,0.37489015,1.0386475,88.0
1286,1.0483861,0.9751816,-0.93011856,1.903125,0.37489015,1.0386475,88.0
1287,1.0483861,0.9751816,-0.93011856,2.0603027,0.4800293,1.0588257,88.0
1288,0.77199745,1.2113113,-0.92668915,2.0603027,0.4800293,1.0588257,88.0
1289,0.77199745,1.2113113,-0.92668915,2.0422485,0.6085327,1.0567017,88.0
1290,0.43606758,1.3899841,-1.1114197,2.0422485,0.6085327,1.0567017,88.0
1291,0.43606758,1.3899841,-1.1114197,1.8946289,0.77526855,1.0821899,88.0
1292,-0.047667027,1.6279907,-1.40625,1.8946289,0.77526855,1.0821899,88.0
1293,-0.047667027,1.6279907,-1.40625,1.5781494,0.9568726,1.1522827,88.0
1294,-0.78436184,1.8927612,-1.6778336,1.5781494,0.9568726,1.1522827,88.0
1295,-0.78436184,1.8927612,-1.6778336,1.2106934,1.1034302,1.270166,88.0
1296,-1.5112906,2.0486832,-1.8662796,1.2106934,1.1034302,1.270166,88.0
1297,-1.5112906,2.0486832,-1.8662796,0.9228882,1.177771,1.3901733,88.0
1298,-1.9094839,2.0802765,-1.9930611,0.9228882,1.177771,1.3901733,88.0
1299,-1.9094839,2.0802765,-1.9930611,0.74871826,1.1958252,1.4740723,88.0
1300,-1.9646473,2.1160889,-2.12294,0.74871826,1.1958252,1.4740723,88.0
1301,-1.9646473,2.1160889,-2.12294,0.6244629,1.1469727,1.4815063,88.0
1302,-1.8879166,2.2531357,-2.1852036,0.6244629,1.1469727,1.4815063,88.0
1303,-1.8879166,2.2531357,-2.1852036,0.5692383,1.0227174,1.3721192,88.0
1304,-1.7228456,2.2968445,-2.0376167,0.5692383,1.0227174,1.3721192,88.0
1305,-1.7228456,2.2968445,-2.0376167,0.61702883,0.8644776,1.176709,88.0
1306,-1.1454763,2.1115036,-1.774517,0.61702883,0.8644776,1.176709,88.0
1307,-1.1454763,2.1115036,-1.774517,0.5883545,0.8963379,0.9802368,88.0
1308,-0.5424433,1.5427322,-1.3531227,0.5883545,0.8963379,0.9802368,88.0
1309,-0.5424433,1.5427322,-1.3531227,0.5692383,0.6605713,0.77951664,88.0
1310,-0.20254612,0.8760452,-1.0167732,0.5692383,0.6605713,0.77951664,88.0
1311,-0.20254612,0.8760452,-1.0167732,0.8230591,0.5894165,0.5692383,88.0
1312,0.05742073,0.6943054,-1.0530663,0.8230591,0.5894165,0.5692383,88.0
1313,0.05742073,0.6943054,-1.0530663,0.6839356,0.50870365,0.39294434,88.0
1314,0.05742073,0.6943054,-1.0530663,0.52038574,0.39082032,0.2347046,88.0
1315,0.13614655,0.8133774,-1.1733589,0.52038574,0.39082032,0.2347046,88.0
1316,0.90806293,0.92063904,-1.2207909,0.52038574,0.39082032,0.2347046,88.0
1317,0.90806293,0.92063904,-1.2207909,0.33134767,0.26337892,0.118945315,88.0
1318,0.90806293,0.92063904,-1.2207909,0.10620117,0.15080567,0.027612304,88.0
1319,0.90806293,0.92063904,-1.2207909,-0.118945315,0.043542482,-0.028674318,88.0
1320,0.85334206,0.8212433,-0.74352646,-0.118945315,0.043542482,-0.028674318,88.0
1321,0.85334206,0.8212433,-0.74352646,-0.3451538,-0.040356446,-0.058410645,88.0
1322,0.5750685,0.7409668,-0.30508804,-0.3451538,-0.040356446,-0.058410645,88.0
1323,0.5750685,0.7409668,-0.30508804,-0.46516114,-0.15717773,-0.10620117,88.0
1324,0.52979326,0.60752106,-0.03856659,-0.46516114,-0.15717773,-0.10620117,88.0
1325,0.52979326,0.60752106,-0.03856659,-0.5533081,-0.3706421,-0.26337892,88.0
1326,1.2510438,0.42668915,0.069999695,-0.5533081,-0.3706421,-0.26337892,88.0
1327,1.2510438,0.42668915,0.069999695,-0.7943848,-0.62127686,-0.53525394,88.0
1328,2.3069997,0.18013,0.22237015,-0.7943848,-0.62127686,-0.53525394,88.0
1329,2.3069997,0.18013,0.22237015,-1.1055542,-0.59472656,-0.74447024,88.0
1330,2.1632266,-0.05735016,0.59846497,-1.1055542,-0.59472656,-0.74447024,88.0
1331,2.1632266,-0.05735016,0.59846497,-1.357251,-0.58623046,-0.8315552,88.0
1332,0.7771878,-0.37787628,1.1293945,-1.357251,-0.58623046,-0.8315552,88.0
1333,0.7771878,-0.37787628,1.1293945,-1.3869873,-0.87403566,-0.9568726,88.0
1334,0.109641075,-0.9613342,1.6672745,-1.3869873,-0.87403566,-0.9568726,88.0
1335,0.109641075,-0.9613342,1.6672745,-0.9409424,-1.089624,-1.1161743,88.0
1336,0.6496391,-1.5433578,2.160553,-0.9409424,-1.089624,-1.1161743,88.0
1337,0.6496391,-1.5433578,2.160553,-0.34940186,-1.1374146,-1.2064453,88.0
1338,1.1545987,-1.645546,2.397915,-0.34940186,-1.1374146,-1.2064453,88.0
1339,1.1545987,-1.645546,2.397915,-0.0998291,-1.0970582,-1.1968873,88.0
1340,0.9051485,-1.1593323,2.1928062,-0.0998291,-1.0970582,-1.1968873,88.0
1341,0.9051485,-1.1593323,2.1928062,-0.2516968,-0.99510497,-1.1246704,88.0
1342,0.07541275,-0.32531738,1.758995,-0.2516968,-0.99510497,-1.1246704,88.0
1343,0.07541275,-0.32531738,1.758995,-0.7720825,-0.71154785,-1.0397094,88.0
1344,-0.9910736,0.29310608,1.4923401,-0.7720825,-0.71154785,-1.0397094,88.0
1345,-0.9910736,0.29310608,1.4923401,-1.4645141,-0.5586182,-0.9143921,88.0
1346,-1.8111572,0.095336914,1.3820648,-1.4645141,-0.5586182,-0.9143921,88.0
1347,-1.8111572,0.095336914,1.3820648,-1.7438233,-0.44498292,-0.9366943,88.0
1348,-2.0675907,-0.6996994,1.1757965,-1.7438233,-0.44498292,-0.9366943,88.0
1349,-2.0675907,-0.6996994,1.1757965,-1.6599244,-0.34090576,-0.9632446,88.0
1350,-2.0675907,-0.6996994,1.1757965,-1.6599244,-0.34090576,-0.9632446,90.0
1351,-1.9672804,-1.4175339,0.87134933,-1.6599244,-0.34090576,-0.9632446,90.0
1352,-1.9672804,-1.4175339,0.87134933,-1.4730103,-0.29948732,-0.99298096,90.0
1353,-1.7769375,-1.7988205,0.6109581,-1.4730103,-0.29948732,-0.99298096,90.0
1354,-1.7769375,-1.7988205,0.6109581,-1.2213135,-0.29523927,-1.002539,90.0
1355,-1.5910935,-1.8561554,0.5042572,-1.2213135,-0.29523927,-1.002539,90.0
1356,-1.5910935,-1.8561554,0.5042572,-0.991919,-0.32497558,-0.9876709,90.0
1357,-1.416234,-1.6585312,0.5196762,-0.991919,-0.32497558,-0.9876709,90.0
1358,-1.416234,-1.6585312,0.5196762,-0.84111327,-0.34940186,-0.96643066,90.0
1359,-1.3380289,-1.3740082,0.5709915,-0.84111327,-0.34940186,-0.96643066,90.0
1360,-1.3380289,-1.3740082,0.5709915,-0.71367186,-0.362146,-0.9409424,90.0
1361,-1.3065557,-1.1977386,0.5654106,-0.71367186,-0.362146,-0.9409424,90.0
1362,-1.3065557,-1.1977386,0.5654106,-0.6138428,-0.3802002,-0.905896,90.0
1363,-1.1246395,-1.1748123,0.467247,-0.6138428,-0.3802002,-0.905896,90.0
1364,-1.1246395,-1.1748123,0.467247,-0.49064943,-0.38869628,-0.8581055,90.0
1365,-0.7456713,-1.2109528,0.41405487,-0.49064943,-0.38869628,-0.8581055,90.0
1366,-0.7456713,-1.2109528,0.41405487,-0.39400634,-0.36002198,-0.7975708,90.0
1367,-0.33553886,-1.2253036,0.53209686,-0.39400634,-0.36002198,-0.7975708,90.0
1368,-0.33553886,-1.2253036,0.53209686,-0.39294434,-0.3164795,-0.72004396,90.0
1369,0.026039124,-1.2444534,0.746933,-0.39294434,-0.3164795,-0.72004396,90.0
1370,0.026039124,-1.2444534,0.746933,-0.41737062,-0.28355715,-0.64782715,90.0
1371,0.41726685,-1.3073807,0.89711,-0.41737062,-0.28355715,-0.64782715,90.0
1372,0.41726685,-1.3073807,0.89711,-0.38338622,-0.2081543,-0.5787964,90.0
1373,0.7440672,-1.3766937,0.9078865,-0.38338622,-0.2081543,-0.5787964,90.0
1374,0.7440672,-1.3766937,0.9078865,-0.32922363,-0.098767094,-0.46409914,90.0
1375,0.8427515,-1.3006516,0.79078674,-0.32922363,-0.098767094,-0.46409914,90.0
1376,0.8427515,-1.3006516,0.79078674,-0.32285157,0.014868164,-0.29417726,90.0
1377,0.7393751,-1.0213089,0.59856033,-0.32285157,0.014868164,-0.29417726,90.0
1378,0.7393751,-1.0213089,0.59856033,-0.37382814,0.09451904,-0.059472658,90.0
1379,0.7381067,-0.73926544,0.42218018,-0.37382814,0.09451904,-0.059472658,90.0
1380,0.7381067,-0.73926544,0.42218018,-0.41949463,0.095581055,0.14974366,90.0
1381,1.1745424,-0.7249832,0.42650223,-0.41949463,0.095581055,0.14974366,90.0
1382,1.1745424,-0.7249832,0.42650223,-0.26656494,0.115759276,0.27612305,90.0
1383,1.6139135,-0.9455261,0.61676025,-0.26656494,0.115759276,0.27612305,90.0
1384,1.6139135,-0.9455261,0.61676025,0.08283692,0.29205322,0.43861085,90.0
1385,1.2941704,-0.96733093,0.56077576,0.08283692,0.29205322,0.43861085,90.0
1386,1.2941704,-0.96733093,0.56077576,0.51188964,0.32285157,0.6425171,90.0
1387,0.88349295,-0.6415863,0.02848053,0.51188964,0.32285157,0.6425171,90.0
1388,0.88349295,-0.6415863,0.02848053,1.080066,0.2347046,0.7614624,90.0
1389,1.2892652,-0.18916321,-0.5462723,1.080066,0.2347046,0.7614624,90.0
1390,1.2892652,-0.18916321,-0.5462723,1.5834595,0.2623169,0.81987303,90.0
1391,1.8785553,0.2917633,-0.8450241,1.5834595,0.2623169,0.81987303,90.0
1392,1.8785553,0.2917633,-0.8450241,1.8553345,0.3727661,0.8878418,90.0
1393,1.9258666,0.7411499,-1.0255051,1.8553345,0.3727661,0.8878418,90.0
1394,1.9258666,0.7411499,-1.0255051,1.9137452,0.4715332,0.93350834,90.0
1395,1.6096387,1.1203003,-1.2254105,1.9137452,0.4715332,0.93350834,90.0
1396,1.6096387,1.1203003,-1.2254105,1.806482,0.5957886,0.99085695,90.0
1397,1.1430087,1.4505157,-1.4234428,1.806482,0.5957886,0.99085695,90.0
1398,1.1430087,1.4505157,-1.4234428,1.5802735,0.7423462,1.0875,90.0
1399,0.39396,1.7557983,-1.6128387,1.5802735,0.7423462,1.0875,90.0
1400,0.39396,1.7557983,-1.6128387,1.2924683,0.8814697,1.2138795,90.0
1401,-0.6091242,2.0236816,-1.79282,1.2924683,0.8814697,1.2138795,90.0
1402,-0.6091242,2.0236816,-1.79282,1.0482056,0.9791748,1.3731812,90.0
1403,-1.5263128,2.22052,-1.9738426,1.0482056,0.9791748,1.3731812,90.0
1404,-1.5263128,2.22052,-1.9738426,0.8729736,1.0237793,1.536731,90.0
1405,-1.6207333,2.1855469,-1.9599075,0.8729736,1.0237793,1.536731,90.0
1406,-1.6207333,2.1855469,-1.9599075,0.7880127,1.0471436,1.6078857,90.0
1407,-2.284502,2.4401703,-2.2441826,0.7880127,1.0471436,1.6078857,90.0
1408,-2.284502,2.4401703,-2.2441826,0.68074954,0.93350834,1.6418701,90.0
1409,-1.9618545,2.2669678,-2.046383,0.68074954,0.93350834,1.6418701,90.0
1410,-1.9618545,2.2669678,-2.046383,0.7062378,0.89846194,1.62594,90.0
1411,-1.9397349,2.1986542,-1.864193,0.7062378,0.89846194,1.62594,90.0
1412,-1.9397349,2.1986542,-1.864193,0.7147339,0.76358646,1.44646,90.0
1413,-1.5193415,1.9286346,-1.6414986,0.7147339,0.76358646,1.44646,90.0
1414,-1.5193415,1.9286346,-1.6414986,0.75296634,0.67225343,1.3710572,90.0
1415,-1.0151682,1.5512772,-1.4391518,0.75296634,0.67225343,1.3710572,90.0
1416,-1.0151682,1.5512772,-1.4391518,0.80394286,0.544812,1.0906861,90.0
1417,-0.6123295,1.3507767,-1.3108559,0.80394286,0.544812,1.0906861,90.0
1418,-0.6123295,1.3507767,-1.3108559,0.7614624,0.50445557,0.9759888,90.0
1419,-0.115974426,1.3808975,-1.2835732,0.7614624,0.50445557,0.9759888,90.0
1420,-0.115974426,1.3808975,-1.2835732,0.5511841,0.38551027,0.6552612,90.0
1421,-0.0070734024,1.2389297,-1.1281776,0.5511841,0.38551027,0.6552612,90.0
1422,-0.0070734024,1.2389297,-1.1281776,0.48746338,0.33028564,0.5522461,90.0
1423,0.30284977,1.1332245,-1.0252838,0.48746338,0.33028564,0.5522461,90.0
1424,0.30284977,1.1332245,-1.0252838,0.23364258,0.15717773,0.33134767,90.0
1425,0.4425001,0.9444351,-0.86436844,0.23364258,0.15717773,0.33134767,90.0
1426,0.4425001,0.9444351,-0.86436844,0.16885987,0.10407715,0.28674316,90.0
1427,0.96193504,0.9335251,-0.6667023,0.16885987,0.10407715,0.28674316,90.0
1428,0.96193504,0.9335251,-0.6667023,-0.13275146,-0.0063720704,0.18903808,90.0
1429,0.89579296,0.903595,-0.45159912,-0.13275146,-0.0063720704,0.18903808,90.0
1430,0.89579296,0.903595,-0.45159912,-0.2538208,-0.040356446,0.14337158,90.0
1431,0.7161341,1.0270767,0.08164215,-0.2538208,-0.040356446,0.14337158,90.0
1432,0.7161341,1.0270767,0.08164215,-0.47578126,-0.18585205,-0.046728518,90.0
1433,0.5841255,0.82411194,0.29276657,-0.47578126,-0.18585205,-0.046728518,90.0
1434,0.5841255,0.82411194,0.29276657,-0.5246338,-0.28355715,-0.14124756,90.0
1435,1.0753818,0.5063629,0.5198822,-0.5246338,-0.28355715,-0.14124756,90.0
1436,1.0753818,0.5063629,0.5198822,-0.7391602,-0.5851685,-0.40144044,90.0
1437,2.5147972,0.07492828,0.53128815,-0.7391602,-0.5851685,-0.40144044,90.0
1438,2.5147972,0.07492828,0.53128815,-1.0354614,-0.79969484,-0.7476563,90.0
1439,3.6832123,-0.3471756,0.6551094,-1.0354614,-0.79969484,-0.7476563,90.0
1440,3.6832123,-0.3471756,0.6551094,-1.2627319,-0.55755615,-0.95793456,90.0
1441,2.8820682,-0.6611862,1.1604156,-1.2627319,-0.55755615,-0.95793456,90.0
1442,2.8820682,-0.6611862,1.1604156,-1.5431031,-0.66588134,-1.0768799,90.0
1443,0.75989056,-1.4233551,2.1008072,-1.5431031,-0.66588134,-1.0768799,90.0
1444,0.75989056,-1.4233551,2.1008072,-1.1565307,-1.0057251,-1.2160034,90.0
1445,0.75989056,-1.4233551,2.1008072,-1.1565307,-1.0057251,-1.2160034,90.0
1446,0.36959457,-1.5718613,2.1448784,-1.1565307,-1.0057251,-1.2160034,90.0
1447,0.36959457,-1.5718613,2.1448784,-0.89421386,-1.0280274,-1.2085694,90.0
1448,0.14040232,-1.5699768,2.2542572,-0.89421386,-1.0280274,-1.2085694,90.0
1449,0.14040232,-1.5699768,2.2542572,-0.46516114,-1.0227174,-1.1363525,90.0
1450,-0.13960695,-1.2029266,1.9555664,-0.46516114,-1.0227174,-1.1363525,90.0
1451,-0.13960695,-1.2029266,1.9555664,-0.52888185,-0.991919,-1.0981201,90.0
1452,-1.2143831,-0.319664,1.6168671,-0.52888185,-0.991919,-1.0981201,90.0
1453,-1.2143831,-0.319664,1.6168671,-1.1076783,-0.7189819,-1.0089111,90.0
1454,-1.4876685,-0.24176788,1.471653,-1.1076783,-0.7189819,-1.0089111,90.0
1455,-1.4876685,-0.24176788,1.471653,-1.3360108,-0.62340087,-1.0163453,90.0
1456,-2.1776104,-0.4316101,1.4409103,-1.3360108,-0.62340087,-1.0163453,90.0
1457,-2.1776104,-0.4316101,1.4409103,-1.6174439,-0.47365722,-1.1034302,90.0
1458,-2.4791856,-1.0443268,1.3564644,-1.6174439,-0.47365722,-1.1034302,90.0
1459,-2.4791856,-1.0443268,1.3564644,-1.630188,-0.3791382,-1.2117554,90.0
1460,-2.33463,-1.6064224,1.1188354,-1.630188,-0.3791382,-1.2117554,90.0
1461,-2.33463,-1.6064224,1.1188354,-1.5006226,-0.3090454,-1.3190186,90.0
1462,-1.9751992,-1.8956604,0.8067627,-1.5006226,-0.3090454,-1.3190186,90.0
1463,-1.9751992,-1.8956604,0.8067627,-1.3253907,-0.2814331,-1.4039795,90.0
1464,-1.6324787,-1.9834595,0.6191788,-1.3253907,-0.2814331,-1.4039795,90.0
1465,-1.6324787,-1.9834595,0.6191788,-1.1544068,-0.26550293,-1.4432739,90.0
1466,-1.389821,-1.9637604,0.6078911,-1.1544068,-0.26550293,-1.4432739,90.0
1467,-1.389821,-1.9637604,0.6078911,-1.0545777,-0.2516968,-1.4262818,90.0
1468,-1.2268839,-1.8861465,0.63479996,-1.0545777,-0.2516968,-1.4262818,90.0
1469,-1.2268839,-1.8861465,0.63479996,-0.9505005,-0.24851075,-1.363623,90.0
1470,-1.0548964,-1.8339157,0.5877342,-0.9505005,-0.24851075,-1.363623,90.0
1471,-1.0548964,-1.8339157,0.5877342,-0.79119873,-0.26762697,-1.2807862,90.0
1472,-0.6392174,-1.842804,0.4292946,-0.79119873,-0.26762697,-1.2807862,90.0
1473,-0.6392174,-1.842804,0.4292946,-0.48321533,-0.29099122,-1.1490967,90.0
1474,-0.3936491,-1.6775894,0.36372375,-0.48321533,-0.29099122,-1.1490967,90.0
1475,-0.3936491,-1.6775894,0.36372375,-0.4067505,-0.2824951,-1.0938721,90.0
1476,-0.1049099,-1.5378494,0.31950378,-0.4067505,-0.2824951,-1.0938721,90.0
1477,-0.1049099,-1.5378494,0.31950378,-0.32816163,-0.26868898,-0.95581055,90.0
1478,0.14844513,-1.4385223,0.3690033,-0.32816163,-0.26868898,-0.95581055,90.0
1479,0.14844513,-1.4385223,0.3690033,-0.29523927,-0.25700685,-0.80181885,90.0
1480,0.5560608,-1.4054413,0.5324707,-0.29523927,-0.25700685,-0.80181885,90.0
1481,0.5560608,-1.4054413,0.5324707,-0.24744873,-0.20390625,-0.63933104,90.0
1482,0.9595947,-1.3701935,0.7089958,-0.24744873,-0.20390625,-0.63933104,90.0
1483,0.9595947,-1.3701935,0.7089958,-0.20603028,-0.093457036,-0.452417,90.0
1484,1.0330448,-1.2129898,0.7187576,-0.20603028,-0.093457036,-0.452417,90.0
1485,1.0330448,-1.2129898,0.7187576,-0.2442627,0.033984374,-0.1996582,90.0
1486,0.8531933,-0.88749695,0.49261856,-0.2442627,0.033984374,-0.1996582,90.0
1487,0.8531933,-0.88749695,0.49261856,-0.3727661,0.07965088,0.070092775,90.0
1488,1.0340319,-0.6308975,0.21975327,-0.3727661,0.07965088,0.070092775,90.0
1489,1.0340319,-0.6308975,0.21975327,-0.41418457,0.0361084,0.26444092,90.0
1490,1.8028846,-0.75294495,0.2423439,-0.41418457,0.0361084,0.26444092,90.0
1491,1.8028846,-0.75294495,0.2423439,-0.21346436,0.12000733,0.42055663,90.0
1492,2.2002544,-1.0048218,0.515934,-0.21346436,0.12000733,0.42055663,90.0
1493,2.2002544,-1.0048218,0.515934,0.1996582,0.3706421,0.632959,90.0
1494,1.5280504,-0.8258438,0.4874878,0.1996582,0.3706421,0.632959,90.0
1495,1.5280504,-0.8258438,0.4874878,0.64570314,0.3727661,0.88040775,90.0
1496,0.89798975,-0.27723694,-0.03170395,0.64570314,0.3727661,0.88040775,90.0
1497,0.89798975,-0.27723694,-0.03170395,1.2319336,0.33665773,1.0535157,90.0
1498,1.0923543,0.32539368,-0.5101547,1.2319336,0.33665773,1.0535157,90.0
1499,1.0923543,0.32539368,-0.5101547,1.7438233,0.3993164,1.1873292,90.0
1500,1.3734198,0.89432526,-0.68743515,1.7438233,0.3993164,1.1873292,90.0
1501,1.3734198,0.89432526,-0.68743515,2.0040162,0.4970215,1.3020264,90.0
1502,1.2461481,1.3710785,-0.83060074,2.0040162,0.4970215,1.3020264,90.0
1503,1.2461481,1.3710785,-0.83060074,2.0337524,0.60216063,1.3657471,90.0
1504,0.8585396,1.7074585,-1.0909729,2.0337524,0.60216063,1.3657471,90.0
1505,0.8585396,1.7074585,-1.0909729,1.9402955,0.7434082,1.4018555,90.0
1506,0.35674143,1.9225082,-1.3610954,1.9402955,0.7434082,1.4018555,90.0
1507,0.35674143,1.9225082,-1.3610954,1.7119629,0.90270996,1.4645141,90.0
1508,-0.27116203,2.0674896,-1.5834045,1.7119629,0.90270996,1.4645141,90.0
1509,-0.27116203,2.0674896,-1.5834045,1.4443359,1.0736939,1.5707153,90.0
1510,-0.9850936,2.1778946,-1.805481,1.4443359,1.0736939,1.5707153,90.0
1511,-0.9850936,2.1778946,-1.805481,1.2489258,1.176709,1.7140869,90.0
1512,-1.5795665,2.2641907,-2.0473633,1.2489258,1.176709,1.7140869,90.0
1513,-1.5795665,2.2641907,-2.0473633,1.1151123,1.2128174,1.8202881,90.0
1514,-1.828619,2.3607025,-2.262146,1.1151123,1.2128174,1.8202881,90.0
1515,-1.828619,2.3607025,-2.262146,1.0205933,1.2000732,1.8394043,90.0
1516,-1.7235031,2.3925705,-2.2826538,1.0205933,1.2000732,1.8394043,90.0
1517,-1.7235031,2.3925705,-2.2826538,0.9568726,1.1342286,1.7661256,90.0
1518,-1.3831363,2.2572327,-2.0671883,0.9568726,1.1342286,1.7661256,90.0
1519,-1.3831363,2.2572327,-2.0671883,0.9388184,1.0312134,1.6461182,90.0
1520,-0.9733057,2.000145,-1.7760658,0.9388184,1.0312134,1.6461182,90.0
1521,-0.9733057,2.000145,-1.7760658,0.9696167,0.8708496,1.4825684,90.0
1522,-0.640717,1.7467575,-1.5768089,0.9696167,0.8708496,1.4825684,90.0
1523,-0.640717,1.7467575,-1.5768089,0.89102787,0.8092529,1.2786621,90.0
1524,-0.45228338,1.5705414,-1.4793053,0.89102787,0.8092529,1.2786621,90.0
1525,-0.45228338,1.5705414,-1.4793053,0.7742066,0.7434082,1.081128,90.0
1526,-0.44828892,1.5043945,-1.4116783,0.7742066,0.7434082,1.081128,90.0
1527,-0.44828892,1.5043945,-1.4116783,0.6202149,0.64995116,0.8750977,90.0
1528,-0.47708797,1.406189,-1.2818565,0.6202149,0.64995116,0.8750977,90.0
1529,-0.47708797,1.406189,-1.2818565,0.50233155,0.5097656,0.67650145,90.0
1530,-0.47708797,1.406189,-1.2818565,0.49171144,0.35683593,0.49489745,90.0
1531,-0.29685593,1.1458511,-1.0865822,0.49171144,0.35683593,0.49489745,90.0
1532,0.8612337,1.1767883,-0.707119,0.49171144,0.35683593,0.49489745,90.0
1533,0.8612337,1.1767883,-0.707119,0.4725952,0.23258057,0.33028564,90.0
1534,0.8612337,1.1767883,-0.707119,0.32603762,0.1263794,0.21027832,90.0
1535,0.8612337,1.1767883,-0.707119,0.04991455,0.0541626,0.118945315,90.0
1536,0.6966038,1.239685,-0.3661461,0.04991455,0.0541626,0.118945315,90.0
1537,0.6966038,1.239685,-0.3661461,-0.26762697,0.021240234,0.06265869,90.0
1538,0.348567,1.1287231,-0.003929138,-0.26762697,0.021240234,0.06265869,90.0
1539,0.348567,1.1287231,-0.003929138,-0.44923097,-0.07540283,-0.028674318,90.0
1540,0.41162968,0.8284683,0.23319626,-0.44923097,-0.07540283,-0.028674318,90.0
1541,0.41162968,0.8284683,0.23319626,-0.59472656,-0.270813,-0.24851075,90.0
1542,1.3438425,0.431015,0.29817963,-0.59472656,-0.270813,-0.24851075,90.0
1543,1.3438425,0.431015,0.29817963,-0.8814697,-0.4980835,-0.58304447,90.0
1544,2.5334725,0.015541077,0.31300735,-0.8814697,-0.4980835,-0.58304447,90.0
1545,2.5334725,0.015541077,0.31300735,-1.2276856,-0.43861085,-0.86766356,90.0
1546,2.6973104,-0.3286667,0.4928627,-1.2276856,-0.43861085,-0.86766356,90.0
1547,2.6973104,-0.3286667,0.4928627,-1.6153198,-0.48746338,-1.0460815,90.0
1548,1.7851553,-0.80179596,0.92523575,-1.6153198,-0.48746338,-1.0460815,90.0
1549,1.7851553,-0.80179596,0.92523575,-1.6822265,-0.724292,-1.178833,90.0
1550,0.90842247,-1.4534149,1.4978561,-1.6822265,-0.724292,-1.178833,90.0
1551,0.90842247,-1.4534149,1.4978561,-1.2149414,-0.904834,-1.2351197,90.0
1552,0.3882122,-1.8060532,1.9549866,-1.2149414,-0.904834,-1.2351197,90.0
1553,0.3882122,-1.8060532,1.9549866,-0.67225343,-1.0205933,-1.2170655,90.0
1554,-0.10079479,-1.5660095,2.024063,-0.67225343,-1.0205933,-1.2170655,90.0
1555,-0.10079479,-1.5660095,2.024063,-0.36533204,-1.0917481,-1.1374146,90.0
1556,-0.6767788,-0.9289017,1.8057861,-0.36533204,-1.0917481,-1.1374146,90.0
1557,-0.6767788,-0.9289017,1.8057861,-0.37701416,-1.0428956,-0.991919,90.0
1558,-0.6767788,-0.9289017,1.8057861,-0.37701416,-1.0428956,-0.991919,90.0
1559,-1.3120527,-0.29475403,1.584156,-0.37701416,-1.0428956,-0.991919,90.0
1560,-1.3120527,-0.29475403,1.584156,-0.70305175,-0.88996583,-0.87191164,90.0
1561,-1.8890591,-0.03968811,1.5082283,-0.70305175,-0.88996583,-0.87191164,90.0
1562,-1.8890591,-0.03968811,1.5082283,-1.0726318,-0.76464844,-0.82730716,90.0
1563,-2.1644945,-0.23327637,1.4631004,-1.0726318,-0.76464844,-0.82730716,90.0
1564,-2.1644945,-0.23327637,1.4631004,-1.3052124,-0.6605713,-0.85598147,90.0
1565,-2.0682168,-0.62872314,1.3136902,-1.3052124,-0.6605713,-0.85598147,90.0
1566,-2.0682168,-0.62872314,1.3136902,-1.3487549,-0.5533081,-0.9483765,90.0
1567,-1.8251786,-0.97966003,1.1009865,-1.3487549,-0.5533081,-0.9483765,90.0
1568,-1.8251786,-0.97966003,1.1009865,-1.3275146,-0.47365722,-1.0450195,90.0
1569,-1.6141462,-1.2294769,0.96232986,-1.3275146,-0.47365722,-1.0450195,90.0
1570,-1.6141462,-1.2294769,0.96232986,-1.2361816,-0.4258667,-1.1278565,90.0
1571,-1.4121418,-1.3749542,0.9232445,-1.2361816,-0.4258667,-1.1278565,90.0
1572,-1.4121418,-1.3749542,0.9232445,-1.1151123,-0.3971924,-1.178833,90.0
1573,-1.2350721,-1.4117432,0.89759064,-1.1151123,-0.3971924,-1.178833,90.0
1574,-1.2350721,-1.4117432,0.89759064,-0.991919,-0.38975832,-1.1968873,90.0
1575,-1.1115808,-1.4064865,0.8169708,-0.991919,-0.38975832,-1.1968873,90.0
1576,-1.1115808,-1.4064865,0.8169708,-0.8379273,-0.40356445,-1.1873292,90.0
1577,-0.91599846,-1.4118423,0.69721985,-0.8379273,-0.40356445,-1.1873292,90.0
1578,-0.91599846,-1.4118423,0.69721985,-0.67437744,-0.4428589,-1.176709,90.0
1579,-0.49412727,-1.4253693,0.59929276,-0.67437744,-0.4428589,-1.176709,90.0
1580,-0.49412727,-1.4253693,0.59929276,-0.5299439,-0.45772704,-1.1692749,90.0
1581,0.032395363,-1.4666595,0.5663109,-0.5299439,-0.45772704,-1.1692749,90.0
1582,0.032395363,-1.4666595,0.5663109,-0.4163086,-0.45347902,-1.1533448,90.0
1583,0.489295,-1.5442657,0.61437607,-0.4163086,-0.45347902,-1.1533448,90.0
1584,0.489295,-1.5442657,0.61437607,-0.32178956,-0.4598511,-1.1342286,90.0
1585,0.9632988,-1.6325836,0.72042084,-0.32178956,-0.4598511,-1.1342286,90.0
1586,0.9632988,-1.6325836,0.72042084,-0.23682861,-0.42905274,-1.09281,90.0
1587,1.4317961,-1.6971893,0.8536682,-0.23682861,-0.42905274,-1.09281,90.0
1588,1.4317961,-1.6971893,0.8536682,-0.17735596,-0.33878174,-0.9802368,90.0
1589,1.634695,-1.6454086,0.9573097,-0.17735596,-0.33878174,-0.9802368,90.0
1590,1.634695,-1.6454086,0.9573097,-0.16779785,-0.18797608,-0.7476563,90.0
1591,1.4590135,-1.4499588,0.9592438,-0.16779785,-0.18797608,-0.7476563,90.0
1592,1.4590135,-1.4499588,0.9592438,-0.2081543,-0.053100586,-0.4088745,90.0
1593,1.2394643,-1.1354446,0.8410263,-0.2081543,-0.053100586,-0.4088745,90.0
1594,1.2394643,-1.1354446,0.8410263,-0.3706421,0.013806152,-0.10301514,90.0
1595,1.3786201,-0.9066849,0.6991043,-0.3706421,0.013806152,-0.10301514,90.0
1596,1.3786201,-0.9066849,0.6991043,-0.4258667,0.10089111,0.13912354,90.0
1597,1.6861115,-0.9894104,0.6576843,-0.4258667,0.10089111,0.13912354,90.0
1598,1.6861115,-0.9894104,0.6576843,-0.20709229,0.33134767,0.36639404,90.0
1599,1.3022337,-0.99373627,0.5423584,-0.20709229,0.33134767,0.36639404,90.0
1600,1.3022337,-0.99373627,0.5423584,0.1539917,0.5012695,0.6510132,90.0
1601,0.3286643,-0.5538254,0.08492279,0.1539917,0.5012695,0.6510132,90.0
1602,0.3286643,-0.5538254,0.08492279,0.5320679,0.48215333,0.8708496,90.0
1603,-0.08916807,0.03516388,-0.54070663,0.5320679,0.48215333,0.8708496,90.0
1604,-0.08916807,0.03516388,-0.54070663,1.0428956,0.4725952,1.0067872,90.0
