,accx,accy,accz,gyrox,gyroy,gyroz,heart rate
1,walk,walk,walk,walk,walk,walk,walk
2,-3.612134,-60.012722,44.645668,0.0,0.0,0.0,0.0
3,-3.612134,-60.012722,44.645668,-0.18585205,-0.0031860352,-0.04885254,0.0
4,-2.7867286,-48.07092,35.607315,-0.18585205,-0.0031860352,-0.04885254,0.0
5,-2.7867286,-48.07092,35.607315,-0.16248779,-0.014868164,-0.06265869,0.0
6,-2.2250738,-38.569016,28.478615,-0.16248779,-0.014868164,-0.06265869,0.0
7,-2.2250738,-38.569016,28.478615,-0.2262085,0.007434082,-0.053100586,0.0
8,-1.8159599,-31.037426,22.836712,-0.2262085,0.007434082,-0.053100586,0.0
9,-1.8159599,-31.037426,22.836712,-0.14549561,-0.010620117,-0.03186035,0.0
10,-1.5030122,-24.947617,18.33044,-0.14549561,-0.010620117,-0.03186035,0.0
11,-1.5030122,-24.947617,18.33044,-0.047790527,-0.078588866,0.03717041,0.0
12,-1.210149,-19.94579,14.680294,-0.047790527,-0.078588866,0.03717041,0.0
13,-1.210149,-19.94579,14.680294,-0.022302246,-0.07752686,0.060534667,0.0
14,-0.9380412,-15.89119,11.699154,-0.022302246,-0.07752686,0.060534667,0.0
15,-0.9380412,-15.89119,11.699154,-0.06584473,-0.060534667,0.09133301,0.0
16,-0.7216244,-12.629395,9.3309555,-0.06584473,-0.060534667,0.09133301,0.0
17,-0.7216244,-12.629395,9.3309555,-0.046728518,-0.05522461,0.021240234,0.0
18,-0.5610032,-10.033798,7.502384,-0.046728518,-0.05522461,0.021240234,0.0
19,-0.5610032,-10.033798,7.502384,-0.032922365,-0.06796875,0.004248047,0.0
20,-0.42514515,-8.007004,6.0655823,-0.032922365,-0.06796875,0.004248047,0.0
21,-0.42514515,-8.007004,6.0655823,-0.053100586,-0.053100586,-0.04991455,0.0
22,-0.42514515,-8.007004,6.0655823,-0.02442627,-0.04885254,-0.08920898,0.0
23,-0.32768917,-6.4869156,4.856018,-0.02442627,-0.04885254,-0.08920898,0.0
24,-0.23596716,-5.29747,3.865284,-0.02442627,-0.04885254,-0.08920898,0.0
25,-0.23596716,-5.29747,3.865284,0.0010620117,-0.04141846,-0.10089111,0.0
26,-0.14443779,-4.2555923,3.1059494,0.0010620117,-0.04141846,-0.10089111,0.0
27,-0.14443779,-4.2555923,3.1059494,0.016992187,-0.029736329,-0.10301514,0.0
28,-0.085740566,-3.323082,2.4944878,0.016992187,-0.029736329,-0.10301514,0.0
29,-0.085740566,-3.323082,2.4944878,-0.038232423,-0.008496094,-0.090270996,0.0
30,-0.085740566,-3.323082,2.4944878,-0.06159668,0.0053100586,-0.08071289,0.0
31,-0.0681653,-2.5845642,1.9675369,-0.06159668,0.0053100586,-0.08071289,0.0
32,-0.11832619,-2.081398,1.5002365,-0.06159668,0.0053100586,-0.08071289,0.0
33,-0.11832619,-2.081398,1.5002365,-0.045666505,0.0021240234,-0.093457036,0.0
34,-0.18178272,-1.7745819,1.1309891,-0.045666505,0.0021240234,-0.093457036,0.0
35,-0.18178272,-1.7745819,1.1309891,0.06796875,-0.052038576,-0.038232423,0.0
36,-0.18769932,-1.5210419,0.8744583,0.06796875,-0.052038576,-0.038232423,0.0
37,-0.18769932,-1.5210419,0.8744583,0.16142578,-0.10620117,-0.022302246,0.0
38,-0.1464243,-1.1841202,0.70285034,0.16142578,-0.10620117,-0.022302246,0.0
39,-0.1464243,-1.1841202,0.70285034,-0.06159668,-0.004248047,0.098767094,0.0
40,-0.15540838,-0.9229202,0.49455643,-0.06159668,-0.004248047,0.098767094,0.0
41,-0.15540838,-0.9229202,0.49455643,-0.5214478,0.23258057,-0.19434814,0.0
42,-0.37783003,-1.1928253,0.38085938,-0.5214478,0.23258057,-0.19434814,0.0
43,-0.37783003,-1.1928253,0.38085938,1.1554688,-0.5851685,0.25063476,0.0
44,-0.34825993,-1.1719742,0.3620224,1.1554688,-0.5851685,0.25063476,0.0
45,-0.34825993,-1.1719742,0.3620224,0.3982544,-0.31116945,-0.025488282,0.0
46,0.11006403,-0.31865692,0.3503723,0.3982544,-0.31116945,-0.025488282,0.0
47,0.11006403,-0.31865692,0.3503723,-0.3695801,0.098767094,0.2262085,0.0
48,0.11006403,-0.31865692,0.3503723,-0.5915405,0.21027832,0.16992188,0.0
49,0.33728218,0.086135864,0.3653679,-0.5915405,0.21027832,0.16992188,0.0
50,0.10199118,-0.1787796,0.49223328,-0.5915405,0.21027832,0.16992188,0.0
51,0.10199118,-0.1787796,0.49223328,-0.33028564,0.05628662,0.24532472,0.0
52,-0.18593645,-0.34895325,0.51017,-0.33028564,0.05628662,0.24532472,0.0
53,-0.18593645,-0.34895325,0.51017,-0.15823975,-0.03079834,0.2347046,0.0
54,-0.1653142,-0.059829712,0.32172394,-0.15823975,-0.03079834,0.2347046,0.0
55,-0.1653142,-0.059829712,0.32172394,0.028674318,-0.07540283,0.23045655,0.0
56,0.09173536,0.29203033,0.088199615,0.028674318,-0.07540283,0.23045655,0.0
57,0.09173536,0.29203033,0.088199615,0.0063720704,-0.05628662,0.19222413,0.0
58,0.27474308,0.33670044,0.02342987,0.0063720704,-0.05628662,0.19222413,0.0
59,0.27474308,0.33670044,0.02342987,-0.11469727,0.025488282,0.09451904,0.0
60,0.32908392,0.064712524,0.113838196,-0.11469727,0.025488282,0.09451904,0.0
61,0.32908392,0.064712524,0.113838196,-0.1178833,0.043542482,0.035046387,0.0
62,0.32903862,-0.17921448,0.1312561,-0.1178833,0.043542482,0.035046387,0.0
63,0.32903862,-0.17921448,0.1312561,-0.007434082,0.027612304,0.09133301,0.0
64,0.24682474,-0.24481201,-0.00466156,-0.007434082,0.027612304,0.09133301,0.0
65,0.24682474,-0.24481201,-0.00466156,0.03186035,0.03079834,0.0637207,0.0
66,0.14067268,-0.18514252,-0.13568878,0.03186035,0.03079834,0.0637207,0.0
67,0.14067268,-0.18514252,-0.13568878,0.03079834,0.0361084,0.045666505,0.0
68,0.06353903,-0.09703064,-0.14290237,0.03079834,0.0361084,0.045666505,0.0
69,0.06353903,-0.09703064,-0.14290237,0.004248047,0.045666505,0.04141846,0.0
70,-0.02469349,-0.059532166,-0.07859421,0.004248047,0.045666505,0.04141846,0.0
71,-0.02469349,-0.059532166,-0.07859421,-0.020178223,0.050976563,0.026550293,0.0
72,-0.07286739,-0.063072205,-0.046432495,-0.020178223,0.050976563,0.026550293,0.0
73,-0.07286739,-0.063072205,-0.046432495,-0.0541626,0.057348635,-0.0021240234,0.0
74,-0.07286739,-0.063072205,-0.046432495,-0.029736329,0.0637207,-0.019116212,0.0
75,-0.06898737,-0.11467743,-0.046470642,-0.029736329,0.0637207,-0.019116212,0.0
76,-0.06494331,-0.20201111,-0.034893036,-0.029736329,0.0637207,-0.019116212,0.0
77,-0.06494331,-0.20201111,-0.034893036,0.004248047,0.0541626,-0.015930176,0.0
78,-0.09063864,-0.18631744,-0.0020370483,0.004248047,0.0541626,-0.015930176,0.0
79,-0.09063864,-0.18631744,-0.0020370483,-0.05628662,0.0722168,-0.04460449,0.0
80,-0.116053104,-0.12095642,0.011238098,-0.05628662,0.0722168,-0.04460449,0.0
81,-0.116053104,-0.12095642,0.011238098,-0.1359375,0.0998291,-0.053100586,0.0
82,-0.13098955,-0.14202881,-0.0017776489,-0.1359375,0.0998291,-0.053100586,0.0
83,-0.13098955,-0.14202881,-0.0017776489,-0.16567384,0.121069334,-0.050976563,0.0
84,-0.17743587,-0.24645233,-0.026958466,-0.16567384,0.121069334,-0.050976563,0.0
85,-0.17743587,-0.24645233,-0.026958466,-0.1539917,0.11682129,-0.060534667,0.0
86,-0.23907995,-0.2895584,-0.06447601,-0.1539917,0.11682129,-0.060534667,0.0
87,-0.23907995,-0.2895584,-0.06447601,-0.13699952,0.10513916,-0.06159668,0.0
88,-0.27250195,-0.26338196,-0.09158325,-0.13699952,0.10513916,-0.06159668,0.0
89,-0.27250195,-0.26338196,-0.09158325,-0.14655761,0.09451904,-0.05628662,0.0
90,-0.2654624,-0.23593903,-0.08766937,-0.14655761,0.09451904,-0.05628662,0.0
91,-0.2654624,-0.23593903,-0.08766937,-0.16036378,0.09770508,-0.052038576,0.0
92,-0.23371983,-0.22512817,-0.06547165,-0.16036378,0.09770508,-0.052038576,0.0
93,-0.23371983,-0.22512817,-0.06547165,-0.19753419,0.10407715,-0.053100586,0.0
94,-0.20412683,-0.22727203,-0.07777023,-0.19753419,0.10407715,-0.053100586,0.0
95,-0.20412683,-0.22727203,-0.07777023,-0.1709839,0.09770508,-0.04885254,0.0
96,-0.18347979,-0.24750519,-0.11338806,-0.1709839,0.09770508,-0.04885254,0.0
97,-0.18347979,-0.24750519,-0.11338806,-0.12850343,0.07327881,-0.0361084,0.0
98,-0.18347979,-0.24750519,-0.11338806,-0.12850343,0.07327881,-0.0361084,94.0
99,-0.17402983,-0.25310516,-0.12717438,-0.12850343,0.07327881,-0.0361084,94.0
100,-0.17402983,-0.25310516,-0.12717438,-0.0998291,0.06584473,-0.03186035,94.0
101,-0.16423607,-0.19255066,-0.114997864,-0.0998291,0.06584473,-0.03186035,94.0
102,-0.16423607,-0.19255066,-0.114997864,-0.11044922,0.06265869,-0.016992187,94.0
103,-0.15402079,-0.0901947,-0.09065628,-0.11044922,0.06265869,-0.016992187,94.0
104,-0.15402079,-0.0901947,-0.09065628,-0.20496826,0.07540283,-0.016992187,94.0
105,-0.14794827,-0.045059204,-0.07110977,-0.20496826,0.07540283,-0.016992187,94.0
106,-0.14794827,-0.045059204,-0.07110977,-0.29205322,0.093457036,-0.0021240234,94.0
107,-0.13231134,-0.15708923,-0.080947876,-0.29205322,0.093457036,-0.0021240234,94.0
108,-0.13231134,-0.15708923,-0.080947876,-0.23682861,0.07115479,0.008496094,94.0
109,-0.12065601,-0.33457947,-0.12543869,-0.23682861,0.07115479,0.008496094,94.0
110,-0.12065601,-0.33457947,-0.12543869,-0.10938721,0.020178223,0.026550293,94.0
111,-0.111893654,-0.34889984,-0.15868759,-0.10938721,0.020178223,0.026550293,94.0
112,-0.111893654,-0.34889984,-0.15868759,-0.040356446,-0.010620117,0.0180542,94.0
113,-0.09837723,-0.15757751,-0.11724472,-0.040356446,-0.010620117,0.0180542,94.0
114,-0.09837723,-0.15757751,-0.11724472,-0.0637207,-0.026550293,0.0180542,94.0
115,-0.062551975,0.02646637,-0.038974762,-0.0637207,-0.026550293,0.0180542,94.0
116,-0.062551975,0.02646637,-0.038974762,-0.1529297,-0.0063720704,0.020178223,94.0
117,-0.0022873878,0.022735596,-0.016860962,-0.1529297,-0.0063720704,0.020178223,94.0
118,-0.0022873878,0.022735596,-0.016860962,-0.18054199,0.028674318,0.02442627,94.0
119,0.0020155907,-0.13873291,-0.0487175,-0.18054199,0.028674318,0.02442627,94.0
120,0.0020155907,-0.13873291,-0.0487175,-0.083898924,-0.0180542,0.059472658,94.0
121,-0.047679424,-0.2215805,-0.060619354,-0.083898924,-0.0180542,0.059472658,94.0
122,-0.047679424,-0.2215805,-0.060619354,0.027612304,-0.05628662,0.052038576,94.0
123,-0.07134676,-0.113967896,-0.033992767,0.027612304,-0.05628662,0.052038576,94.0
124,-0.07134676,-0.113967896,-0.033992767,0.010620117,-0.040356446,0.046728518,94.0
125,-0.046274185,0.030052185,-0.001953125,0.010620117,-0.040356446,0.046728518,94.0
126,-0.046274185,0.030052185,-0.001953125,-0.07752686,-0.013806152,0.038232423,94.0
127,-0.01891613,0.04421997,-0.009559631,-0.07752686,-0.013806152,0.038232423,94.0
128,-0.01891613,0.04421997,-0.009559631,-0.11469727,-0.009558106,0.028674318,94.0
129,-0.0112633705,-0.05491638,-0.019023895,-0.11469727,-0.009558106,0.028674318,94.0
130,-0.0112633705,-0.05491638,-0.019023895,-0.09770508,-0.0180542,0.027612304,94.0
131,-4.901886E-4,-0.16529846,-0.0034179688,-0.09770508,-0.0180542,0.027612304,94.0
132,-4.901886E-4,-0.16529846,-0.0034179688,-0.0541626,-0.03079834,0.039294433,94.0
133,0.01976204,-0.22013855,-0.0018692017,-0.0541626,-0.03079834,0.039294433,94.0
134,0.01976204,-0.22013855,-0.0018692017,0.013806152,-0.038232423,0.038232423,94.0
135,0.036866665,-0.15480804,-0.006088257,0.013806152,-0.038232423,0.038232423,94.0
136,0.036866665,-0.15480804,-0.006088257,0.014868164,-0.039294433,0.033984374,94.0
137,0.043812275,-0.049430847,0.02407074,0.014868164,-0.039294433,0.033984374,94.0
138,0.043812275,-0.049430847,0.02407074,-0.0361084,-0.010620117,0.039294433,94.0
139,0.040860653,-0.007820129,0.058242798,-0.0361084,-0.010620117,0.039294433,94.0
140,0.040860653,-0.007820129,0.058242798,-0.07540283,0.0010620117,0.03717041,94.0
141,0.0120949745,-0.049293518,0.041675568,-0.07540283,0.0010620117,0.03717041,94.0
142,0.0120949745,-0.049293518,0.041675568,-0.08814698,0.0361084,0.040356446,94.0
143,-0.04147148,-0.14445496,0.002418518,-0.08814698,0.0361084,0.040356446,94.0
144,-0.04147148,-0.14445496,0.002418518,-0.04141846,0.046728518,0.06265869,94.0
145,-0.097081184,-0.19056702,-0.024738312,-0.04141846,0.046728518,0.06265869,94.0
146,-0.097081184,-0.19056702,-0.024738312,-0.007434082,0.040356446,0.07327881,94.0
147,-0.116800785,-0.17012024,-0.02325821,-0.007434082,0.040356446,0.07327881,94.0
148,-0.116800785,-0.17012024,-0.02325821,-0.02442627,0.06265869,0.07540283,94.0
149,-0.12439728,-0.13954926,-0.016178131,-0.02442627,0.06265869,0.07540283,94.0
150,-0.12439728,-0.13954926,-0.016178131,-0.081774905,0.081774905,0.08920898,94.0
151,-0.14885902,-0.18562317,-0.00819397,-0.081774905,0.081774905,0.08920898,94.0
152,-0.14885902,-0.18562317,-0.00819397,-0.07115479,0.083898924,0.11044922,94.0
153,-0.17682648,-0.27892303,-0.010971069,-0.07115479,0.083898924,0.11044922,94.0
154,-0.17682648,-0.27892303,-0.010971069,-0.013806152,0.059472658,0.13062744,94.0
155,-0.21654654,-0.27146912,-0.030014038,-0.013806152,0.059472658,0.13062744,94.0
156,-0.21654654,-0.27146912,-0.030014038,-0.015930176,0.05628662,0.15505372,94.0
157,-0.2742505,-0.16844177,-0.07588959,-0.015930176,0.05628662,0.15505372,94.0
158,-0.2742505,-0.16844177,-0.07588959,-0.08920898,0.06690674,0.1720459,94.0
159,-0.31274748,-0.111190796,-0.13123322,-0.08920898,0.06690674,0.1720459,94.0
160,-0.31274748,-0.111190796,-0.13123322,-0.13487549,0.060534667,0.2081543,94.0
161,-0.3259306,-0.1433487,-0.18875122,-0.13487549,0.060534667,0.2081543,94.0
162,-0.3259306,-0.1433487,-0.18875122,-0.13275146,0.027612304,0.24107666,94.0
163,-0.32550287,-0.24059296,-0.23232651,-0.13275146,0.027612304,0.24107666,94.0
164,-0.32550287,-0.24059296,-0.23232651,-0.06159668,-0.012744141,0.26975098,94.0
165,-0.31412506,-0.30150604,-0.24188232,-0.06159668,-0.012744141,0.26975098,94.0
166,-0.31412506,-0.30150604,-0.24188232,-0.019116212,-0.081774905,0.29417726,94.0
167,-0.29961538,-0.23287964,-0.23264313,-0.019116212,-0.081774905,0.29417726,94.0
168,-0.29961538,-0.23287964,-0.23264313,-0.047790527,-0.1274414,0.32072756,94.0
169,-0.28800774,-0.10774231,-0.21448517,-0.047790527,-0.1274414,0.32072756,94.0
170,-0.28800774,-0.10774231,-0.21448517,-0.11682129,-0.19647217,0.37382814,94.0
171,-0.25384378,-0.027076721,-0.21846008,-0.11682129,-0.19647217,0.37382814,94.0
172,-0.25384378,-0.027076721,-0.21846008,-0.1901001,-0.31329346,0.4439209,94.0
173,-0.14678812,-0.058624268,-0.2580452,-0.1901001,-0.31329346,0.4439209,94.0
174,-0.14678812,-0.058624268,-0.2580452,-0.20603028,-0.4163086,0.5363159,94.0
175,-0.059154034,-0.19641113,-0.25873184,-0.20603028,-0.4163086,0.5363159,94.0
176,-0.059154034,-0.19641113,-0.25873184,-0.107263185,-0.5607422,0.6446411,94.0
177,-0.046004772,-0.32617188,-0.2376976,-0.107263185,-0.5607422,0.6446411,94.0
178,-0.046004772,-0.32617188,-0.2376976,0.0180542,-0.71791995,0.724292,94.0
179,-0.0640254,-0.3460083,-0.29572296,0.0180542,-0.71791995,0.724292,94.0
180,-0.0640254,-0.3460083,-0.29572296,0.087084964,-0.8219971,0.7869507,94.0
181,-0.06188965,-0.3258896,-0.39701462,0.087084964,-0.8219971,0.7869507,94.0
182,-0.06188965,-0.3258896,-0.39701462,0.14018555,-0.91864014,0.8092529,94.0
183,0.020874023,-0.43501282,-0.35966492,0.14018555,-0.91864014,0.8092529,94.0
184,0.020874023,-0.43501282,-0.35966492,0.25806886,-0.97280276,0.83686525,94.0
185,0.29512978,-0.75955963,-0.06837082,0.25806886,-0.97280276,0.83686525,94.0
186,0.29512978,-0.75955963,-0.06837082,0.43011475,-1.0290893,0.8644776,94.0
187,0.6732621,-0.861763,0.25012589,0.43011475,-1.0290893,0.8644776,94.0
188,0.6732621,-0.861763,0.25012589,0.43754885,-1.0588257,0.817749,94.0
189,0.9995842,-0.400383,0.21685028,0.43754885,-1.0588257,0.817749,94.0
190,0.9995842,-0.400383,0.21685028,0.10938721,-1.0333375,0.7869507,94.0
191,1.2365208,0.25920868,-0.21654892,0.10938721,-1.0333375,0.7869507,94.0
192,1.2365208,0.25920868,-0.21654892,-0.29523927,-1.075818,0.7349121,94.0
193,1.3951006,0.7512512,-0.73511505,-0.29523927,-1.075818,0.7349121,94.0
194,1.3951006,0.7512512,-0.73511505,-0.68074954,-1.2414917,0.6701294,94.0
195,1.5516272,0.9665985,-1.157486,-0.68074954,-1.2414917,0.6701294,94.0
196,1.5516272,0.9665985,-1.157486,-1.1522827,-1.4177856,0.56180423,94.0
197,1.7383475,0.9124527,-1.4461288,-1.1522827,-1.4177856,0.56180423,94.0
198,1.7383475,0.9124527,-1.4461288,-1.5611572,-1.5133667,0.43861085,94.0
199,1.821281,0.72496796,-1.5299873,-1.5611572,-1.5133667,0.43861085,94.0
200,1.821281,0.72496796,-1.5299873,-1.5611572,-1.5133667,0.43861085,94.0
201,1.821281,0.72496796,-1.5299873,-1.8394043,-1.5887696,0.23364258,94.0
202,1.7934995,0.4464264,-1.4256516,-1.8394043,-1.5887696,0.23364258,94.0
203,1.7934995,0.4464264,-1.4256516,-1.992334,-1.6493043,-0.0021240234,94.0
204,1.8141575,0.06479645,-1.3008881,-1.992334,-1.6493043,-0.0021240234,94.0
205,1.8141575,0.06479645,-1.3008881,-1.9169312,-1.6535523,-0.2899292,94.0
206,1.922029,-0.23944855,-1.2338142,-1.9169312,-1.6535523,-0.2899292,94.0
207,1.922029,-0.23944855,-1.2338142,-1.6195679,-1.6089478,-0.6117188,94.0
208,1.9763561,-0.31002045,-1.1330109,-1.6195679,-1.6089478,-0.6117188,94.0
209,1.9763561,-0.31002045,-1.1330109,-1.1459106,-1.5133667,-0.9345703,94.0
210,1.8588072,-0.16388702,-0.96355057,-1.1459106,-1.5133667,-0.9345703,94.0
211,1.8588072,-0.16388702,-0.96355057,-0.6786255,-1.4815063,-1.1894531,94.0
212,1.695139,0.08552551,-0.8222923,-0.6786255,-1.4815063,-1.1894531,94.0
213,1.695139,0.08552551,-0.8222923,-0.38551027,-1.536731,-1.447522,94.0
214,1.7476397,0.289917,-0.7490196,-0.38551027,-1.536731,-1.447522,94.0
215,1.7476397,0.289917,-0.7490196,-0.27506104,-1.5951416,-1.6885986,94.0
216,2.0593543,0.40509796,-0.74282074,-0.27506104,-1.5951416,-1.6885986,94.0
217,2.0593543,0.40509796,-0.74282074,-0.25913087,-1.6057618,-1.9158691,94.0
218,2.3584454,0.5461807,-0.7816963,-0.25913087,-1.6057618,-1.9158691,94.0
219,2.3584454,0.5461807,-0.7816963,-0.3462158,-1.5654052,-2.1091554,94.0
220,2.4205332,0.674469,-0.87706757,-0.3462158,-1.5654052,-2.1091554,94.0
221,2.4205332,0.674469,-0.87706757,-0.5278198,-1.5823975,-2.275891,94.0
222,2.3438606,0.6398926,-1.0138626,-0.5278198,-1.5823975,-2.275891,94.0
223,2.3438606,0.6398926,-1.0138626,-0.66269535,-1.6195679,-2.438379,94.0
224,2.3685212,0.4958496,-1.1133003,-0.66269535,-1.6195679,-2.438379,94.0
225,2.3685212,0.4958496,-1.1133003,-0.72216797,-1.6769165,-2.5573242,94.0
226,2.4769337,0.43785095,-1.1235046,-0.72216797,-1.6769165,-2.5573242,94.0
227,2.4769337,0.43785095,-1.1235046,-0.81881106,-1.6769165,-2.623169,94.0
228,2.538395,0.47772217,-1.0905304,-0.81881106,-1.6769165,-2.623169,94.0
229,2.538395,0.47772217,-1.0905304,-0.9505005,-1.6131958,-2.7261841,94.0
230,2.6242828,0.49088287,-1.0969124,-0.9505005,-1.6131958,-2.7261841,94.0
231,2.6242828,0.49088287,-1.0969124,-1.0375855,-1.5579712,-2.8483155,94.0
232,2.8027954,0.48584747,-1.1955261,-1.0375855,-1.5579712,-2.8483155,94.0
233,2.8027954,0.48584747,-1.1955261,-1.0875,-1.4400879,-2.9162843,94.0
234,2.9534183,0.5161438,-1.3652954,-1.0875,-1.4400879,-2.9162843,94.0
235,2.9534183,0.5161438,-1.3652954,-1.1246704,-1.2468017,-2.913098,94.0
236,2.8645291,0.59143066,-1.5509644,-1.1246704,-1.2468017,-2.913098,94.0
237,2.8645291,0.59143066,-1.5509644,-1.1448487,-1.0428956,-2.8440673,94.0
238,2.498447,0.682724,-1.6681366,-1.1448487,-1.0428956,-2.8440673,94.0
239,2.498447,0.682724,-1.6681366,-1.2096313,-0.905896,-2.72937,94.0
240,2.0161037,0.75001526,-1.6735725,-1.2096313,-0.905896,-2.72937,94.0
241,2.0161037,0.75001526,-1.6735725,-1.2414917,-0.79119873,-2.5658205,94.0
242,1.5733566,0.7661743,-1.5620995,-1.2414917,-0.79119873,-2.5658205,94.0
243,1.5733566,0.7661743,-1.5620995,-1.2138795,-0.69349366,-2.3215578,94.0
244,1.1134586,0.7140274,-1.3694916,-1.2138795,-0.69349366,-2.3215578,94.0
245,1.1134586,0.7140274,-1.3694916,-1.1013062,-0.6159668,-2.0454347,94.0
246,0.6335039,0.48124695,-1.1663437,-1.1013062,-0.6159668,-2.0454347,94.0
247,0.6335039,0.48124695,-1.1663437,-0.7688965,-0.541626,-1.7703736,94.0
248,0.27110958,0.038269043,-1.0254364,-0.7688965,-0.541626,-1.7703736,94.0
249,0.27110958,0.038269043,-1.0254364,-0.118945315,-0.5171997,-1.4443359,94.0
250,0.042058945,-0.26509094,-0.95853424,-0.118945315,-0.5171997,-1.4443359,94.0
251,0.042058945,-0.26509094,-0.95853424,0.64995116,-0.5809204,-1.1140503,94.0
252,-0.052167892,-0.072509766,-0.97333527,0.64995116,-0.5809204,-1.1140503,94.0
253,-0.052167892,-0.072509766,-0.97333527,1.1809571,-0.64995116,-0.7965088,94.0
254,0.1447649,0.45819092,-0.95259476,1.1809571,-0.64995116,-0.7965088,94.0
255,0.1447649,0.45819092,-0.95259476,1.4963745,-0.66481936,-0.4980835,94.0
256,0.5974407,0.9141617,-0.7991257,1.4963745,-0.66481936,-0.4980835,94.0
257,0.5974407,0.9141617,-0.7991257,1.5038086,-0.5968506,-0.19753419,94.0
258,1.0498524,1.105423,-0.60347366,1.5038086,-0.5968506,-0.19753419,94.0
259,1.0498524,1.105423,-0.60347366,1.2457398,-0.45029297,0.07965088,94.0
260,1.3870134,0.9510956,-0.51677704,1.2457398,-0.45029297,0.07965088,94.0
261,1.3870134,0.9510956,-0.51677704,1.0736939,-0.2538208,0.32391357,94.0
262,1.5170822,0.48853302,-0.5585861,1.0736939,-0.2538208,0.32391357,94.0
263,1.5170822,0.48853302,-0.5585861,1.0556396,-0.17841797,0.6924316,94.0
264,1.3291569,0.12169647,-0.54616165,1.0556396,-0.17841797,0.6924316,94.0
265,1.3291569,0.12169647,-0.54616165,1.0110352,-0.13912354,1.0036011,94.0
266,0.98944855,0.04423523,-0.3968315,1.0110352,-0.13912354,1.0036011,94.0
267,0.98944855,0.04423523,-0.3968315,0.8952759,-0.0361084,1.3179566,94.0
268,0.7321224,-0.0035552979,-0.1817131,0.8952759,-0.0361084,1.3179566,94.0
269,0.7321224,-0.0035552979,-0.1817131,0.8496094,0.059472658,1.6195679,94.0
270,0.6307907,-0.21600342,-0.1711998,0.8496094,0.059472658,1.6195679,94.0
271,0.6307907,-0.21600342,-0.1711998,0.814563,0.15505372,1.8755127,94.0
272,0.6764221,-0.6205597,-0.5620918,0.814563,0.15505372,1.8755127,94.0
273,0.6764221,-0.6205597,-0.5620918,0.79119873,0.24638672,2.0942872,94.0
274,0.7992668,-1.2350311,-1.2195816,0.79119873,0.24638672,2.0942872,94.0
275,0.7992668,-1.2350311,-1.2195816,0.99510497,0.23258057,2.2822633,94.0
276,0.77235985,-1.685669,-1.6835632,0.99510497,0.23258057,2.2822633,94.0
277,0.77235985,-1.685669,-1.6835632,1.1299804,0.21558838,2.4840455,94.0
278,0.39466953,-1.654396,-1.667553,1.1299804,0.21558838,2.4840455,94.0
279,0.39466953,-1.654396,-1.667553,0.94625247,0.2357666,2.5605104,94.0
280,-0.14415264,-1.4161072,-1.3535004,0.94625247,0.2357666,2.5605104,94.0
281,-0.14415264,-1.4161072,-1.3535004,0.50870365,0.12213135,2.6040528,94.0
282,-0.3769064,-1.3934937,-1.0201912,0.50870365,0.12213135,2.6040528,94.0
283,-0.3769064,-1.3934937,-1.0201912,0.0637207,0.03186035,2.5859985,94.0
284,-0.25075626,-1.7029266,-0.77815247,0.0637207,0.03186035,2.5859985,94.0
285,-0.25075626,-1.7029266,-0.77815247,-0.121069334,0.0541626,2.5775025,94.0
286,-0.30905247,-2.0300064,-0.6065788,-0.121069334,0.0541626,2.5775025,94.0
287,-0.30905247,-2.0300064,-0.6065788,-0.23045655,0.07752686,2.5711305,94.0
288,-0.8308115,-2.1322098,-0.4970932,-0.23045655,0.07752686,2.5711305,94.0
289,-0.8308115,-2.1322098,-0.4970932,-0.25913087,0.07540283,2.5552003,94.0
290,-1.4795904,-2.029129,-0.44960403,-0.25913087,0.07540283,2.5552003,94.0
291,-1.4795904,-2.029129,-0.44960403,-0.14124756,0.03079834,2.5753784,94.0
292,-1.9681206,-1.6812592,-0.3749771,-0.14124756,0.03079834,2.5753784,94.0
293,-1.9681206,-1.6812592,-0.3749771,-0.0063720704,0.0541626,2.633789,94.0
294,-2.2821264,-1.2256241,-0.2318039,-0.0063720704,0.0541626,2.633789,94.0
295,-2.2821264,-1.2256241,-0.2318039,0.0722168,0.13699952,2.6603394,94.0
296,-2.4335985,-0.9086838,-0.09187317,0.0722168,0.13699952,2.6603394,94.0
297,-2.4335985,-0.9086838,-0.09187317,0.0722168,0.13699952,2.6603394,94.0
298,-2.4335985,-0.9086838,-0.09187317,0.14655761,0.20072022,2.6921997,94.0
299,-2.4756384,-0.7603836,-0.03199768,0.14655761,0.20072022,2.6921997,94.0
300,-2.4756384,-0.7603836,-0.03199768,0.20496826,0.26762697,2.6783936,94.0
301,-2.5620174,-0.6911545,-0.06269455,0.20496826,0.26762697,2.6783936,94.0
302,-2.5620174,-0.6911545,-0.06269455,0.22408448,0.32816163,2.6327271,94.0
303,-2.750505,-0.7099762,-0.10403824,0.22408448,0.32816163,2.6327271,94.0
304,-2.750505,-0.7099762,-0.10403824,0.33240968,0.31223145,2.5169678,94.0
305,-2.8580213,-0.7902603,-0.03129959,0.33240968,0.31223145,2.5169678,94.0
306,-2.8580213,-0.7902603,-0.03129959,0.58623046,0.23045655,2.3353639,94.0
307,-2.755814,-0.78276825,0.18941116,0.58623046,0.23045655,2.3353639,94.0
308,-2.755814,-0.78276825,0.18941116,0.88996583,0.20390625,2.1282716,94.0
309,-2.5804448,-0.5805893,0.45285797,0.88996583,0.20390625,2.1282716,94.0
310,-2.5804448,-0.5805893,0.45285797,1.0556396,0.24638672,1.8903809,94.0
311,-2.5729742,-0.21957397,0.6084404,1.0556396,0.24638672,1.8903809,94.0
312,-2.5729742,-0.21957397,0.6084404,0.94625247,0.32922363,1.6068238,94.0
313,-2.7241144,0.06951141,0.57626724,0.94625247,0.32922363,1.6068238,94.0
314,-2.7241144,0.06951141,0.57626724,0.6467652,0.36427003,1.2574219,94.0
315,-2.7590647,0.1335144,0.38467026,0.6467652,0.36427003,1.2574219,94.0
316,-2.7590647,0.1335144,0.38467026,0.33771974,0.30161133,0.87403566,94.0
317,-2.4337897,0.047973633,0.14543152,0.33771974,0.30161133,0.87403566,94.0
318,-2.4337897,0.047973633,0.14543152,0.07965088,0.1444336,0.45029297,94.0
319,-1.7246319,-0.06327057,-0.03137207,0.07965088,0.1444336,0.45029297,94.0
320,-1.7246319,-0.06327057,-0.03137207,-0.15717773,-0.060534667,-0.040356446,94.0
321,-0.7268735,-0.19431305,-0.14609528,-0.15717773,-0.060534667,-0.040356446,94.0
322,-0.7268735,-0.19431305,-0.14609528,-0.35789797,-0.30161133,-0.6074707,94.0
323,0.39575946,-0.40975952,-0.2303772,-0.35789797,-0.30161133,-0.6074707,94.0
324,0.39575946,-0.40975952,-0.2303772,-0.4959595,-0.4980835,-1.1926392,94.0
325,1.4309998,-0.6817093,-0.26013184,-0.4959595,-0.4980835,-1.1926392,94.0
326,1.4309998,-0.6817093,-0.26013184,-0.5968506,-0.6159668,-1.7671875,94.0
327,2.2425659,-0.8412552,-0.26628494,-0.5968506,-0.6159668,-1.7671875,94.0
328,2.2425659,-0.8412552,-0.26628494,-0.7593384,-0.75509036,-2.2833252,94.0
329,2.765427,-0.7390137,-0.41705704,-0.7593384,-0.75509036,-2.2833252,94.0
330,2.765427,-0.7390137,-0.41705704,-0.9791748,-0.76358646,-2.630603,94.0
331,2.746509,-0.4241104,-0.6690483,-0.9791748,-0.76358646,-2.630603,94.0
332,2.746509,-0.4241104,-0.6690483,-1.1660889,-0.634021,-2.7686646,94.0
333,2.0406766,-0.10536194,-0.75392914,-1.1660889,-0.634021,-2.7686646,94.0
334,2.0406766,-0.10536194,-0.75392914,-1.178833,-0.68924564,-2.7707887,94.0
335,1.3584566,0.02205658,-0.58794785,-1.178833,-0.68924564,-2.7707887,94.0
336,1.3584566,0.02205658,-0.58794785,-0.8602295,-1.0726318,-2.7378662,94.0
337,1.6574807,0.06012726,-0.38368988,-0.8602295,-1.0726318,-2.7378662,94.0
338,1.6574807,0.06012726,-0.38368988,-0.20603028,-1.2765381,-2.5679443,94.0
339,2.6619587,0.220932,-0.4419632,-0.20603028,-1.2765381,-2.5679443,94.0
340,2.6619587,0.220932,-0.4419632,0.36427003,-1.0482056,-2.2748291,94.0
341,3.0171404,0.5325241,-0.74705505,0.36427003,-1.0482056,-2.2748291,94.0
342,3.0171404,0.5325241,-0.74705505,0.60959476,-0.7126099,-1.9519776,94.0
343,2.1877966,0.822876,-0.9891968,0.60959476,-0.7126099,-1.9519776,94.0
344,2.1877966,0.822876,-0.9891968,0.65844727,-0.63933104,-1.7332032,94.0
345,1.0823536,1.008606,-0.93678284,0.65844727,-0.63933104,-1.7332032,94.0
346,1.0823536,1.008606,-0.93678284,0.54693604,-0.64570314,-1.5208008,94.0
347,0.51443005,1.1690445,-0.55474854,0.54693604,-0.64570314,-1.5208008,94.0
348,0.51443005,1.1690445,-0.55474854,0.20072022,-0.5065796,-1.2977784,94.0
349,0.24666357,1.2803421,0.032619476,0.20072022,-0.5065796,-1.2977784,94.0
350,0.24666357,1.2803421,0.032619476,-0.52250975,-0.23682861,-1.1076783,94.0
351,-0.26845264,1.216362,0.49016953,-0.52250975,-0.23682861,-1.1076783,94.0
352,-0.26845264,1.216362,0.49016953,-1.273352,-0.026550293,-0.94625247,94.0
353,-1.0811682,0.88471985,0.4555893,-1.273352,-0.026550293,-0.94625247,94.0
354,-1.0811682,0.88471985,0.4555893,-1.4931885,0.016992187,-0.79119873,94.0
355,-1.7280569,0.4663086,0.051078796,-1.4931885,0.016992187,-0.79119873,94.0
356,-1.7280569,0.4663086,0.051078796,-1.4252198,-0.09133301,-0.70198977,94.0
357,-1.8081293,0.2957306,-0.32221222,-1.4252198,-0.09133301,-0.70198977,94.0
358,-1.8081293,0.2957306,-0.32221222,-1.4294678,-0.118945315,-0.6414551,94.0
359,-1.4165597,0.34456635,-0.5202942,-1.4294678,-0.118945315,-0.6414551,94.0
360,-1.4165597,0.34456635,-0.5202942,-1.5250489,-0.05522461,-0.62340087,94.0
361,-0.9129596,0.33594513,-0.61940765,-1.5250489,-0.05522461,-0.62340087,94.0
362,-0.9129596,0.33594513,-0.61940765,-1.5154908,-0.014868164,-0.6117188,94.0
363,-0.5384855,0.20576477,-0.6853218,-1.5154908,-0.014868164,-0.6117188,94.0
364,-0.5384855,0.20576477,-0.6853218,-1.4156617,-0.008496094,-0.60959476,94.0
365,-0.29768276,0.06340027,-0.6908226,-1.4156617,-0.008496094,-0.60959476,94.0
366,-0.29768276,0.06340027,-0.6908226,-1.26167,0.009558106,-0.6053467,94.0
367,-0.054698944,0.002418518,-0.57198334,-1.26167,0.009558106,-0.6053467,94.0
368,-0.054698944,0.002418518,-0.57198334,-1.0397094,-0.03079834,-0.5883545,94.0
369,0.3488679,0.105667114,-0.39366913,-1.0397094,-0.03079834,-0.5883545,94.0
370,0.3488679,0.105667114,-0.39366913,-0.8867798,-0.10301514,-0.5299439,94.0
371,0.903203,0.31850433,-0.3298645,-0.8867798,-0.10301514,-0.5299439,94.0
372,0.903203,0.31850433,-0.3298645,-0.87403566,-0.09133301,-0.452417,94.0
373,1.377604,0.41505432,-0.3760872,-0.87403566,-0.09133301,-0.452417,94.0
374,1.377604,0.41505432,-0.3760872,-0.8793457,-0.07646485,-0.38232422,94.0
375,1.6474447,0.30456543,-0.35800934,-0.8793457,-0.07646485,-0.38232422,94.0
376,1.6474447,0.30456543,-0.35800934,-0.8315552,-0.13381349,-0.31223145,94.0
377,1.9320426,0.13769531,-0.26703262,-0.8315552,-0.13381349,-0.31223145,94.0
378,1.9320426,0.13769531,-0.26703262,-0.77102053,-0.28780517,-0.27399904,94.0
379,2.5046673,-0.014083862,-0.21008682,-0.77102053,-0.28780517,-0.27399904,94.0
380,2.5046673,-0.014083862,-0.21008682,-0.6945557,-0.38232422,-0.22408448,94.0
381,3.2151594,-0.14455414,-0.2120285,-0.6945557,-0.38232422,-0.22408448,94.0
382,3.2151594,-0.14455414,-0.2120285,-0.5692383,-0.31966552,-0.12850343,94.0
383,3.376131,-0.21072388,-0.22307587,-0.5692383,-0.31966552,-0.12850343,94.0
384,3.376131,-0.21072388,-0.22307587,-0.48109132,-0.03186035,0.06159668,94.0
385,2.3891249,-0.15166473,-0.14673615,-0.48109132,-0.03186035,0.06159668,94.0
386,2.3891249,-0.15166473,-0.14673615,-0.37595215,0.0998291,0.2548828,94.0
387,0.57552147,0.022994995,0.03199005,-0.37595215,0.0998291,0.2548828,94.0
388,0.57552147,0.022994995,0.03199005,-0.18372802,0.057348635,0.50020754,94.0
389,-1.1395702,0.16322327,0.22902298,-0.18372802,0.057348635,0.50020754,94.0
390,-1.1395702,0.16322327,0.22902298,0.050976563,0.014868164,0.72323,94.0
391,-2.0065908,-0.033973694,0.40952682,0.050976563,0.014868164,0.72323,94.0
392,-2.0065908,-0.033973694,0.40952682,0.4991455,-0.26762697,0.77951664,94.0
393,-1.552721,-0.6732483,0.5182457,0.4991455,-0.26762697,0.77951664,94.0
394,-1.552721,-0.6732483,0.5182457,1.357251,-0.4630371,0.7508423,94.0
395,-0.1412983,-1.3102188,0.5002403,1.357251,-0.4630371,0.7508423,94.0
396,-0.1412983,-1.3102188,0.5002403,2.2121704,-0.42374268,0.70942384,94.0
397,1.3119736,-1.4700775,0.39704132,2.2121704,-0.42374268,0.70942384,94.0
398,1.3119736,-1.4700775,0.39704132,2.7792847,-0.27293703,0.6605713,94.0
399,2.3057928,-1.2332153,0.2842102,2.7792847,-0.27293703,0.6605713,94.0
400,2.3057928,-1.2332153,0.2842102,3.1509888,0.026550293,0.5777344,94.0
401,2.7320852,-0.8069229,0.31580734,3.1509888,0.026550293,0.5777344,94.0
402,2.7320852,-0.8069229,0.31580734,3.3888795,0.47365722,0.5787964,94.0
403,2.7320852,-0.8069229,0.31580734,3.3888795,0.47365722,0.5787964,94.0
404,2.4902945,-0.1857605,0.58039093,3.3888795,0.47365722,0.5787964,94.0
405,2.4902945,-0.1857605,0.58039093,3.347461,0.93563235,0.6956177,94.0
406,1.4416618,0.6498642,0.9238243,3.347461,0.93563235,0.6956177,94.0
407,1.4416618,0.6498642,0.9238243,2.7612305,1.4294678,0.98236084,94.0
408,-0.29198265,1.5340271,1.143856,2.7612305,1.4294678,0.98236084,94.0
409,-0.29198265,1.5340271,1.143856,1.7629395,1.8234742,1.2903442,94.0
410,-2.1709518,2.0914917,1.1572113,1.7629395,1.8234742,1.2903442,94.0
411,-2.1709518,2.0914917,1.1572113,0.59472656,2.0380006,1.6716064,94.0
412,-3.5744324,2.0080109,0.9947624,0.59472656,2.0380006,1.6716064,94.0
413,-3.5744324,2.0080109,0.9947624,-0.40144044,2.0709229,2.0326905,94.0
414,-4.110071,1.310669,0.71699905,-0.40144044,2.0709229,2.0326905,94.0
415,-4.110071,1.310669,0.71699905,-1.1841431,2.0178223,2.2950075,94.0
416,-3.9167194,0.4146347,0.33519363,-1.1841431,2.0178223,2.2950075,94.0
417,-3.9167194,0.4146347,0.33519363,-1.8840088,2.0135744,2.4914796,94.0
418,-3.4797134,-0.41390228,-0.10966492,-1.8840088,2.0135744,2.4914796,94.0
419,-3.4797134,-0.41390228,-0.10966492,-2.3417358,2.0411866,2.5541382,94.0
420,-3.1902528,-1.1802902,-0.5444336,-2.3417358,2.0411866,2.5541382,94.0
421,-3.1902528,-1.1802902,-0.5444336,-2.3236816,1.9625977,2.613611,94.0
422,-3.0907884,-1.8338547,-0.85609055,-2.3236816,1.9625977,2.613611,94.0
423,-3.0907884,-1.8338547,-0.85609055,-1.8255981,1.7650635,2.6051147,94.0
424,-3.013402,-2.1035767,-1.0354576,-1.8255981,1.7650635,2.6051147,94.0
425,-3.013402,-2.1035767,-1.0354576,-1.1968873,1.5993897,2.4691772,94.0
426,-2.8699012,-1.7994232,-1.0708084,-1.1968873,1.5993897,2.4691772,94.0
427,-2.8699012,-1.7994232,-1.0708084,-0.7519043,1.4581422,2.2939453,94.0
428,-2.6434064,-1.3537979,-0.96232605,-0.7519043,1.4581422,2.2939453,94.0
429,-2.6434064,-1.3537979,-0.96232605,-0.5936646,1.3784913,2.175,94.0
430,-2.206998,-0.63023376,-0.8337784,-0.5936646,1.3784913,2.175,94.0
431,-2.206998,-0.63023376,-0.8337784,-0.24213867,1.0726318,1.6131958,94.0
432,-1.8237772,-0.43421173,-0.66482544,-0.24213867,1.0726318,1.6131958,94.0
433,-1.8237772,-0.43421173,-0.66482544,-0.18372802,0.95368654,1.3880494,94.0
434,-0.9492073,-0.29499054,-0.47322845,-0.18372802,0.95368654,1.3880494,94.0
435,-0.9492073,-0.29499054,-0.47322845,-0.3440918,0.634021,0.6064087,94.0
436,-0.59833074,-0.26760864,-0.41309357,-0.3440918,0.634021,0.6064087,94.0
437,-0.59833074,-0.26760864,-0.41309357,-0.4619751,0.5501221,0.30373535,94.0
438,-0.12527108,-0.46372986,-0.286541,-0.4619751,0.5501221,0.30373535,94.0
439,-0.12527108,-0.46372986,-0.286541,-0.72960204,0.18903808,-0.6085327,94.0
440,0.0112576485,-0.4662094,-0.25926208,-0.72960204,0.18903808,-0.6085327,94.0
441,0.0112576485,-0.4662094,-0.25926208,-0.74659425,0.025488282,-0.91864014,94.0
442,-0.036391735,-0.6253891,0.02186203,-0.74659425,0.025488282,-0.91864014,94.0
443,-0.036391735,-0.6253891,0.02186203,-0.63826907,-0.46622315,-1.7703736,94.0
444,0.12525678,-0.48760223,0.029441833,-0.63826907,-0.46622315,-1.7703736,94.0
445,0.12525678,-0.48760223,0.029441833,-0.56817627,-0.6159668,-2.0125122,94.0
446,-0.1308248,-0.3139267,0.28998566,-0.56817627,-0.6159668,-2.0125122,94.0
447,-0.1308248,-0.3139267,0.28998566,-0.24107666,-1.1076783,-2.5562623,94.0
448,0.122024775,-0.20271301,0.3187065,-0.24107666,-1.1076783,-2.5562623,94.0
449,0.122024775,-0.20271301,0.3187065,-0.012744141,-1.3434448,-2.6837037,94.0
450,1.1148195,-0.5333557,0.78040314,-0.012744141,-1.3434448,-2.6837037,94.0
451,1.1148195,-0.5333557,0.78040314,1.1034302,-2.079419,-2.8695557,94.0
452,1.9215674,-0.4710312,0.9051819,1.1034302,-2.079419,-2.8695557,94.0
453,1.9215674,-0.4710312,0.9051819,1.5186768,-2.176062,-2.8589356,94.0
454,4.134251,-0.23530579,1.1271095,1.5186768,-2.176062,-2.8589356,94.0
455,4.134251,-0.23530579,1.1271095,2.4723632,-2.0411866,-2.6019287,94.0
456,4.0780916,0.10702515,1.0287132,2.4723632,-2.0411866,-2.6019287,94.0
457,4.0780916,0.10702515,1.0287132,2.6539674,-1.9307374,-2.4596193,94.0
458,3.6245584,0.61244965,0.6450043,2.6539674,-1.9307374,-2.4596193,94.0
459,3.6245584,0.61244965,0.6450043,2.909912,-1.725769,-2.1505737,94.0
460,2.4062138,0.9729843,0.46392822,2.909912,-1.725769,-2.1505737,94.0
461,2.4062138,0.9729843,0.46392822,3.0076172,-1.6386842,-1.8563966,94.0
462,1.1699905,1.379219,0.6911354,3.0076172,-1.6386842,-1.8563966,94.0
463,1.1699905,1.379219,0.6911354,2.6783936,-1.5101807,-1.4528321,94.0
464,0.25914955,1.9497604,1.1109161,2.6783936,-1.5101807,-1.4528321,94.0
465,0.25914955,1.9497604,1.1109161,1.7703736,-1.2499878,-1.1129884,94.0
466,-0.83398914,2.8097458,1.3624382,1.7703736,-1.2499878,-1.1129884,94.0
467,-0.83398914,2.8097458,1.3624382,0.081774905,-0.9791748,-0.79013675,94.0
468,-0.9069252,2.538498,0.94501495,0.081774905,-0.9791748,-0.79013675,94.0
469,-0.9069252,2.538498,0.94501495,-0.3812622,-0.96643066,-0.72004396,94.0
470,-1.0129185,2.1634064,0.30978394,-0.3812622,-0.96643066,-0.72004396,94.0
471,-1.0129185,2.1634064,0.30978394,-1.1490967,-0.9324463,-0.62977296,94.0
472,-0.54971504,1.4098282,-0.32514954,-1.1490967,-0.9324463,-0.62977296,94.0
473,-0.54971504,1.4098282,-0.32514954,-1.7905518,-0.8050049,-0.541626,94.0
474,0.07313061,0.52827454,-0.6675873,-1.7905518,-0.8050049,-0.541626,94.0
475,0.07313061,0.52827454,-0.6675873,-2.2302246,-0.6287109,-0.51082766,94.0
476,0.35818672,-0.24033356,-0.7916641,-2.2302246,-0.6287109,-0.51082766,94.0
477,0.35818672,-0.24033356,-0.7916641,-2.536084,-0.48640138,-0.541626,94.0
478,0.30892467,-0.79177094,-0.8560257,-2.536084,-0.48640138,-0.541626,94.0
479,0.30892467,-0.79177094,-0.8560257,-2.6157348,-0.42268068,-0.6053467,94.0
480,0.2814536,-1.1100922,-0.8612366,-2.6157348,-0.42268068,-0.6053467,94.0
481,0.2814536,-1.1100922,-0.8612366,-2.4351928,-0.39613038,-0.6510132,94.0
482,0.41204023,-1.2007294,-0.7563133,-2.4351928,-0.39613038,-0.6510132,94.0
483,0.41204023,-1.2007294,-0.7563133,-2.0199463,-0.362146,-0.68287355,94.0
484,0.5935478,-1.0820694,-0.6012306,-2.0199463,-0.362146,-0.68287355,94.0
485,0.5935478,-1.0820694,-0.6012306,-1.4921265,-0.37489015,-0.7104859,94.0
486,0.83542204,-0.75572205,-0.46341705,-1.4921265,-0.37489015,-0.7104859,94.0
487,0.83542204,-0.75572205,-0.46341705,-0.6786255,-0.48109132,-0.75615233,94.0
488,0.8719754,-0.46598053,-0.4240532,-0.6786255,-0.48109132,-0.75615233,94.0
489,0.8719754,-0.46598053,-0.4240532,-0.40356445,-0.5533081,-0.77526855,94.0
490,1.3253636,-0.28945923,-0.18079376,-0.40356445,-0.5533081,-0.77526855,94.0
491,1.3253636,-0.28945923,-0.18079376,0.19541016,-0.71791995,-0.76677245,94.0
492,2.1896243,-0.31246185,0.20063019,0.19541016,-0.71791995,-0.76677245,94.0
493,2.1896243,-0.31246185,0.20063019,0.73809814,-0.81031495,-0.73597413,94.0
494,3.221756,-0.3678894,0.5073166,0.73809814,-0.81031495,-0.73597413,94.0
495,3.221756,-0.3678894,0.5073166,1.179895,-0.62340087,-0.60322267,94.0
496,3.701209,-0.22694397,0.58386993,1.179895,-0.62340087,-0.60322267,94.0
497,3.701209,-0.22694397,0.58386993,1.3328247,-0.0998291,-0.3451538,94.0
498,2.8858938,0.29856873,0.3960991,1.3328247,-0.0998291,-0.3451538,94.0
499,2.8858938,0.29856873,0.3960991,1.1119263,0.32391357,-0.023364259,94.0
500,1.2061024,1.0754471,0.14041519,1.1119263,0.32391357,-0.023364259,94.0
501,1.2061024,1.0754471,0.14041519,0.631897,0.4163086,0.29311523,94.0
502,0.036525726,1.5582199,0.022743225,0.631897,0.4163086,0.29311523,94.0
503,0.036525726,1.5582199,0.022743225,0.2347046,0.43861085,0.5692383,94.0
504,0.036525726,1.5582199,0.022743225,0.2347046,0.43861085,0.5692383,94.0
505,0.03921795,1.3187943,-0.059700012,0.2347046,0.43861085,0.5692383,94.0
506,0.03921795,1.3187943,-0.059700012,0.087084964,0.5076416,0.77951664,94.0
507,0.5882473,0.48945618,-0.26382446,0.087084964,0.5076416,0.77951664,94.0
508,0.5882473,0.48945618,-0.26382446,0.16036378,0.6988037,1.0290893,94.0
509,0.8968067,-0.36344147,-0.47916412,0.16036378,0.6988037,1.0290893,94.0
510,0.8968067,-0.36344147,-0.47916412,0.40037844,0.85491943,1.1480347,94.0
511,0.838747,-0.7537308,-0.5388756,0.40037844,0.85491943,1.1480347,94.0
512,0.838747,-0.7537308,-0.5388756,0.6786255,1.075818,1.2393677,94.0
513,0.46169567,-0.63262177,-0.35368347,0.6786255,1.075818,1.2393677,94.0
514,0.46169567,-0.63262177,-0.35368347,0.77739257,1.4177856,1.3222046,94.0
515,-0.30774307,-0.2443924,0.058898926,0.77739257,1.4177856,1.3222046,94.0
516,-0.30774307,-0.2443924,0.058898926,0.58623046,1.6705445,1.4273437,94.0
517,-1.3195219,0.1339798,0.4286499,0.58623046,1.6705445,1.4273437,94.0
518,-1.3195219,0.1339798,0.4286499,0.14974366,1.8245362,1.5717773,94.0
519,-2.2807398,0.25595093,0.45336914,0.14974366,1.8245362,1.5717773,94.0
520,-2.2807398,0.25595093,0.45336914,-0.26444092,1.9732178,1.7278931,94.0
521,-3.0544252,0.14605713,0.19940186,-0.26444092,1.9732178,1.7278931,94.0
522,-3.0544252,0.14605713,0.19940186,-0.57242435,1.9764038,1.8691406,94.0
523,-3.5015726,0.017089844,-0.10498047,-0.57242435,1.9764038,1.8691406,94.0
524,-3.5015726,0.017089844,-0.10498047,-0.87191164,1.8680786,1.989148,94.0
525,-3.4275765,-0.12586975,-0.396801,-0.87191164,1.8680786,1.989148,94.0
526,-3.4275765,-0.12586975,-0.396801,-1.1246704,1.7693115,2.0008302,94.0
527,-2.9451618,-0.362854,-0.6816635,-1.1246704,1.7693115,2.0008302,94.0
528,-2.9451618,-0.362854,-0.6816635,-1.3614991,1.7916138,1.9806519,94.0
529,-2.4386,-0.695137,-0.8862877,-1.3614991,1.7916138,1.9806519,94.0
530,-2.4386,-0.695137,-0.8862877,-1.3466309,1.7151489,1.8808228,94.0
531,-2.1247206,-0.9683151,-1.0231781,-1.3466309,1.7151489,1.8808228,94.0
532,-2.1247206,-0.9683151,-1.0231781,-1.2075074,1.621692,1.7841797,94.0
533,-1.9431725,-1.0481033,-1.0968399,-1.2075074,1.621692,1.7841797,94.0
534,-1.9431725,-1.0481033,-1.0968399,-0.92926025,1.4921265,1.6609863,94.0
535,-1.7686005,-0.97164917,-1.0693283,-0.92926025,1.4921265,1.6609863,94.0
536,-1.7686005,-0.97164917,-1.0693283,-0.6435791,1.3806152,1.5123047,94.0
537,-1.5874996,-0.7637329,-0.95171356,-0.6435791,1.3806152,1.5123047,94.0
538,-1.5874996,-0.7637329,-0.95171356,-0.43754885,1.2531738,1.3721192,94.0
539,-1.4562178,-0.48525238,-0.789299,-0.43754885,1.2531738,1.3721192,94.0
540,-1.4562178,-0.48525238,-0.789299,-0.3462158,1.0991821,1.2266235,94.0
541,-1.3596275,-0.25530243,-0.6328926,-0.3462158,1.0991821,1.2266235,94.0
542,-1.3596275,-0.25530243,-0.6328926,-0.3717041,0.86978763,1.0375855,94.0
543,-1.1222601,-0.1583252,-0.4758339,-0.3717041,0.86978763,1.0375855,94.0
544,-1.1222601,-0.1583252,-0.4758339,-0.42905274,0.56392825,0.7848267,94.0
545,-0.5697441,-0.21655273,-0.30908585,-0.42905274,0.56392825,0.7848267,94.0
546,-0.5697441,-0.21655273,-0.30908585,-0.47790527,0.22514649,0.45772704,94.0
547,0.1580596,-0.34509277,-0.2229042,-0.47790527,0.22514649,0.45772704,94.0
548,0.1580596,-0.34509277,-0.2229042,-0.5278198,-0.0021240234,0.0998291,94.0
549,0.5761304,-0.4407959,-0.16775131,-0.5278198,-0.0021240234,0.0998291,94.0
550,0.5761304,-0.4407959,-0.16775131,-0.5501221,-0.14337158,-0.32603762,94.0
551,0.41180754,-0.5249634,0.027236938,-0.5501221,-0.14337158,-0.32603762,94.0
552,0.41180754,-0.5249634,0.027236938,-0.45772704,-0.40462646,-0.7869507,94.0
553,-0.10070515,-0.5587311,0.28683853,-0.45772704,-0.40462646,-0.7869507,94.0
554,-0.10070515,-0.5587311,0.28683853,-0.2347046,-0.6616333,-1.1278565,94.0
555,-0.598423,-0.38420868,0.4087906,-0.2347046,-0.6616333,-1.1278565,94.0
556,-0.598423,-0.38420868,0.4087906,-0.023364259,-0.9345703,-1.44646,94.0
557,-0.6965606,-0.09010315,0.45538712,-0.023364259,-0.9345703,-1.44646,94.0
558,-0.6965606,-0.09010315,0.45538712,0.18585205,-1.3328247,-1.7353271,94.0
559,0.07531977,-0.09169006,0.63609695,0.18585205,-1.3328247,-1.7353271,94.0
560,0.07531977,-0.09169006,0.63609695,0.6839356,-1.7724975,-1.9859619,94.0
561,1.6951437,-0.42687988,1.0238686,0.6839356,-1.7724975,-1.9859619,94.0
562,1.6951437,-0.42687988,1.0238686,1.44115,-1.9530395,-2.1463258,94.0
563,3.2619133,-0.56869507,1.4605865,1.44115,-1.9530395,-2.1463258,94.0
564,3.2619133,-0.56869507,1.4605865,2.0645509,-1.8383423,-2.151636,94.0
565,3.7234468,-0.18972778,1.6896362,2.0645509,-1.8383423,-2.151636,94.0
566,3.7234468,-0.18972778,1.6896362,2.345984,-1.5717773,-1.9721558,94.0
567,2.8378515,0.5231781,1.5911751,2.345984,-1.5717773,-1.9721558,94.0
568,2.8378515,0.5231781,1.5911751,2.3141236,-1.3827393,-1.724707,94.0
569,1.334795,1.2675781,1.2891655,2.3141236,-1.3827393,-1.724707,94.0
570,1.334795,1.2675781,1.2891655,2.0549927,-1.3721192,-1.454956,94.0
571,0.082350254,1.8744507,1.0513992,2.0549927,-1.3721192,-1.454956,94.0
572,0.082350254,1.8744507,1.0513992,1.4836304,-1.3275146,-1.1225464,94.0
573,-0.69517946,2.202919,0.99009323,1.4836304,-1.3275146,-1.1225464,94.0
574,-0.69517946,2.202919,0.99009323,0.65632325,-1.1522827,-0.91120607,94.0
575,-1.1906776,2.1104813,0.9159241,0.65632325,-1.1522827,-0.91120607,94.0
576,-1.1906776,2.1104813,0.9159241,-0.13381349,-1.0152832,-0.7975708,94.0
577,-1.4382601,1.6602707,0.52882385,-0.13381349,-1.0152832,-0.7975708,94.0
578,-1.4382601,1.6602707,0.52882385,-0.68287355,-0.9770508,-0.8219971,94.0
579,-1.3232279,1.1785431,-0.1913681,-0.68287355,-0.9770508,-0.8219971,94.0
580,-1.3232279,1.1785431,-0.1913681,-1.1682129,-0.9303223,-0.82730716,94.0
581,-0.80466366,0.6626358,-0.89497757,-1.1682129,-0.9303223,-0.82730716,94.0
582,-0.80466366,0.6626358,-0.89497757,-1.4347779,-0.78164065,-0.813501,94.0
583,-0.08424616,-0.029670715,-1.1935349,-1.4347779,-0.78164065,-0.813501,94.0
584,-0.08424616,-0.029670715,-1.1935349,-1.3041505,-0.73597413,-0.8878418,94.0
585,0.5083232,-0.53097534,-1.0284729,-1.3041505,-0.73597413,-0.8878418,94.0
586,0.5083232,-0.53097534,-1.0284729,-1.2425537,-0.6945557,-0.99722904,94.0
587,0.9180112,-0.6515274,-0.66962814,-1.2425537,-0.6945557,-0.99722904,94.0
588,0.9180112,-0.6515274,-0.66962814,-1.3115845,-0.5851685,-1.1172364,94.0
589,1.2261205,-0.5859299,-0.33639526,-1.3115845,-0.5851685,-1.1172364,94.0
590,1.2261205,-0.5859299,-0.33639526,-1.3275146,-0.5140137,-1.1650269,94.0
591,1.4067507,-0.48906708,-0.16169739,-1.3275146,-0.5140137,-1.1650269,94.0
592,1.4067507,-0.48906708,-0.16169739,-1.2744141,-0.45029297,-1.1597168,94.0
593,1.3847756,-0.38957214,-0.09841156,-1.2744141,-0.45029297,-1.1597168,94.0
594,1.3847756,-0.38957214,-0.09841156,-1.1193603,-0.40356445,-1.173523,94.0
595,1.1908283,-0.26385498,-0.030426025,-1.1193603,-0.40356445,-1.173523,94.0
596,1.1908283,-0.26385498,-0.030426025,-0.8464233,-0.44179687,-1.1395386,94.0
597,1.0442886,-0.09991455,0.04074478,-0.8464233,-0.44179687,-1.1395386,94.0
598,1.0442886,-0.09991455,0.04074478,-0.48640138,-0.54906005,-1.0386475,94.0
599,1.23349,-0.026062012,0.07255936,-0.48640138,-0.54906005,-1.0386475,94.0
600,1.23349,-0.026062012,0.07255936,-0.047790527,-0.61065674,-0.8857178,94.0
601,1.8260498,-0.11004639,0.07175827,-0.047790527,-0.61065674,-0.8857178,94.0
602,1.8260498,-0.11004639,0.07175827,0.45772704,-0.65844727,-0.75721437,94.0
603,2.6496706,-0.20802307,0.010482788,0.45772704,-0.65844727,-0.75721437,94.0
604,2.6496706,-0.20802307,0.010482788,0.9228882,-0.632959,-0.5734863,94.0
605,3.2949314,-0.10355377,-0.14994049,0.9228882,-0.632959,-0.5734863,94.0
606,3.2949314,-0.10355377,-0.14994049,1.1926392,-0.2548828,-0.3090454,94.0
607,2.9196005,0.42289734,-0.42616653,1.1926392,-0.2548828,-0.3090454,94.0
608,2.9196005,0.42289734,-0.42616653,0.92076415,0.30479738,0.052038576,94.0
609,2.9196005,0.42289734,-0.42616653,0.92076415,0.30479738,0.052038576,93.0
610,1.2951279,1.2356186,-0.5625534,0.92076415,0.30479738,0.052038576,93.0
611,1.2951279,1.2356186,-0.5625534,0.27612305,0.5171997,0.3451538,93.0
612,-0.33679867,1.7496796,-0.33720016,0.27612305,0.5171997,0.3451538,93.0
613,-0.33679867,1.7496796,-0.33720016,-0.33771974,0.45772704,0.5543701,93.0
614,-0.6659107,1.4995728,-0.031467438,-0.33771974,0.45772704,0.5543701,93.0
615,-0.6659107,1.4995728,-0.031467438,-0.6924316,0.3812622,0.7338501,93.0
616,0.043089867,0.57855225,-0.08032608,-0.6924316,0.3812622,0.7338501,93.0
617,0.043089867,0.57855225,-0.08032608,-0.86553955,0.5564942,0.9133301,93.0
618,0.65053654,-0.47766113,-0.44420624,-0.86553955,0.5564942,0.9133301,93.0
619,0.65053654,-0.47766113,-0.44420624,-0.74022216,0.67225343,0.9218262,93.0
620,0.74022865,-1.1811905,-0.7951126,-0.74022216,0.67225343,0.9218262,93.0
621,0.74022865,-1.1811905,-0.7951126,-0.40356445,0.74022216,0.9674927,93.0
622,0.47737598,-1.382843,-0.9238243,-0.40356445,0.74022216,0.9674927,93.0
623,0.47737598,-1.382843,-0.9238243,0.03717041,0.96643066,1.0386475,93.0
624,-0.13173485,-1.2344971,-0.7161598,0.03717041,0.96643066,1.0386475,93.0
625,-0.13173485,-1.2344971,-0.7161598,0.54375,1.1055542,1.1066163,93.0
626,-0.92953396,-0.86429596,-0.28064346,0.54375,1.1055542,1.1066163,93.0
627,-0.92953396,-0.86429596,-0.28064346,0.90908206,1.0726318,1.1862671,93.0
628,-1.5316162,-0.3371277,0.12236023,0.90908206,1.0726318,1.1862671,93.0
629,-1.5316162,-0.3371277,0.12236023,0.9717407,1.1342286,1.3083985,93.0
630,-1.889514,0.1589508,0.27010727,0.9717407,1.1342286,1.3083985,93.0
631,-1.889514,0.1589508,0.27010727,0.80394286,1.2765381,1.4092896,93.0
632,-2.2421408,0.37644958,0.16752625,0.80394286,1.2765381,1.4092896,93.0
633,-2.2421408,0.37644958,0.16752625,0.5649902,1.3391968,1.5144287,93.0
634,-2.5625238,0.28515625,-0.025745392,0.5649902,1.3391968,1.5144287,93.0
635,-2.5625238,0.28515625,-0.025745392,0.3355957,1.2935303,1.5717773,93.0
636,-2.5536203,0.055992126,-0.16553116,0.3355957,1.2935303,1.5717773,93.0
637,-2.5536203,0.055992126,-0.16553116,0.095581055,1.2436157,1.6025757,93.0
638,-2.1440682,-0.15054321,-0.23349762,0.095581055,1.2436157,1.6025757,93.0
639,-2.1440682,-0.15054321,-0.23349762,-0.19541016,1.2914063,1.5993897,93.0
640,-1.674849,-0.37436676,-0.2778015,-0.19541016,1.2914063,1.5993897,93.0
641,-1.674849,-0.37436676,-0.2778015,-0.34727785,1.3381348,1.5271729,93.0
642,-1.458849,-0.6112747,-0.29906082,-0.34727785,1.3381348,1.5271729,93.0
643,-1.458849,-0.6112747,-0.29906082,-0.3069214,1.2882203,1.5229248,93.0
644,-1.4055557,-0.71403503,-0.27771378,-0.3069214,1.2882203,1.5229248,93.0
645,-1.4055557,-0.71403503,-0.27771378,-0.18903808,1.178833,1.4687623,93.0
646,-1.3232608,-0.629982,-0.27262497,-0.18903808,1.178833,1.4687623,93.0
647,-1.3232608,-0.629982,-0.27262497,-0.15186767,1.1363525,1.3976074,93.0
648,-1.2476592,-0.4765091,-0.2824669,-0.15186767,1.1363525,1.3976074,93.0
649,-1.2476592,-0.4765091,-0.2824669,-0.17735596,1.0620117,1.3222046,93.0
650,-1.2167921,-0.3802719,-0.2579918,-0.17735596,1.0620117,1.3222046,93.0
651,-1.2167921,-0.3802719,-0.2579918,-0.22196046,0.90270996,1.1915772,93.0
652,-1.0425134,-0.37799072,-0.20943451,-0.22196046,0.90270996,1.1915772,93.0
653,-1.0425134,-0.37799072,-0.20943451,-0.28674316,0.64782715,1.0174073,93.0
654,-0.50650835,-0.44128418,-0.17085648,-0.28674316,0.64782715,1.0174073,93.0
655,-0.50650835,-0.44128418,-0.17085648,-0.36851808,0.3993164,0.77951664,93.0
656,0.2848444,-0.5600815,-0.15845108,-0.36851808,0.3993164,0.77951664,93.0
657,0.2848444,-0.5600815,-0.15845108,-0.43754885,0.20921631,0.5033936,93.0
658,0.8980169,-0.65058136,-0.15396881,-0.43754885,0.20921631,0.5033936,93.0
659,0.8980169,-0.65058136,-0.15396881,-0.50233155,0.08071289,0.20921631,93.0
660,0.9747,-0.6296158,-0.09893036,-0.50233155,0.08071289,0.20921631,93.0
661,0.9747,-0.6296158,-0.09893036,-0.5363159,-0.07646485,-0.12213135,93.0
662,0.5088496,-0.5289459,0.094062805,-0.5363159,-0.07646485,-0.12213135,93.0
663,0.5088496,-0.5289459,0.094062805,-0.43967286,-0.2803711,-0.42374268,93.0
664,-0.2826543,-0.41549683,0.37399292,-0.43967286,-0.2803711,-0.42374268,93.0
665,-0.2826543,-0.41549683,0.37399292,-0.22727051,-0.47684327,-0.66588134,93.0
666,-1.106812,-0.27441406,0.6154556,-0.22727051,-0.47684327,-0.66588134,93.0
667,-1.106812,-0.27441406,0.6154556,0.0,-0.72854006,-0.8782837,93.0
668,-1.5861821,-0.16035461,0.73540497,0.0,-0.72854006,-0.8782837,93.0
669,-1.5861821,-0.16035461,0.73540497,0.2782471,-1.0651978,-1.0163453,93.0
670,-1.272852,-0.24476624,0.8464546,0.2782471,-1.0651978,-1.0163453,93.0
671,-1.272852,-0.24476624,0.8464546,0.87191164,-1.44646,-1.083252,93.0
672,-0.11797619,-0.47131348,1.0795212,0.87191164,-1.44646,-1.083252,93.0
673,-0.11797619,-0.47131348,1.0795212,1.713025,-1.6992188,-1.1044922,93.0
674,1.2991614,-0.4777527,1.3398743,1.713025,-1.6992188,-1.1044922,93.0
675,1.2991614,-0.4777527,1.3398743,2.3714721,-1.7820557,-1.0577637,93.0
676,2.3146586,-0.07254028,1.4184952,2.3714721,-1.7820557,-1.0577637,93.0
677,2.3146586,-0.07254028,1.4184952,2.6741455,-1.7332032,-0.97492677,93.0
678,2.6233945,0.5290146,1.2505188,2.6741455,-1.7332032,-0.97492677,93.0
679,2.6233945,0.5290146,1.2505188,2.707068,-1.5558472,-0.8527954,93.0
680,2.137363,1.0900574,1.0422211,2.707068,-1.5558472,-0.8527954,93.0
681,2.137363,1.0900574,1.0422211,2.4628053,-1.3466309,-0.70305175,93.0
682,1.0435085,1.5591354,1.0732803,2.4628053,-1.3466309,-0.70305175,93.0
683,1.0435085,1.5591354,1.0732803,1.9073731,-1.1501588,-0.55543214,93.0
684,-0.24547863,1.9252319,1.361103,1.9073731,-1.1501588,-0.55543214,93.0
685,-0.24547863,1.9252319,1.361103,1.1331666,-0.9855469,-0.4067505,93.0
686,-1.2547932,2.1222687,1.5512352,1.1331666,-0.9855469,-0.4067505,93.0
687,-1.2547932,2.1222687,1.5512352,0.42374268,-0.85491943,-0.26550293,93.0
688,-1.7275772,2.350853,1.5590515,0.42374268,-0.85491943,-0.26550293,93.0
689,-1.7275772,2.350853,1.5590515,-0.81243896,-0.9611206,-0.24532472,93.0
690,-1.6012516,3.1605377,1.4916115,-0.81243896,-0.9611206,-0.24532472,93.0
691,-1.6012516,3.1605377,1.4916115,-4.51355,-0.38551027,-0.2357666,93.0
692,-0.9228716,2.59552,0.6580467,-4.51355,-0.38551027,-0.2357666,93.0
693,-0.9228716,2.59552,0.6580467,-7.051758,0.51826173,0.010620117,93.0
694,-0.39537716,-1.0012054,-1.1254692,-7.051758,0.51826173,0.010620117,93.0
695,-0.39537716,-1.0012054,-1.1254692,-6.2786136,0.56605226,0.08920898,93.0
696,-0.7141533,-4.8288956,-2.5127296,-6.2786136,0.56605226,0.08920898,93.0
697,-0.7141533,-4.8288956,-2.5127296,-3.4972045,0.23045655,-0.13487549,93.0
698,-1.3216524,-5.6972504,-2.832817,-3.4972045,0.23045655,-0.13487549,93.0
699,-1.3216524,-5.6972504,-2.832817,-0.9483765,-0.057348635,-0.47578126,93.0
700,-1.4291239,-3.7592392,-2.5319138,-0.9483765,-0.057348635,-0.47578126,93.0
701,-1.4291239,-3.7592392,-2.5319138,1.0620117,-0.2442627,-0.63933104,93.0
702,-1.0930915,-1.3253403,-2.0485077,1.0620117,-0.2442627,-0.63933104,93.0
703,-1.0930915,-1.3253403,-2.0485077,2.5881226,-0.45347902,-0.8092529,93.0
704,-0.6192975,0.15576935,-1.3470001,2.5881226,-0.45347902,-0.8092529,93.0
705,-0.6192975,0.15576935,-1.3470001,3.6427002,-0.70305175,-0.91757816,93.0
706,0.056051254,0.78952026,-0.5315552,3.6427002,-0.70305175,-0.91757816,93.0
707,0.056051254,0.78952026,-0.5315552,4.054761,-0.9451904,-1.0821899,93.0
708,1.0102463,1.0697632,0.16576004,4.054761,-0.9451904,-1.0821899,93.0
709,1.0102463,1.0697632,0.16576004,3.9464357,-1.0418335,-1.2000732,93.0
710,2.058783,1.0885773,0.69760895,3.9464357,-1.0418335,-1.2000732,93.0
711,2.058783,1.0885773,0.69760895,3.5821655,-1.1076783,-1.3147706,93.0
712,3.136199,0.8724518,1.2004433,3.5821655,-1.1076783,-1.3147706,93.0
713,3.136199,0.8724518,1.2004433,3.1488647,-1.1724609,-1.4284058,93.0
714,4.2887077,0.68058014,1.6599274,3.1488647,-1.1724609,-1.4284058,93.0
715,4.2887077,0.68058014,1.6599274,2.6210449,-1.1161743,-1.454956,93.0
716,5.159958,0.7062988,1.8255119,2.6210449,-1.1161743,-1.454956,93.0
717,5.159958,0.7062988,1.8255119,1.8638306,-0.6637573,-1.2584839,93.0
718,5.159958,0.7062988,1.8255119,1.8638306,-0.6637573,-1.2584839,93.0
719,4.740308,0.8487778,1.610714,1.8638306,-0.6637573,-1.2584839,93.0
720,4.740308,0.8487778,1.610714,0.91864014,0.008496094,-0.9218262,93.0
721,2.7745218,0.9553375,1.3202705,0.91864014,0.008496094,-0.9218262,93.0
722,2.7745218,0.9553375,1.3202705,0.18479005,0.19328614,-0.5384399,93.0
723,0.70761776,1.0376358,1.1756516,0.18479005,0.19328614,-0.5384399,93.0
724,0.70761776,1.0376358,1.1756516,-0.20072022,0.0180542,-0.1083252,93.0
725,0.0013237,0.98306274,1.0346375,-0.20072022,0.0180542,-0.1083252,93.0
726,0.0013237,0.98306274,1.0346375,-0.2623169,-0.03079834,0.25063476,93.0
727,0.28350544,0.586853,0.66420746,-0.2623169,-0.03079834,0.25063476,93.0
728,0.28350544,0.586853,0.66420746,-0.25594482,0.1178833,0.5915405,93.0
729,0.37797546,-0.13331604,0.14409637,-0.25594482,0.1178833,0.5915405,93.0
730,0.37797546,-0.13331604,0.14409637,-0.07327881,0.19116211,0.7986328,93.0
731,0.114245415,-0.84143066,-0.23421097,-0.07327881,0.19116211,0.7986328,93.0
732,0.114245415,-0.84143066,-0.23421097,0.3812622,0.20921631,0.9218262,93.0
733,-0.14930248,-1.1273117,-0.26533508,0.3812622,0.20921631,0.9218262,93.0
734,-0.14930248,-1.1273117,-0.26533508,0.84536135,0.37701416,0.991919,93.0
735,-0.39364815,-0.96222687,0.051792145,0.84536135,0.37701416,0.991919,93.0
736,-0.39364815,-0.96222687,0.051792145,1.1682129,0.54693604,0.99935305,93.0
737,-0.7329359,-0.60541534,0.46069336,1.1682129,0.54693604,0.99935305,93.0
738,-0.7329359,-0.60541534,0.46069336,1.3487549,0.6754395,1.0014771,93.0
739,-1.213644,-0.21530151,0.68849945,1.3487549,0.6754395,1.0014771,93.0
740,-1.213644,-0.21530151,0.68849945,1.3880494,0.83686525,1.0322754,93.0
741,-1.8364305,0.17310333,0.698761,1.3880494,0.83686525,1.0322754,93.0
742,-1.8364305,0.17310333,0.698761,1.26698,0.96643066,1.0917481,93.0
743,-2.432291,0.49214172,0.5916252,1.26698,0.96643066,1.0917481,93.0
744,-2.432291,0.49214172,0.5916252,1.0333375,1.0142212,1.1278565,93.0
745,-2.7054882,0.625267,0.4596901,1.0333375,1.0142212,1.1278565,93.0
746,-2.7054882,0.625267,0.4596901,0.7072998,1.0790039,1.1512207,93.0
747,-2.6039658,0.5380554,0.2841339,0.7072998,1.0790039,1.1512207,93.0
748,-2.6039658,0.5380554,0.2841339,0.36427003,1.170337,1.1597168,93.0
749,-2.346869,0.29956055,0.069992065,0.36427003,1.170337,1.1597168,93.0
750,-2.346869,0.29956055,0.069992065,0.07965088,1.2468017,1.1915772,93.0
751,-2.1329393,0.021499634,-0.11463547,0.07965088,1.2468017,1.1915772,93.0
752,-2.1329393,0.021499634,-0.11463547,-0.08071289,1.273352,1.1926392,93.0
753,-1.8813148,-0.15911865,-0.23295593,-0.08071289,1.273352,1.1926392,93.0
754,-1.8813148,-0.15911865,-0.23295593,-0.14974366,1.269104,1.176709,93.0
755,-1.6757545,-0.27427673,-0.31385422,-0.14974366,1.269104,1.176709,93.0
756,-1.6757545,-0.27427673,-0.31385422,-0.15080567,1.2202514,1.1490967,93.0
757,-1.38378,-0.2934723,-0.35803986,-0.15080567,1.2202514,1.1490967,93.0
758,-1.38378,-0.2934723,-0.35803986,-0.16248779,1.1437867,1.075818,93.0
759,-0.9850149,-0.29400635,-0.34430695,-0.16248779,1.1437867,1.075818,93.0
760,-0.9850149,-0.29400635,-0.34430695,-0.23045655,1.0598878,0.9685547,93.0
761,-0.48076105,-0.33343506,-0.3194275,-0.23045655,1.0598878,0.9685547,93.0
762,-0.48076105,-0.33343506,-0.3194275,-0.38657227,0.9568726,0.84111327,93.0
763,0.1072855,-0.41794586,-0.32611084,-0.38657227,0.9568726,0.84111327,93.0
764,0.1072855,-0.41794586,-0.32611084,-0.60109866,0.813501,0.6754395,93.0
765,0.8160167,-0.5506897,-0.39808273,-0.60109866,0.813501,0.6754395,93.0
766,0.8160167,-0.5506897,-0.39808273,-0.8729736,0.62764895,0.44816896,93.0
767,1.5580134,-0.66459656,-0.55133057,-0.8729736,0.62764895,0.44816896,93.0
768,1.5580134,-0.66459656,-0.55133057,-1.1161743,0.52675784,0.2538208,93.0
769,1.9236445,-0.73791504,-0.68748856,-1.1161743,0.52675784,0.2538208,93.0
770,1.9236445,-0.73791504,-0.68748856,-1.3115845,0.48533937,0.07434082,93.0
771,1.5186396,-0.7486191,-0.68076324,-1.3115845,0.48533937,0.07434082,93.0
772,1.5186396,-0.7486191,-0.68076324,-1.3487549,0.3727661,-0.14655761,93.0
773,0.25561,-0.64234924,-0.49435425,-1.3487549,0.3727661,-0.14655761,93.0
774,0.25561,-0.64234924,-0.49435425,-1.2499878,0.2442627,-0.22833252,93.0
775,-1.4031291,-0.43437195,-0.2107315,-1.2499878,0.2442627,-0.22833252,93.0
776,-1.4031291,-0.43437195,-0.2107315,-1.0630738,-0.06690674,-0.29736328,93.0
777,-2.6015072,-0.122413635,-0.0317688,-1.0630738,-0.06690674,-0.29736328,93.0
778,-2.6015072,-0.122413635,-0.0317688,-0.83686525,-0.5607422,-0.36108398,93.0
779,-2.5926318,0.087516785,0.030433655,-0.83686525,-0.5607422,-0.36108398,93.0
780,-2.5926318,0.087516785,0.030433655,-0.37595215,-1.1395386,-0.4354248,93.0
781,-1.2846646,-0.0690918,0.20335007,-0.37595215,-1.1395386,-0.4354248,93.0
782,-1.2846646,-0.0690918,0.20335007,0.5065796,-1.5261109,-0.49277344,93.0
783,0.4392972,-0.31903076,0.55766296,0.5065796,-1.5261109,-0.49277344,93.0
784,0.4392972,-0.31903076,0.55766296,1.5154908,-1.629126,-0.53100586,93.0
785,13597.752,-26149.588,7715.7534,1.5154908,-1.629126,-0.53100586,93.0
786,13597.752,-26149.588,7715.7534,2.2312868,-1.6429322,-0.5129517,93.0
787,-2718.0386,5230.134,-1541.8419,2.2312868,-1.6429322,-0.5129517,93.0
788,-2718.0386,5230.134,-1541.8419,2.6040528,-1.6737305,-0.4895874,93.0
789,-2174.846,4184.6416,-1233.2805,2.6040528,-1.6737305,-0.4895874,93.0
790,-2174.846,4184.6416,-1233.2805,2.7803466,-1.6471802,-0.49383545,93.0
791,-1740.311,3348.1404,-986.3126,2.7803466,-1.6471802,-0.49383545,93.0
792,-1740.311,3348.1404,-986.3126,2.8483155,-1.5526612,-0.4970215,93.0
793,-1392.5059,2678.8022,-788.183,2.8483155,-1.5526612,-0.4970215,93.0
794,-1392.5059,2678.8022,-788.183,2.974695,-1.2967163,-0.4598511,93.0
795,-1114.2776,2143.551,-629.4377,2.974695,-1.2967163,-0.4598511,93.0
796,-1114.2776,2143.551,-629.4377,2.5509522,-1.1469727,-0.42055663,93.0
797,-891.833,1715.7428,-502.93857,2.5509522,-1.1469727,-0.42055663,93.0
798,-891.833,1715.7428,-502.93857,1.4783204,-1.0556396,-0.3345337,93.0
799,-713.6237,1373.1934,-402.3833,1.4783204,-1.0556396,-0.3345337,93.0
800,-713.6237,1373.1934,-402.3833,0.4800293,-0.8857178,-0.46409914,93.0
801,-570.5596,1098.6062,-321.98895,0.4800293,-0.8857178,-0.46409914,93.0
802,-570.5596,1098.6062,-321.98895,-0.20178223,-0.7126099,-0.6159668,93.0
803,-455.87936,878.5353,-257.32443,-0.20178223,-0.7126099,-0.6159668,93.0
804,-455.87936,878.5353,-257.32443,-0.4343628,-0.47896728,-0.5522461,93.0
805,-364.13705,701.91644,-205.30417,-0.4343628,-0.47896728,-0.5522461,93.0
806,-364.13705,701.91644,-205.30417,0.13275146,-0.38444826,-0.4970215,93.0
807,-290.76288,560.3964,-163.30038,0.13275146,-0.38444826,-0.4970215,93.0
808,-290.76288,560.3964,-163.30038,0.6244629,-0.17416993,-0.35789797,93.0
809,-232.04562,447.29926,-129.3714,0.6244629,-0.17416993,-0.35789797,93.0
810,-232.04562,447.29926,-129.3714,1.360437,0.3154175,-0.2166504,93.0
811,-185.36626,357.50464,-102.56703,1.360437,0.3154175,-0.2166504,93.0
812,-185.36626,357.50464,-102.56703,1.3530029,0.59047854,0.038232423,93.0
813,-148.4555,286.47913,-81.826904,1.3530029,0.59047854,0.038232423,93.0
814,-148.4555,286.47913,-81.826904,0.4428589,1.084314,0.64782715,93.0
815,-148.4555,286.47913,-81.826904,0.4428589,1.084314,0.64782715,93.0
816,-118.72938,229.33678,-65.36212,0.4428589,1.084314,0.64782715,93.0
817,-118.72938,229.33678,-65.36212,-0.28461915,1.5271729,1.1618408,93.0
818,-94.58084,182.94385,-51.933083,-0.28461915,1.5271729,1.1618408,93.0
819,-94.58084,182.94385,-51.933083,-0.5692383,1.8617066,1.725769,93.0
820,-75.403366,145.53749,-41.25975,-0.5692383,1.8617066,1.725769,93.0
821,-75.403366,145.53749,-41.25975,-0.98129886,2.2323487,2.3226197,93.0
822,-60.588005,115.05052,-33.10891,-0.98129886,2.2323487,2.3226197,93.0
823,-60.588005,115.05052,-33.10891,-1.350879,2.5785644,2.8557496,93.0
824,-49.110577,89.92691,-26.822678,-1.350879,2.5785644,2.8557496,93.0
825,-49.110577,89.92691,-26.822678,-1.0736939,2.7792847,3.1063843,93.0
826,-40.066902,69.74779,-21.741287,-1.0736939,2.7792847,3.1063843,93.0
827,-40.066902,69.74779,-21.741287,-0.0010620117,2.9630127,3.3081665,93.0
828,-33.065704,54.803925,-17.530235,-0.0010620117,2.9630127,3.3081665,93.0
829,-33.065704,54.803925,-17.530235,1.0418335,3.1934693,3.529065,93.0
830,-27.783178,44.57263,-14.027931,1.0418335,3.1934693,3.529065,93.0
831,-27.783178,44.57263,-14.027931,1.3753052,3.448352,3.7605836,93.0
832,-23.720245,36.839905,-11.207512,1.3753052,3.448352,3.7605836,93.0
833,-23.720245,36.839905,-11.207512,1.3381348,3.5694215,3.9634278,93.0
834,-20.491894,29.989532,-9.1510315,1.3381348,3.5694215,3.9634278,93.0
835,-20.491894,29.989532,-9.1510315,1.4050416,3.6586304,4.145032,93.0
836,-17.861288,24.314041,-7.809143,1.4050416,3.6586304,4.145032,93.0
837,-17.861288,24.314041,-7.809143,1.6121339,3.7892578,4.1652102,93.0
838,-15.696818,20.09945,-6.862499,1.6121339,3.7892578,4.1652102,93.0
839,-15.696818,20.09945,-6.862499,1.6747925,3.894397,4.248047,93.0
840,-13.978708,16.800705,-6.0757027,1.6747925,3.894397,4.248047,93.0
841,-13.978708,16.800705,-6.0757027,1.3657471,4.0218387,4.4827514,93.0
842,-12.760334,14.157127,-5.566765,1.3657471,4.0218387,4.4827514,93.0
843,-12.760334,14.157127,-5.566765,1.0216553,4.0260863,4.5677123,93.0
844,-11.896501,12.34301,-5.2500076,1.0216553,4.0260863,4.5677123,93.0
845,-11.896501,12.34301,-5.2500076,0.7083618,3.9198854,4.6686034,93.0
846,-11.014881,11.194801,-4.823101,0.7083618,3.9198854,4.6686034,93.0
847,-11.014881,11.194801,-4.823101,0.541626,3.9379394,4.8257813,93.0
848,-10.0362215,10.449097,-4.3046265,0.541626,3.9379394,4.8257813,93.0
849,-10.0362215,10.449097,-4.3046265,0.36851808,3.810498,4.984021,93.0
850,-9.119566,10.303154,-3.9986343,0.36851808,3.810498,4.984021,93.0
851,-9.119566,10.303154,-3.9986343,-0.2793091,3.6745605,5.085974,93.0
852,-8.224205,10.342827,-4.1683884,-0.2793091,3.6745605,5.085974,93.0
853,-8.224205,10.342827,-4.1683884,-1.1278565,3.6628785,5.25271,93.0
854,-7.2936344,9.672806,-4.593914,-1.1278565,3.6628785,5.25271,93.0
855,-7.2936344,9.672806,-4.593914,-1.544165,3.5035768,5.3875856,93.0
856,-6.4848337,8.523987,-4.8320274,-1.544165,3.5035768,5.3875856,93.0
857,-6.4848337,8.523987,-4.8320274,-1.5919555,3.1520507,5.440686,93.0
858,-5.849452,7.668396,-4.703392,-1.5919555,3.1520507,5.440686,93.0
859,-5.849452,7.668396,-4.703392,-1.8394043,2.8674316,5.4852905,93.0
860,-5.236227,7.4537888,-4.3194885,-1.8394043,2.8674316,5.4852905,93.0
861,-5.236227,7.4537888,-4.3194885,-2.1017213,2.5700684,5.363159,93.0
862,-4.473198,7.50029,-3.823948,-2.1017213,2.5700684,5.363159,93.0
863,-4.473198,7.50029,-3.823948,-2.34386,2.347046,5.336609,93.0
864,-3.5396786,7.218979,-3.4477577,-2.34386,2.347046,5.336609,93.0
865,-3.5396786,7.218979,-3.4477577,-2.3980224,2.0114503,5.2888184,93.0
866,-2.6198044,6.711899,-3.2334862,-2.3980224,2.0114503,5.2888184,93.0
867,-2.6198044,6.711899,-3.2334862,-2.2886353,1.7353271,5.239966,93.0
868,-1.8929253,6.366005,-2.7996445,-2.2886353,1.7353271,5.239966,93.0
869,-1.8929253,6.366005,-2.7996445,-2.51803,1.5526612,5.2123537,93.0
870,-1.3821373,6.3373337,-2.026497,-2.51803,1.5526612,5.2123537,93.0
871,-1.3821373,6.3373337,-2.026497,-2.7442384,1.3264526,4.9351687,93.0
872,-0.8422451,6.533966,-1.0428772,-2.7442384,1.3264526,4.9351687,93.0
873,-0.8422451,6.533966,-1.0428772,-3.1116943,1.1809571,4.6643558,93.0
874,-0.16151619,6.809181,-0.15799332,-3.1116943,1.1809571,4.6643558,93.0
875,-0.16151619,6.809181,-0.15799332,-3.6979249,1.0248413,4.443457,93.0
876,0.4312477,6.8558884,0.46574402,-3.6979249,1.0248413,4.443457,93.0
877,0.4312477,6.8558884,0.46574402,-4.1758304,0.82836914,4.171582,93.0
878,0.6730995,6.1901894,1.2519531,-4.1758304,0.82836914,4.171582,93.0
879,0.6730995,6.1901894,1.2519531,-4.4466434,0.6595093,4.0144043,93.0
880,0.71171,5.150028,2.4937134,-4.4466434,0.6595093,4.0144043,93.0
881,0.71171,5.150028,2.4937134,-4.169458,0.31329346,3.719165,93.0
882,1.0200768,4.679325,3.5015106,-4.169458,0.31329346,3.719165,93.0
883,1.0200768,4.679325,3.5015106,-3.7733276,-0.10195313,3.43136,93.0
884,1.6647434,4.576702,3.6473274,-3.7733276,-0.10195313,3.43136,93.0
885,1.6647434,4.576702,3.6473274,-3.3846314,-0.38338622,3.3134766,93.0
886,2.2649498,3.9716759,3.584587,-3.3846314,-0.38338622,3.3134766,93.0
887,2.2649498,3.9716759,3.584587,-2.9534547,-0.4715332,3.059656,93.0
888,2.679453,2.909031,4.001766,-2.9534547,-0.4715332,3.059656,93.0
889,2.679453,2.909031,4.001766,-2.9184082,-0.42692873,2.6348512,93.0
890,2.9550123,1.7091331,4.5472374,-2.9184082,-0.42692873,2.6348512,93.0
891,2.9550123,1.7091331,4.5472374,-3.245508,-0.26125488,2.0475585,93.0
892,2.9941616,0.37309265,4.58358,-3.245508,-0.26125488,2.0475585,93.0
893,2.9941616,0.37309265,4.58358,-3.259314,-0.1083252,1.6546143,93.0
894,2.6345873,-0.818985,3.8975906,-3.259314,-0.1083252,1.6546143,93.0
895,2.6345873,-0.818985,3.8975906,-2.6051147,-0.058410645,1.3094605,93.0
896,2.1353436,-1.5749626,3.0603447,-2.6051147,-0.058410645,1.3094605,93.0
897,2.1353436,-1.5749626,3.0603447,-2.1038454,0.040356446,1.0906861,93.0
898,1.8948717,-1.8163643,2.67844,-2.1038454,0.040356446,1.0906861,93.0
899,1.8948717,-1.8163643,2.67844,-1.9647217,0.13062744,0.87615967,93.0
900,1.6912508,-1.7606735,2.4972076,-1.9647217,0.13062744,0.87615967,93.0
901,1.6912508,-1.7606735,2.4972076,-2.0677369,0.17841797,0.8007569,93.0
902,1.5478859,-1.9884071,2.1389275,-2.0677369,0.17841797,0.8007569,93.0
903,1.5478859,-1.9884071,2.1389275,-1.991272,0.14124756,0.6903076,93.0
904,1.2672033,-1.9700584,1.5484085,-1.991272,0.14124756,0.6903076,93.0
905,1.2672033,-1.9700584,1.5484085,-1.7278931,0.07540283,0.6977417,93.0
906,1.1900196,-1.9703102,0.03017044,-1.7278931,0.07540283,0.6977417,93.0
907,1.1900196,-1.9703102,0.03017044,-0.63720703,-0.083898924,0.62977296,93.0
908,1.2547016,-1.4493675,-0.05871582,-0.63720703,-0.083898924,0.62977296,93.0
909,1.2547016,-1.4493675,-0.05871582,-0.4694092,-0.11682129,0.5341919,93.0
910,1.985939,-0.15422058,0.72922516,-0.4694092,-0.11682129,0.5341919,93.0
911,1.985939,-0.15422058,0.72922516,-0.48321533,-0.0180542,0.4343628,93.0
912,1.7722235,-0.061073303,0.9158745,-0.48321533,-0.0180542,0.4343628,93.0
913,1.7722235,-0.061073303,0.9158745,-0.3451538,0.014868164,0.42905274,93.0
914,1.2003231,-0.4623947,0.9441376,-0.3451538,0.014868164,0.42905274,93.0
915,1.2003231,-0.4623947,0.9441376,0.26550293,0.1263794,0.61065674,93.0
916,0.81665516,-0.4676094,0.6039276,0.26550293,0.1263794,0.61065674,93.0
917,0.81665516,-0.4676094,0.6039276,0.4354248,0.1274414,0.7412842,93.0
918,0.27792168,-0.13898087,0.247715,0.4354248,0.1274414,0.7412842,93.0
919,0.27792168,-0.13898087,0.247715,0.6446411,0.0,0.83686525,93.0
920,0.27792168,-0.13898087,0.247715,0.6446411,0.0,0.83686525,93.0
921,0.28868294,0.23791122,0.21670151,0.6446411,0.0,0.83686525,93.0
922,0.28868294,0.23791122,0.21670151,0.5256958,-0.008496094,0.87403566,93.0
923,0.43532848,1.0808716,0.5031967,0.5256958,-0.008496094,0.87403566,93.0
924,0.43532848,1.0808716,0.5031967,0.33134767,-0.118945315,0.8814697,93.0
925,0.47268867,0.95108795,0.4182167,0.33134767,-0.118945315,0.8814697,93.0
926,0.47268867,0.95108795,0.4182167,0.49171144,-0.15611573,0.815625,93.0
927,0.5445452,0.9774246,0.30931854,0.49171144,-0.15611573,0.815625,93.0
928,0.5445452,0.9774246,0.30931854,0.7072998,-0.22514649,0.6966797,93.0
929,0.72872734,1.3258591,0.36549377,0.7072998,-0.22514649,0.6966797,93.0
930,0.72872734,1.3258591,0.36549377,0.7880127,-0.14337158,0.44923097,93.0
931,0.96572113,1.5941811,0.94739914,0.7880127,-0.14337158,0.44923097,93.0
932,0.96572113,1.5941811,0.94739914,0.84748536,0.13912354,-0.08602295,93.0
933,0.84977436,1.4487457,1.8437119,0.84748536,0.13912354,-0.08602295,93.0
934,0.84977436,1.4487457,1.8437119,0.8050049,0.57561034,-0.31966552,93.0
935,0.18737602,0.9619026,2.1571617,0.8050049,0.57561034,-0.31966552,93.0
936,0.18737602,0.9619026,2.1571617,0.86978763,0.7965088,-0.41099855,93.0
937,-0.7436781,0.93013,1.591404,0.86978763,0.7965088,-0.41099855,93.0
938,-0.7436781,0.93013,1.591404,1.0683838,0.87191164,-0.36745605,93.0
939,-2.139474,2.590538,0.2765808,1.0683838,0.87191164,-0.36745605,93.0
940,-2.139474,2.590538,0.2765808,0.09664307,0.8644776,-0.36002198,93.0
941,-2.21319,2.855133,-0.1739006,0.09664307,0.8644776,-0.36002198,93.0
942,-2.21319,2.855133,-0.1739006,-0.4354248,0.8814697,-0.47896728,93.0
943,-2.4013872,3.4020996,-1.0858612,-0.4354248,0.8814697,-0.47896728,93.0
944,-2.4013872,3.4020996,-1.0858612,-1.5654052,0.9398804,-0.5533081,93.0
945,-2.550871,2.5832787,-1.9482536,-1.5654052,0.9398804,-0.5533081,93.0
946,-2.550871,2.5832787,-1.9482536,-1.7416992,0.7391602,-0.4322388,93.0
947,-2.6341906,1.1488495,-2.456787,-1.7416992,0.7391602,-0.4322388,93.0
948,-2.6341906,1.1488495,-2.456787,-1.5218629,0.48746338,-0.5894165,93.0
949,-2.4012365,0.7265129,-1.6198349,-1.5218629,0.48746338,-0.5894165,93.0
950,-2.4012365,0.7265129,-1.6198349,-2.0496826,0.58623046,-0.8973999,93.0
951,-1.9382133,1.2855568,0.64315796,-2.0496826,0.58623046,-0.8973999,93.0
952,-1.9382133,1.2855568,0.64315796,-3.8742187,1.0301514,-1.1607789,93.0
953,-1.5552578,-0.45567322,1.6820908,-3.8742187,1.0301514,-1.1607789,93.0
954,-1.5552578,-0.45567322,1.6820908,-3.9283814,1.0991821,-0.79013675,93.0
955,-1.8470383,-4.0857086,0.44635773,-3.9283814,1.0991821,-0.79013675,93.0
956,-1.8470383,-4.0857086,0.44635773,-2.3905885,1.0970582,-1.1990112,93.0
957,-2.390851,-5.5074615,-0.8061218,-2.3905885,1.0970582,-1.1990112,93.0
958,-2.390851,-5.5074615,-0.8061218,-2.4999757,0.73597413,-1.1682129,93.0
959,-2.2556133,-4.9528923,-1.0731964,-2.4999757,0.73597413,-1.1682129,93.0
960,-2.2556133,-4.9528923,-1.0731964,-3.530127,0.54375,-0.99085695,93.0
961,-1.5675278,-5.2329216,-0.79351807,-3.530127,0.54375,-0.99085695,93.0
962,-1.5675278,-5.2329216,-0.79351807,-3.883777,0.35046387,-0.7126099,93.0
963,-0.97577477,-6.7194176,-0.11056137,-3.883777,0.35046387,-0.7126099,93.0
964,-0.97577477,-6.7194176,-0.11056137,-3.25719,0.36002198,-0.5522461,93.0
965,-0.29926014,-7.6438675,0.44651031,-3.25719,0.36002198,-0.5522461,93.0
966,-0.29926014,-7.6438675,0.44651031,-2.526526,0.32497558,-0.22408448,93.0
967,0.3901701,-6.7604675,0.46923065,-2.526526,0.32497558,-0.22408448,93.0
968,0.3901701,-6.7604675,0.46923065,-1.7555054,0.28355715,-0.1709839,93.0
969,0.6912136,-5.330284,0.18190002,-1.7555054,0.28355715,-0.1709839,93.0
970,0.6912136,-5.330284,0.18190002,-1.5781494,0.14761963,0.121069334,93.0
971,0.53223133,-4.530098,-0.0859108,-1.5781494,0.14761963,0.121069334,93.0
972,0.53223133,-4.530098,-0.0859108,-1.2478638,0.038232423,0.30267334,93.0
973,0.23480606,-3.8828201,0.4827118,-1.2478638,0.038232423,0.30267334,93.0
974,0.23480606,-3.8828201,0.4827118,-1.0620117,-0.0031860352,0.45772704,93.0
975,0.3308506,-3.3978195,1.9166985,-1.0620117,-0.0031860352,0.45772704,93.0
976,0.3308506,-3.3978195,1.9166985,0.42055663,0.36320803,0.6244629,93.0
977,0.64154816,-1.7674484,2.111168,0.42055663,0.36320803,0.6244629,93.0
978,0.64154816,-1.7674484,2.111168,1.1214844,0.4333008,0.7943848,93.0
979,0.44983482,0.73210907,0.56489563,1.1214844,0.4333008,0.7943848,93.0
980,0.44983482,0.73210907,0.56489563,0.2262085,0.33240968,0.51932377,93.0
981,0.25297165,1.8911438,-0.44702148,0.2262085,0.33240968,0.51932377,93.0
982,0.25297165,1.8911438,-0.44702148,-0.2177124,0.35683593,0.2548828,93.0
983,0.67185974,1.7935562,-0.10089111,-0.2177124,0.35683593,0.2548828,93.0
984,0.67185974,1.7935562,-0.10089111,-0.5872925,0.5129517,-0.078588866,93.0
985,0.9929199,1.1044159,0.42630386,-0.5872925,0.5129517,-0.078588866,93.0
986,0.9929199,1.1044159,0.42630386,-0.4598511,0.5671143,-0.4694092,93.0
987,0.49991417,0.14253998,0.2247467,-0.4598511,0.5671143,-0.4694092,93.0
988,0.49991417,0.14253998,0.2247467,-0.42905274,0.52888185,-0.6711914,93.0
989,-0.53828907,-0.93281555,0.05303955,-0.42905274,0.52888185,-0.6711914,93.0
990,-0.53828907,-0.93281555,0.05303955,-0.7869507,0.52888185,-0.93350834,93.0
991,-1.3228436,-2.26091,0.6704712,-0.7869507,0.52888185,-0.93350834,93.0
992,-1.3228436,-2.26091,0.6704712,-0.71579593,0.5957886,-1.0322754,93.0
993,-1.5073357,-3.282547,1.1517944,-0.71579593,0.5957886,-1.0322754,93.0
994,-1.5073357,-3.282547,1.1517944,-0.5894165,0.66481936,-1.0036011,93.0
995,-1.1500206,-3.5358505,0.9738159,-0.5894165,0.66481936,-1.0036011,93.0
996,-1.1500206,-3.5358505,0.9738159,-0.19647217,0.7126099,-1.0524536,93.0
997,-0.60279274,-2.9816437,0.23397064,-0.19647217,0.7126099,-1.0524536,93.0
998,-0.60279274,-2.9816437,0.23397064,0.107263185,0.7986328,-0.9515625,93.0
999,-0.5261183,-1.9462967,-1.0403252,0.107263185,0.7986328,-0.9515625,93.0
1000,-0.5261183,-1.9462967,-1.0403252,-0.0063720704,0.8708496,-0.88040775,93.0
1001,-0.8182335,-1.3934402,-1.7948952,-0.0063720704,0.8708496,-0.88040775,93.0
1002,-0.8182335,-1.3934402,-1.7948952,0.28461915,0.8931519,-0.90908206,93.0
1003,-0.9487877,-1.3180084,-1.3322906,0.28461915,0.8931519,-0.90908206,93.0
1004,-0.9487877,-1.3180084,-1.3322906,0.4959595,0.8952759,-0.8326172,93.0
1005,-0.9700165,-1.0587158,-0.33514404,0.4959595,0.8952759,-0.8326172,93.0
1006,-0.9700165,-1.0587158,-0.33514404,0.3717041,0.9791748,-0.813501,93.0
1007,-1.0261116,-0.7030258,0.34970474,0.3717041,0.9791748,-0.813501,93.0
1008,-1.0261116,-0.7030258,0.34970474,0.12000733,1.1501588,-0.67331547,93.0
1009,-1.1138458,-0.49082184,0.1661644,0.12000733,1.1501588,-0.67331547,93.0
1010,-1.1138458,-0.49082184,0.1661644,0.20496826,1.3147706,-0.5957886,93.0
1011,-1.3225822,-0.29682922,-0.9765549,0.20496826,1.3147706,-0.5957886,93.0
1012,-1.3225822,-0.29682922,-0.9765549,0.79013675,1.2850342,-0.5607422,93.0
1013,-1.5387306,0.052955627,-2.3528519,0.79013675,1.2850342,-0.5607422,93.0
1014,-1.5387306,0.052955627,-2.3528519,1.5611572,0.9281983,-0.42161867,93.0
1015,-1.4488792,0.6735916,-2.6903992,1.5611572,0.9281983,-0.42161867,93.0
1016,-1.4488792,0.6735916,-2.6903992,1.5335449,0.6042847,-0.31435546,93.0
1017,-0.97262955,1.5916443,-1.6571503,1.5335449,0.6042847,-0.31435546,93.0
1018,-0.97262955,1.5916443,-1.6571503,0.9366943,0.4885254,-0.3802002,93.0
1019,-0.40244484,2.2071304,-0.32250977,0.9366943,0.4885254,-0.3802002,93.0
1020,-0.40244484,2.2071304,-0.32250977,0.43011475,0.4800293,-0.38657227,93.0
1021,-0.013813019,1.9867706,0.24845123,0.43011475,0.4800293,-0.38657227,93.0
1022,-0.013813019,1.9867706,0.24845123,1.0120972,0.40037844,-0.3727661,93.0
1023,0.1199913,1.5699692,0.08507538,1.0120972,0.40037844,-0.3727661,93.0
1024,0.1199913,1.5699692,0.08507538,1.8829468,0.34090576,-0.32285157,93.0
1025,0.1199913,1.5699692,0.08507538,1.8829468,0.34090576,-0.32285157,94.0
1026,0.049850464,1.8444138,-0.20558548,1.8829468,0.34090576,-0.32285157,94.0
1027,0.049850464,1.8444138,-0.20558548,1.8659546,0.3462158,-0.38975832,94.0
1028,-0.06716347,2.566681,-0.2538452,1.8659546,0.3462158,-0.38975832,94.0
1029,-0.06716347,2.566681,-0.2538452,0.89421386,0.36427003,-0.53525394,94.0
1030,-0.16184807,2.7285538,-0.053222656,0.89421386,0.36427003,-0.53525394,94.0
1031,-0.16184807,2.7285538,-0.053222656,0.07327881,0.362146,-0.6818115,94.0
1032,-0.3389759,1.8598175,0.13490295,0.07327881,0.362146,-0.6818115,94.0
1033,-0.3389759,1.8598175,0.13490295,0.0180542,0.40144044,-0.7519043,94.0
1034,-0.70355415,0.6707611,0.18444824,0.0180542,0.40144044,-0.7519043,94.0
1035,-0.70355415,0.6707611,0.18444824,0.40462646,0.3727661,-0.82836914,94.0
1036,-1.0971584,0.030952454,0.19717789,0.40462646,0.3727661,-0.82836914,94.0
1037,-1.0971584,0.030952454,0.19717789,0.59897465,0.31966552,-0.9366943,94.0
1038,-1.235014,0.0013809204,0.28199768,0.59897465,0.31966552,-0.9366943,94.0
1039,-1.235014,0.0013809204,0.28199768,0.542688,0.2814331,-1.1257324,94.0
1040,-1.1207504,0.15016174,0.43001556,0.542688,0.2814331,-1.1257324,94.0
1041,-1.1207504,0.15016174,0.43001556,0.49489745,0.33771974,-1.3200806,94.0
1042,-1.0386162,0.0742569,0.42529678,0.49489745,0.33771974,-1.3200806,94.0
1043,-1.0386162,0.0742569,0.42529678,0.38869628,0.4248047,-1.5526612,94.0
1044,-1.2100449,-0.3703308,0.08281708,0.38869628,0.4248047,-1.5526612,94.0
1045,-1.2100449,-0.3703308,0.08281708,0.41312256,0.42161867,-1.8054199,94.0
1046,-1.4954033,-1.0084229,-0.60292435,0.41312256,0.42161867,-1.8054199,94.0
1047,-1.4954033,-1.0084229,-0.60292435,0.5883545,0.25806886,-2.071985,94.0
1048,-1.4669151,-1.390892,-1.3425217,0.5883545,0.25806886,-2.071985,94.0
1049,-1.4669151,-1.390892,-1.3425217,0.87615967,-0.050976563,-2.342798,94.0
1050,-1.071846,-1.3088837,-1.7618713,0.87615967,-0.050976563,-2.342798,94.0
1051,-1.071846,-1.3088837,-1.7618713,0.904834,-0.3440918,-2.5828125,94.0
1052,-0.8342209,-1.2071304,-1.8616333,0.904834,-0.3440918,-2.5828125,94.0
1053,-0.8342209,-1.2071304,-1.8616333,0.70092773,-0.51826173,-2.7622926,94.0
1054,-0.88764,-1.5928802,-1.7560806,0.70092773,-0.51826173,-2.7622926,94.0
1055,-0.88764,-1.5928802,-1.7560806,0.57454836,-0.68712157,-3.0044312,94.0
1056,-0.71208954,-2.372757,-1.4874954,0.57454836,-0.68712157,-3.0044312,94.0
1057,-0.71208954,-2.372757,-1.4874954,0.60216063,-1.0110352,-3.161609,94.0
1058,-0.1670227,-3.154396,-1.0807457,0.60216063,-1.0110352,-3.161609,94.0
1059,-0.1670227,-3.154396,-1.0807457,0.7349121,-1.2425537,-3.1573608,94.0
1060,0.26656532,-3.689911,-0.29070663,0.7349121,-1.2425537,-3.1573608,94.0
1061,0.26656532,-3.689911,-0.29070663,1.1671509,-1.355127,-3.2221437,94.0
1062,0.46515656,-3.70504,0.9172363,1.1671509,-1.355127,-3.2221437,94.0
1063,0.46515656,-3.70504,0.9172363,1.7788696,-1.4369019,-3.0352294,94.0
1064,1.0152645,-3.346466,1.953907,1.7788696,-1.4369019,-3.0352294,94.0
1065,1.0152645,-3.346466,1.953907,2.8759277,-1.5951416,-2.3735962,94.0
1066,2.0505295,-2.994873,2.657486,2.8759277,-1.5951416,-2.3735962,94.0
1067,2.0505295,-2.994873,2.657486,3.7457154,-2.170752,-1.544165,94.0
1068,2.7583313,-1.8841705,3.2480202,3.7457154,-2.170752,-1.544165,94.0
1069,2.7583313,-1.8841705,3.2480202,3.3899415,-2.9619508,-0.7189819,94.0
1070,3.008276,0.4255829,3.4574623,3.3899415,-2.9619508,-0.7189819,94.0
1071,3.008276,0.4255829,3.4574623,1.9201173,-2.9821289,-0.07327881,94.0
1072,3.6975384,2.0118027,3.0741272,1.9201173,-2.9821289,-0.07327881,94.0
1073,3.6975384,2.0118027,3.0741272,-0.1083252,-2.5934327,0.53950197,94.0
1074,4.6720448,1.4738541,2.2452545,-0.1083252,-2.5934327,0.53950197,94.0
1075,4.6720448,1.4738541,2.2452545,-1.4783204,-2.537146,1.1321045,94.0
1076,4.9088764,-0.6218796,1.3292847,-1.4783204,-2.537146,1.1321045,94.0
1077,4.9088764,-0.6218796,1.3292847,-2.7283082,-2.3130615,1.8202881,94.0
1078,4.0903454,-2.7851639,0.6860008,-2.7283082,-2.3130615,1.8202881,94.0
1079,4.0903454,-2.7851639,0.6860008,-3.1892211,-2.1165893,2.166504,94.0
1080,2.785655,-3.6426315,0.30986023,-3.1892211,-2.1165893,2.166504,94.0
1081,2.785655,-3.6426315,0.30986023,-3.0405395,-2.3236816,2.436255,94.0
1082,1.8155241,-3.3404083,-0.07810211,-3.0405395,-2.3236816,2.436255,94.0
1083,1.8155241,-3.3404083,-0.07810211,-2.6698976,-2.5477662,2.7697265,94.0
1084,1.7064228,-2.8788834,-0.43819046,-2.6698976,-2.5477662,2.7697265,94.0
1085,1.7064228,-2.8788834,-0.43819046,-2.0252564,-2.5775025,3.0543458,94.0
1086,2.190321,-2.576973,-0.41426086,-2.0252564,-2.5775025,3.0543458,94.0
1087,2.190321,-2.576973,-0.41426086,-0.9855469,-2.623169,3.2497559,94.0
1088,2.5646715,-2.0788116,-0.089855194,-0.9855469,-2.623169,3.2497559,94.0
1089,2.5646715,-2.0788116,-0.089855194,-0.04885254,-2.8313234,3.2911744,94.0
1090,2.6248703,-1.3231659,0.010890961,-0.04885254,-2.8313234,3.2911744,94.0
1091,2.6248703,-1.3231659,0.010890961,0.42268068,-2.7495484,3.258252,94.0
1092,2.8165703,-0.7312012,-0.1931305,0.42268068,-2.7495484,3.258252,94.0
1093,2.8165703,-0.7312012,-0.1931305,0.6425171,-2.5913086,3.1743531,94.0
1094,3.2683687,-0.39491272,-0.29884338,0.6425171,-2.5913086,3.1743531,94.0
1095,3.2683687,-0.39491272,-0.29884338,0.71367186,-2.627417,3.0947022,94.0
1096,3.7086277,0.032455444,-0.17718506,0.71367186,-2.627417,3.0947022,94.0
1097,3.7086277,0.032455444,-0.17718506,1.1629028,-2.4628053,2.893982,94.0
1098,4.1185255,0.550087,0.44952393,1.1629028,-2.4628053,2.893982,94.0
1099,4.1185255,0.550087,0.44952393,2.4702394,-2.6295412,2.7559204,94.0
1100,4.7929897,1.137619,1.4295425,2.4702394,-2.6295412,2.7559204,94.0
1101,4.7929897,1.137619,1.4295425,2.8886719,-2.7792847,2.8599975,94.0
1102,5.5884814,2.0404053,1.7286301,2.8886719,-2.7792847,2.8599975,94.0
1103,5.5884814,2.0404053,1.7286301,2.3024414,-2.4012086,2.5116577,94.0
1104,5.590646,3.2004013,1.1420212,2.3024414,-2.4012086,2.5116577,94.0
1105,5.590646,3.2004013,1.1420212,1.7470093,-2.0241945,1.9254273,94.0
1106,4.6117744,3.7428894,0.8203926,1.7470093,-2.0241945,1.9254273,94.0
1107,4.6117744,3.7428894,0.8203926,1.1533448,-1.6439942,1.3530029,94.0
1108,3.9394197,3.2043839,2.272953,1.1533448,-1.6439942,1.3530029,94.0
1109,3.9394197,3.2043839,2.272953,0.52038574,-1.2308716,1.0322754,94.0
1110,3.9394197,3.2043839,2.272953,-0.998291,-1.8903809,-0.7625244,94.0
1111,5.3455787,4.10112,5.5534706,-0.998291,-1.8903809,-0.7625244,94.0
1112,9.098326,-1.3912735,-2.3034286,-0.998291,-1.8903809,-0.7625244,94.0
1113,9.098326,-1.3912735,-2.3034286,-3.986792,1.6121339,0.45772704,94.0
1114,9.098326,-1.3912735,-2.3034286,-1.3434448,2.6858277,-0.13487549,94.0
1115,9.098326,-1.3912735,-2.3034286,-0.41206056,-0.45878908,0.2527588,94.0
1116,-1.5376723,-4.608017,-5.9740295,-0.41206056,-0.45878908,0.2527588,94.0
1117,-11.602135,0.26654816,-1.2644539,-0.41206056,-0.45878908,0.2527588,94.0
1118,-11.602135,0.26654816,-1.2644539,0.2166504,-0.21240234,0.6616333,94.0
1119,-11.602135,0.26654816,-1.2644539,0.54906005,-0.14337158,0.56817627,94.0
1120,-11.602135,0.26654816,-1.2644539,0.54906005,-0.14337158,0.56817627,94.0
1121,-4.1541324,1.7709045,0.57338333,0.54906005,-0.14337158,0.56817627,94.0
1122,-4.1541324,1.7709045,0.57338333,0.3462158,0.30479738,0.6796875,94.0
1123,0.07382536,2.066513,-0.08172226,0.3462158,0.30479738,0.6796875,94.0
1124,0.07382536,2.066513,-0.08172226,0.4800293,0.48746338,0.7688965,94.0
1125,0.73729515,1.7532959,-1.4012413,0.4800293,0.48746338,0.7688965,94.0
1126,0.73729515,1.7532959,-1.4012413,0.53100586,0.23682861,0.85598147,94.0
1127,0.2848556,1.1509552,-1.8773308,0.53100586,0.23682861,0.85598147,94.0
1128,0.2848556,1.1509552,-1.8773308,-0.5214478,0.61915284,0.7614624,94.0
1129,0.037222862,-0.19791412,-1.1446991,-0.5214478,0.61915284,0.7614624,94.0
1130,0.037222862,-0.19791412,-1.1446991,-0.4056885,0.6860596,0.8294312,94.0
1131,0.06519091,-1.0168152,-0.20244217,-0.4056885,0.6860596,0.8294312,94.0
1132,0.06519091,-1.0168152,-0.20244217,0.24851075,0.5713623,0.6552612,94.0
1133,-0.26457083,-0.6838379,0.25664902,0.24851075,0.5713623,0.6552612,94.0
1134,-0.26457083,-0.6838379,0.25664902,-0.4067505,0.85598147,0.7062378,94.0
1135,-0.73782873,0.34244537,0.45967865,-0.4067505,0.85598147,0.7062378,94.0
1136,-0.73782873,0.34244537,0.45967865,0.09664307,0.4598511,0.025488282,94.0
1137,-0.30431318,2.1481247,0.6284981,0.09664307,0.4598511,0.025488282,94.0
1138,-0.30431318,2.1481247,0.6284981,-0.3802002,0.26762697,-0.06159668,94.0
1139,0.22565341,2.8805313,1.1903992,-0.3802002,0.26762697,-0.06159668,94.0
1140,0.22565341,2.8805313,1.1903992,-1.0365235,0.5299439,-0.2527588,94.0
1141,-0.69702864,0.97950745,1.8328476,-1.0365235,0.5299439,-0.2527588,94.0
1142,-0.69702864,0.97950745,1.8328476,-0.814563,0.4163086,-0.32391357,94.0
1143,-2.5331967,-1.5843887,1.8744812,-0.814563,0.4163086,-0.32391357,94.0
1144,-2.5331967,-1.5843887,1.8744812,-0.35789797,0.22727051,-0.43117675,94.0
1145,-3.47353,-2.7807312,1.5634041,-0.35789797,0.22727051,-0.43117675,94.0
1146,-3.47353,-2.7807312,1.5634041,0.29736328,-0.060534667,-0.5671143,94.0
1147,-2.6698275,-2.7139282,1.5766029,0.29736328,-0.060534667,-0.5671143,94.0
1148,-2.6698275,-2.7139282,1.5766029,0.4322388,-0.15505372,-0.44179687,94.0
1149,-1.0549417,-2.0993195,1.9935112,0.4322388,-0.15505372,-0.44179687,94.0
1150,-1.0549417,-2.0993195,1.9935112,0.039294433,0.11044922,-0.36427003,94.0
1151,-0.13511515,-1.0420303,1.9030762,0.039294433,0.11044922,-0.36427003,94.0
1152,-0.13511515,-1.0420303,1.9030762,-0.070092775,0.14868164,-0.5278198,94.0
1153,-0.20357561,0.37135315,0.6828499,-0.070092775,0.14868164,-0.5278198,94.0
1154,-0.20357561,0.37135315,0.6828499,-0.07752686,-0.0361084,-0.55755615,94.0
1155,-0.70166683,1.3576126,-0.91070175,-0.07752686,-0.0361084,-0.55755615,94.0
1156,-0.70166683,1.3576126,-0.91070175,-0.1263794,-0.17523193,-0.59897465,94.0
1157,-1.2869925,1.4024582,-1.6373863,-0.1263794,-0.17523193,-0.59897465,94.0
1158,-1.2869925,1.4024582,-1.6373863,-0.019116212,-0.3536499,-0.7699585,94.0
1159,-1.612895,0.82289886,-1.110363,-0.019116212,-0.3536499,-0.7699585,94.0
1160,-1.612895,0.82289886,-1.110363,0.4067505,-0.5150757,-1.0577637,94.0
1161,-1.207284,0.28541565,-0.08351898,0.4067505,-0.5150757,-1.0577637,94.0
1162,-1.207284,0.28541565,-0.08351898,0.8889038,-0.7051758,-1.363623,94.0
1163,-0.10391331,0.5468521,0.35154343,0.8889038,-0.7051758,-1.363623,94.0
1164,-0.10391331,0.5468521,0.35154343,0.9515625,-0.7986328,-1.7682495,94.0
1165,1.223937,1.6409607,-0.24655914,0.9515625,-0.7986328,-1.7682495,94.0
1166,1.223937,1.6409607,-0.24655914,0.51082766,-0.7593384,-2.247217,94.0
1167,2.3723016,2.7198334,-1.3501053,0.51082766,-0.7593384,-2.247217,94.0
1168,2.3723016,2.7198334,-1.3501053,-0.2899292,-0.70198977,-2.5934327,94.0
1169,3.094936,3.1838608,-2.189045,-0.2899292,-0.70198977,-2.5934327,94.0
1170,3.094936,3.1838608,-2.189045,-1.0089111,-0.4725952,-2.9311523,94.0
1171,3.3416836,2.9212952,-2.3223305,-1.0089111,-0.4725952,-2.9311523,94.0
1172,3.3416836,2.9212952,-2.3223305,-1.3838013,-0.18691407,-3.2040894,94.0
1173,3.1822093,2.1897736,-1.9463158,-1.3838013,-0.18691407,-3.2040894,94.0
1174,3.1822093,2.1897736,-1.9463158,-1.5154908,-0.010620117,-3.4164917,94.0
1175,2.7660189,1.3673553,-1.5924644,-1.5154908,-0.010620117,-3.4164917,94.0
1176,2.7660189,1.3673553,-1.5924644,-1.544165,0.22727051,-3.6342041,94.0
1177,2.3489847,0.68401337,-1.4347763,-1.544165,0.22727051,-3.6342041,94.0
1178,2.3489847,0.68401337,-1.4347763,-1.5239868,0.39613038,-3.8635986,94.0
1179,2.0899298,0.19477081,-1.3417435,-1.5239868,0.39613038,-3.8635986,94.0
1180,2.0899298,0.19477081,-1.3417435,-1.4241577,0.5533081,-4.069629,94.0
1181,1.987337,-0.14104462,-1.2613716,-1.4241577,0.5533081,-4.069629,94.0
1182,1.987337,-0.14104462,-1.2613716,-1.2818482,0.6754395,-4.2777834,94.0
1183,1.9617568,-0.28907776,-1.2069016,-1.2818482,0.6754395,-4.2777834,94.0
1184,1.9617568,-0.28907776,-1.2069016,-1.2372437,0.74871826,-4.5485964,94.0
1185,1.9617568,-0.28907776,-1.2069016,-1.4878784,0.75615233,-4.8640137,94.0
1186,1.9491419,-0.20764923,-1.1833191,-1.4878784,0.75615233,-4.8640137,94.0
1187,3.6752193,-0.3259201,-1.8808365,-1.4878784,0.75615233,-4.8640137,94.0
1188,3.6752193,-0.3259201,-1.8808365,-1.9541016,0.74659425,-5.234656,94.0
1189,3.6752193,-0.3259201,-1.8808365,-2.5764406,0.72854006,-5.59574,94.0
1190,3.6752193,-0.3259201,-1.8808365,-3.3134766,0.6595093,-5.865491,94.0
1191,4.345925,-1.2628708,-1.6863441,-3.3134766,0.6595093,-5.865491,94.0
1192,4.345925,-1.2628708,-1.6863441,-4.0452027,0.6573853,-6.1108155,94.0
1193,5.216608,-2.24086,-1.7344398,-4.0452027,0.6573853,-6.1108155,94.0
1194,5.216608,-2.24086,-1.7344398,-4.551782,0.6860596,-6.3710084,94.0
1195,5.9492507,-2.9361572,-2.0519562,-4.551782,0.6860596,-6.3710084,94.0
1196,5.9492507,-2.9361572,-2.0519562,-4.9266725,0.7455322,-6.4028687,94.0
1197,6.1450577,-3.1818466,-2.3773346,-4.9266725,0.7455322,-6.4028687,94.0
1198,6.1450577,-3.1818466,-2.3773346,-5.674329,0.8336792,-6.2839236,94.0
1199,5.6075506,-3.1156464,-2.426052,-5.674329,0.8336792,-6.2839236,94.0
1200,5.6075506,-3.1156464,-2.426052,-6.9275026,1.0705079,-5.9472656,94.0
1201,4.5180845,-3.4854355,-2.1098099,-6.9275026,1.0705079,-5.9472656,94.0
1202,4.5180845,-3.4854355,-2.1098099,-7.1834474,1.5303589,-5.6700807,94.0
1203,3.1306906,-4.441971,-1.4209061,-7.1834474,1.5303589,-5.6700807,94.0
1204,3.1306906,-4.441971,-1.4209061,-5.878235,1.5038086,-5.605298,94.0
1205,1.892662,-4.35437,-0.5051346,-5.878235,1.5038086,-5.605298,94.0
1206,1.892662,-4.35437,-0.5051346,-4.7227664,0.6956177,-5.306873,94.0
1207,1.5953789,-2.4811401,-0.16493607,-4.7227664,0.6956177,-5.306873,94.0
1208,1.5953789,-2.4811401,-0.16493607,-4.616565,0.39188233,-4.7397585,94.0
1209,2.308895,-0.56056213,-1.0259323,-4.616565,0.39188233,-4.7397585,94.0
1210,2.308895,-0.56056213,-1.0259323,-4.4583254,0.6945557,-4.2055664,94.0
1211,2.6889248,-0.20117188,-2.3473473,-4.4583254,0.6945557,-4.2055664,94.0
1212,2.6889248,-0.20117188,-2.3473473,-3.449414,1.1257324,-3.719165,94.0
1213,1.433073,-0.9531021,-2.9087868,-3.449414,1.1257324,-3.719165,94.0
1214,1.433073,-0.9531021,-2.9087868,-2.066675,1.2956543,-3.163733,94.0
1215,-1.1322527,-1.2835999,-2.4212952,-2.066675,1.2956543,-3.163733,94.0
1216,-1.1322527,-1.2835999,-2.4212952,-1.1246704,1.1565307,-2.5849366,94.0
1217,-3.6204386,-0.5973129,-1.4156113,-1.1246704,1.1565307,-2.5849366,94.0
1218,-3.6204386,-0.5973129,-1.4156113,-0.84536135,0.96218264,-2.0199463,94.0
1219,-5.0728893,0.44190216,-0.47984314,-0.84536135,0.96218264,-2.0199463,94.0
1220,-5.0728893,0.44190216,-0.47984314,-0.7476563,0.74659425,-1.5027466,94.0
1221,-5.379466,1.0252838,0.053211212,-0.7476563,0.74659425,-1.5027466,94.0
1222,-5.379466,1.0252838,0.053211212,-0.67437744,0.46728516,-1.0715698,94.0
1223,-4.781991,0.95523834,0.114151,-0.67437744,0.46728516,-1.0715698,94.0
1224,-4.781991,0.95523834,0.114151,-0.6924316,0.20921631,-0.85598147,94.0
1225,-3.714167,0.65836334,-0.10663986,-0.6924316,0.20921631,-0.85598147,94.0
1226,-3.714167,0.65836334,-0.10663986,-0.9366943,0.115759276,-0.80181885,94.0
1227,-2.720931,0.42473602,-0.37490082,-0.9366943,0.115759276,-0.80181885,94.0
1228,-2.720931,0.42473602,-0.37490082,-1.360437,0.15080567,-0.8496094,94.0
1229,-2.720931,0.42473602,-0.37490082,-1.360437,0.15080567,-0.8496094,95.0
1230,-2.1054678,0.16252899,-0.49898148,-1.360437,0.15080567,-0.8496094,95.0
1231,-2.1054678,0.16252899,-0.49898148,-1.7151489,0.15717773,-0.9717407,95.0
1232,-1.7744012,-0.16156769,-0.37598038,-1.7151489,0.15717773,-0.9717407,95.0
1233,-1.7744012,-0.16156769,-0.37598038,-1.9594116,0.15080567,-1.1129884,95.0
1234,-1.4835835,-0.5105057,-0.101444244,-1.9594116,0.15080567,-1.1129884,95.0
1235,-1.4835835,-0.5105057,-0.101444244,-2.088977,0.13699952,-1.2829102,95.0
1236,-1.0631118,-0.86170197,0.16191101,-2.088977,0.13699952,-1.2829102,95.0
1237,-1.0631118,-0.86170197,0.16191101,-2.0592408,0.06690674,-1.4931885,95.0
1238,-0.42566013,-1.2087326,0.35232925,-2.0592408,0.06690674,-1.4931885,95.0
1239,-0.42566013,-1.2087326,0.35232925,-1.8659546,-0.023364259,-1.6737305,95.0
1240,0.3996086,-1.4535446,0.43242645,-1.8659546,-0.023364259,-1.6737305,95.0
1241,0.3996086,-1.4535446,0.43242645,-1.4390259,-0.14337158,-1.7937378,95.0
1242,1.2291842,-1.3859787,0.35624313,-1.4390259,-0.14337158,-1.7937378,95.0
1243,1.2291842,-1.3859787,0.35624313,-1.0184692,-0.32285157,-1.812854,95.0
1244,1.9560404,-1.1166306,0.2540741,-1.0184692,-0.32285157,-1.812854,95.0
1245,1.9560404,-1.1166306,0.2540741,-0.66588134,-0.52250975,-1.6758546,95.0
1246,2.712,-0.9863739,0.35461426,-0.66588134,-0.52250975,-1.6758546,95.0
1247,2.712,-0.9863739,0.35461426,-0.1901001,-0.7805786,-1.4114136,95.0
1248,3.4656324,-0.94421387,0.5681534,-0.1901001,-0.7805786,-1.4114136,95.0
1249,3.4656324,-0.94421387,0.5681534,0.31010744,-1.0057251,-0.9759888,95.0
1250,3.7169886,-0.50527954,0.69948196,0.31010744,-1.0057251,-0.9759888,95.0
1251,3.7169886,-0.50527954,0.69948196,0.5649902,-1.0280274,-0.39188233,95.0
1252,2.984394,0.35935974,0.9433136,0.5649902,-1.0280274,-0.39188233,95.0
1253,2.984394,0.35935974,0.9433136,0.64570314,-0.97386473,0.27718505,95.0
1254,1.6915922,1.0028458,1.4425888,0.64570314,-0.97386473,0.27718505,95.0
1255,1.6915922,1.0028458,1.4425888,1.0312134,-1.2053833,0.9228882,95.0
1256,0.9975128,0.95362854,1.819809,1.0312134,-1.2053833,0.9228882,95.0
1257,0.9975128,0.95362854,1.819809,1.6631104,-1.5930176,1.5537232,95.0
1258,1.3885498,0.3694229,1.7922974,1.6631104,-1.5930176,1.5537232,95.0
1259,1.3885498,0.3694229,1.7922974,2.3587282,-1.453894,2.0433106,95.0
1260,2.0282106,-0.080596924,1.41996,2.3587282,-1.453894,2.0433106,95.0
1261,2.0282106,-0.080596924,1.41996,2.6571534,-1.1544068,2.3364258,95.0
1262,2.1708717,0.0104599,0.91885376,2.6571534,-1.1544068,2.3364258,95.0
1263,2.1708717,0.0104599,0.91885376,2.5987427,-0.9611206,2.616797,95.0
1264,2.0439968,0.4094696,0.45147705,2.5987427,-0.9611206,2.616797,95.0
1265,2.0439968,0.4094696,0.45147705,2.4649293,-0.6138428,2.7750366,95.0
1266,1.8121634,0.89139557,0.1786995,2.4649293,-0.6138428,2.7750366,95.0
1267,1.8121634,0.89139557,0.1786995,2.5095336,-0.10195313,2.9141603,95.0
1268,1.1026363,1.48143,0.23990631,2.5095336,-0.10195313,2.9141603,95.0
1269,1.1026363,1.48143,0.23990631,2.5095336,0.44816896,3.0341675,95.0
1270,-0.33783722,2.0286026,0.5676842,2.5095336,0.44816896,3.0341675,95.0
1271,-0.33783722,2.0286026,0.5676842,2.2079225,0.8952759,3.1000123,95.0
1272,-2.0947208,2.241951,0.8622627,2.2079225,0.8952759,3.1000123,95.0
1273,-2.0947208,2.241951,0.8622627,1.6747925,1.1257324,3.1138184,95.0
1274,-3.444295,1.9566727,0.8844147,1.6747925,1.1257324,3.1138184,95.0
1275,-3.444295,1.9566727,0.8844147,1.269104,1.2829102,3.1074464,95.0
1276,-4.016861,1.3960037,0.66368103,1.269104,1.2829102,3.1074464,95.0
1277,-4.016861,1.3960037,0.66368103,1.1915772,1.3115845,3.1021364,95.0
1278,-3.945325,0.93123627,0.32998276,1.1915772,1.3115845,3.1021364,95.0
1279,-3.945325,0.93123627,0.32998276,1.0067872,1.3168945,3.248694,95.0
1280,-3.5842018,0.6567459,-0.028785706,1.0067872,1.3168945,3.248694,95.0
1281,-3.5842018,0.6567459,-0.028785706,0.630835,1.4889405,3.1148803,95.0
1282,-3.3252592,0.43284607,-0.35716248,0.630835,1.4889405,3.1148803,95.0
1283,-3.3252592,0.43284607,-0.35716248,0.25806886,1.7034668,2.8366334,95.0
1284,-3.3768334,0.05444336,-0.5736923,0.25806886,1.7034668,2.8366334,95.0
1285,-3.3768334,0.05444336,-0.5736923,0.020178223,1.7767457,2.623169,95.0
1286,-3.488308,-0.34355164,-0.64823914,0.020178223,1.7767457,2.623169,95.0
1287,-3.488308,-0.34355164,-0.64823914,-0.13062744,1.6333741,2.4118288,95.0
1288,-3.3805022,-0.49080658,-0.6812515,-0.13062744,1.6333741,2.4118288,95.0
1289,-3.3805022,-0.49080658,-0.6812515,-0.37489015,1.5579712,2.1495118,95.0
1290,-3.1521924,-0.3861847,-0.7593689,-0.37489015,1.5579712,2.1495118,95.0
1291,-3.1521924,-0.3861847,-0.7593689,-0.79226077,1.544165,1.8850708,95.0
1292,-2.9932873,-0.3702774,-0.7967644,-0.79226077,1.544165,1.8850708,95.0
1293,-2.9932873,-0.3702774,-0.7967644,-1.0683838,1.3689331,1.6206299,95.0
1294,-2.689674,-0.63362885,-0.75037766,-1.0683838,1.3689331,1.6206299,95.0
1295,-2.689674,-0.63362885,-0.75037766,-1.0779419,0.9770508,1.2425537,95.0
1296,-1.9747005,-0.9412308,-0.76968765,-1.0779419,0.9770508,1.2425537,95.0
1297,-1.9747005,-0.9412308,-0.76968765,-1.0715698,0.6881836,0.81243896,95.0
1298,-1.1378781,-1.1154861,-0.9467163,-1.0715698,0.6881836,0.81243896,95.0
1299,-1.1378781,-1.1154861,-0.9467163,-1.1448487,0.62552494,0.32391357,95.0
1300,-0.7835202,-1.242424,-1.1088257,-1.1448487,0.62552494,0.32391357,95.0
1301,-0.7835202,-1.242424,-1.1088257,-1.1310425,0.5809204,-0.18160401,95.0
1302,-1.1034398,-1.3181305,-0.9720955,-1.1310425,0.5809204,-0.18160401,95.0
1303,-1.1034398,-1.3181305,-0.9720955,-0.9420044,0.3345337,-0.6988037,95.0
1304,-1.5884525,-1.2166901,-0.57871246,-0.9420044,0.3345337,-0.6988037,95.0
1305,-1.5884525,-1.2166901,-0.57871246,-0.7168579,-0.04460449,-1.1374146,95.0
1306,-1.6599344,-0.93227386,-0.19740677,-0.7168579,-0.04460449,-1.1374146,95.0
1307,-1.6599344,-0.93227386,-0.19740677,-0.46834716,-0.33984375,-1.453894,95.0
1308,-1.0896052,-0.65748596,0.044101715,-0.46834716,-0.33984375,-1.453894,95.0
1309,-1.0896052,-0.65748596,0.044101715,-0.21134034,-0.6881836,-1.8776368,95.0
1310,0.13516396,-0.60030365,0.12750626,-0.21134034,-0.6881836,-1.8776368,95.0
1311,0.13516396,-0.60030365,0.12750626,0.13275146,-1.0970582,-2.2737672,95.0
1312,1.8134657,-0.74793243,0.15912247,0.13275146,-1.0970582,-2.2737672,95.0
1313,1.8134657,-0.74793243,0.15912247,0.58198243,-1.3657471,-2.5498903,95.0
1314,3.4797032,-0.78834534,0.26249313,0.58198243,-1.3657471,-2.5498903,95.0
1315,3.4797032,-0.78834534,0.26249313,1.0036011,-1.4931885,-2.8238893,95.0
1316,4.5658793,-0.46456146,0.41619492,1.0036011,-1.4931885,-2.8238893,95.0
1317,4.5658793,-0.46456146,0.41619492,1.2287476,-1.3827393,-2.9290283,95.0
1318,4.6070004,0.11286163,0.5740547,1.2287476,-1.3827393,-2.9290283,95.0
1319,4.6070004,0.11286163,0.5740547,1.3625611,-1.1044922,-2.88761,95.0
1320,3.5394578,0.6921768,0.78741837,1.3625611,-1.1044922,-2.88761,95.0
1321,3.5394578,0.6921768,0.78741837,1.4262818,-0.9281983,-2.7697265,95.0
1322,1.9174428,1.1649017,1.0400543,1.4262818,-0.9281983,-2.7697265,95.0
1323,1.9174428,1.1649017,1.0400543,1.3678712,-0.87191164,-2.5488281,95.0
1324,0.3811102,1.5311432,1.2108421,1.3678712,-0.87191164,-2.5488281,95.0
1325,0.3811102,1.5311432,1.2108421,1.089624,-0.8591675,-2.272705,95.0
1326,-0.76839066,1.807518,1.1708946,1.089624,-0.8591675,-2.272705,95.0
1327,-0.76839066,1.807518,1.1708946,0.62764895,-0.95368654,-2.0273805,95.0
1328,-1.279068,1.9254227,0.86806107,0.62764895,-0.95368654,-2.0273805,95.0
1329,-1.279068,1.9254227,0.86806107,0.62764895,-0.95368654,-2.0273805,97.0
1330,-1.279068,1.9254227,0.86806107,0.20284425,-1.1161743,-1.8521484,97.0
1331,-0.99924326,1.817131,0.2943611,0.20284425,-1.1161743,-1.8521484,97.0
1332,-0.99924326,1.817131,0.2943611,-0.20603028,-1.2372437,-1.7661256,97.0
1333,-0.18182874,1.5171585,-0.23737335,-0.20603028,-1.2372437,-1.7661256,97.0
1334,-0.18182874,1.5171585,-0.23737335,-0.80394286,-1.1575928,-1.7342652,97.0
1335,0.7457602,0.8831482,-0.5643387,-0.80394286,-1.1575928,-1.7342652,97.0
1336,0.7457602,0.8831482,-0.5643387,-0.96430665,-0.93775636,-1.6461182,97.0
1337,1.4238052,-0.03542328,-0.7163391,-0.96430665,-0.93775636,-1.6461182,97.0
1338,1.4238052,-0.03542328,-0.7163391,-0.5161377,-0.91120607,-1.6195679,97.0
1339,1.7551942,-0.5341873,-0.55807114,-0.5161377,-0.91120607,-1.6195679,97.0
1340,1.7551942,-0.5341873,-0.55807114,-0.32497558,-0.998291,-1.6684204,97.0
1341,2.0322194,-0.3547516,-0.16732025,-0.32497558,-0.998291,-1.6684204,97.0
1342,2.0322194,-0.3547516,-0.16732025,-0.5150757,-0.903772,-1.7098389,97.0
1343,2.4147158,-0.0978241,0.20888138,-0.5150757,-0.903772,-1.7098389,97.0
1344,2.4147158,-0.0978241,0.20888138,-0.68712157,-0.7327881,-1.6864747,97.0
1345,2.58541,-0.10493469,0.43075562,-0.68712157,-0.7327881,-1.6864747,97.0
1346,2.58541,-0.10493469,0.43075562,-0.7827026,-0.5979126,-1.6078857,97.0
1347,2.2507744,-0.18901062,0.4574089,-0.7827026,-0.5979126,-1.6078857,97.0
1348,2.2507744,-0.18901062,0.4574089,-0.9143921,-0.49277344,-1.4804443,97.0
1349,1.6794524,-0.2330246,0.34776306,-0.9143921,-0.49277344,-1.4804443,97.0
1350,1.6794524,-0.2330246,0.34776306,-0.93350834,-0.5363159,-1.3285767,97.0
1351,1.5516305,-0.3425598,0.27414703,-0.93350834,-0.5363159,-1.3285767,97.0
1352,1.5516305,-0.3425598,0.27414703,-0.6680054,-0.6637573,-1.0959961,97.0
1353,2.1151323,-0.4778595,0.31848526,-0.6680054,-0.6637573,-1.0959961,97.0
1354,2.1151323,-0.4778595,0.31848526,-0.25913087,-0.632959,-0.7890747,97.0
1355,2.8194504,-0.38584137,0.25613022,-0.25913087,-0.632959,-0.7890747,97.0
1356,2.8194504,-0.38584137,0.25613022,-0.093457036,-0.46834716,-0.4598511,97.0
1357,2.742694,0.025970459,-0.16047668,-0.093457036,-0.46834716,-0.4598511,97.0
1358,2.742694,0.025970459,-0.16047668,-0.32391357,0.010620117,-0.0361084,97.0
1359,1.3960228,0.42340088,-0.52962494,-0.32391357,0.010620117,-0.0361084,97.0
1360,1.3960228,0.42340088,-0.52962494,-0.58623046,0.3525879,0.3175415,97.0
1361,-0.22085285,0.5094986,-0.27931213,-0.58623046,0.3525879,0.3175415,97.0
1362,-0.22085285,0.5094986,-0.27931213,-0.4343628,0.05628662,0.61065674,97.0
1363,-0.4039774,0.32417297,0.16622162,-0.4343628,0.05628662,0.61065674,97.0
1364,-0.4039774,0.32417297,0.16622162,-0.21558838,-0.20603028,0.904834,97.0
1365,0.7129879,-0.03450775,-0.018829346,-0.21558838,-0.20603028,0.904834,97.0
1366,0.7129879,-0.03450775,-0.018829346,-0.18266602,0.10938721,1.1480347,97.0
1367,1.5881023,-0.47561646,-0.7581177,-0.18266602,0.10938721,1.1480347,97.0
1368,1.5881023,-0.47561646,-0.7581177,-0.06903076,0.3164795,1.2170655,97.0
1369,1.4601307,-0.68753815,-0.98454285,-0.06903076,0.3164795,1.2170655,97.0
1370,1.4601307,-0.68753815,-0.98454285,0.07327881,0.38975832,1.2829102,97.0
1371,1.1799698,-0.90270233,-1.3506355,0.07327881,0.38975832,1.2829102,97.0
1372,1.1799698,-0.90270233,-1.3506355,0.66588134,0.7593384,1.4666382,97.0
1373,0.58953285,-0.7092743,-0.90380096,0.66588134,0.7593384,1.4666382,97.0
1374,0.58953285,-0.7092743,-0.90380096,0.8209351,0.8687256,1.5431031,97.0
1375,-0.7373829,0.009567261,-0.12578583,0.8209351,0.8687256,1.5431031,97.0
1376,-0.7373829,0.009567261,-0.12578583,0.94412845,1.0078491,1.8139161,97.0
1377,-1.256484,0.18994904,0.18198776,0.94412845,1.0078491,1.8139161,97.0
1378,-1.256484,0.18994904,0.18198776,0.90270996,1.0630738,1.903125,97.0
1379,-2.540844,0.5949478,0.30781937,0.90270996,1.0630738,1.903125,97.0
1380,-2.540844,0.5949478,0.30781937,0.64995116,1.2372437,2.167566,97.0
1381,-2.755869,0.44019318,0.31658173,0.64995116,1.2372437,2.167566,97.0
1382,-2.755869,0.44019318,0.31658173,0.59472656,1.2584839,2.2440307,97.0
1383,-3.4462967,0.363739,0.067214966,0.59472656,1.2584839,2.2440307,97.0
1384,-3.4462967,0.363739,0.067214966,0.5501221,1.173523,2.5063477,97.0
1385,-3.2696838,0.29605865,0.024978638,0.5501221,1.173523,2.5063477,97.0
1386,-3.2696838,0.29605865,0.024978638,0.48215333,1.175647,2.5562623,97.0
1387,-3.1467896,0.5121231,-0.3916626,0.48215333,1.175647,2.5562623,97.0
1388,-3.1467896,0.5121231,-0.3916626,-0.04248047,1.3742431,2.5190918,97.0
1389,-2.9404783,0.29053497,-0.3968506,-0.04248047,1.3742431,2.5190918,97.0
1390,-2.9404783,0.29053497,-0.3968506,-0.2262085,1.4443359,2.4351928,97.0
1391,-2.9639792,-0.2928772,-0.5353737,-0.2262085,1.4443359,2.4351928,97.0
1392,-2.9639792,-0.2928772,-0.5353737,-0.57242435,1.4230957,2.252527,97.0
1393,-2.8300705,-0.5274658,-0.47159958,-0.57242435,1.4230957,2.252527,97.0
1394,-2.8300705,-0.5274658,-0.47159958,-0.5915405,1.357251,2.2132325,97.0
1395,-2.6569033,-0.74446106,-0.54551697,-0.5915405,1.357251,2.2132325,97.0
1396,-2.6569033,-0.74446106,-0.54551697,-0.5384399,1.2298096,2.0581787,97.0
1397,-2.6569033,-0.74446106,-0.54551697,-0.53100586,1.1894531,1.9774659,97.0
1398,-2.441575,-0.6648178,-0.55596924,-0.53100586,1.1894531,1.9774659,97.0
1399,-2.0017586,-0.7758026,-0.72200775,-0.53100586,1.1894531,1.9774659,97.0
1400,-2.0017586,-0.7758026,-0.72200775,-0.51932377,1.0630738,1.809668,97.0
1401,-2.0017586,-0.7758026,-0.72200775,-0.44923097,0.81881106,1.6110718,97.0
1402,-2.0017586,-0.7758026,-0.72200775,-0.4056885,0.44923097,1.1246704,97.0
1403,-1.4383454,-0.7689209,-0.61154175,-0.4056885,0.44923097,1.1246704,97.0
1404,-1.4383454,-0.7689209,-0.61154175,-0.41206056,0.36002198,0.9260742,97.0
1405,-0.34226584,-0.9791031,-0.4619522,-0.41206056,0.36002198,0.9260742,97.0
1406,-0.34226584,-0.9791031,-0.4619522,-0.45454103,0.15930176,0.31860352,97.0
1407,-0.1499114,-0.8865051,-0.34432983,-0.45454103,0.15930176,0.31860352,97.0
1408,-0.1499114,-0.8865051,-0.34432983,-0.46622315,0.107263185,0.10938721,97.0
1409,-0.18731213,-0.7582855,-0.0981102,-0.46622315,0.107263185,0.10938721,97.0
1410,-0.18731213,-0.7582855,-0.0981102,-0.48215333,-0.02442627,-0.31435546,97.0
1411,-0.65638065,-0.59648895,0.10391235,-0.48215333,-0.02442627,-0.31435546,97.0
1412,-0.65638065,-0.59648895,0.10391235,-0.44073486,-0.17947999,-0.6775635,97.0
1413,-1.31634,-0.44729614,0.17730713,-0.44073486,-0.17947999,-0.6775635,97.0
1414,-1.31634,-0.44729614,0.17730713,-0.3462158,-0.4088745,-0.9876709,97.0
1415,-1.7036823,-0.26367188,0.17787933,-0.3462158,-0.4088745,-0.9876709,97.0
1416,-1.7036823,-0.26367188,0.17787933,-0.2347046,-0.76464844,-1.269104,97.0
1417,-1.2862369,-0.09403229,0.2005806,-0.2347046,-0.76464844,-1.269104,97.0
1418,-1.2862369,-0.09403229,0.2005806,0.015930176,-1.273352,-1.5622193,97.0
1419,-1.2862369,-0.09403229,0.2005806,0.015930176,-1.273352,-1.5622193,97.0
1420,0.36607885,-0.0069732666,0.32826233,0.015930176,-1.273352,-1.5622193,97.0
1421,0.36607885,-0.0069732666,0.32826233,0.49277344,-1.7321411,-1.8744507,97.0
1422,3.7812543,-0.06868744,0.5945091,0.49277344,-1.7321411,-1.8744507,97.0
1423,3.7812543,-0.06868744,0.5945091,1.1289185,-1.7650635,-2.2227905,97.0
1424,4.3034215,0.09026337,0.6075058,1.1289185,-1.7650635,-2.2227905,97.0
1425,4.3034215,0.09026337,0.6075058,1.2329956,-1.5760254,-2.2854493,97.0
1426,4.371753,0.26647186,0.6467209,1.2329956,-1.5760254,-2.2854493,97.0
1427,4.371753,0.26647186,0.6467209,1.363623,-1.1193603,-2.3268678,97.0
1428,2.7216578,0.5125809,0.80535126,1.363623,-1.1193603,-2.3268678,97.0
1429,2.7216578,0.5125809,0.80535126,1.4804443,-0.99085695,-2.3353639,97.0
1430,0.60796547,0.91752625,1.0564613,1.4804443,-0.99085695,-2.3353639,97.0
1431,0.60796547,0.91752625,1.0564613,1.545227,-1.0110352,-2.167566,97.0
1432,-0.9540696,1.4916,1.2371521,1.545227,-1.0110352,-2.167566,97.0
1433,-0.9540696,1.4916,1.2371521,1.268042,-1.0120972,-1.9307374,97.0
1434,-1.723424,2.0270157,1.2313614,1.268042,-1.0120972,-1.9307374,97.0
1435,-1.723424,2.0270157,1.2313614,0.75296634,-1.088562,-1.7523193,97.0
1436,-1.6885171,2.1904373,0.8036957,0.75296634,-1.088562,-1.7523193,97.0
1437,-1.6885171,2.1904373,0.8036957,0.30479738,-1.2308716,-1.7321411,97.0
1438,-0.93533516,2.0276947,0.21763992,0.30479738,-1.2308716,-1.7321411,97.0
1439,-0.93533516,2.0276947,0.21763992,-0.541626,-1.264856,-1.7608155,97.0
1440,0.28306723,1.3351593,-0.37417984,-0.541626,-1.264856,-1.7608155,97.0
1441,0.28306723,1.3351593,-0.37417984,-1.0620117,-0.9547486,-1.6684204,97.0
1442,1.5982556,-0.5172577,-0.9502716,-1.0620117,-0.9547486,-1.6684204,97.0
1443,1.5982556,-0.5172577,-0.9502716,-0.090270996,-0.90270996,-1.7597535,97.0
1444,1.5980868,-0.58309174,-0.72320557,-0.090270996,-0.90270996,-1.7597535,97.0
1445,1.5980868,-0.58309174,-0.72320557,-0.06796875,-0.97280276,-1.7703736,97.0
1446,1.5183744,-0.23965454,-0.07821274,-0.06796875,-0.97280276,-1.7703736,97.0
1447,1.5183744,-0.23965454,-0.07821274,-0.4980835,-0.92076415,-1.8309082,97.0
1448,1.7520652,0.09883118,0.40476227,-0.4980835,-0.92076415,-1.8309082,97.0
1449,1.7520652,0.09883118,0.40476227,-0.6159668,-0.7805786,-1.7905518,97.0
1450,2.0952435,-0.058059692,0.55457306,-0.6159668,-0.7805786,-1.7905518,97.0
1451,2.0952435,-0.058059692,0.55457306,-0.47471926,-0.6860596,-1.6716064,97.0
1452,2.057457,-0.18412781,0.49118042,-0.47471926,-0.6860596,-1.6716064,97.0
1453,2.057457,-0.18412781,0.49118042,-0.4970215,-0.6180908,-1.535669,97.0
1454,1.870038,-0.17099762,0.33712006,-0.4970215,-0.6180908,-1.535669,97.0
1455,1.870038,-0.17099762,0.33712006,-0.44498292,-0.630835,-1.3487549,97.0
1456,1.870038,-0.17099762,0.33712006,-0.052038576,-0.6711914,-1.1204224,97.0
1457,2.0673928,-0.3186493,0.306839,-0.052038576,-0.6711914,-1.1204224,97.0
1458,4.359371,-0.7886505,0.53572845,-0.052038576,-0.6711914,-1.1204224,97.0
1459,4.359371,-0.7886505,0.53572845,0.5140137,-0.7317261,-0.8326172,97.0
1460,4.359371,-0.7886505,0.53572845,0.87615967,-0.65419924,-0.4619751,97.0
1461,4.6099215,-0.30986023,-0.0018005371,0.87615967,-0.65419924,-0.4619751,97.0
1462,4.6099215,-0.30986023,-0.0018005371,0.7986328,-0.0722168,-0.060534667,97.0
1463,3.2059174,0.6087036,-0.4886589,0.7986328,-0.0722168,-0.060534667,97.0
1464,3.2059174,0.6087036,-0.4886589,0.21877442,0.5256958,0.35895997,97.0
1465,0.6283083,1.5346909,-0.26543808,0.21877442,0.5256958,0.35895997,97.0
1466,0.6283083,1.5346909,-0.26543808,-0.34090576,0.45347902,0.7317261,97.0
1467,-1.0543976,1.6924896,0.37243652,-0.34090576,0.45347902,0.7317261,97.0
1468,-1.0543976,1.6924896,0.37243652,-0.6000366,0.032922365,0.99085695,97.0
1469,-0.6392212,0.7298584,0.657177,-0.6000366,0.032922365,0.99085695,97.0
1470,-0.6392212,0.7298584,0.657177,-0.43117675,0.027612304,1.1968873,97.0
1471,0.7307739,-0.7063446,0.3713112,-0.43117675,0.027612304,1.1968873,97.0
1472,0.7307739,-0.7063446,0.3713112,0.13699952,0.25594482,1.2818482,97.0
1473,1.4636726,-1.6032333,-0.12041855,0.13699952,0.25594482,1.2818482,97.0
1474,1.4636726,-1.6032333,-0.12041855,0.77951664,0.48215333,1.3774292,97.0
1475,1.2816067,-1.5975418,-0.463562,0.77951664,0.48215333,1.3774292,97.0
1476,1.2816067,-1.5975418,-0.463562,1.3827393,0.8241211,1.4114136,97.0
1477,0.5883217,-0.9037323,-0.4553337,1.3827393,0.8241211,1.4114136,97.0
1478,0.5883217,-0.9037323,-0.4553337,1.9137452,1.170337,1.450708,97.0
1479,-0.3574562,0.1482544,-0.16116714,1.9137452,1.170337,1.450708,97.0
1480,-0.3574562,0.1482544,-0.16116714,2.1367676,1.4315919,1.5600952,97.0
1481,-1.4457788,1.2279434,0.13699722,2.1367676,1.4315919,1.5600952,97.0
1482,-1.4457788,1.2279434,0.13699722,1.8914429,1.6896607,1.7480713,97.0
1483,-2.5087833,1.9728699,0.234478,1.8914429,1.6896607,1.7480713,97.0
1484,-2.5087833,1.9728699,0.234478,1.2372437,1.8818848,1.9211792,97.0
1485,-3.2836018,2.1180954,0.11899185,1.2372437,1.8818848,1.9211792,97.0
1486,-3.2836018,2.1180954,0.11899185,0.44710693,1.988086,2.1123414,97.0
1487,-3.6313734,1.7297668,-0.061645508,0.44710693,1.988086,2.1123414,97.0
1488,-3.6313734,1.7297668,-0.061645508,-0.25063476,2.0422485,2.355542,97.0
1489,-3.6185265,1.1022568,-0.18310547,-0.25063476,2.0422485,2.355542,97.0
1490,-3.6185265,1.1022568,-0.18310547,-0.9260742,2.0178223,2.5392702,97.0
1491,-3.3554902,0.3713913,-0.30257416,-0.9260742,2.0178223,2.5392702,97.0
1492,-3.3554902,0.3713913,-0.30257416,-1.5983276,2.0146363,2.5626342,97.0
1493,-2.9751148,-0.48877716,-0.5351372,-1.5983276,2.0146363,2.5626342,97.0
1494,-2.9751148,-0.48877716,-0.5351372,-2.0645509,2.0337524,2.537146,97.0
1495,-2.650539,-1.3442535,-0.9023056,-2.0645509,2.0337524,2.537146,97.0
1496,-2.650539,-1.3442535,-0.9023056,-2.3130615,1.8882569,2.5594482,97.0
1497,-2.4680266,-1.9206161,-1.3160591,-2.3130615,1.8882569,2.5594482,97.0
1498,-2.4680266,-1.9206161,-1.3160591,-2.4606812,1.7703736,2.5424562,97.0
1499,-2.4680266,-1.9206161,-1.3160591,-2.3311157,1.6779785,2.427759,97.0
1500,-2.330842,-2.132698,-1.564518,-2.3311157,1.6779785,2.427759,97.0
1501,-2.4859505,-2.6594696,-2.3320084,-2.3311157,1.6779785,2.427759,97.0
1502,-2.4859505,-2.6594696,-2.3320084,-2.1888063,1.536731,2.2981935,97.0
1503,-2.4859505,-2.6594696,-2.3320084,-2.0741088,1.3678712,2.0932252,97.0
1504,-2.4859505,-2.6594696,-2.3320084,-1.9764038,1.1926392,1.7608155,97.0
1505,-2.1721587,-2.4656143,-2.0960999,-1.9764038,1.1926392,1.7608155,97.0
1506,-2.1721587,-2.4656143,-2.0960999,-1.8054199,0.97280276,1.3445069,97.0
1507,-1.9850292,-2.3082123,-1.6712914,-1.8054199,0.97280276,1.3445069,97.0
1508,-1.9850292,-2.3082123,-1.6712914,-1.5505371,0.7306641,0.9409424,97.0
1509,-2.042003,-1.9592285,-1.1237259,-1.5505371,0.7306641,0.9409424,97.0
1510,-2.042003,-1.9592285,-1.1237259,-1.2106934,0.58304447,0.4980835,97.0
1511,-2.345199,-1.4854279,-0.53528214,-1.2106934,0.58304447,0.4980835,97.0
1512,-2.345199,-1.4854279,-0.53528214,-0.87191164,0.3334717,-0.0053100586,97.0
1513,-2.6091304,-1.1838531,-0.078006744,-0.87191164,0.3334717,-0.0053100586,97.0
1514,-2.6091304,-1.1838531,-0.078006744,-0.38763428,0.019116212,-0.44923097,97.0
1515,-2.6091304,-1.1838531,-0.078006744,-0.38763428,0.019116212,-0.44923097,98.0
1516,-2.426562,-1.1150436,0.15989685,-0.38763428,0.019116212,-0.44923097,98.0
1517,-2.426562,-1.1150436,0.15989685,0.17735596,-0.29948732,-0.9600586,98.0
1518,-1.657656,-0.9998932,0.25095367,0.17735596,-0.29948732,-0.9600586,98.0
1519,-1.657656,-0.9998932,0.25095367,0.6467652,-0.5703003,-1.447522,98.0
1520,-0.5203997,-0.76169586,0.34108353,0.6467652,-0.5703003,-1.447522,98.0
1521,-0.5203997,-0.76169586,0.34108353,0.99085695,-0.85704345,-1.8415283,98.0
1522,0.7525035,-0.5256195,0.55111694,0.99085695,-0.85704345,-1.8415283,98.0
1523,0.7525035,-0.5256195,0.55111694,1.363623,-1.1958252,-2.1941164,98.0
1524,2.0412972,-0.2804947,0.86930084,1.363623,-1.1958252,-2.1941164,98.0
1525,2.0412972,-0.2804947,0.86930084,1.7087768,-1.4878784,-2.524402,98.0
1526,3.03659,0.0541687,1.1815109,1.7087768,-1.4878784,-2.524402,98.0
1527,3.03659,0.0541687,1.1815109,1.9434814,-1.5303589,-2.6794555,98.0
1528,3.2335567,0.4103775,1.4690971,1.9434814,-1.5303589,-2.6794555,98.0
1529,3.2335567,0.4103775,1.4690971,2.1250856,-1.44115,-2.703882,98.0
1530,2.524321,0.7490158,1.7055244,2.1250856,-1.44115,-2.703882,98.0
1531,2.524321,0.7490158,1.7055244,2.2684572,-1.4793824,-2.6475952,98.0
1532,1.4068348,1.1681061,1.7406769,2.2684572,-1.4793824,-2.6475952,98.0
1533,1.4068348,1.1681061,1.7406769,2.2482789,-1.538855,-2.4606812,98.0
1534,0.42983794,1.6199493,1.5411491,2.2482789,-1.538855,-2.4606812,98.0
1535,0.42983794,1.6199493,1.5411491,2.075171,-1.5760254,-2.2302246,98.0
1536,-0.18410826,1.9326401,1.2072258,2.075171,-1.5760254,-2.2302246,98.0
1537,-0.18410826,1.9326401,1.2072258,1.8287842,-1.6758546,-2.0008302,98.0
1538,-0.24607801,2.0077972,0.7986679,1.8287842,-1.6758546,-2.0008302,98.0
1539,-0.24607801,2.0077972,0.7986679,1.7289551,-1.8192261,-1.8691406,98.0
1540,0.36422157,1.9309311,0.40629196,1.7289551,-1.8192261,-1.8691406,98.0
1541,0.36422157,1.9309311,0.40629196,1.7555054,-1.902063,-1.7618774,98.0
1542,1.3383377,1.9803772,0.1691742,1.7555054,-1.902063,-1.7618774,98.0
1543,1.3383377,1.9803772,0.1691742,1.5962037,-1.7969239,-1.6238159,98.0
1544,2.029789,2.1384048,0.12609863,1.5962037,-1.7969239,-1.6238159,98.0
1545,2.029789,2.1384048,0.12609863,1.0959961,-1.454956,-1.5016845,98.0
1546,2.062735,2.0096512,0.23783112,1.0959961,-1.454956,-1.5016845,98.0
1547,2.062735,2.0096512,0.23783112,0.7338501,-1.1926392,-1.3922974,98.0
1548,1.7096119,1.6346512,0.44418335,0.7338501,-1.1926392,-1.3922974,98.0
1549,1.7096119,1.6346512,0.44418335,0.3802002,-1.1809571,-1.3094605,98.0
1550,1.5519915,1.319664,0.65070724,0.3802002,-1.1809571,-1.3094605,98.0
1551,1.5519915,1.319664,0.65070724,-0.124255374,-1.1267945,-1.2468017,98.0
1552,1.7991247,0.9777298,0.7436867,-0.124255374,-1.1267945,-1.2468017,98.0
1553,1.7991247,0.9777298,0.7436867,-0.51932377,-0.9515625,-1.1692749,98.0
1554,2.074102,0.457695,0.6822052,-0.51932377,-0.9515625,-1.1692749,98.0
1555,2.074102,0.457695,0.6822052,-0.7083618,-0.80819094,-1.0662597,98.0
1556,2.117546,-0.0515213,0.49053955,-0.7083618,-0.80819094,-1.0662597,98.0
1557,2.117546,-0.0515213,0.49053955,-0.7412842,-0.7497803,-0.97492677,98.0
1558,2.1601992,-0.35920715,0.22428131,-0.7412842,-0.7497803,-0.97492677,98.0
1559,2.1601992,-0.35920715,0.22428131,-0.6446411,-0.7041138,-0.86766356,98.0
1560,2.467393,-0.5165024,0.026737213,-0.6446411,-0.7041138,-0.86766356,98.0
1561,2.467393,-0.5165024,0.026737213,-0.40037844,-0.635083,-0.74871826,98.0
1562,2.9761848,-0.6024704,0.024284363,-0.40037844,-0.635083,-0.74871826,98.0
1563,2.9761848,-0.6024704,0.024284363,-0.090270996,-0.541626,-0.58410645,98.0
1564,3.330203,-0.5472946,0.12684631,-0.090270996,-0.541626,-0.58410645,98.0
1565,3.330203,-0.5472946,0.12684631,0.121069334,-0.21346436,-0.3355957,98.0
1566,3.330203,-0.5472946,0.12684631,0.052038576,0.21983643,-0.043542482,98.0
1567,2.9857693,-0.25532532,0.16526031,0.052038576,0.21983643,-0.043542482,98.0
1568,0.843132,0.5855255,-0.33644485,0.052038576,0.21983643,-0.043542482,98.0
1569,0.843132,0.5855255,-0.33644485,-0.1901001,0.40144044,0.24213867,98.0
1570,0.843132,0.5855255,-0.33644485,-0.41206056,0.47896728,0.51082766,98.0
1571,0.843132,0.5855255,-0.33644485,-0.5161377,0.5851685,0.7455322,98.0
1572,0.7568054,0.24796295,-0.832901,-0.5161377,0.5851685,0.7455322,98.0
1573,0.7568054,0.24796295,-0.832901,-0.5766724,0.71154785,0.9611206,98.0
1574,0.7435417,-0.12942505,-1.2103653,-0.5766724,0.71154785,0.9611206,98.0
1575,0.7435417,-0.12942505,-1.2103653,-0.6531372,0.87403566,1.0991821,98.0
1576,0.5576267,-0.38957214,-1.291069,-0.6531372,0.87403566,1.0991821,98.0
1577,0.5576267,-0.38957214,-1.291069,-0.6690674,1.0482056,1.2149414,98.0
1578,0.056183815,-0.5182953,-1.1009216,-0.6690674,1.0482056,1.2149414,98.0
1579,0.056183815,-0.5182953,-1.1009216,-0.7147339,1.2914063,1.3476928,98.0
1580,-0.85624886,-0.54803467,-0.8133316,-0.7147339,1.2914063,1.3476928,98.0
1581,-0.85624886,-0.54803467,-0.8133316,-0.84111327,1.4400879,1.4783204,98.0
1582,-1.9882708,-0.58615875,-0.5307808,-0.84111327,1.4400879,1.4783204,98.0
1583,-1.9882708,-0.58615875,-0.5307808,-0.92076415,1.4868164,1.6418701,98.0
1584,-2.97758,-0.67744446,-0.3160324,-0.92076415,1.4868164,1.6418701,98.0
1585,-2.97758,-0.67744446,-0.3160324,-0.8623535,1.4645141,1.8224121,98.0
1586,-3.6018152,-0.69085693,-0.20313263,-0.8623535,1.4645141,1.8224121,98.0
1587,-3.6018152,-0.69085693,-0.20313263,-0.7072998,1.359375,2.0358765,98.0
1588,-3.7739449,-0.5504303,-0.24528503,-0.7072998,1.359375,2.0358765,98.0
1589,-3.7739449,-0.5504303,-0.24528503,-0.5129517,1.2106934,2.2100465,98.0
1590,-3.5029812,-0.38391113,-0.44172287,-0.5129517,1.2106934,2.2100465,98.0
1591,-3.5029812,-0.38391113,-0.44172287,-0.4088745,1.1204224,2.2812011,98.0
1592,-2.973906,-0.37447357,-0.64761734,-0.4088745,1.1204224,2.2812011,98.0
1593,-2.973906,-0.37447357,-0.64761734,-0.3812622,1.1257324,2.2918212,98.0
1594,-2.4804554,-0.5499115,-0.7041664,-0.3812622,1.1257324,2.2918212,98.0
1595,-2.4804554,-0.5499115,-0.7041664,-0.31966552,1.1501588,2.2227905,98.0
1596,-2.1757216,-0.7258072,-0.6358185,-0.31966552,1.1501588,2.2227905,98.0
1597,-2.1757216,-0.7258072,-0.6358185,-0.2357666,1.1182984,2.1123414,98.0
1598,-1.9855237,-0.70090485,-0.5860977,-0.2357666,1.1182984,2.1123414,98.0
1599,-1.9855237,-0.70090485,-0.5860977,-0.18903808,1.0503296,2.0178223,98.0
1600,-1.8211827,-0.5456238,-0.57969284,-0.18903808,1.0503296,2.0178223,98.0
1601,-1.8211827,-0.5456238,-0.57969284,-0.18160401,0.99935305,1.8245362,98.0
1602,-1.6632574,-0.4122162,-0.5426254,-0.18160401,0.99935305,1.8245362,98.0
1603,-1.6632574,-0.4122162,-0.5426254,-0.21452637,0.92713624,1.6110718,98.0
1604,-1.4856839,-0.373909,-0.4515419,-0.21452637,0.92713624,1.6110718,98.0
1605,-1.4856839,-0.373909,-0.4515419,-0.24744873,0.7742066,1.3922974,98.0
1606,-1.2039037,-0.4295349,-0.3277626,-0.24744873,0.7742066,1.3922974,98.0
1607,-1.2039037,-0.4295349,-0.3277626,-0.24320069,0.5957886,1.0959961,98.0
1608,-0.7198734,-0.54341125,-0.20233536,-0.24320069,0.5957886,1.0959961,98.0
1609,-0.7198734,-0.54341125,-0.20233536,-0.24851075,0.39506838,0.7317261,98.0
1610,-0.14367223,-0.64601135,-0.15454483,-0.24851075,0.39506838,0.7317261,98.0
