,accx,accy,accz,gyrox,gyroy,gyroz,heart rate
1,walk,walk,walk,walk,walk,walk,walk
2,1.3355591,17.624659,137.3763,0.0,0.0,0.0,0.0
3,1.3355591,17.624659,137.3763,-0.0998291,0.023364259,-0.10407715,0.0
4,0.93041015,13.846639,109.56998,-0.0998291,0.023364259,-0.10407715,0.0
5,0.93041015,13.846639,109.56998,-0.09133301,0.022302246,-0.0021240234,0.0
6,0.6378584,11.006608,87.4775,-0.09133301,0.022302246,-0.0021240234,0.0
7,0.6378584,11.006608,87.4775,-0.04141846,-0.033984374,0.06584473,0.0
8,0.5052086,8.790455,70.037155,-0.04141846,-0.033984374,0.06584473,0.0
9,0.5052086,8.790455,70.037155,-0.035046387,-0.06584473,0.03717041,0.0
10,0.45998967,7.0233917,56.13855,-0.035046387,-0.06584473,0.03717041,0.0
11,0.45998967,7.0233917,56.13855,-0.0361084,-0.033984374,0.0,0.0
12,0.45998967,7.0233917,56.13855,0.011682129,-0.04991455,0.004248047,0.0
13,0.42191017,5.7184334,44.94509,0.011682129,-0.04991455,0.004248047,0.0
14,0.37569952,4.7210846,35.93866,0.011682129,-0.04991455,0.004248047,0.0
15,0.37569952,4.7210846,35.93866,-0.07327881,-0.027612304,-0.035046387,0.0
16,0.31439018,3.8428593,28.7733,-0.07327881,-0.027612304,-0.035046387,0.0
17,0.31439018,3.8428593,28.7733,-0.11044922,-0.016992187,-0.028674318,0.0
18,0.23464203,2.9779491,23.082626,-0.11044922,-0.016992187,-0.028674318,0.0
19,0.23464203,2.9779491,23.082626,-0.07115479,-0.029736329,-0.06265869,0.0
20,0.14094841,2.2146473,18.500137,-0.07115479,-0.029736329,-0.06265869,0.0
21,0.14094841,2.2146473,18.500137,0.057348635,-0.06159668,-0.039294433,0.0
22,0.07755375,1.7273827,14.752426,0.057348635,-0.06159668,-0.039294433,0.0
23,0.07755375,1.7273827,14.752426,0.04460449,-0.015930176,-0.007434082,0.0
24,0.08119583,1.4934902,11.732086,0.04460449,-0.015930176,-0.007434082,0.0
25,0.08119583,1.4934902,11.732086,0.007434082,-0.004248047,-0.013806152,0.0
26,0.106289625,1.2908363,9.397858,0.007434082,-0.004248047,-0.013806152,0.0
27,0.106289625,1.2908363,9.397858,-0.053100586,0.0053100586,-0.04248047,0.0
28,0.099704504,1.0079002,7.5883484,-0.053100586,0.0053100586,-0.04248047,0.0
29,0.099704504,1.0079002,7.5883484,-0.039294433,0.0063720704,-0.025488282,0.0
30,0.099704504,1.0079002,7.5883484,0.06265869,-0.011682129,0.0010620117,0.0
31,0.033999443,0.70859146,6.1039734,0.06265869,-0.011682129,0.0010620117,0.0
32,-0.018222809,0.46026802,4.7783813,0.06265869,-0.011682129,0.0010620117,0.0
33,-0.018222809,0.46026802,4.7783813,0.18160401,-0.050976563,0.046728518,0.0
34,-0.06098938,0.2440567,3.5740051,0.18160401,-0.050976563,0.046728518,0.0
35,-0.06098938,0.2440567,3.5740051,0.13699952,-0.046728518,0.029736329,0.0
36,0.075671434,0.162323,2.4386292,0.13699952,-0.046728518,0.029736329,0.0
37,0.075671434,0.162323,2.4386292,0.41418457,-0.15505372,0.3525879,0.0
38,0.29612064,0.5040035,1.5229797,0.41418457,-0.15505372,0.3525879,0.0
39,0.29612064,0.5040035,1.5229797,0.3727661,-0.23151855,0.0053100586,0.0
40,0.43137884,0.98036194,1.130188,0.3727661,-0.23151855,0.0053100586,0.0
41,0.43137884,0.98036194,1.130188,0.03717041,-0.19647217,0.0637207,0.0
42,0.4162457,0.99943924,1.1656342,0.03717041,-0.19647217,0.0637207,0.0
43,0.4162457,0.99943924,1.1656342,0.10407715,-0.36320803,0.087084964,0.0
44,0.34342134,0.8215256,1.3330688,0.10407715,-0.36320803,0.087084964,0.0
45,0.34342134,0.8215256,1.3330688,-0.070092775,-0.34833986,0.004248047,0.0
46,0.32044017,0.37803268,1.3938599,-0.070092775,-0.34833986,0.004248047,0.0
47,0.32044017,0.37803268,1.3938599,-0.38975832,-0.25594482,-0.15930176,0.0
48,0.27864218,-0.25465393,1.3278809,-0.38975832,-0.25594482,-0.15930176,0.0
49,0.27864218,-0.25465393,1.3278809,-0.17841797,-0.26444092,-0.011682129,0.0
50,0.28712273,-0.5263176,1.2140198,-0.17841797,-0.26444092,-0.011682129,0.0
51,0.28712273,-0.5263176,1.2140198,0.004248047,-0.23789063,-0.020178223,0.0
52,0.3576157,-0.3434677,1.108429,0.004248047,-0.23789063,-0.020178223,0.0
53,0.3576157,-0.3434677,1.108429,0.1901001,-0.1996582,0.023364259,0.0
54,0.40409803,-0.04832077,1.0431213,0.1901001,-0.1996582,0.023364259,0.0
55,0.40409803,-0.04832077,1.0431213,0.24320069,-0.1274414,0.09451904,0.0
56,0.40409803,-0.04832077,1.0431213,0.34833986,0.021240234,0.22514649,0.0
57,0.39743614,-0.0040245056,1.0947723,0.34833986,0.021240234,0.22514649,0.0
58,0.29473114,-0.1932602,1.180954,0.34833986,0.021240234,0.22514649,0.0
59,0.29473114,-0.1932602,1.180954,0.5734863,0.17523193,0.37595215,0.0
60,0.016302347,-0.3021183,1.1395264,0.5734863,0.17523193,0.37595215,0.0
61,0.016302347,-0.3021183,1.1395264,0.8092529,0.35471192,0.49489745,0.0
62,-0.27167487,-0.18706703,0.97288513,0.8092529,0.35471192,0.49489745,0.0
63,-0.27167487,-0.18706703,0.97288513,1.081128,0.5522461,0.6117188,0.0
64,-0.431561,-0.076581955,0.7944946,1.081128,0.5522461,0.6117188,0.0
65,-0.431561,-0.076581955,0.7944946,1.357251,0.80819094,0.8336792,0.0
66,-0.6122775,-0.014280319,0.70199585,1.357251,0.80819094,0.8336792,0.0
67,-0.6122775,-0.014280319,0.70199585,1.6131958,0.9781128,1.1076783,0.0
68,-0.8586086,0.4572296,0.6183014,1.6131958,0.9781128,1.1076783,0.0
69,-0.8586086,0.4572296,0.6183014,1.4783204,1.1629028,1.1108643,0.0
70,-1.1344088,1.2339344,0.3708496,1.4783204,1.1629028,1.1108643,0.0
71,-1.1344088,1.2339344,0.3708496,1.0450195,1.3986695,1.085376,0.0
72,-1.4788284,1.608118,-0.06730652,1.0450195,1.3986695,1.085376,0.0
73,-1.4788284,1.608118,-0.06730652,0.8400513,1.4868164,1.1034302,0.0
74,-1.4788284,1.608118,-0.06730652,0.91120607,1.4772583,1.1544068,0.0
75,-1.808661,1.5215282,-0.4908905,0.91120607,1.4772583,1.1544068,0.0
76,-1.9841602,1.5355568,-0.7768707,0.91120607,1.4772583,1.1544068,0.0
77,-1.9841602,1.5355568,-0.7768707,0.98236084,1.448584,1.1544068,0.0
78,-1.9841602,1.5355568,-0.7768707,0.98236084,1.448584,1.1544068,86.0
79,-2.0492423,1.8714752,-1.0055847,0.98236084,1.448584,1.1544068,86.0
80,-2.0492423,1.8714752,-1.0055847,0.91757816,1.4390259,1.1161743,86.0
81,-2.0177875,2.1773071,-1.27771,0.91757816,1.4390259,1.1161743,86.0
82,-2.0177875,2.1773071,-1.27771,0.7784546,1.453894,1.1055542,86.0
83,-2.0177875,2.1773071,-1.27771,0.7126099,1.4071655,1.0726318,86.0
84,-1.8355434,2.172058,-1.6153564,0.7126099,1.4071655,1.0726318,86.0
85,-1.5404928,1.9443359,-1.9466553,0.7126099,1.4071655,1.0726318,86.0
86,-1.5404928,1.9443359,-1.9466553,0.75721437,1.2924683,1.0259033,86.0
87,-1.258554,1.743969,-2.1173248,0.75721437,1.2924683,1.0259033,86.0
88,-1.258554,1.743969,-2.1173248,0.7423462,1.1692749,1.0099732,86.0
89,-1.1246777,1.6113014,-2.0772247,0.7423462,1.1692749,1.0099732,86.0
90,-1.1246777,1.6113014,-2.0772247,0.65207523,1.0301514,1.0280274,86.0
91,-1.156456,1.4633083,-1.9249725,0.65207523,1.0301514,1.0280274,86.0
92,-1.156456,1.4633083,-1.9249725,0.6552612,0.84111327,1.0004151,86.0
93,-1.1296692,1.2127247,-1.7056122,0.6552612,0.84111327,1.0004151,86.0
94,-1.1296692,1.2127247,-1.7056122,0.72641605,0.7104859,1.0078491,86.0
95,-0.88757324,0.9516735,-1.4980621,0.72641605,0.7104859,1.0078491,86.0
96,-0.88757324,0.9516735,-1.4980621,0.6988037,0.5883545,1.0205933,86.0
97,-0.5112915,0.92250824,-1.4373779,0.6988037,0.5883545,1.0205933,86.0
98,-0.5112915,0.92250824,-1.4373779,0.5501221,0.5214478,0.92926025,86.0
99,-0.08327651,1.0527039,-1.5546417,0.5501221,0.5214478,0.92926025,86.0
100,-0.08327651,1.0527039,-1.5546417,0.36002198,0.47471926,0.7954468,86.0
101,0.36420155,1.026989,-1.7960205,0.36002198,0.47471926,0.7954468,86.0
102,0.36420155,1.026989,-1.7960205,0.1720459,0.38551027,0.56392825,86.0
103,0.75417876,0.76327896,-2.005127,0.1720459,0.38551027,0.56392825,86.0
104,0.75417876,0.76327896,-2.005127,-0.07752686,0.22302246,0.2081543,86.0
105,1.0023541,0.41357803,-2.0661926,-0.07752686,0.22302246,0.2081543,86.0
106,1.0023541,0.41357803,-2.0661926,-0.5851685,0.008496094,-0.28674316,86.0
107,1.1350377,0.052358627,-1.9505768,-0.5851685,0.008496094,-0.28674316,86.0
108,1.1350377,0.052358627,-1.9505768,-1.4390259,-0.22514649,-0.8931519,86.0
109,1.2635844,-0.5178051,-1.6911926,-1.4390259,-0.22514649,-0.8931519,86.0
110,1.2635844,-0.5178051,-1.6911926,-2.529712,-0.48321533,-1.4846925,86.0
111,1.5011384,-1.4504509,-1.3534698,-2.529712,-0.48321533,-1.4846925,86.0
112,1.5011384,-1.4504509,-1.3534698,-3.5991578,-0.7338501,-1.9371094,86.0
113,1.9333694,-2.601694,-1.0253601,-3.5991578,-0.7338501,-1.9371094,86.0
114,1.9333694,-2.601694,-1.0253601,-4.625061,-1.0312134,-2.1866822,86.0
115,2.5100255,-3.8130074,-0.7322235,-4.625061,-1.0312134,-2.1866822,86.0
116,2.5100255,-3.8130074,-0.7322235,-5.3780274,-1.3073364,-2.3183715,86.0
117,2.9979985,-4.8945217,-0.3289795,-5.3780274,-1.3073364,-2.3183715,86.0
118,2.9979985,-4.8945217,-0.3289795,-5.7539797,-1.5048707,-2.2843874,86.0
119,3.1879253,-5.6353073,0.260437,-5.7539797,-1.5048707,-2.2843874,86.0
120,3.1879253,-5.6353073,0.260437,-5.9929323,-1.7353271,-2.5105958,86.0
121,3.212181,-5.9929123,0.8388519,-5.9929323,-1.7353271,-2.5105958,86.0
122,3.212181,-5.9929123,0.8388519,-6.151172,-2.1155274,-2.9438965,86.0
123,3.4570374,-5.90069,1.179184,-6.151172,-2.1155274,-2.9438965,86.0
124,3.4570374,-5.90069,1.179184,-6.3083496,-2.3969605,-3.437732,86.0
125,4.043377,-5.5840034,1.0917816,-6.3083496,-2.3969605,-3.437732,86.0
126,4.043377,-5.5840034,1.0917816,-6.3656983,-2.611487,-4.1418457,86.0
127,4.8031464,-5.7391014,0.654541,-6.3656983,-2.611487,-4.1418457,86.0
128,4.8031464,-5.7391014,0.654541,-5.6477785,-2.7516725,-4.512488,86.0
129,5.9910765,-7.0169764,0.3312378,-5.6477785,-2.7516725,-4.512488,86.0
130,5.9910765,-7.0169764,0.3312378,-4.066443,-3.0426636,-5.594678,86.0
131,7.626955,-7.9234934,0.18966675,-4.066443,-3.0426636,-5.594678,86.0
132,7.626955,-7.9234934,0.18966675,-3.0989501,-3.1467407,-5.94939,86.0
133,8.894826,-6.6416388,-0.15264893,-3.0989501,-3.1467407,-5.94939,86.0
134,8.894826,-6.6416388,-0.15264893,-3.1010742,-3.2465699,-6.4602175,86.0
135,9.297184,-3.920062,-0.7522278,-3.1010742,-3.2465699,-6.4602175,86.0
136,9.297184,-3.920062,-0.7522278,-3.7563355,-3.3166625,-6.947681,86.0
137,9.434671,-1.5446806,-1.4899597,-3.7563355,-3.3166625,-6.947681,86.0
138,9.434671,-1.5446806,-1.4899597,-4.900122,-3.1828492,-7.3916016,86.0
139,9.790304,-0.5154934,-2.2398071,-4.900122,-3.1828492,-7.3916016,86.0
140,9.790304,-0.5154934,-2.2398071,-6.125684,-2.6996338,-7.7633057,86.0
141,10.160698,-0.69026375,-2.718521,-6.125684,-2.6996338,-7.7633057,86.0
142,10.160698,-0.69026375,-2.718521,-7.059192,-2.2047365,-8.13501,86.0
143,10.463764,-1.4039192,-2.4618225,-7.059192,-2.2047365,-8.13501,86.0
144,10.463764,-1.4039192,-2.4618225,-7.8132205,-1.0535157,-8.321924,86.0
145,10.0668125,-2.204812,-1.9763794,-7.8132205,-1.0535157,-8.321924,86.0
146,10.0668125,-2.204812,-1.9763794,-7.4489503,0.17523193,-8.369715,86.0
147,7.4218445,-2.855524,-2.5742798,-7.4489503,0.17523193,-8.369715,86.0
148,7.4218445,-2.855524,-2.5742798,-6.1044436,1.2043213,-7.489307,86.0
149,1.6647835,-4.31252,-3.8857574,-6.1044436,1.2043213,-7.489307,86.0
150,1.6647835,-4.31252,-3.8857574,-4.3914185,1.716211,-4.801355,86.0
151,-5.3036346,-4.655631,-3.3594666,-4.3914185,1.716211,-4.801355,86.0
152,-5.3036346,-4.655631,-3.3594666,-3.4101198,1.2892822,-1.2712281,86.0
153,-7.6539307,0.508173,-0.51664734,-3.4101198,1.2892822,-1.2712281,86.0
154,-7.6539307,0.508173,-0.51664734,-2.1611938,1.2043213,-1.5473511,86.0
155,-4.355652,5.657405,1.5276947,-2.1611938,1.2043213,-1.5473511,86.0
156,-4.355652,5.657405,1.5276947,-1.5643433,1.2340577,-1.2882203,86.0
157,-1.5088882,4.451827,1.1631317,-1.5643433,1.2340577,-1.2882203,86.0
158,-1.5088882,4.451827,1.1631317,-0.80606693,1.2383057,-1.0981201,86.0
159,-1.5069389,0.571105,-0.7093353,-0.80606693,1.2383057,-1.0981201,86.0
160,-1.5069389,0.571105,-0.7093353,-1.0673218,1.3370727,-0.74659425,86.0
161,-2.278513,-1.4908695,-2.7805786,-1.0673218,1.3370727,-0.74659425,86.0
162,-2.278513,-1.4908695,-2.7805786,-1.0875,1.1490967,-0.15186767,86.0
163,-2.5694427,-1.0261555,-4.0149536,-1.0875,1.1490967,-0.15186767,86.0
164,-2.5694427,-1.0261555,-4.0149536,-0.10407715,0.98448485,0.11363526,86.0
165,-2.621521,0.6894398,-4.0605774,-0.10407715,0.98448485,0.11363526,86.0
166,-2.621521,0.6894398,-4.0605774,0.72323,0.7126099,0.19647217,86.0
167,-2.568615,2.0792255,-3.2848358,0.72323,0.7126099,0.19647217,86.0
168,-2.568615,2.0792255,-3.2848358,1.5133667,0.39400634,0.5065796,86.0
169,-1.9563084,2.487978,-2.3511658,1.5133667,0.39400634,0.5065796,86.0
170,-1.9563084,2.487978,-2.3511658,2.261023,0.04991455,0.7678345,86.0
171,-0.48504257,2.1171036,-1.6848145,2.261023,0.04991455,0.7678345,86.0
172,-0.48504257,2.1171036,-1.6848145,2.893982,-0.23258057,1.083252,86.0
173,1.413662,1.5975647,-1.4057007,2.893982,-0.23258057,1.083252,86.0
174,1.413662,1.5975647,-1.4057007,3.43667,-0.45454103,1.5282348,86.0
175,2.5595055,1.4577389,-1.2284851,3.43667,-0.45454103,1.5282348,86.0
176,2.5595055,1.4577389,-1.2284851,3.7945678,-0.64570314,2.1038454,86.0
177,2.6439056,1.775444,-0.88786316,3.7945678,-0.64570314,2.1038454,86.0
178,2.6439056,1.775444,-0.88786316,4.0356445,-0.8973999,2.792029,86.0
179,2.9064083,2.033722,-0.58547974,4.0356445,-0.8973999,2.792029,86.0
180,2.9064083,2.033722,-0.58547974,4.184326,-1.0959961,3.3963134,86.0
181,4.0426064,1.5424929,-0.6277466,4.184326,-1.0959961,3.3963134,86.0
182,4.0426064,1.5424929,-0.6277466,4.364868,-1.2552979,4.099365,86.0
183,5.3046913,0.46122837,-0.89949036,4.364868,-1.2552979,4.099365,86.0
184,5.3046913,0.46122837,-0.89949036,4.618689,-1.3657471,4.89375,86.0
185,6.156595,-0.22174072,-1.0474854,4.618689,-1.3657471,4.89375,86.0
186,6.156595,-0.22174072,-1.0474854,5.0180054,-1.3753052,5.696631,86.0
187,6.4141426,-0.16967773,-0.95040894,5.0180054,-1.3753052,5.696631,86.0
188,6.4141426,-0.16967773,-0.95040894,4.429651,-1.0259033,6.246753,86.0
189,5.6223526,-0.18928242,-0.63752747,4.429651,-1.0259033,6.246753,86.0
190,5.6223526,-0.18928242,-0.63752747,4.2257447,-0.74022216,6.8956423,86.0
191,3.5682316,-0.9368267,-0.1462555,4.2257447,-0.74022216,6.8956423,86.0
192,3.5682316,-0.9368267,-0.1462555,3.615088,-0.3802002,7.3172607,86.0
193,0.8886547,-2.1752663,0.48342896,3.615088,-0.3802002,7.3172607,86.0
194,0.8886547,-2.1752663,0.48342896,3.80625,-0.37382814,7.8249025,86.0
195,-0.7744026,-3.0052032,1.0012207,3.80625,-0.37382814,7.8249025,86.0
196,-0.7744026,-3.0052032,1.0012207,4.088745,-0.26444092,8.075538,86.0
197,-0.93564796,-2.822424,1.3105621,4.088745,-0.26444092,8.075538,86.0
198,-0.93564796,-2.822424,1.3105621,4.3924804,0.025488282,7.9056153,86.0
199,-0.9856758,-1.94804,1.7046661,4.3924804,0.025488282,7.9056153,86.0
200,-0.9856758,-1.94804,1.7046661,4.603821,0.5363159,7.8100343,86.0
201,-2.1900177,-1.0553436,2.176056,4.603821,0.5363159,7.8100343,86.0
202,-2.1900177,-1.0553436,2.176056,4.591077,1.1310425,7.4489503,86.0
203,-4.4656487,-0.3725958,2.3050537,4.591077,1.1310425,7.4489503,86.0
204,-4.4656487,-0.3725958,2.3050537,4.152466,1.4995606,6.8202395,86.0
205,-6.688095,0.21306801,2.0466766,4.152466,1.4995606,6.8202395,86.0
206,-6.688095,0.21306801,2.0466766,3.6745605,1.7363892,6.0099244,86.0
207,-8.150366,0.8048172,1.7489624,3.6745605,1.7363892,6.0099244,86.0
208,-8.150366,0.8048172,1.7489624,3.172229,1.8946289,5.3663454,86.0
209,-9.022808,1.5345516,1.5636139,3.172229,1.8946289,5.3663454,86.0
210,-9.022808,1.5345516,1.5636139,2.4118288,1.9583496,4.615503,86.0
211,-9.673471,2.1324873,1.5209503,2.4118288,1.9583496,4.615503,86.0
212,-9.673471,2.1324873,1.5209503,1.6450561,1.8574585,3.8359864,86.0
213,-10.083332,2.3081503,1.5875244,1.6450561,1.8574585,3.8359864,86.0
214,-10.083332,2.3081503,1.5875244,1.3243287,1.5292969,3.062842,86.0
215,-9.878873,2.1882563,1.6158142,1.3243287,1.5292969,3.062842,86.0
216,-9.878873,2.1882563,1.6158142,1.2372437,1.2627319,2.2928834,86.0
217,-9.028514,1.9999943,1.5030975,1.2372437,1.2627319,2.2928834,86.0
218,-9.028514,1.9999943,1.5030975,0.90908206,1.0588257,1.540979,86.0
219,-7.812667,1.7765331,1.243103,0.90908206,1.0588257,1.540979,86.0
220,-7.812667,1.7765331,1.243103,0.2538208,0.8496094,0.8007569,86.0
221,-6.385522,1.3897562,0.8652954,0.2538208,0.8496094,0.8007569,86.0
222,-6.385522,1.3897562,0.8652954,-0.6159668,0.6818115,-0.0021240234,86.0
223,-5.0817575,0.70002556,0.44117737,-0.6159668,0.6818115,-0.0021240234,86.0
224,-5.0817575,0.70002556,0.44117737,-1.5908936,0.48746338,-0.8326172,86.0
225,-4.1541514,-0.25082016,0.08731079,-1.5908936,0.48746338,-0.8326172,86.0
226,-4.1541514,-0.25082016,0.08731079,-2.5658205,0.12000733,-1.811792,86.0
227,-3.2216244,-1.3918066,0.054382324,-2.5658205,0.12000733,-1.811792,86.0
228,-3.2216244,-1.3918066,0.054382324,-3.248694,-0.3419678,-2.9354005,86.0
229,-1.8331833,-2.7022514,0.55389404,-3.248694,-0.3419678,-2.9354005,86.0
230,-1.8331833,-2.7022514,0.55389404,-3.42605,-0.8294312,-3.9103272,86.0
231,-0.14627075,-3.8356047,1.4230957,-3.42605,-0.8294312,-3.9103272,86.0
232,-0.14627075,-3.8356047,1.4230957,-3.6384523,-1.2744141,-4.615503,86.0
233,1.4997072,-4.2357073,2.2012787,-3.6384523,-1.2744141,-4.615503,86.0
234,1.4997072,-4.2357073,2.2012787,-4.050513,-1.5802735,-5.3886476,86.0
235,3.103489,-4.1224165,2.4586334,-4.050513,-1.5802735,-5.3886476,86.0
236,3.103489,-4.1224165,2.4586334,-4.0005984,-1.6535523,-5.990808,86.0
237,4.725748,-3.9976034,1.9889526,-4.0005984,-1.6535523,-5.990808,86.0
238,4.725748,-3.9976034,1.9889526,-3.070276,-1.5473511,-6.3922486,86.0
239,6.09991,-3.7088375,0.911911,-3.070276,-1.5473511,-6.3922486,86.0
240,6.09991,-3.7088375,0.911911,-1.8617066,-1.3848633,-6.7267823,86.0
241,6.665267,-2.9249926,-0.43676758,-1.8617066,-1.3848633,-6.7267823,86.0
242,6.665267,-2.9249926,-0.43676758,-1.084314,-1.3827393,-6.943433,86.0
243,6.4179554,-1.4200602,-1.6711578,-1.084314,-1.3827393,-6.943433,86.0
244,6.4179554,-1.4200602,-1.6711578,-1.0959961,-1.5112427,-7.066626,86.0
245,6.432729,0.4263296,-2.3322601,-1.0959961,-1.5112427,-7.066626,86.0
246,6.432729,0.4263296,-2.3322601,-1.4337158,-1.2882203,-7.2779665,86.0
247,7.27211,1.6800404,-2.0597992,-1.4337158,-1.2882203,-7.2779665,86.0
248,7.27211,1.6800404,-2.0597992,-1.7363892,-0.7699585,-7.394788,86.0
249,8.265442,1.973268,-1.3029175,-1.7363892,-0.7699585,-7.394788,86.0
250,8.265442,1.973268,-1.3029175,-2.2833252,-0.19541016,-7.2503543,86.0
251,8.502575,1.774086,-1.1154175,-2.2833252,-0.19541016,-7.2503543,86.0
252,8.502575,1.774086,-1.1154175,-3.0394776,0.39506838,-6.813867,86.0
253,7.526512,1.6440859,-1.7864075,-3.0394776,0.39506838,-6.813867,86.0
254,7.526512,1.6440859,-1.7864075,-3.725537,0.9696167,-6.135242,86.0
255,5.4003735,1.5936623,-2.429306,-3.725537,0.9696167,-6.135242,86.0
256,5.4003735,1.5936623,-2.429306,-4.1174197,1.4273437,-4.8629518,86.0
257,2.4584694,1.1778469,-2.313202,-4.1174197,1.4273437,-4.8629518,86.0
258,2.4584694,1.1778469,-2.313202,-3.896521,1.4751343,-3.2497559,86.0
259,-0.47646332,0.65852547,-1.451294,-3.896521,1.4751343,-3.2497559,86.0
260,-0.47646332,0.65852547,-1.451294,-3.7425294,1.3317627,-2.1866822,86.0
261,-2.0438786,1.0430317,-0.33668518,-3.7425294,1.3317627,-2.1866822,86.0
262,-2.0438786,1.0430317,-0.33668518,-3.5768554,1.2032593,-1.5643433,86.0
263,-1.9463463,1.768898,0.2903595,-3.5768554,1.2032593,-1.5643433,86.0
264,-1.9463463,1.768898,0.2903595,-3.1796632,1.0482056,-1.1926392,86.0
265,-1.266367,1.4677305,-0.01272583,-3.1796632,1.0482056,-1.1926392,86.0
266,-1.266367,1.4677305,-0.01272583,-2.4351928,0.84748536,-1.0174073,86.0
267,-0.7018509,0.43812466,-1.031601,-2.4351928,0.84748536,-1.0174073,86.0
268,-0.7018509,0.43812466,-1.031601,-1.7735596,0.6202149,-0.77102053,86.0
269,0.08025551,-0.4245491,-2.1592865,-1.7735596,0.6202149,-0.77102053,86.0
270,0.08025551,-0.4245491,-2.1592865,-0.99085695,0.24107666,-0.26762697,86.0
271,0.86372757,-0.6416416,-2.8559723,-0.99085695,0.24107666,-0.26762697,86.0
272,0.86372757,-0.6416416,-2.8559723,-0.270813,0.025488282,0.026550293,86.0
273,0.6581459,-0.15507412,-2.810089,-0.270813,0.025488282,0.026550293,86.0
274,0.6581459,-0.15507412,-2.810089,0.4619751,-0.3345337,0.4725952,86.0
275,0.6581459,-0.15507412,-2.810089,1.263794,-0.7827026,0.89208984,86.0
276,0.6581459,-0.15507412,-2.810089,1.263794,-0.7827026,0.89208984,86.0
277,-0.24301529,0.5035162,-2.0599976,1.263794,-0.7827026,0.89208984,86.0
278,-0.6277504,0.9086609,-1.0052185,1.263794,-0.7827026,0.89208984,86.0
279,-0.6277504,0.9086609,-1.0052185,2.0284424,-1.2276856,1.3731812,86.0
280,-0.23872375,1.1457767,-0.0670166,2.0284424,-1.2276856,1.3731812,86.0
281,-0.23872375,1.1457767,-0.0670166,2.6677735,-1.5696534,1.8702027,86.0
282,0.41276932,1.3496904,0.5252228,2.6677735,-1.5696534,1.8702027,86.0
283,0.41276932,1.3496904,0.5252228,3.263562,-1.8351563,2.3735962,86.0
284,1.0585232,1.4081945,0.6867676,3.263562,-1.8351563,2.3735962,86.0
285,1.0585232,1.4081945,0.6867676,3.6851807,-1.9902099,2.8281372,86.0
286,1.6092815,1.1363573,0.5556183,3.6851807,-1.9902099,2.8281372,86.0
287,1.6092815,1.1363573,0.5556183,4.0473266,-2.0103881,3.25719,86.0
288,1.8575172,0.59673214,0.36114502,4.0473266,-2.0103881,3.25719,86.0
289,1.8575172,0.59673214,0.36114502,4.3128295,-1.8808228,3.611902,86.0
290,1.4293976,0.087200165,0.17965698,4.3128295,-1.8808228,3.611902,86.0
291,1.4293976,0.087200165,0.17965698,4.7333865,-1.6439942,3.9464357,86.0
292,0.22472,-0.016677856,-0.095565796,4.7333865,-1.6439942,3.9464357,86.0
293,0.22472,-0.016677856,-0.095565796,4.0420165,-1.2765381,4.2066283,86.0
294,-1.148983,0.10929012,-0.38346863,4.0420165,-1.2765381,4.2066283,86.0
295,-1.148983,0.10929012,-0.38346863,3.3166625,-0.9770508,4.533728,86.0
296,-1.9463234,-0.12316418,-0.43017578,3.3166625,-0.9770508,4.533728,86.0
297,-1.9463234,-0.12316418,-0.43017578,3.2731202,-0.73597413,4.7386966,86.0
298,-1.9964027,-0.37176132,-0.14065552,3.2731202,-0.73597413,4.7386966,86.0
299,-1.9964027,-0.37176132,-0.14065552,3.5853517,-0.52675784,4.8587036,86.0
300,-1.7093773,-0.12197018,0.32910156,3.5853517,-0.52675784,4.8587036,86.0
301,-1.7093773,-0.12197018,0.32910156,2.9502685,-0.2262085,4.602759,86.0
302,-1.545433,0.054084778,0.71920776,2.9502685,-0.2262085,4.602759,86.0
303,-1.545433,0.054084778,0.71920776,2.061365,0.14761963,4.4848757,86.0
304,-1.4738579,-0.37290668,0.7919464,2.061365,0.14761963,4.4848757,86.0
305,-1.4738579,-0.37290668,0.7919464,1.2722901,0.544812,4.12273,86.0
306,-1.5977249,-1.0109596,0.7380371,1.2722901,0.544812,4.12273,86.0
307,-1.5977249,-1.0109596,0.7380371,1.1618408,0.75615233,3.8349245,86.0
308,-2.0421085,-1.2835236,0.77401733,1.1618408,0.75615233,3.8349245,86.0
309,-2.0421085,-1.2835236,0.77401733,0.98129886,0.83474123,3.2370117,86.0
310,-2.5528889,-1.2036257,0.8020935,0.98129886,0.83474123,3.2370117,86.0
311,-2.5528889,-1.2036257,0.8020935,0.79226077,0.9154541,2.5785644,86.0
312,-3.0574608,-0.93134594,0.71061707,0.79226077,0.9154541,2.5785644,86.0
313,-3.0574608,-0.93134594,0.71061707,0.49489745,0.9685547,1.9636596,86.0
314,-3.6412563,-0.5261078,0.68325806,0.49489745,0.9685547,1.9636596,86.0
315,-3.6412563,-0.5261078,0.68325806,-0.1539917,0.93350834,1.3763672,86.0
316,-4.0297527,-0.29763222,0.83729553,-0.1539917,0.93350834,1.3763672,86.0
317,-4.0297527,-0.29763222,0.83729553,-0.8092529,0.88253176,0.6754395,86.0
318,-3.7360706,-0.47696114,0.9942322,-0.8092529,0.88253176,0.6754395,86.0
319,-3.7360706,-0.47696114,0.9942322,-1.1161743,0.77739257,-0.31860352,86.0
320,-2.6129894,-0.87174225,0.9506531,-1.1161743,0.77739257,-0.31860352,86.0
321,-2.6129894,-0.87174225,0.9506531,-1.2977784,0.7540283,-1.4315919,86.0
322,-1.242589,-1.1633244,0.6477051,-1.2977784,0.7540283,-1.4315919,86.0
323,-1.242589,-1.1633244,0.6477051,-1.6514282,0.71791995,-2.3682861,86.0
324,-0.35430145,-1.219368,0.17314148,-1.6514282,0.71791995,-2.3682861,86.0
325,-0.35430145,-1.219368,0.17314148,-1.9859619,0.4609131,-3.1414306,86.0
326,0.10023785,-1.0263615,-0.07809448,-1.9859619,0.4609131,-3.1414306,86.0
327,0.10023785,-1.0263615,-0.07809448,-2.1346436,0.15611573,-3.7457154,86.0
328,0.48847866,-0.6846514,0.3289032,-2.1346436,0.15611573,-3.7457154,86.0
329,0.48847866,-0.6846514,0.3289032,-1.987024,-0.11044922,-4.1949463,86.0
330,0.93089485,-0.48752785,1.3414764,-1.987024,-0.11044922,-4.1949463,86.0
331,0.93089485,-0.48752785,1.3414764,-1.3774292,-0.22514649,-4.4774413,86.0
332,1.5161886,-0.30580616,2.273346,-1.3774292,-0.22514649,-4.4774413,86.0
333,1.5161886,-0.30580616,2.273346,-0.50445557,-0.32391357,-4.4530153,86.0
334,2.3349476,0.3411579,1.9845276,-0.50445557,-0.32391357,-4.4530153,86.0
335,2.3349476,0.3411579,1.9845276,-0.4258667,0.059472658,-4.440271,86.0
336,2.9604263,1.2851582,0.07270813,-0.4258667,0.059472658,-4.440271,86.0
337,2.9604263,1.2851582,0.07270813,-1.1692749,0.31010744,-4.3914185,86.0
338,3.0335388,1.9021015,-2.1659393,-1.1692749,0.31010744,-4.3914185,86.0
339,3.0335388,1.9021015,-2.1659393,-2.066675,0.5798584,-4.2384887,86.0
340,2.7861328,1.9838886,-2.6619415,-2.066675,0.5798584,-4.2384887,86.0
341,2.7861328,1.9838886,-2.6619415,-2.4160767,0.72854006,-4.1482177,86.0
342,2.460474,1.3544331,-2.9270935,-2.4160767,0.72854006,-4.1482177,86.0
343,2.460474,1.3544331,-2.9270935,-3.2338257,1.0503296,-3.7637696,86.0
344,2.059822,1.1122446,-2.1546478,-3.2338257,1.0503296,-3.7637696,86.0
345,2.059822,1.1122446,-2.1546478,-3.528003,1.1013062,-3.6575685,86.0
346,1.7326736,0.024194717,-0.7237091,-3.528003,1.1013062,-3.6575685,86.0
347,1.7326736,0.024194717,-0.7237091,-3.355957,1.3009644,-2.9120362,86.0
348,1.4029236,-0.0944252,-0.24385071,-3.355957,1.3009644,-2.9120362,86.0
349,1.4029236,-0.0944252,-0.24385071,-3.0723999,1.2786621,-2.6624634,86.0
350,0.5267334,-0.4852085,0.48368835,-3.0723999,1.2786621,-2.6624634,86.0
351,0.5267334,-0.4852085,0.48368835,-1.8340943,1.0726318,-2.0634887,86.0
352,0.15979004,-0.22511768,0.6185913,-1.8340943,1.0726318,-2.0634887,86.0
353,0.15979004,-0.22511768,0.6185913,-1.538855,0.9897949,-1.9721558,86.0
354,-0.73535156,0.062422752,0.8136444,-1.538855,0.9897949,-1.9721558,86.0
355,-0.73535156,0.062422752,0.8136444,-0.5809204,0.8666016,-1.536731,86.0
356,-0.9514656,0.22089767,0.7155304,-0.5809204,0.8666016,-1.536731,86.0
357,-0.9514656,0.22089767,0.7155304,-0.37382814,0.81668705,-1.4156617,86.0
358,-1.6412868,0.024435997,-0.008010864,-0.37382814,0.81668705,-1.4156617,86.0
359,-1.6412868,0.024435997,-0.008010864,-0.06159668,0.6796875,-1.0184692,86.0
360,-1.3553028,0.009990692,-0.3042755,-0.06159668,0.6796875,-1.0184692,86.0
361,-1.3553028,0.009990692,-0.3042755,-0.14868164,0.6265869,-0.84111327,86.0
362,-0.37037468,-0.21379757,-1.2918396,-0.14868164,0.6265869,-0.84111327,86.0
363,-0.37037468,-0.21379757,-1.2918396,0.20072022,0.35789797,-0.28780517,86.0
364,0.3665657,-0.13034058,-1.3506165,0.20072022,0.35789797,-0.28780517,86.0
365,0.3665657,-0.13034058,-1.3506165,0.2166504,0.21346436,-0.09451904,86.0
366,4.102726,0.19753456,-2.1298065,0.2166504,0.21346436,-0.09451904,86.0
367,4.102726,0.19753456,-2.1298065,0.18266602,0.05522461,0.54587406,86.0
368,4.2833786,0.17250443,-1.805191,0.18266602,0.05522461,0.54587406,86.0
369,4.2833786,0.17250443,-1.805191,0.3058594,-0.0053100586,0.7338501,86.0
370,3.5964546,0.32049847,-1.0699921,0.3058594,-0.0053100586,0.7338501,86.0
371,3.5964546,0.32049847,-1.0699921,0.634021,-0.45029297,1.1894531,86.0
372,1.5323029,0.61272144,0.001739502,0.634021,-0.45029297,1.1894531,86.0
373,1.5323029,0.61272144,0.001739502,0.9876709,-0.80819094,1.6046997,86.0
374,1.5323029,0.61272144,0.001739502,0.9876709,-0.80819094,1.6046997,87.0
375,0.25904465,0.76709366,0.8196411,0.9876709,-0.80819094,1.6046997,87.0
376,0.25904465,0.76709366,0.8196411,1.62594,-1.177771,2.090039,87.0
377,0.30942154,0.75895023,1.0912781,1.62594,-1.177771,2.090039,87.0
378,0.30942154,0.75895023,1.0912781,2.2737672,-1.4517701,2.4914796,87.0
379,0.932621,0.6171694,0.82284546,2.2737672,-1.4517701,2.4914796,87.0
380,0.932621,0.6171694,0.82284546,2.8345094,-1.6248779,2.8706176,87.0
381,1.1377716,0.38267612,0.36143494,2.8345094,-1.6248779,2.8706176,87.0
382,1.1377716,0.38267612,0.36143494,3.1924074,-1.63125,3.2476318,87.0
383,0.064367294,0.19281006,0.06661987,3.1924074,-1.63125,3.2476318,87.0
384,0.064367294,0.19281006,0.06661987,3.2720582,-1.5261109,3.7573974,87.0
385,-0.6220169,-0.16573524,0.09411621,3.2720582,-1.5261109,3.7573974,87.0
386,-0.6220169,-0.16573524,0.09411621,3.255066,-1.4623902,3.891211,87.0
387,-1.7529736,-0.39699268,0.35292053,3.255066,-1.4623902,3.891211,87.0
388,-1.7529736,-0.39699268,0.35292053,3.3102906,-1.2191895,4.0282106,87.0
389,-2.523058,-0.5279093,0.65878296,3.3102906,-1.2191895,4.0282106,87.0
390,-2.523058,-0.5279093,0.65878296,3.6883667,-0.9653687,4.1312256,87.0
391,-2.939064,-0.31691933,0.798996,3.6883667,-0.9653687,4.1312256,87.0
392,-2.939064,-0.31691933,0.798996,3.3867555,-0.6287109,3.9687378,87.0
393,-3.2297668,0.072172165,0.8742676,3.3867555,-0.6287109,3.9687378,87.0
394,-3.2297668,0.072172165,0.8742676,2.8132691,-0.27612305,3.715979,87.0
395,-3.2435055,0.08809662,0.86309814,2.8132691,-0.27612305,3.715979,87.0
396,-3.2435055,0.08809662,0.86309814,2.079419,0.13699952,3.5439332,87.0
397,-2.8049603,-0.16478825,0.689682,2.079419,0.13699952,3.5439332,87.0
398,-2.8049603,-0.16478825,0.689682,1.7990478,0.38869628,3.3071046,87.0
399,-2.1527443,-0.32655716,0.5092926,1.7990478,0.38869628,3.3071046,87.0
400,-2.1527443,-0.32655716,0.5092926,1.2627319,0.6414551,2.9056642,87.0
401,-1.4143467,-0.40906048,0.4937439,1.2627319,0.6414551,2.9056642,87.0
402,-1.4143467,-0.40906048,0.4937439,0.8358032,0.88040775,2.461743,87.0
403,-0.8642788,-0.5590849,0.48872375,0.8358032,0.88040775,2.461743,87.0
404,-0.8642788,-0.5590849,0.48872375,0.41524658,1.0450195,2.0156982,87.0
405,-0.6658611,-0.64073753,0.371109,0.41524658,1.0450195,2.0156982,87.0
406,-0.6658611,-0.64073753,0.371109,0.16673584,1.0821899,1.6206299,87.0
407,-0.75579643,-0.52565193,0.33781433,0.16673584,1.0821899,1.6206299,87.0
408,-0.75579643,-0.52565193,0.33781433,-0.057348635,1.0120972,1.1990112,87.0
409,-1.2700672,-0.27091217,0.5510559,-0.057348635,1.0120972,1.1990112,87.0
410,-1.2700672,-0.27091217,0.5510559,-0.52038574,0.9483765,0.811377,87.0
411,-2.054945,-0.0508976,0.98324585,-0.52038574,0.9483765,0.811377,87.0
412,-2.054945,-0.0508976,0.98324585,-1.0386475,0.8496094,0.33771974,87.0
413,-2.2678947,-0.07365227,1.3688507,-1.0386475,0.8496094,0.33771974,87.0
414,-2.2678947,-0.07365227,1.3688507,-1.3476928,0.6616333,-0.4885254,87.0
415,-1.5818453,-0.41924953,1.4905853,-1.3476928,0.6616333,-0.4885254,87.0
416,-1.5818453,-0.41924953,1.4905853,-1.7703736,0.62552494,-1.6535523,87.0
417,-0.6050272,-0.9982166,1.0918732,-1.7703736,0.62552494,-1.6535523,87.0
418,-0.6050272,-0.9982166,1.0918732,-2.1144655,0.71154785,-2.6072388,87.0
419,-0.30456638,-1.6001968,0.18234253,-2.1144655,0.71154785,-2.6072388,87.0
420,-0.30456638,-1.6001968,0.18234253,-2.2217286,0.60216063,-3.1446168,87.0
421,-0.5346451,-1.7203674,-0.5392456,-2.2217286,0.60216063,-3.1446168,87.0
422,-0.5346451,-1.7203674,-0.5392456,-1.9827759,0.28780517,-3.6511962,87.0
423,-0.30332565,-1.2017212,-0.2298584,-1.9827759,0.28780517,-3.6511962,87.0
424,-0.30332565,-1.2017212,-0.2298584,-1.2298096,-0.02442627,-4.2013183,87.0
425,0.8325844,-0.34455585,0.983078,-1.2298096,-0.02442627,-4.2013183,87.0
426,0.8325844,-0.34455585,0.983078,-0.26868898,-0.29630128,-4.425403,87.0
427,2.5530052,0.6197901,1.7419281,-0.26868898,-0.29630128,-4.425403,87.0
428,2.5530052,0.6197901,1.7419281,-0.19753419,-0.16567384,-4.4880614,87.0
429,3.8610325,1.4422064,0.9516144,-0.19753419,-0.16567384,-4.4880614,87.0
430,3.8610325,1.4422064,0.9516144,-1.1469727,0.046728518,-4.231055,87.0
431,3.890522,1.8169241,-0.81796265,-1.1469727,0.046728518,-4.231055,87.0
432,3.890522,1.8169241,-0.81796265,-2.4851074,0.45454103,-3.8306763,87.0
433,2.7047157,1.7448597,-2.1895905,-2.4851074,0.45454103,-3.8306763,87.0
434,2.7047157,1.7448597,-2.1895905,-3.3209107,0.7688965,-3.4228637,87.0
435,1.1463909,1.4581194,-2.5305176,-3.3209107,0.7688965,-3.4228637,87.0
436,1.1463909,1.4581194,-2.5305176,-3.5513673,0.92926025,-2.9460206,87.0
437,0.21564865,1.0954742,-2.097107,-3.5513673,0.92926025,-2.9460206,87.0
438,0.21564865,1.0954742,-2.097107,-3.2062135,1.0057251,-2.4978516,87.0
439,0.19797134,0.68008995,-1.4412689,-3.2062135,1.0057251,-2.4978516,87.0
440,0.19797134,0.68008995,-1.4412689,-2.7782228,1.0205933,-2.18031,87.0
441,0.67430687,0.2875042,-1.0045776,-2.7782228,1.0205933,-2.18031,87.0
442,0.67430687,0.2875042,-1.0045776,-2.4819214,1.0513916,-1.8255981,87.0
443,1.0325737,-0.058973312,-0.8562622,-2.4819214,1.0513916,-1.8255981,87.0
444,1.0325737,-0.058973312,-0.8562622,-1.9976441,1.0482056,-1.6163819,87.0
445,0.8226776,-0.20817757,-0.8722687,-1.9976441,1.0482056,-1.6163819,87.0
446,0.8226776,-0.20817757,-0.8722687,-1.902063,0.9483765,-1.5760254,87.0
447,0.27238846,-0.103321075,-0.99702454,-1.902063,0.9483765,-1.5760254,87.0
448,0.27238846,-0.103321075,-0.99702454,-1.6801026,0.92076415,-1.44115,87.0
449,-0.35917664,0.095724106,-1.0104065,-1.6801026,0.92076415,-1.44115,87.0
450,-0.35917664,0.095724106,-1.0104065,-1.4252198,0.8400513,-1.445398,87.0
451,-1.0314693,0.33672333,-0.6703949,-1.4252198,0.8400513,-1.445398,87.0
452,-1.0314693,0.33672333,-0.6703949,-1.3763672,0.813501,-1.4761963,87.0
453,-1.2506752,0.4815855,-0.2923584,-1.3763672,0.813501,-1.4761963,87.0
454,-1.2506752,0.4815855,-0.2923584,-1.2319336,0.73597413,-1.5027466,87.0
455,-0.56474876,0.3633318,-0.3173523,-1.2319336,0.73597413,-1.5027466,87.0
456,-0.56474876,0.3633318,-0.3173523,-1.5346069,0.72641605,-1.5101807,87.0
457,0.927742,-0.2833948,-0.69548035,-1.5346069,0.72641605,-1.5101807,87.0
458,0.927742,-0.2833948,-0.69548035,-1.1002442,0.5703003,-1.532483,87.0
459,3.302227,-1.2732735,-1.2459106,-1.1002442,0.5703003,-1.532483,87.0
460,3.302227,-1.2732735,-1.2459106,-0.015930176,0.2824951,-1.4528321,87.0
461,5.374668,-1.9089394,-1.7263641,-0.015930176,0.2824951,-1.4528321,87.0
462,5.374668,-1.9089394,-1.7263641,0.7943848,0.24107666,-1.1575928,87.0
463,4.4699974,-1.7563877,-1.6065216,0.7943848,0.24107666,-1.1575928,87.0
464,4.4699974,-1.7563877,-1.6065216,1.442212,-0.17841797,-0.46409914,87.0
465,0.8334446,-0.7535839,-0.64930725,1.442212,-0.17841797,-0.46409914,87.0
466,0.8334446,-0.7535839,-0.64930725,1.8840088,-0.6754395,0.36639404,87.0
467,-1.8676186,0.612587,0.6215515,1.8840088,-0.6754395,0.36639404,87.0
468,-1.8676186,0.612587,0.6215515,2.4256349,-1.0057251,0.9781128,87.0
469,-1.8136749,1.6376038,1.4045715,2.4256349,-1.0057251,0.9781128,87.0
470,-1.8136749,1.6376038,1.4045715,3.1446168,-1.171399,1.5685914,87.0
471,-0.5746708,1.9613771,1.3015594,3.1446168,-1.171399,1.5685914,87.0
472,-0.5746708,1.9613771,1.3015594,3.708545,-1.2478638,2.0879152,87.0
473,0.37983704,1.6492901,0.5407562,3.708545,-1.2478638,2.0879152,87.0
474,0.37983704,1.6492901,0.5407562,4.0112185,-1.2574219,2.5254638,87.0
475,0.8853035,1.0970078,-0.29891968,4.0112185,-1.2574219,2.5254638,87.0
476,0.8853035,1.0970078,-0.29891968,4.164148,-1.2436157,2.9959352,87.0
477,0.96302795,0.62962055,-0.76828,4.164148,-1.2436157,2.9959352,87.0
478,0.96302795,0.62962055,-0.76828,4.0345826,-1.1342286,3.42605,87.0
479,0.5771103,0.36106968,-0.7935333,4.0345826,-1.1342286,3.42605,87.0
480,0.5771103,0.36106968,-0.7935333,3.7329712,-0.98448485,3.713855,87.0
481,-0.12105179,0.27490234,-0.5684662,3.7329712,-0.98448485,3.713855,87.0
482,-0.12105179,0.27490234,-0.5684662,3.3878174,-0.77739257,3.8742187,87.0
483,-0.8583641,0.30284405,-0.295578,3.3878174,-0.77739257,3.8742187,87.0
484,-0.8583641,0.30284405,-0.295578,3.09364,-0.5851685,3.9443116,87.0
485,-1.4420757,0.34229946,-0.049209595,3.09364,-0.5851685,3.9443116,87.0
486,-1.4420757,0.34229946,-0.049209595,2.6698976,-0.36108398,3.9082031,87.0
487,-1.4420757,0.34229946,-0.049209595,2.6698976,-0.36108398,3.9082031,88.0
488,-1.789135,0.20938587,0.17303467,2.6698976,-0.36108398,3.9082031,88.0
489,-1.789135,0.20938587,0.17303467,2.3905885,-0.1539917,3.7839477,88.0
490,-1.8762302,-0.17719364,0.3642578,2.3905885,-0.1539917,3.7839477,88.0
491,-1.8762302,-0.17719364,0.3642578,2.168628,0.0361084,3.5959718,88.0
492,-1.7056351,-0.639802,0.506485,2.168628,0.0361084,3.5959718,88.0
493,-1.7056351,-0.639802,0.506485,2.0433106,0.21877442,3.3899415,88.0
494,-1.3895321,-0.91915417,0.5846405,2.0433106,0.21877442,3.3899415,88.0
495,-1.3895321,-0.91915417,0.5846405,1.8595825,0.41737062,3.165857,88.0
496,-1.0300713,-0.9359951,0.6100006,1.8595825,0.41737062,3.165857,88.0
497,-1.0300713,-0.9359951,0.6100006,1.5579712,0.60216063,2.9470825,88.0
498,-0.5977154,-0.8255539,0.6586304,1.5579712,0.60216063,2.9470825,88.0
499,-0.5977154,-0.8255539,0.6586304,1.2308716,0.7497803,2.7336183,88.0
500,-0.17264175,-0.73059654,0.7468567,1.2308716,0.7497803,2.7336183,88.0
501,-0.17264175,-0.73059654,0.7468567,0.97067875,0.87403566,2.4702394,88.0
502,-0.2509308,-0.64056873,0.81773376,0.97067875,0.87403566,2.4702394,88.0
503,-0.2509308,-0.64056873,0.81773376,0.70198977,0.92501223,2.168628,88.0
504,-1.1186771,-0.504838,0.9794464,0.70198977,0.92501223,2.168628,88.0
505,-1.1186771,-0.504838,0.9794464,0.36427003,0.86766356,1.8712647,88.0
506,-2.07098,-0.41970253,1.2997131,0.36427003,0.86766356,1.8712647,88.0
507,-2.07098,-0.41970253,1.2997131,0.046728518,0.69986576,1.4730103,88.0
508,-2.2804298,-0.4384842,1.5722809,0.046728518,0.69986576,1.4730103,88.0
509,-2.2804298,-0.4384842,1.5722809,-0.1539917,0.5341919,0.86978763,88.0
510,-2.175333,-0.48014545,1.591919,-0.1539917,0.5341919,0.86978763,88.0
511,-2.175333,-0.48014545,1.591919,-0.41737062,0.38338622,0.23895264,88.0
512,-2.4083214,-0.49835014,1.3896332,-0.41737062,0.38338622,0.23895264,88.0
513,-2.4083214,-0.49835014,1.3896332,-0.8326172,0.13062744,-0.452417,88.0
514,-2.6072483,-0.59070873,1.1591339,-0.8326172,0.13062744,-0.452417,88.0
515,-2.6072483,-0.59070873,1.1591339,-1.0609497,-0.1539917,-1.0492676,88.0
516,-2.2584667,-0.67648506,1.0419617,-1.0609497,-0.1539917,-1.0492676,88.0
517,-2.2584667,-0.67648506,1.0419617,-1.1034302,-0.39294434,-1.6206299,88.0
518,-1.5766106,-0.5469866,1.0248718,-1.1034302,-0.39294434,-1.6206299,88.0
519,-1.5766106,-0.5469866,1.0248718,-1.0726318,-0.54693604,-2.1335816,88.0
520,-0.89549255,-0.22430801,1.0401306,-1.0726318,-0.54693604,-2.1335816,88.0
521,-0.89549255,-0.22430801,1.0401306,-1.0577637,-0.60322267,-2.6104248,88.0
522,-0.15307617,0.08810711,0.8807068,-1.0577637,-0.60322267,-2.6104248,88.0
523,-0.15307617,0.08810711,0.8807068,-1.1406006,-0.542688,-3.0617797,88.0
524,0.70975304,0.31484604,0.3630829,-1.1406006,-0.542688,-3.0617797,88.0
525,0.70975304,0.31484604,0.3630829,-1.3413209,-0.4248047,-3.4950807,88.0
526,1.5625286,0.43160057,-0.37294006,-1.3413209,-0.4248047,-3.4950807,88.0
527,1.5625286,0.43160057,-0.37294006,-1.6248779,-0.22833252,-3.8986452,88.0
528,2.2290516,0.41907215,-0.98828125,-1.6248779,-0.22833252,-3.8986452,88.0
529,2.2290516,0.41907215,-0.98828125,-1.8776368,0.022302246,-4.1832643,88.0
530,2.6121712,0.38711357,-1.2753448,-1.8776368,0.022302246,-4.1832643,88.0
531,2.6121712,0.38711357,-1.2753448,-2.2132325,0.31010744,-4.3999147,88.0
532,2.8361607,0.38796234,-1.2731934,-2.2132325,0.31010744,-4.3999147,88.0
533,2.8361607,0.38796234,-1.2731934,-2.5573242,0.58410645,-4.516736,88.0
534,3.0629349,0.32791138,-1.1425018,-2.5573242,0.58410645,-4.516736,88.0
535,3.0629349,0.32791138,-1.1425018,-2.6359131,0.8294312,-4.4933715,88.0
536,3.3258858,0.24284649,-1.0118408,-2.6359131,0.8294312,-4.4933715,88.0
537,3.3258858,0.24284649,-1.0118408,-2.623169,1.0482056,-4.460449,88.0
538,3.4828892,0.1363306,-0.87364197,-2.623169,1.0482056,-4.460449,88.0
539,3.4828892,0.1363306,-0.87364197,-2.2323487,1.2797241,-4.1078615,88.0
540,3.0288773,-0.2702446,-0.631073,-2.2323487,1.2797241,-4.1078615,88.0
541,3.0288773,-0.2702446,-0.631073,-1.9264892,1.4846925,-3.539685,88.0
542,1.4718933,-1.1618137,-0.43193054,-1.9264892,1.4846925,-3.539685,88.0
543,1.4718933,-1.1618137,-0.43193054,-1.803296,1.4369019,-2.8599975,88.0
544,-0.6935673,-2.0228224,-0.41325378,-1.803296,1.4369019,-2.8599975,88.0
545,-0.6935673,-2.0228224,-0.41325378,-1.4698242,1.1119263,-1.7438233,88.0
546,-2.0112743,-1.6842613,-0.2748108,-1.4698242,1.1119263,-1.7438233,88.0
547,-2.0112743,-1.6842613,-0.2748108,-0.9505005,0.8400513,-1.1522827,88.0
548,-1.574913,-0.31769753,0.13027954,-0.9505005,0.8400513,-1.1522827,88.0
549,-1.574913,-0.31769753,0.13027954,-0.30373535,0.75296634,-0.83474123,88.0
550,-0.44846725,0.54369354,0.29481506,-0.30373535,0.75296634,-0.83474123,88.0
551,-0.44846725,0.54369354,0.29481506,0.24957275,0.6000366,-0.5511841,88.0
552,-0.011362076,0.32152748,-0.078826904,0.24957275,0.6000366,-0.5511841,88.0
553,-0.011362076,0.32152748,-0.078826904,0.9281983,0.28780517,-0.19541016,88.0
554,0.29050827,0.028193474,-0.72966003,0.9281983,0.28780517,-0.19541016,88.0
555,0.29050827,0.028193474,-0.72966003,1.5983276,-0.0010620117,0.25594482,88.0
556,1.4454918,0.38200283,-1.3225708,1.5983276,-0.0010620117,0.25594482,88.0
557,1.4454918,0.38200283,-1.3225708,2.0135744,-0.25594482,0.63933104,88.0
558,2.6946373,0.8800039,-1.5773773,2.0135744,-0.25594482,0.63933104,88.0
559,2.6946373,0.8800039,-1.5773773,2.433069,-0.42055663,1.0630738,88.0
560,2.5706997,1.1393795,-1.3399811,2.433069,-0.42055663,1.0630738,88.0
561,2.5706997,1.1393795,-1.3399811,3.0469117,-0.59472656,1.4815063,88.0
562,1.2304249,1.4164839,-0.8583832,3.0469117,-0.59472656,1.4815063,88.0
563,1.2304249,1.4164839,-0.8583832,3.519507,-0.7412842,1.8818848,88.0
564,0.24639893,1.798336,-0.53897095,3.519507,-0.7412842,1.8818848,88.0
565,0.24639893,1.798336,-0.53897095,3.986792,-0.8517334,2.2801392,88.0
566,0.3059578,2.0472012,-0.46517944,3.986792,-0.8517334,2.2801392,88.0
567,0.3059578,2.0472012,-0.46517944,4.326636,-0.86341554,2.626355,88.0
568,0.66096497,2.063859,-0.4845276,4.326636,-0.86341554,2.626355,88.0
569,0.66096497,2.063859,-0.4845276,4.456201,-0.8262451,2.9428346,88.0
570,0.7038574,1.8780527,-0.4773407,4.456201,-0.8262451,2.9428346,88.0
571,0.7038574,1.8780527,-0.4773407,4.420093,-0.7540283,3.2200196,88.0
572,0.50169563,1.6014166,-0.40046692,4.420093,-0.7540283,3.2200196,88.0
573,0.50169563,1.6014166,-0.40046692,4.213001,-0.65207523,3.4844606,88.0
574,0.26673698,1.3299608,-0.24024963,4.213001,-0.65207523,3.4844606,88.0
575,0.26673698,1.3299608,-0.24024963,3.5800416,-0.4980835,3.6480103,88.0
576,-0.018312454,0.962883,-0.047943115,3.5800416,-0.4980835,3.6480103,88.0
577,-0.018312454,0.962883,-0.047943115,3.1255004,-0.36745605,3.7818239,88.0
578,-0.46234322,0.43773746,0.11174011,3.1255004,-0.36745605,3.7818239,88.0
579,-0.46234322,0.43773746,0.11174011,2.8504395,-0.28780517,3.803064,88.0
580,-0.92977524,-0.06348133,0.19250488,2.8504395,-0.28780517,3.803064,88.0
581,-0.92977524,-0.06348133,0.19250488,2.710254,-0.21877442,3.7457154,88.0
582,-0.92977524,-0.06348133,0.19250488,2.710254,-0.21877442,3.7457154,88.0
583,-1.2684784,-0.3815956,0.25408936,2.710254,-0.21877442,3.7457154,88.0
584,-1.2684784,-0.3815956,0.25408936,2.6953857,-0.1529297,3.6469483,88.0
585,-1.4660759,-0.5398102,0.36491394,2.6953857,-0.1529297,3.6469483,88.0
586,-1.4660759,-0.5398102,0.36491394,2.710254,-0.06690674,3.516321,88.0
587,-1.4953461,-0.6437254,0.4797516,2.710254,-0.06690674,3.516321,88.0
588,-1.4953461,-0.6437254,0.4797516,2.7113159,0.0,3.3771973,88.0
589,-1.3732662,-0.7117214,0.5883179,2.7113159,0.0,3.3771973,88.0
590,-1.3732662,-0.7117214,0.5883179,2.70813,0.043542482,3.2423217,88.0
591,-1.1566334,-0.6784096,0.7458191,2.70813,0.043542482,3.2423217,88.0
592,-1.1566334,-0.6784096,0.7458191,2.6412232,0.08814698,3.0947022,88.0
593,-0.85687447,-0.5187416,1.004837,2.6412232,0.08814698,3.0947022,88.0
594,-0.85687447,-0.5187416,1.004837,2.4829834,0.15611573,2.9152222,88.0
595,-0.5296173,-0.30891418,1.3387909,2.4829834,0.15611573,2.9152222,88.0
596,-0.5296173,-0.30891418,1.3387909,2.1218994,0.28674316,2.7633545,88.0
597,-0.4827385,-0.12844276,1.6028595,2.1218994,0.28674316,2.7633545,88.0
598,-0.4827385,-0.12844276,1.6028595,1.537793,0.4056885,2.5743165,88.0
599,-0.8709202,-0.053450584,1.6732788,1.537793,0.4056885,2.5743165,88.0
600,-0.8709202,-0.053450584,1.6732788,0.7869507,0.46622315,2.345984,88.0
601,-1.3014469,-0.14149094,1.5799103,0.7869507,0.46622315,2.345984,88.0
602,-1.3014469,-0.14149094,1.5799103,0.052038576,0.44923097,2.0454347,88.0
603,-1.2713451,-0.3587494,1.2788391,0.052038576,0.44923097,2.0454347,88.0
604,-1.2713451,-0.3587494,1.2788391,-0.5607422,0.32285157,1.545227,88.0
605,-0.9762554,-0.5410652,0.7458191,-0.5607422,0.32285157,1.545227,88.0
606,-0.9762554,-0.5410652,0.7458191,-1.1480347,0.1444336,0.8793457,88.0
607,-1.3175144,-0.72572327,0.29560852,-1.1480347,0.1444336,0.8793457,88.0
608,-1.3175144,-0.72572327,0.29560852,-1.6578003,-0.17523193,0.124255374,88.0
609,-2.433321,-0.98595047,0.36505127,-1.6578003,-0.17523193,0.124255374,88.0
610,-2.433321,-0.98595047,0.36505127,-1.9498535,-0.52675784,-0.5235718,88.0
611,-3.459755,-1.2044344,1.095871,-1.9498535,-0.52675784,-0.5235718,88.0
612,-3.459755,-1.2044344,1.095871,-1.902063,-0.83474123,-0.98129886,88.0
613,-3.7578068,-1.1825418,2.0750275,-1.902063,-0.83474123,-0.98129886,88.0
614,-3.7578068,-1.1825418,2.0750275,-1.5558472,-0.98129886,-1.3381348,88.0
615,-3.2926464,-0.8271122,2.585678,-1.5558472,-0.98129886,-1.3381348,88.0
616,-3.2926464,-0.8271122,2.585678,-1.1905152,-0.99935305,-1.6885986,88.0
617,-2.4083118,-0.29715157,2.215042,-1.1905152,-0.99935305,-1.6885986,88.0
618,-2.4083118,-0.29715157,2.215042,-0.9632446,-0.9781128,-2.0634887,88.0
619,-1.4387589,0.30737114,1.103836,-0.9632446,-0.9781128,-2.0634887,88.0
620,-1.4387589,0.30737114,1.103836,-0.86553955,-0.9505005,-2.434131,88.0
621,-0.43911743,0.92250824,-0.20303345,-0.86553955,-0.9505005,-2.434131,88.0
622,-0.43911743,0.92250824,-0.20303345,-1.0174073,-0.8867798,-2.7909667,88.0
623,0.727026,1.2324638,-1.1174774,-1.0174073,-0.8867798,-2.7909667,88.0
624,0.727026,1.2324638,-1.1174774,-1.4560181,-0.725354,-3.2232056,88.0
625,2.0125046,1.0125208,-1.4719696,-1.4560181,-0.725354,-3.2232056,88.0
626,2.0125046,1.0125208,-1.4719696,-1.9615357,-0.47578126,-3.7839477,88.0
627,3.1444283,0.39464855,-1.4153595,-1.9615357,-0.47578126,-3.7839477,88.0
628,3.1444283,0.39464855,-1.4153595,-2.4139526,-0.1985962,-4.3871703,88.0
629,3.9460354,-0.24403477,-1.1156311,-2.4139526,-0.1985962,-4.3871703,88.0
630,3.9460354,-0.24403477,-1.1156311,-2.7707887,0.06690674,-4.9266725,88.0
631,4.4729424,-0.72931004,-0.59303284,-2.7707887,0.06690674,-4.9266725,88.0
632,4.4729424,-0.72931004,-0.59303284,-2.9566407,0.33134767,-5.156067,88.0
633,4.720749,-1.0215225,0.07304382,-2.9566407,0.33134767,-5.156067,88.0
634,4.720749,-1.0215225,0.07304382,-3.0575318,0.82730716,-5.0265017,88.0
635,4.6384277,-1.0273743,0.5547638,-3.0575318,0.82730716,-5.0265017,88.0
636,4.6384277,-1.0273743,0.5547638,-2.536084,1.1087402,-4.8204713,88.0
637,4.121216,-0.5894289,0.5721283,-2.536084,1.1087402,-4.8204713,88.0
638,4.121216,-0.5894289,0.5721283,-1.721521,1.3795532,-4.313892,88.0
639,2.8011112,-0.20795727,0.050079346,-1.721521,1.3795532,-4.313892,88.0
640,2.8011112,-0.20795727,0.050079346,-1.3466309,1.5855836,-3.6565063,88.0
641,0.4091015,-0.8609829,-0.76387024,-1.3466309,1.5855836,-3.6565063,88.0
642,0.4091015,-0.8609829,-0.76387024,-0.62340087,1.3391968,-2.3343017,88.0
643,-2.4648438,-1.6698656,-1.115799,-0.62340087,1.3391968,-2.3343017,88.0
644,-2.4648438,-1.6698656,-1.115799,0.0021240234,0.7306641,-0.904834,88.0
645,-3.5854492,0.1597004,-0.63105774,0.0021240234,0.7306641,-0.904834,88.0
646,-3.5854492,0.1597004,-0.63105774,0.17841797,0.362146,-0.6881836,88.0
647,-2.0363274,2.9623299,0.04963684,0.17841797,0.362146,-0.6881836,88.0
648,-2.0363274,2.9623299,0.04963684,0.121069334,0.49277344,-0.3993164,88.0
649,-0.1607399,2.9876862,0.06430054,0.121069334,0.49277344,-0.3993164,88.0
650,-0.1607399,2.9876862,0.06430054,0.118945315,0.47365722,-0.1539917,88.0
651,0.7181854,1.0169926,-0.7359009,0.118945315,0.47365722,-0.1539917,88.0
652,0.7181854,1.0169926,-0.7359009,-0.1539917,0.29417726,0.14018555,88.0
653,1.6489506,-0.5641899,-1.7538147,-0.1539917,0.29417726,0.14018555,88.0
654,1.6489506,-0.5641899,-1.7538147,-0.1985962,0.14337158,0.6053467,88.0
655,2.5564766,-0.7022667,-2.2428894,-0.1985962,0.14337158,0.6053467,88.0
656,2.5564766,-0.7022667,-2.2428894,0.22302246,0.0722168,0.89102787,88.0
657,2.1513214,0.07607651,-1.9647675,0.22302246,0.0722168,0.89102787,88.0
658,2.1513214,0.07607651,-1.9647675,1.0524536,-0.17947999,1.1044922,88.0
659,0.62999344,0.85501385,-1.2311859,1.0524536,-0.17947999,1.1044922,88.0
660,0.62999344,0.85501385,-1.2311859,1.9732178,-0.43861085,1.4953126,88.0
661,-0.4830284,1.3473291,-0.5865631,1.9732178,-0.43861085,1.4953126,88.0
662,-0.4830284,1.3473291,-0.5865631,2.616797,-0.6403931,1.8946289,88.0
663,-0.34301567,1.5728216,-0.44274902,2.616797,-0.6403931,1.8946289,88.0
664,-0.34301567,1.5728216,-0.44274902,3.1106324,-0.7582764,2.2886353,88.0
665,0.48022652,1.5579157,-0.7188568,3.1106324,-0.7582764,2.2886353,88.0
666,0.48022652,1.5579157,-0.7188568,3.3793213,-0.81243896,2.6465333,88.0
667,1.0804691,1.3916321,-1.0107269,3.3793213,-0.81243896,2.6465333,88.0
668,1.0804691,1.3916321,-1.0107269,3.43667,-0.8294312,2.9683228,88.0
669,1.1882877,1.1440554,-1.0424957,3.43667,-0.8294312,2.9683228,88.0
670,1.1882877,1.1440554,-1.0424957,3.3910034,-0.8092529,3.264624,88.0
671,0.8275471,0.9331398,-0.7944336,3.3910034,-0.8092529,3.264624,88.0
672,0.8275471,0.9331398,-0.7944336,3.1796632,-0.72216797,3.5492432,88.0
673,0.020019531,0.77381897,-0.42933655,3.1796632,-0.72216797,3.5492432,88.0
674,0.020019531,0.77381897,-0.42933655,2.5891845,-0.634021,3.7457154,88.0
675,0.020019531,0.77381897,-0.42933655,2.2408447,-0.58304447,3.9474976,88.0
676,-1.0043716,0.46473312,-0.08366394,2.2408447,-0.58304447,3.9474976,88.0
677,-2.9379082,-1.0249662,0.45236206,2.2408447,-0.58304447,3.9474976,88.0
678,-2.9379082,-1.0249662,0.45236206,1.991272,-0.5586182,4.0260863,88.0
679,-2.9379082,-1.0249662,0.45236206,1.8871949,-0.5214478,3.989978,88.0
680,-2.9379082,-1.0249662,0.45236206,1.8277222,-0.452417,3.9039552,88.0
681,-2.4347878,-1.2959127,0.5744171,1.8277222,-0.452417,3.9039552,88.0
682,-2.4347878,-1.2959127,0.5744171,1.803296,-0.3175415,3.7839477,88.0
683,-1.9344635,-1.4636221,0.6965332,1.803296,-0.3175415,3.7839477,88.0
684,-1.9344635,-1.4636221,0.6965332,1.7756836,-0.16992188,3.611902,88.0
685,-1.5133171,-1.5511837,0.8533783,1.7756836,-0.16992188,3.611902,88.0
686,-1.5133171,-1.5511837,0.8533783,1.6949707,-0.027612304,3.4175537,88.0
687,-1.100071,-1.5564137,1.0447998,1.6949707,-0.027612304,3.4175537,88.0
688,-1.100071,-1.5564137,1.0447998,1.5632813,0.11363526,3.1106324,88.0
689,-0.7924595,-1.4271011,1.1938019,1.5632813,0.11363526,3.1106324,88.0
690,-0.7924595,-1.4271011,1.1938019,1.4772583,0.23364258,2.7633545,88.0
691,-0.77560616,-1.1188173,1.271286,1.4772583,0.23364258,2.7633545,88.0
692,-0.77560616,-1.1188173,1.271286,1.2563599,0.2984253,2.3141236,88.0
693,-1.1026745,-0.6817112,1.3044128,1.2563599,0.2984253,2.3141236,88.0
694,-1.1026745,-0.6817112,1.3044128,0.74659425,0.29523927,1.7852417,88.0
695,-1.1026745,-0.6817112,1.3044128,0.74659425,0.29523927,1.7852417,88.0
696,-1.6608505,-0.36579132,1.4123383,0.74659425,0.29523927,1.7852417,88.0
697,-1.6608505,-0.36579132,1.4123383,0.18903808,0.24744873,1.1395386,88.0
698,-2.1257133,-0.30247116,1.6192932,0.18903808,0.24744873,1.1395386,88.0
699,-2.1257133,-0.30247116,1.6192932,-0.23682861,0.19541016,0.38444826,88.0
700,-2.1540985,-0.32492447,1.708847,-0.23682861,0.19541016,0.38444826,88.0
701,-2.1540985,-0.32492447,1.708847,-0.724292,0.13699952,-0.5299439,88.0
702,-1.7720337,-0.39819622,1.3697205,-0.724292,0.13699952,-0.5299439,88.0
703,-1.7720337,-0.39819622,1.3697205,-1.2797241,0.098767094,-1.4740723,88.0
704,-1.3851566,-0.54732895,0.6683197,-1.2797241,0.098767094,-1.4740723,88.0
705,-1.3851566,-0.54732895,0.6683197,-1.7661256,0.087084964,-2.3003175,88.0
706,-1.2351646,-0.63687515,0.04975891,-1.7661256,0.087084964,-2.3003175,88.0
707,-1.2351646,-0.63687515,0.04975891,-2.084729,-0.035046387,-2.9470825,88.0
708,-0.9960289,-0.53729534,-0.18963623,-2.084729,-0.035046387,-2.9470825,88.0
709,-0.9960289,-0.53729534,-0.18963623,-2.175,-0.14761963,-3.5683594,88.0
710,-0.9960289,-0.53729534,-0.18963623,-2.0305665,-0.23045655,-4.185388,88.0
711,-0.25334167,-0.35155296,-0.046417236,-2.0305665,-0.23045655,-4.185388,88.0
712,3.6028938,0.582283,0.26197815,-2.0305665,-0.23045655,-4.185388,88.0
713,3.6028938,0.582283,0.26197815,-1.4018555,-0.28355715,-4.4795656,88.0
714,3.6028938,0.582283,0.26197815,-0.8517334,-0.14337158,-4.535852,88.0
715,3.6028938,0.582283,0.26197815,-1.1374146,0.15717773,-4.456201,88.0
716,3.7310085,1.5013733,-0.7396393,-1.1374146,0.15717773,-4.456201,88.0
717,3.7310085,1.5013733,-0.7396393,-1.9201173,0.49383545,-4.139722,88.0
718,3.3569622,2.0705929,-1.8009033,-1.9201173,0.49383545,-4.139722,88.0
719,3.3569622,2.0705929,-1.8009033,-2.5913086,0.7890747,-3.787134,88.0
720,2.6070538,2.057024,-2.2996826,-2.5913086,0.7890747,-3.787134,88.0
721,2.6070538,2.057024,-2.2996826,-2.9141603,1.0471436,-3.4876466,88.0
722,1.6611805,1.683363,-1.9965973,-2.9141603,1.0471436,-3.4876466,88.0
723,1.6611805,1.683363,-1.9965973,-3.3665771,1.1374146,-3.2285156,88.0
724,0.83947945,1.0054064,-1.0667877,-3.3665771,1.1374146,-3.2285156,88.0
725,0.83947945,1.0054064,-1.0667877,-3.1913452,1.1841431,-2.8408813,88.0
726,0.342371,0.18044758,-0.05470276,-3.1913452,1.1841431,-2.8408813,88.0
727,0.342371,0.18044758,-0.05470276,-2.7930908,1.1979493,-2.5891845,88.0
728,0.09037781,-0.38457298,0.5390625,-2.7930908,1.1979493,-2.5891845,88.0
729,0.09037781,-0.38457298,0.5390625,-2.4851074,1.1406006,-2.3587282,88.0
730,-0.056884766,-0.62877655,0.6529999,-2.4851074,1.1406006,-2.3587282,88.0
731,-0.056884766,-0.62877655,0.6529999,-1.9126831,1.0142212,-2.1452637,88.0
732,-0.1387825,-0.72949886,0.5679474,-1.9126831,1.0142212,-2.1452637,88.0
733,-0.1387825,-0.72949886,0.5679474,-1.3806152,0.9143921,-1.9594116,88.0
734,-0.23414612,-0.83712673,0.46652222,-1.3806152,0.9143921,-1.9594116,88.0
735,-0.23414612,-0.83712673,0.46652222,-0.7519043,0.814563,-1.7310791,88.0
736,-0.55640984,-0.8857298,0.32138062,-0.7519043,0.814563,-1.7310791,88.0
737,-0.55640984,-0.8857298,0.32138062,-0.23364258,0.6966797,-1.4857544,88.0
738,-0.9286728,-0.6890278,0.03643799,-0.23364258,0.6966797,-1.4857544,88.0
739,-0.9286728,-0.6890278,0.03643799,0.3971924,0.48533937,-1.1926392,88.0
740,-0.87205124,-0.28221512,-0.3500061,0.3971924,0.48533937,-1.1926392,88.0
741,-0.87205124,-0.28221512,-0.3500061,0.6138428,0.3345337,-0.90270996,88.0
742,-0.35687065,0.17314148,-0.6980896,0.6138428,0.3345337,-0.90270996,88.0
743,-0.35687065,0.17314148,-0.6980896,0.7540283,0.16142578,-0.4959595,88.0
744,0.2874279,0.49608135,-0.88887024,0.7540283,0.16142578,-0.4959595,88.0
745,0.2874279,0.49608135,-0.88887024,0.7784546,-0.025488282,-0.13487549,88.0
746,1.0515728,0.59403324,-0.96029663,0.7784546,-0.025488282,-0.13487549,88.0
747,1.0515728,0.59403324,-0.96029663,0.79969484,-0.25806886,0.23895264,88.0
748,1.760973,0.5153389,-0.92788696,0.79969484,-0.25806886,0.23895264,88.0
749,1.760973,0.5153389,-0.92788696,0.8750977,-0.38551027,0.68499756,88.0
750,1.6543236,0.49598694,-0.707489,0.8750977,-0.38551027,0.68499756,88.0
751,1.6543236,0.49598694,-0.707489,1.26167,-0.5979126,1.0864381,88.0
752,0.7701397,0.6741085,-0.3960724,1.26167,-0.5979126,1.0864381,88.0
753,0.7701397,0.6741085,-0.3960724,1.7937378,-0.81243896,1.44115,88.0
754,0.2410984,0.9076462,-0.25901794,1.7937378,-0.81243896,1.44115,88.0
755,0.2410984,0.9076462,-0.25901794,2.3417358,-1.0216553,1.8436524,88.0
756,0.557003,1.0217342,-0.39924622,2.3417358,-1.0216553,1.8436524,88.0
757,0.557003,1.0217342,-0.39924622,2.8748658,-1.1841431,2.3204956,88.0
758,1.188961,1.0685472,-0.70188904,2.8748658,-1.1841431,2.3204956,88.0
759,1.188961,1.0685472,-0.70188904,3.3028564,-1.268042,2.7569826,88.0
760,1.6553802,1.1024694,-0.99520874,3.3028564,-1.268042,2.7569826,88.0
761,1.6553802,1.1024694,-0.99520874,3.4993286,-1.2722901,3.1594849,88.0
762,1.8333378,0.98378277,-1.1285706,3.4993286,-1.2722901,3.1594849,88.0
763,1.8333378,0.98378277,-1.1285706,3.5927856,-1.2298096,3.5003908,88.0
764,1.6632538,0.65116215,-1.0304718,3.5927856,-1.2298096,3.5003908,88.0
765,1.6632538,0.65116215,-1.0304718,3.6596925,-1.1289185,3.7850099,88.0
766,1.1074715,0.3266182,-0.81495667,3.6596925,-1.1289185,3.7850099,88.0
767,1.1074715,0.3266182,-0.81495667,3.3867555,-0.97492677,3.9804199,88.0
768,0.24538803,0.11587238,-0.5863495,3.3867555,-0.97492677,3.9804199,88.0
769,0.24538803,0.11587238,-0.5863495,2.8833618,-0.811377,4.1301637,88.0
770,-0.669363,-0.21504116,-0.34039307,2.8833618,-0.811377,4.1301637,88.0
771,-0.669363,-0.21504116,-0.34039307,2.7368042,-0.69349366,4.1705203,88.0
772,-1.3418388,-0.61909103,-0.033798218,2.7368042,-0.69349366,4.1705203,88.0
773,-1.3418388,-0.61909103,-0.033798218,2.7006958,-0.5957886,4.1046753,88.0
774,-1.7474575,-0.8355198,0.3289795,2.7006958,-0.5957886,4.1046753,88.0
775,-1.7474575,-0.8355198,0.3289795,2.2865112,-0.36851808,3.895459,88.0
776,-1.9894695,-1.059578,0.7503357,2.2865112,-0.36851808,3.895459,88.0
777,-1.9894695,-1.059578,0.7503357,2.2079225,-0.14761963,3.803064,88.0
778,-1.9252319,-1.3550835,1.064621,2.2079225,-0.14761963,3.803064,88.0
779,-1.9252319,-1.3550835,1.064621,2.170752,0.078588866,3.5811036,88.0
780,-1.4841309,-1.5108242,1.3088226,2.170752,0.078588866,3.5811036,88.0
781,-1.4841309,-1.5108242,1.3088226,2.1431396,0.3175415,3.359143,88.0
782,-0.83062744,-1.5073166,1.5597992,2.1431396,0.3175415,3.359143,88.0
783,-0.83062744,-1.5073166,1.5597992,2.069861,0.5692383,3.1244385,88.0
784,-0.251976,-1.2989693,1.6309052,2.069861,0.5692383,3.1244385,88.0
785,-0.251976,-1.2989693,1.6309052,1.8956909,0.7434082,2.809021,88.0
786,-0.071466446,-0.9393959,1.5865479,1.8956909,0.7434082,2.809021,88.0
787,-0.071466446,-0.9393959,1.5865479,1.5792115,0.7890747,2.4840455,88.0
788,-0.36684036,-0.519351,1.6533508,1.5792115,0.7890747,2.4840455,88.0
789,-0.36684036,-0.519351,1.6533508,1.5792115,0.7890747,2.4840455,89.0
790,-0.36684036,-0.519351,1.6533508,1.1522827,0.7582764,2.1218994,89.0
791,-1.0703392,-0.098916054,1.7892151,1.1522827,0.7582764,2.1218994,89.0
792,-1.0703392,-0.098916054,1.7892151,0.4163086,0.7338501,1.5993897,89.0
793,-1.8279743,0.19291306,1.7676849,0.4163086,0.7338501,1.5993897,89.0
794,-1.8279743,0.19291306,1.7676849,-0.33240968,0.6860596,0.8336792,89.0
795,-2.2342548,0.15226746,1.5131378,-0.33240968,0.6860596,0.8336792,89.0
796,-2.2342548,0.15226746,1.5131378,-0.93350834,0.59260255,-0.24532472,89.0
797,-2.4439468,-0.2980957,1.0952454,-0.93350834,0.59260255,-0.24532472,89.0
798,-2.4439468,-0.2980957,1.0952454,-1.4570801,0.5734863,-1.3264526,89.0
799,-2.7983456,-0.9123411,0.57899475,-1.4570801,0.5734863,-1.3264526,89.0
800,-2.7983456,-0.9123411,0.57899475,-1.9498535,0.5076416,-2.088977,89.0
801,-3.1379929,-1.2830706,-3.6621094E-4,-1.9498535,0.5076416,-2.088977,89.0
802,-3.1379929,-1.2830706,-3.6621094E-4,-2.2790773,0.36533204,-2.626355,89.0
803,-2.9769707,-1.1411409,-0.5109863,-2.2790773,0.36533204,-2.626355,89.0
804,-2.9769707,-1.1411409,-0.5109863,-2.2716432,0.21134034,-3.1116943,89.0
805,-2.1743126,-0.61586666,-0.7884979,-2.2716432,0.21134034,-3.1116943,89.0
806,-2.1743126,-0.61586666,-0.7884979,-2.0549927,0.07540283,-3.6055298,89.0
807,-0.92620564,-0.043120384,-0.80252075,-2.0549927,0.07540283,-3.6055298,89.0
808,-0.92620564,-0.043120384,-0.80252075,-1.6939087,0.026550293,-4.166272,89.0
809,0.54613304,0.38994217,-0.74627686,-1.6939087,0.026550293,-4.166272,89.0
810,0.54613304,0.38994217,-0.74627686,-1.4645141,0.10938721,-4.5740848,89.0
811,1.9799614,0.7289829,-0.8893585,-1.4645141,0.10938721,-4.5740848,89.0
812,1.9799614,0.7289829,-0.8893585,-1.4921265,0.27718505,-4.901184,89.0
813,3.182394,1.0241537,-1.3084259,-1.4921265,0.27718505,-4.901184,89.0
814,3.182394,1.0241537,-1.3084259,-1.7098389,0.50870365,-5.1741214,89.0
815,4.0146294,1.2956047,-1.8178253,-1.7098389,0.50870365,-5.1741214,89.0
816,4.0146294,1.2956047,-1.8178253,-2.0390625,0.73597413,-5.3737793,89.0
817,4.374874,1.4994602,-2.10141,-2.0390625,0.73597413,-5.3737793,89.0
818,4.374874,1.4994602,-2.10141,-2.4075806,0.8889038,-5.4173217,89.0
819,4.1812344,1.5437326,-1.9408417,-2.4075806,0.8889038,-5.4173217,89.0
820,4.1812344,1.5437326,-1.9408417,-2.6953857,0.97386473,-5.2070436,89.0
821,3.4415207,1.3100967,-1.3293762,-2.6953857,0.97386473,-5.2070436,89.0
822,3.4415207,1.3100967,-1.3293762,-2.7537963,0.9770508,-4.7631226,89.0
823,2.2339668,0.65037155,-0.3778839,-2.7537963,0.9770508,-4.7631226,89.0
824,2.2339668,0.65037155,-0.3778839,-2.3066895,0.84748536,-4.083435,89.0
825,0.646389,-0.20432377,0.8343811,-2.3066895,0.84748536,-4.083435,89.0
826,0.646389,-0.20432377,0.8343811,-1.4039795,0.6403931,-3.3814454,89.0
827,-0.9482193,-0.48750687,1.8587341,-1.4039795,0.6403931,-3.3814454,89.0
828,-0.9482193,-0.48750687,1.8587341,-0.51826173,0.35683593,-2.7506104,89.0
829,-1.982502,0.08902359,2.1496277,-0.51826173,0.35683593,-2.7506104,89.0
830,-1.982502,0.08902359,2.1496277,-0.13912354,0.12850343,-2.1983643,89.0
831,-2.2523727,0.91295433,1.740097,-0.13912354,0.12850343,-2.1983643,89.0
832,-2.2523727,0.91295433,1.740097,-0.04460449,-0.040356446,-1.6503662,89.0
833,-1.9388237,1.4493942,1.0150452,-0.04460449,-0.040356446,-1.6503662,89.0
834,-1.9388237,1.4493942,1.0150452,-0.06903076,-0.1731079,-1.1990112,89.0
835,-1.1253872,1.6423893,0.22747803,-0.06903076,-0.1731079,-1.1990112,89.0
836,-1.1253872,1.6423893,0.22747803,-0.1996582,-0.22196046,-0.8421753,89.0
837,-0.5358696,1.471138,-0.1688385,-0.1996582,-0.22196046,-0.8421753,89.0
838,-0.5358696,1.471138,-0.1688385,-0.3058594,-0.2347046,-0.69136965,89.0
839,0.7568264,0.664752,-1.2295227,-0.3058594,-0.2347046,-0.69136965,89.0
840,0.7568264,0.664752,-1.2295227,-0.5299439,-0.40144044,-0.270813,89.0
841,1.2087326,0.045619965,-1.3774109,-0.5299439,-0.40144044,-0.270813,89.0
842,1.2087326,0.045619965,-1.3774109,-0.41206056,-0.4895874,-0.13275146,89.0
843,3.2548409,-1.7044592,-1.6986084,-0.41206056,-0.4895874,-0.13275146,89.0
844,3.2548409,-1.7044592,-1.6986084,0.58623046,-0.57561034,0.49171144,89.0
845,2.9620152,-1.6964655,-1.3639526,0.58623046,-0.57561034,0.49171144,89.0
846,2.9620152,-1.6964655,-1.3639526,1.0545777,-0.6786255,0.7625244,89.0
847,1.1018391,-0.43406487,-0.08718872,1.0545777,-0.6786255,0.7625244,89.0
848,1.1018391,-0.43406487,-0.08718872,2.0656128,-0.991919,1.6556762,89.0
849,0.30955887,0.22235298,0.19555664,2.0656128,-0.991919,1.6556762,89.0
850,0.30955887,0.22235298,0.19555664,2.441565,-1.1034302,1.9477295,89.0
851,-0.135458,1.9153214,0.60458374,2.441565,-1.1034302,1.9477295,89.0
852,-0.135458,1.9153214,0.60458374,3.6883667,-1.2754761,2.5796266,89.0
853,0.51179886,1.6663513,0.08792114,3.6883667,-1.2754761,2.5796266,89.0
854,0.51179886,1.6663513,0.08792114,3.98573,-1.2595459,2.7962768,89.0
855,2.482254,1.6188717,-1.0348816,3.98573,-1.2595459,2.7962768,89.0
856,2.482254,1.6188717,-1.0348816,4.533728,-0.9897949,3.4664063,89.0
857,2.5008774,0.9760666,-1.2956696,4.533728,-0.9897949,3.4664063,89.0
858,2.5008774,0.9760666,-1.2956696,4.8512697,-0.87615967,3.6458862,89.0
859,2.4875317,0.729084,-1.6888123,4.8512697,-0.87615967,3.6458862,89.0
860,2.4875317,0.729084,-1.6888123,4.822595,-0.47896728,3.9602418,89.0
861,1.7608147,0.2605505,-1.4003754,4.822595,-0.47896728,3.9602418,89.0
862,1.7608147,0.2605505,-1.4003754,4.5719604,-0.3334717,3.9644897,89.0
863,-0.27887344,0.30779362,-0.7574463,4.5719604,-0.3334717,3.9644897,89.0
864,-0.27887344,0.30779362,-0.7574463,2.8695557,0.2081543,4.1822023,89.0
865,-0.27887344,0.30779362,-0.7574463,2.5116577,0.33984375,4.2151246,89.0
866,-0.9865513,-0.19452477,-0.3594513,2.5116577,0.33984375,4.2151246,89.0
867,-3.7387524,-1.7800589,0.29438782,2.5116577,0.33984375,4.2151246,89.0
868,-3.7387524,-1.7800589,0.29438782,1.3891114,0.78376466,4.061133,89.0
869,-3.7387524,-1.7800589,0.29438782,1.6121339,0.813501,3.8720949,89.0
870,-3.7387524,-1.7800589,0.29438782,1.7151489,0.7848267,3.6639404,89.0
871,-3.7225075,-1.5379639,0.24935913,1.7151489,0.7848267,3.6639404,89.0
872,-3.7225075,-1.5379639,0.24935913,0.45666504,0.7678345,3.1127565,89.0
873,-3.2105389,-1.7973509,0.050689697,0.45666504,0.7678345,3.1127565,89.0
874,-3.2105389,-1.7973509,0.050689697,0.7062378,1.0237793,3.0564697,89.0
875,-2.654663,-2.2663355,-0.16807556,0.7062378,1.0237793,3.0564697,89.0
876,-2.654663,-2.2663355,-0.16807556,0.8782837,0.9568726,2.5456421,89.0
877,-2.2802372,-2.0351143,-0.17677307,0.8782837,0.9568726,2.5456421,89.0
878,-2.2802372,-2.0351143,-0.17677307,0.5713623,0.87615967,2.0210083,89.0
879,-1.9862633,-1.7300081,0.028793335,0.5713623,0.87615967,2.0210083,89.0
880,-1.9862633,-1.7300081,0.028793335,0.5586182,0.8262451,1.8213501,89.0
881,-1.7491302,-1.3359356,0.36253357,0.5586182,0.8262451,1.8213501,89.0
882,-1.7491302,-1.3359356,0.36253357,0.59472656,0.5235718,1.3742431,89.0
883,-1.6701775,-1.0425768,0.506958,0.59472656,0.5235718,1.3742431,89.0
884,-1.6701775,-1.0425768,0.506958,0.45135498,0.38232422,1.2414917,89.0
885,-1.6701775,-1.0425768,0.506958,0.45135498,0.38232422,1.2414917,90.0
886,-2.1838589,-0.45171356,1.2028198,0.45135498,0.38232422,1.2414917,90.0
887,-2.1838589,-0.45171356,1.2028198,-0.17735596,-0.035046387,0.8358032,90.0
888,-1.9702568,-0.39226723,1.3152008,-0.17735596,-0.035046387,0.8358032,90.0
889,-1.9702568,-0.39226723,1.3152008,-0.27718505,-0.17947999,0.58410645,90.0
890,-1.3875332,-0.5650587,1.7381134,-0.27718505,-0.17947999,0.58410645,90.0
891,-1.3875332,-0.5650587,1.7381134,-0.32497558,-0.362146,-0.081774905,90.0
892,-0.5912037,-0.8047333,1.7318268,-0.32497558,-0.362146,-0.081774905,90.0
893,-0.5912037,-0.8047333,1.7318268,-0.5479981,-0.38763428,-0.72960204,90.0
894,-0.33954048,-0.9043703,1.3097839,-0.5479981,-0.38763428,-0.72960204,90.0
895,-0.33954048,-0.9043703,1.3097839,-0.90058595,-0.46409914,-1.3859253,90.0
896,-0.11848259,-0.8279276,0.7072449,-0.90058595,-0.46409914,-1.3859253,90.0
897,-0.11848259,-0.8279276,0.7072449,-1.0715698,-0.5331299,-1.9732178,90.0
898,0.5508442,-0.5703621,0.2007904,-1.0715698,-0.5331299,-1.9732178,90.0
899,0.5508442,-0.5703621,0.2007904,-1.2043213,-0.58410645,-2.5190918,90.0
900,1.4357185,-0.12663841,-0.13896179,-1.2043213,-0.58410645,-2.5190918,90.0
901,1.4357185,-0.12663841,-0.13896179,-1.354065,-0.61278075,-2.983191,90.0
902,2.534769,0.3327217,-0.35443115,-1.354065,-0.61278075,-2.983191,90.0
903,2.534769,0.3327217,-0.35443115,-1.7470093,-0.5097656,-3.4218018,90.0
904,2.5995445,0.65129757,-0.48338318,-1.7470093,-0.5097656,-3.4218018,90.0
905,2.5995445,0.65129757,-0.48338318,-1.9392334,-0.4354248,-3.536499,90.0
906,2.8512306,0.8154955,-0.6047516,-1.9392334,-0.4354248,-3.536499,90.0
907,2.8512306,0.8154955,-0.6047516,-2.7304323,-0.07752686,-3.7297852,90.0
908,2.4939613,1.0303631,-0.684845,-2.7304323,-0.07752686,-3.7297852,90.0
909,2.4939613,1.0303631,-0.684845,-2.986377,0.11257324,-3.719165,90.0
910,1.7110138,1.1384258,-0.7683716,-2.986377,0.11257324,-3.719165,90.0
911,1.7110138,1.1384258,-0.7683716,-3.625708,0.42268068,-3.7701416,90.0
912,0.70923996,1.1947737,-0.825058,-3.625708,0.42268068,-3.7701416,90.0
913,0.70923996,1.1947737,-0.825058,-3.883777,0.68074954,-3.6469483,90.0
914,0.015340805,1.1672688,-0.7986603,-3.883777,0.68074954,-3.6469483,90.0
915,0.015340805,1.1672688,-0.7986603,-3.9124513,0.9547486,-3.6777465,90.0
916,-0.29419708,0.94206715,-0.63334656,-3.9124513,0.9547486,-3.6777465,90.0
917,-0.29419708,0.94206715,-0.63334656,-3.9942262,1.1151123,-3.6703126,90.0
918,-0.048444748,0.6943512,-0.521286,-3.9942262,1.1151123,-3.6703126,90.0
919,-0.048444748,0.6943512,-0.521286,-2.9237182,1.3806152,-3.160547,90.0
920,0.45957184,0.7219,-0.5131836,-2.9237182,1.3806152,-3.160547,90.0
921,0.45957184,0.7219,-0.5131836,-3.165857,1.448584,-3.2072754,90.0
922,0.5039253,0.6806202,-0.4749298,-3.165857,1.448584,-3.2072754,90.0
923,0.5039253,0.6806202,-0.4749298,-2.4213867,1.535669,-2.7537963,90.0
924,-0.009983063,0.45251656,-0.36480713,-2.4213867,1.535669,-2.7537963,90.0
925,-0.009983063,0.45251656,-0.36480713,-2.0273805,1.5006226,-2.6539674,90.0
926,-0.661356,0.36812878,-0.16384888,-2.0273805,1.5006226,-2.6539674,90.0
927,-0.661356,0.36812878,-0.16384888,-1.992334,1.3710572,-2.2004883,90.0
928,-1.0304413,0.60617256,-0.06906128,-1.992334,1.3710572,-2.2004883,90.0
929,-1.0304413,0.60617256,-0.06906128,-2.2015502,1.1883911,-1.7884277,90.0
930,-0.82323074,0.87577057,-0.09390259,-2.2015502,1.1883911,-1.7884277,90.0
931,-0.82323074,0.87577057,-0.09390259,-2.527588,1.0694458,-1.4252198,90.0
932,-0.21069527,0.5450382,-0.06515503,-2.527588,1.0694458,-1.4252198,90.0
933,-0.21069527,0.5450382,-0.06515503,-2.4999757,0.8506714,-1.1257324,90.0
934,0.36837006,-0.16000175,-0.02999878,-2.4999757,0.8506714,-1.1257324,90.0
935,0.36837006,-0.16000175,-0.02999878,-1.4443359,0.59472656,-0.75509036,90.0
936,1.2229061,-0.35793304,-0.23768616,-1.4443359,0.59472656,-0.75509036,90.0
937,1.2229061,-0.35793304,-0.23768616,-0.77739257,0.25913087,-0.47578126,90.0
938,2.3449764,-0.27326012,-0.68725586,-0.77739257,0.25913087,-0.47578126,90.0
939,2.3449764,-0.27326012,-0.68725586,-0.25594482,-0.0010620117,-0.16142578,90.0
940,2.313774,-0.44696522,-0.89253235,-0.25594482,-0.0010620117,-0.16142578,90.0
941,2.313774,-0.44696522,-0.89253235,0.32391357,-0.32603762,0.18797608,90.0
942,0.53809166,-0.5230026,-0.53019714,0.32391357,-0.32603762,0.18797608,90.0
943,0.53809166,-0.5230026,-0.53019714,0.94625247,-0.7338501,0.6754395,90.0
944,-1.2205639,-0.097613335,0.06816101,0.94625247,-0.7338501,0.6754395,90.0
945,-1.2205639,-0.097613335,0.06816101,1.5951416,-1.0938721,1.2032593,90.0
946,-1.3862667,0.603281,0.41047668,1.5951416,-1.0938721,1.2032593,90.0
947,-1.3862667,0.603281,0.41047668,2.3077514,-1.3784913,1.6864747,90.0
948,-0.17241669,1.0563803,0.22625732,2.3077514,-1.3784913,1.6864747,90.0
949,-0.17241669,1.0563803,0.22625732,3.0129273,-1.544165,2.1410158,90.0
950,1.1643982,1.1166744,-0.3251648,3.0129273,-1.544165,2.1410158,90.0
951,1.1643982,1.1166744,-0.3251648,3.5662353,-1.6609863,2.5785644,90.0
952,1.8382187,0.9217577,-0.8475952,3.5662353,-1.6609863,2.5785644,90.0
953,1.8382187,0.9217577,-0.8475952,3.9751098,-1.7236451,2.989563,90.0
954,1.8996887,0.58778477,-0.9941864,3.9751098,-1.7236451,2.989563,90.0
955,1.8996887,0.58778477,-0.9941864,4.2108765,-1.6907227,3.353833,90.0
956,1.556984,0.22576904,-0.7347107,4.2108765,-1.6907227,3.353833,90.0
957,1.556984,0.22576904,-0.7347107,4.704712,-1.5993897,3.696863,90.0
958,0.826519,0.058324814,-0.39559937,4.704712,-1.5993897,3.696863,90.0
959,0.826519,0.058324814,-0.39559937,4.5602784,-1.358313,3.792444,90.0
960,-0.11133003,0.1189003,-0.28559875,4.5602784,-1.358313,3.792444,90.0
961,-0.11133003,0.1189003,-0.28559875,3.7414672,-1.0195312,3.976172,90.0
962,-0.8804455,-0.0129852295,-0.34301758,3.7414672,-1.0195312,3.976172,90.0
963,-0.8804455,-0.0129852295,-0.34301758,3.059656,-0.7848267,4.043079,90.0
964,-1.2770977,-0.49796104,-0.3783722,3.059656,-0.7848267,4.043079,90.0
965,-1.2770977,-0.49796104,-0.3783722,2.9205322,-0.6138428,3.9889162,90.0
966,-1.3369751,-0.9849167,-0.34928894,2.9205322,-0.6138428,3.9889162,90.0
967,-1.3369751,-0.9849167,-0.34928894,2.9194703,-0.41099855,3.8540406,90.0
968,-1.3982792,-1.0602598,-0.21226501,2.9194703,-0.41099855,3.8540406,90.0
969,-1.3982792,-1.0602598,-0.21226501,2.9545166,-0.25913087,3.6766846,90.0
970,-1.8810024,-0.681509,0.16751099,2.9545166,-0.25913087,3.6766846,90.0
971,-1.8810024,-0.681509,0.16751099,2.1176515,-0.12319336,3.4058716,90.0
972,-2.3366394,-0.5906544,0.52804565,2.1176515,-0.12319336,3.4058716,90.0
973,-2.3366394,-0.5906544,0.52804565,0.3069214,0.28568116,2.9523926,90.0
974,-2.3668709,-1.3328629,0.5471649,0.3069214,0.28568116,2.9523926,90.0
975,-2.3668709,-1.3328629,0.5471649,0.6064087,0.4970215,2.7984009,90.0
976,-2.3700829,-1.929327,0.3999176,0.6064087,0.4970215,2.7984009,90.0
977,-2.3700829,-1.929327,0.3999176,0.38551027,0.5235718,2.1548219,90.0
978,-2.4033546,-1.8013229,0.5422516,0.38551027,0.5235718,2.1548219,90.0
979,-2.4033546,-1.8013229,0.5422516,0.2262085,0.44498292,1.6418701,90.0
980,-2.1321316,-1.5192204,0.98287964,0.2262085,0.44498292,1.6418701,90.0
981,-2.1321316,-1.5192204,0.98287964,0.17523193,0.45454103,1.09281,90.0
982,-1.7201462,-1.2247028,1.3685455,0.17523193,0.45454103,1.09281,90.0
983,-1.7201462,-1.2247028,1.3685455,-0.025488282,0.42692873,0.56817627,90.0
984,-1.7201462,-1.2247028,1.3685455,-0.40993652,0.36002198,-0.04248047,90.0
985,-1.4713192,-0.92191315,1.5088043,-0.40993652,0.36002198,-0.04248047,90.0
986,0.11599922,-0.85719585,1.5959625,-0.40993652,0.36002198,-0.04248047,90.0
987,0.11599922,-0.85719585,1.5959625,-0.40993652,0.36002198,-0.04248047,91.0
988,0.11599922,-0.85719585,1.5959625,-0.6966797,0.22727051,-0.7678345,91.0
989,0.11599922,-0.85719585,1.5959625,-0.9759888,0.18797608,-1.5962037,91.0
990,0.11599922,-0.85719585,1.5959625,-1.3657471,0.20603028,-2.3905885,91.0
991,0.64777946,-0.66349125,1.1330872,-1.3657471,0.20603028,-2.3905885,91.0
992,0.64777946,-0.66349125,1.1330872,-1.8457764,0.2803711,-3.087268,91.0
993,0.93847466,-0.5282049,0.6296692,-1.8457764,0.2803711,-3.087268,91.0
994,0.93847466,-0.5282049,0.6296692,-1.9572877,0.3419678,-3.538623,91.0
995,1.2956772,-0.39673424,0.32614136,-1.9572877,0.3419678,-3.538623,91.0
996,1.2956772,-0.39673424,0.32614136,-1.7459472,0.30054933,-3.9421875,91.0
997,1.9322929,-0.17544365,0.3173523,-1.7459472,0.30054933,-3.9421875,91.0
998,1.9322929,-0.17544365,0.3173523,-1.2149414,0.20603028,-4.163086,91.0
999,2.7958717,0.3120861,0.36621094,-1.2149414,0.20603028,-4.163086,91.0
1000,2.7958717,0.3120861,0.36621094,-0.8687256,0.29205322,-4.1110473,91.0
1001,3.3411903,1.0992785,0.12930298,-0.8687256,0.29205322,-4.1110473,91.0
1002,3.3411903,1.0992785,0.12930298,-1.3243287,0.50870365,-3.8551025,91.0
1003,2.9926777,1.7778845,-0.38334656,-1.3243287,0.50870365,-3.8551025,91.0
1004,2.9926777,1.7778845,-0.38334656,-1.7618774,0.70198977,-3.255066,91.0
1005,1.7910786,2.1718683,-0.8664398,-1.7618774,0.70198977,-3.255066,91.0
1006,1.7910786,2.1718683,-0.8664398,-2.2068603,0.8878418,-2.9269044,91.0
1007,0.22196198,2.3266907,-1.0251465,-2.2068603,0.8878418,-2.9269044,91.0
1008,0.22196198,2.3266907,-1.0251465,-2.7580445,0.9409424,-2.611487,91.0
1009,-1.6556835,1.99259,-0.6682129,-2.7580445,0.9409424,-2.611487,91.0
1010,-1.6556835,1.99259,-0.6682129,-2.8684938,0.98236084,-2.1611938,91.0
1011,-1.7070656,1.6506271,-0.30599976,-2.8684938,0.98236084,-2.1611938,91.0
1012,-1.7070656,1.6506271,-0.30599976,-2.884424,1.0131592,-2.0454347,91.0
1013,-1.7767735,1.142951,0.053131104,-2.884424,1.0131592,-2.0454347,91.0
1014,-1.7767735,1.142951,0.053131104,-2.8833618,1.0428956,-1.8797607,91.0
1015,-1.4682198,0.6313772,0.20349121,-2.8833618,1.0428956,-1.8797607,91.0
1016,-1.4682198,0.6313772,0.20349121,-2.633789,1.0598878,-1.7098389,91.0
1017,-0.98423195,0.18796253,0.2816925,-2.633789,1.0598878,-1.7098389,91.0
1018,-0.98423195,0.18796253,0.2816925,-2.3279297,1.1204224,-1.6195679,91.0
1019,-0.43528748,-0.12571716,0.2664032,-2.3279297,1.1204224,-1.6195679,91.0
1020,-0.43528748,-0.12571716,0.2664032,-1.8871949,1.0662597,-1.6535523,91.0
1021,0.088098526,-0.37043476,0.1678772,-1.8871949,1.0662597,-1.6535523,91.0
1022,0.088098526,-0.37043476,0.1678772,-1.2032593,1.0343994,-1.7024049,91.0
1023,0.32683945,-0.44242954,0.13308716,-1.2032593,1.0343994,-1.7024049,91.0
1024,0.32683945,-0.44242954,0.13308716,-0.7434082,0.98129886,-1.7820557,91.0
1025,0.1214447,-0.39229774,0.24215698,-0.7434082,0.98129886,-1.7820557,91.0
1026,0.1214447,-0.39229774,0.24215698,-0.2527588,0.8623535,-1.7756836,91.0
1027,-0.23241043,-0.26708508,0.4076233,-0.2527588,0.8623535,-1.7756836,91.0
1028,-0.23241043,-0.26708508,0.4076233,0.23789063,0.69986576,-1.7236451,91.0
1029,-0.3283596,-0.08549404,0.508728,0.23789063,0.69986576,-1.7236451,91.0
1030,-0.3283596,-0.08549404,0.508728,0.36002198,0.5161377,-1.5006226,91.0
1031,-0.1423626,0.003602028,0.44441223,0.36002198,0.5161377,-1.5006226,91.0
1032,-0.1423626,0.003602028,0.44441223,0.47896728,0.29948732,-1.0545777,91.0
1033,0.17628479,0.095458984,0.21514893,0.47896728,0.29948732,-1.0545777,91.0
1034,0.17628479,0.095458984,0.21514893,0.4959595,0.028674318,-0.56180423,91.0
1035,0.87171745,0.40552902,-0.0934906,0.4959595,0.028674318,-0.56180423,91.0
1036,0.87171745,0.40552902,-0.0934906,0.542688,-0.27399904,-0.07115479,91.0
1037,1.9459705,0.9023409,-0.28956604,0.542688,-0.27399904,-0.07115479,91.0
1038,1.9459705,0.9023409,-0.28956604,0.635083,-0.40356445,0.38763428,91.0
1039,1.9459705,0.9023409,-0.28956604,0.8527954,-0.51826173,0.77314454,91.0
1040,2.2771988,1.1448956,-0.18792725,0.8527954,-0.51826173,0.77314454,91.0
1041,0.30846405,0.027928352,-0.2951355,0.8527954,-0.51826173,0.77314454,91.0
1042,0.30846405,0.027928352,-0.2951355,1.2807862,-0.6945557,1.1214844,91.0
1043,0.30846405,0.027928352,-0.2951355,1.7597535,-0.88359374,1.5027466,91.0
1044,0.30846405,0.027928352,-0.2951355,2.352356,-1.0790039,1.9392334,91.0
1045,1.1955986,-0.06685448,-0.8800812,2.352356,-1.0790039,1.9392334,91.0
1046,1.1955986,-0.06685448,-0.8800812,2.8621216,-1.178833,2.3810303,91.0
1047,2.22822,0.19337845,-1.3182678,2.8621216,-1.178833,2.3810303,91.0
1048,2.22822,0.19337845,-1.3182678,3.1977174,-1.1820191,2.7962768,91.0
1049,2.557417,0.50607014,-1.3913269,3.1977174,-1.1820191,2.7962768,91.0
1050,2.557417,0.50607014,-1.3913269,3.3878174,-1.1204224,3.1371827,91.0
1051,2.2768898,0.5837631,-1.1556091,3.3878174,-1.1204224,3.1371827,91.0
1052,2.2768898,0.5837631,-1.1556091,3.5874755,-1.0301514,3.448352,91.0
1053,1.6382103,0.5218439,-0.8322449,3.5874755,-1.0301514,3.448352,91.0
1054,1.6382103,0.5218439,-0.8322449,3.2136476,-0.8581055,3.6586304,91.0
1055,0.67001724,0.3490429,-0.51174927,3.2136476,-0.8581055,3.6586304,91.0
1056,0.67001724,0.3490429,-0.51174927,2.8695557,-0.71367186,3.9188232,91.0
1057,-0.5049763,-0.042554855,-0.15982056,2.8695557,-0.71367186,3.9188232,91.0
1058,-0.5049763,-0.042554855,-0.15982056,2.7229981,-0.5033936,4.0919313,91.0
1059,-1.571022,-0.58329964,0.16719055,2.7229981,-0.5033936,4.0919313,91.0
1060,-1.571022,-0.58329964,0.16719055,3.0108032,-0.4354248,4.1131716,91.0
1061,-2.186554,-0.926918,0.43086243,3.0108032,-0.4354248,4.1131716,91.0
1062,-2.186554,-0.926918,0.43086243,3.4972045,-0.34727785,4.14397,91.0
1063,-2.4323006,-0.79660034,0.70199585,3.4972045,-0.34727785,4.14397,91.0
1064,-2.4323006,-0.79660034,0.70199585,3.25719,-0.16142578,4.1216674,91.0
1065,-2.586172,-0.6075201,0.9159241,3.25719,-0.16142578,4.1216674,91.0
1066,-2.586172,-0.6075201,0.9159241,1.4953126,0.21452637,3.7828858,91.0
1067,-2.4123096,-1.2436085,1.0186615,1.4953126,0.21452637,3.7828858,91.0
1068,-2.4123096,-1.2436085,1.0186615,1.5823975,0.59047854,3.7435913,91.0
1069,-2.0868912,-2.0397968,1.0117493,1.5823975,0.59047854,3.7435913,91.0
1070,-2.0868912,-2.0397968,1.0117493,1.4252198,0.727478,3.2837403,91.0
1071,-1.938446,-2.0251236,0.93115234,1.4252198,0.727478,3.2837403,91.0
1072,-1.938446,-2.0251236,0.93115234,1.1374146,0.6977417,2.8536255,91.0
1073,-1.6936398,-1.6998596,0.8187256,1.1374146,0.6977417,2.8536255,91.0
1074,-1.6936398,-1.6998596,0.8187256,0.9781128,0.68074954,2.3247437,91.0
1075,-1.3948765,-1.4382448,0.7668915,0.9781128,0.68074954,2.3247437,91.0
1076,-1.3948765,-1.4382448,0.7668915,0.94731444,0.6425171,1.8765748,91.0
1077,-1.3660831,-1.0860329,0.9171295,0.94731444,0.6425171,1.8765748,91.0
1078,-1.3660831,-1.0860329,0.9171295,0.72854006,0.5713623,1.3933594,91.0
1079,-1.7399368,-0.69265366,1.187027,0.72854006,0.5713623,1.3933594,91.0
1080,-1.7399368,-0.69265366,1.187027,0.29311523,0.4619751,0.84536135,91.0
1081,-2.2054634,-0.45557594,1.3674164,0.29311523,0.4619751,0.84536135,91.0
1082,-2.2054634,-0.45557594,1.3674164,-0.10407715,0.33134767,0.18585205,91.0
1083,-2.2277374,-0.41291046,1.2838898,-0.10407715,0.33134767,0.18585205,91.0
1084,-2.2277374,-0.41291046,1.2838898,-0.42268068,0.21452637,-0.5533081,91.0
1085,-1.6325188,-0.46214008,0.90644836,-0.42268068,0.21452637,-0.5533081,91.0
1086,-1.6325188,-0.46214008,0.90644836,-0.7848267,0.17841797,-1.4315919,91.0
1087,-0.88212585,-0.52131176,0.33432007,-0.7848267,0.17841797,-1.4315919,91.0
1088,-0.88212585,-0.52131176,0.33432007,-1.2786621,0.16779785,-2.2397828,91.0
1089,-0.2730465,-0.5441494,-0.2457428,-1.2786621,0.16779785,-2.2397828,91.0
1090,-0.2730465,-0.5441494,-0.2457428,-1.6992188,0.13487549,-2.9205322,91.0
1091,-0.2730465,-0.5441494,-0.2457428,-1.6992188,0.13487549,-2.9205322,91.0
1092,0.34662628,-0.5105152,-0.6661835,-1.6992188,0.13487549,-2.9205322,91.0
1093,0.34662628,-0.5105152,-0.6661835,-1.9498535,0.081774905,-3.4472902,91.0
1094,1.177021,-0.36792183,-0.8460083,-1.9498535,0.081774905,-3.4472902,91.0
1095,1.177021,-0.36792183,-0.8460083,-1.983838,0.012744141,-3.9103272,91.0
1096,2.2154808,-0.122169495,-0.78796387,-1.983838,0.012744141,-3.9103272,91.0
1097,2.2154808,-0.122169495,-0.78796387,-1.8808228,-0.053100586,-4.274597,91.0
1098,3.2004242,0.17516422,-0.6096649,-1.8808228,-0.053100586,-4.274597,91.0
1099,3.2004242,0.17516422,-0.6096649,-1.7693115,-0.081774905,-4.489124,91.0
1100,3.8339481,0.5095768,-0.44195557,-1.7693115,-0.081774905,-4.489124,91.0
1101,3.8339481,0.5095768,-0.44195557,-1.7416992,-0.08496094,-4.499744,91.0
1102,3.8710518,0.9204302,-0.36366272,-1.7416992,-0.08496094,-4.499744,91.0
1103,3.8710518,0.9204302,-0.36366272,-1.811792,-0.0021240234,-4.2990236,91.0
1104,3.1683254,1.4105873,-0.36514282,-1.811792,-0.0021240234,-4.2990236,91.0
1105,3.1683254,1.4105873,-0.36514282,-1.988086,0.14018555,-3.9400635,91.0
1106,1.8042278,1.8744411,-0.3488617,-1.988086,0.14018555,-3.9400635,91.0
1107,1.8042278,1.8744411,-0.3488617,-2.1834962,0.32816163,-3.5651734,91.0
1108,0.26625824,2.1876392,-0.24533081,-2.1834962,0.32816163,-3.5651734,91.0
1109,0.26625824,2.1876392,-0.24533081,-2.453247,0.46516114,-3.3336549,91.0
1110,-0.7992363,2.2364025,-0.08119202,-2.453247,0.46516114,-3.3336549,91.0
1111,-0.7992363,2.2364025,-0.08119202,-2.822827,0.5671143,-3.2189577,91.0
1112,-0.9898529,1.9085064,0.044906616,-2.822827,0.5671143,-3.2189577,91.0
1113,-0.9898529,1.9085064,0.044906616,-2.899292,0.7497803,-3.0118654,91.0
1114,-0.5608635,1.3300524,0.08784485,-2.899292,0.7497803,-3.0118654,91.0
1115,-0.5608635,1.3300524,0.08784485,-2.9152222,0.9483765,-2.8557496,91.0
1116,-0.07104111,0.74675655,0.0867157,-2.9152222,0.9483765,-2.8557496,91.0
1117,-0.07104111,0.74675655,0.0867157,-2.800525,1.0694458,-2.7229981,91.0
1118,0.16970634,0.30541325,0.05973816,-2.800525,1.0694458,-2.7229981,91.0
1119,0.16970634,0.30541325,0.05973816,-2.5870607,1.1352905,-2.5201538,91.0
1120,-0.06823921,0.037031174,0.12852478,-2.5870607,1.1352905,-2.5201538,91.0
1121,-0.06823921,0.037031174,0.12852478,-2.269519,1.0959961,-2.250403,91.0
1122,-0.6300068,-0.07901764,0.37858582,-2.269519,1.0959961,-2.250403,91.0
1123,-0.6300068,-0.07901764,0.37858582,-1.903125,0.9430664,-1.902063,91.0
1124,-1.037857,-0.09743023,0.6816406,-1.903125,0.9430664,-1.902063,91.0
1125,-1.037857,-0.09743023,0.6816406,-1.537793,0.7720825,-1.5951416,91.0
1126,-1.0341301,-0.127285,0.8683624,-1.537793,0.7720825,-1.5951416,91.0
1127,-1.0341301,-0.127285,0.8683624,-1.0216553,0.58410645,-1.3094605,91.0
1128,-0.73309135,-0.11581707,0.8522949,-1.0216553,0.58410645,-1.3094605,91.0
1129,-0.73309135,-0.11581707,0.8522949,-0.60216063,0.41312256,-1.0004151,91.0
1130,-0.44244194,0.02159214,0.61712646,-0.60216063,0.41312256,-1.0004151,91.0
1131,-0.44244194,0.02159214,0.61712646,-0.36108398,0.21877442,-0.6786255,91.0
1132,-0.018283844,0.13800144,0.23280334,-0.36108398,0.21877442,-0.6786255,91.0
1133,-0.018283844,0.13800144,0.23280334,-0.1709839,-0.012744141,-0.3419678,91.0
1134,0.90424347,0.059973717,-0.18338013,-0.1709839,-0.012744141,-0.3419678,91.0
1135,0.90424347,0.059973717,-0.18338013,0.078588866,-0.1720459,0.015930176,91.0
1136,1.611433,-0.10490227,-0.4190216,0.078588866,-0.1720459,0.015930176,91.0
1137,1.611433,-0.10490227,-0.4190216,0.4088745,-0.26550293,0.4715332,91.0
1138,1.2221165,-0.09467602,-0.40130615,0.4088745,-0.26550293,0.4715332,91.0
1139,1.2221165,-0.09467602,-0.40130615,0.9143921,-0.49064943,0.89846194,91.0
1140,0.3327713,0.110892296,-0.2950287,0.9143921,-0.49064943,0.89846194,91.0
1141,0.3327713,0.110892296,-0.2950287,1.4708862,-0.70198977,1.3466309,91.0
1142,0.3327713,0.110892296,-0.2950287,2.0687988,-0.8973999,1.808606,91.0
1143,0.023443222,0.3287897,-0.32600403,2.0687988,-0.8973999,1.808606,91.0
1144,2.5952682,0.9967232,-1.4418335,2.0687988,-0.8973999,1.808606,91.0
1145,2.5952682,0.9967232,-1.4418335,2.5891845,-1.0248413,2.2812011,91.0
1146,2.5952682,0.9967232,-1.4418335,2.9152222,-1.0715698,2.7686646,91.0
1147,2.5952682,0.9967232,-1.4418335,2.9959352,-1.0301514,3.245508,91.0
1148,2.7114449,1.0387478,-1.2860565,2.9959352,-1.0301514,3.245508,91.0
1149,2.7114449,1.0387478,-1.2860565,2.8684938,-0.9430664,3.6554444,91.0
1150,2.2919846,0.83400154,-0.94932556,2.8684938,-0.9430664,3.6554444,91.0
1151,2.2919846,0.83400154,-0.94932556,2.6847656,-0.8071289,3.977234,91.0
1152,1.4383106,0.369215,-0.6010742,2.6847656,-0.8071289,3.977234,91.0
1153,1.4383106,0.369215,-0.6010742,2.5488281,-0.6775635,4.196008,91.0
1154,0.36239243,-0.106594086,-0.3668518,2.5488281,-0.6775635,4.196008,91.0
1155,0.36239243,-0.106594086,-0.3668518,2.3024414,-0.5384399,4.3691163,91.0
1156,-0.7123928,-0.5137911,-0.25256348,2.3024414,-0.5384399,4.3691163,91.0
1157,-0.7123928,-0.5137911,-0.25256348,1.9094971,-0.39294434,4.455139,91.0
1158,-1.5658245,-0.9906101,-0.18925476,1.9094971,-0.39294434,4.455139,91.0
1159,-1.5658245,-0.9906101,-0.18925476,2.0592408,-0.33134767,4.4477053,91.0
1160,-2.0390606,-1.4111767,-0.057525635,2.0592408,-0.33134767,4.4477053,91.0
1161,-2.0390606,-1.4111767,-0.057525635,2.061365,-0.33984375,4.259729,91.0
1162,-2.1292953,-1.5980082,0.09550476,2.061365,-0.33984375,4.259729,91.0
1163,-2.1292953,-1.5980082,0.09550476,1.6917847,-0.18903808,3.974048,91.0
1164,-2.0340996,-1.7429695,0.15481567,1.6917847,-0.18903808,3.974048,91.0
1165,-2.0340996,-1.7429695,0.15481567,1.7703736,0.0541626,3.799878,91.0
1166,-1.9965057,-1.8280182,0.21540833,1.7703736,0.0541626,3.799878,91.0
1167,-1.9965057,-1.8280182,0.21540833,1.7576294,0.17735596,3.4058716,91.0
1168,-2.1096802,-1.6702032,0.3176117,1.7576294,0.17735596,3.4058716,91.0
1169,-2.1096802,-1.6702032,0.3176117,1.628064,0.27718505,2.989563,91.0
1170,-2.2063217,-1.3846121,0.3675232,1.628064,0.27718505,2.989563,91.0
1171,-2.2063217,-1.3846121,0.3675232,1.4517701,0.26762697,2.453247,91.0
1172,-2.1157036,-1.1315784,0.43533325,1.4517701,0.26762697,2.453247,91.0
1173,-2.1157036,-1.1315784,0.43533325,1.3200806,0.23045655,1.9371094,91.0
1174,-1.9025974,-0.8766861,0.6400299,1.3200806,0.23045655,1.9371094,91.0
1175,-1.9025974,-0.8766861,0.6400299,1.1257324,0.15717773,1.354065,91.0
1176,-1.8143272,-0.58847046,0.9171295,1.1257324,0.15717773,1.354065,91.0
1177,-1.8143272,-0.58847046,0.9171295,0.7720825,0.06478272,0.79332274,91.0
1178,-1.9997158,-0.3118286,1.109726,0.7720825,0.06478272,0.79332274,91.0
1179,-1.9997158,-0.3118286,1.109726,0.10195313,-0.023364259,0.30267334,91.0
1180,-2.1097088,-0.21720028,1.1481018,0.10195313,-0.023364259,0.30267334,91.0
1181,-2.1097088,-0.21720028,1.1481018,-0.43967286,-0.16992188,-0.31329346,91.0
1182,-1.5628166,-0.35465622,1.0366821,-0.43967286,-0.16992188,-0.31329346,91.0
1183,-1.5628166,-0.35465622,1.0366821,-0.68499756,-0.24213867,-1.081128,91.0
1184,-1.5628166,-0.35465622,1.0366821,-0.9674927,-0.24107666,-1.8542725,91.0
1185,-0.51595116,-0.5019865,0.77111816,-0.9674927,-0.24107666,-1.8542725,91.0
1186,1.7108727,-0.58557415,0.31661987,-0.9674927,-0.24107666,-1.8542725,91.0
1187,1.7108727,-0.58557415,0.31661987,-1.355127,-0.2357666,-2.4829834,91.0
1188,1.7108727,-0.58557415,0.31661987,-1.4921265,-0.23364258,-2.977881,91.0
1189,1.7108727,-0.58557415,0.31661987,-1.3678712,-0.25913087,-3.4653442,91.0
1190,2.6567116,-0.23822308,0.25704956,-1.3678712,-0.25913087,-3.4653442,91.0
1191,2.6567116,-0.23822308,0.25704956,-1.2712281,-0.24744873,-3.8593507,91.0
1192,3.472721,0.32798862,0.16661072,-1.2712281,-0.24744873,-3.8593507,91.0
1193,3.472721,0.32798862,0.16661072,-1.5282348,-0.16354981,-4.069629,91.0
1194,3.721426,0.876441,-0.035629272,-1.5282348,-0.16354981,-4.069629,91.0
1195,3.721426,0.876441,-0.035629272,-2.0401247,0.0053100586,-3.98573,91.0
1196,3.2623825,1.2512627,-0.3361969,-2.0401247,0.0053100586,-3.98573,91.0
1197,3.2623825,1.2512627,-0.3361969,-2.536084,0.27506104,-3.7212892,91.0
1198,2.1947937,1.5181484,-0.59284973,-2.536084,0.27506104,-3.7212892,91.0
1199,2.1947937,1.5181484,-0.59284973,-2.9438965,0.4959595,-3.4642823,91.0
1200,0.89061356,1.705266,-0.72161865,-2.9438965,0.4959595,-3.4642823,91.0
1201,0.89061356,1.705266,-0.72161865,-3.434546,0.75615233,-3.2858644,91.0
1202,-0.26709938,1.6529341,-0.7911377,-3.434546,0.75615233,-3.2858644,91.0
1203,-0.26709938,1.6529341,-0.7911377,-3.5460572,0.8782837,-2.998059,91.0
1204,-0.996088,1.4568567,-0.82603455,-3.5460572,0.8782837,-2.998059,91.0
1205,-0.996088,1.4568567,-0.82603455,-3.4972045,1.0036011,-2.9003541,91.0
1206,-0.996088,1.4568567,-0.82603455,-3.4972045,1.0036011,-2.9003541,92.0
1207,-1.0238476,1.2351389,-0.87753296,-3.4972045,1.0036011,-2.9003541,92.0
1208,-1.0238476,1.2351389,-0.87753296,-3.8200562,1.0492676,-2.704944,92.0
1209,-0.4878769,0.753212,-0.93473816,-3.8200562,1.0492676,-2.704944,92.0
1210,-0.4878769,0.753212,-0.93473816,-3.4037476,1.1437867,-2.4723632,92.0
1211,0.086639404,0.20930862,-0.8487854,-3.4037476,1.1437867,-2.4723632,92.0
1212,0.086639404,0.20930862,-0.8487854,-2.8674316,1.1915772,-2.3980224,92.0
1213,0.32636642,-0.09834957,-0.5444641,-2.8674316,1.1915772,-2.3980224,92.0
1214,0.32636642,-0.09834957,-0.5444641,-2.2854493,1.2319336,-2.3183715,92.0
1215,0.20003319,-0.2641163,-0.11820984,-2.2854493,1.2319336,-2.3183715,92.0
1216,0.20003319,-0.2641163,-0.11820984,-1.7438233,1.1926392,-2.2971313,92.0
1217,-0.11155701,-0.38784313,0.23428345,-1.7438233,1.1926392,-2.2971313,92.0
1218,-0.11155701,-0.38784313,0.23428345,-1.2000732,1.0906861,-2.2886353,92.0
1219,-0.48861122,-0.41280174,0.46891785,-1.2000732,1.0906861,-2.2886353,92.0
1220,-0.48861122,-0.41280174,0.46891785,-0.68287355,0.9696167,-2.1919923,92.0
1221,-0.88157654,-0.31957245,0.60913086,-0.68287355,0.9696167,-2.1919923,92.0
1222,-0.88157654,-0.31957245,0.60913086,-0.46728516,0.79119873,-1.9987061,92.0
1223,-1.0088978,-0.31627846,0.5486908,-0.46728516,0.79119873,-1.9987061,92.0
1224,-1.0088978,-0.31627846,0.5486908,0.15717773,0.51082766,-1.5866455,92.0
1225,-0.69779205,-0.15272999,0.2855835,0.15717773,0.51082766,-1.5866455,92.0
1226,-0.69779205,-0.15272999,0.2855835,0.5968506,0.18585205,-1.1236085,92.0
1227,0.114068985,0.45787048,-0.04260254,0.5968506,0.18585205,-1.1236085,92.0
1228,0.114068985,0.45787048,-0.04260254,0.76358646,-0.14230958,-0.63720703,92.0
1229,1.5066719,1.0774412,-0.3318329,0.76358646,-0.14230958,-0.63720703,92.0
1230,1.5066719,1.0774412,-0.3318329,0.7975708,-0.33984375,-0.18585205,92.0
1231,2.5462666,1.1374168,-0.49101257,0.7975708,-0.33984375,-0.18585205,92.0
1232,2.5462666,1.1374168,-0.49101257,0.6796875,-0.35471192,0.31435546,92.0
1233,2.0591068,0.66088486,-0.49745178,0.6796875,-0.35471192,0.31435546,92.0
1234,2.0591068,0.66088486,-0.49745178,0.7327881,-0.5256958,0.7943848,92.0
1235,0.5792427,0.18068504,-0.38128662,0.7327881,-0.5256958,0.7943848,92.0
1236,0.5792427,0.18068504,-0.38128662,1.0747559,-0.7497803,1.2892822,92.0
1237,-0.3588848,0.12419891,-0.30181885,1.0747559,-0.7497803,1.2892822,92.0
1238,-0.3588848,0.12419891,-0.30181885,1.531421,-0.98448485,1.7576294,92.0
1239,0.011171341,0.38391685,-0.44581604,1.531421,-0.98448485,1.7576294,92.0
1240,0.011171341,0.38391685,-0.44581604,2.0263183,-1.1490967,2.2004883,92.0
1241,1.1467171,0.68123055,-0.7791443,2.0263183,-1.1490967,2.2004883,92.0
1242,1.1467171,0.68123055,-0.7791443,2.4182007,-1.2223755,2.6104248,92.0
1243,1.9976349,0.8293228,-1.0779266,2.4182007,-1.2223755,2.6104248,92.0
1244,1.9976349,0.8293228,-1.0779266,2.631665,-1.2266235,2.983191,92.0
1245,2.0348759,0.94007015,-1.0339661,2.631665,-1.2266235,2.983191,92.0
1246,2.0348759,0.94007015,-1.0339661,2.806897,-1.1905152,3.330469,92.0
1247,1.5876904,0.5819626,-0.78393555,2.806897,-1.1905152,3.330469,92.0
1248,1.5876904,0.5819626,-0.78393555,3.2263916,-1.1671509,3.609778,92.0
1249,-6.71924,0.9270201,-1.9849396,3.2263916,-1.1671509,3.609778,92.0
1250,-6.71924,0.9270201,-1.9849396,2.969385,-0.98448485,3.715979,92.0
1251,-5.910305,0.8946562,-9.365021,2.969385,-0.98448485,3.715979,92.0
1252,-5.910305,0.8946562,-9.365021,2.6868896,-0.80819094,3.979358,92.0
1253,-5.472313,0.54190826,-7.435028,2.6868896,-0.80819094,3.979358,92.0
1254,-5.472313,0.54190826,-7.435028,2.4872315,-0.63614506,4.072815,92.0
1255,-5.230158,0.05482769,-5.8116913,2.4872315,-0.63614506,4.072815,92.0
1256,-5.230158,0.05482769,-5.8116913,2.8589356,-0.6223389,4.062195,92.0
1257,-4.9297314,-0.3017063,-4.5269012,2.8589356,-0.6223389,4.062195,92.0
1258,-4.9297314,-0.3017063,-4.5269012,3.1127565,-0.51082766,3.9666138,92.0
1259,-4.483409,-0.5137291,-3.55159,3.1127565,-0.51082766,3.9666138,92.0
1260,-4.483409,-0.5137291,-3.55159,3.3325927,-0.3451538,3.787134,92.0
1261,-4.0877285,-0.4947729,-2.563446,3.3325927,-0.3451538,3.787134,92.0
1262,-4.0877285,-0.4947729,-2.563446,2.9598267,-0.18160401,3.6756227,92.0
1263,-3.8310719,-0.21846199,-1.5776672,2.9598267,-0.18160401,3.6756227,92.0
1264,-3.8310719,-0.21846199,-1.5776672,1.3158325,0.1274414,3.1902833,92.0
1265,-3.2297382,-0.5043106,-1.0554962,1.3158325,0.1274414,3.1902833,92.0
1266,-3.2297382,-0.5043106,-1.0554962,1.0588257,0.39188233,2.909912,92.0
1267,-2.5186787,-1.0841856,-1.007431,1.0588257,0.39188233,2.909912,92.0
1268,-2.5186787,-1.0841856,-1.007431,0.9791748,0.42374268,2.3704102,92.0
1269,-2.2032967,-1.0459623,-0.90631104,0.9791748,0.42374268,2.3704102,92.0
1270,-2.2032967,-1.0459623,-0.90631104,0.6977417,0.41949463,1.7597535,92.0
1271,-2.0179844,-0.8796406,-0.56539917,0.6977417,0.41949463,1.7597535,92.0
1272,-2.0179844,-0.8796406,-0.56539917,0.6435791,0.41418457,1.1151123,92.0
1273,-1.7360554,-0.773366,-0.21488953,0.6435791,0.41418457,1.1151123,92.0
1274,-1.7360554,-0.773366,-0.21488953,0.544812,0.39294434,0.60322267,92.0
1275,-1.7360554,-0.773366,-0.21488953,0.18691407,0.35683593,0.13168946,92.0
1276,-1.3734875,-0.5603924,0.05079651,0.18691407,0.35683593,0.13168946,92.0
1277,0.4342308,-0.2615347,0.28962708,0.18691407,0.35683593,0.13168946,92.0
1278,0.4342308,-0.2615347,0.28962708,-0.2442627,0.2623169,-0.40037844,92.0
1279,0.4342308,-0.2615347,0.28962708,-0.6180908,0.16673584,-1.0662597,92.0
1280,0.4342308,-0.2615347,0.28962708,-1.1182984,0.20496826,-1.7416992,92.0
1281,1.1124849,-0.23215294,0.051849365,-1.1182984,0.20496826,-1.7416992,92.0
1282,1.1124849,-0.23215294,0.051849365,-1.6365601,0.2538208,-2.3619142,92.0
1283,1.0249481,-0.33762646,-0.105789185,-1.6365601,0.2538208,-2.3619142,92.0
1284,1.0249481,-0.33762646,-0.105789185,-1.8956909,0.2538208,-2.884424,92.0
1285,0.7250242,-0.43634796,-0.17819214,-1.8956909,0.2538208,-2.884424,92.0
1286,0.7250242,-0.43634796,-0.17819214,-1.8903809,0.20496826,-3.3007324,92.0
1287,0.7452049,-0.35469437,-0.14907837,-1.8903809,0.20496826,-3.3007324,92.0
1288,0.7452049,-0.35469437,-0.14907837,-1.7863038,0.16248779,-3.6480103,92.0
1289,1.1360445,-0.14121437,-0.036712646,-1.7863038,0.16248779,-3.6480103,92.0
1290,1.1360445,-0.14121437,-0.036712646,-1.6949707,0.16354981,-3.810498,92.0
1291,1.5113258,0.039079666,0.044815063,-1.6949707,0.16354981,-3.810498,92.0
1292,1.5113258,0.039079666,0.044815063,-1.6365601,0.24851075,-3.79032,92.0
1293,1.5226593,0.2446785,-0.0068511963,-1.6365601,0.24851075,-3.79032,92.0
1294,1.5226593,0.2446785,-0.0068511963,-1.6131958,0.3462158,-3.5534914,92.0
1295,1.2054195,0.6462307,-0.22703552,-1.6131958,0.3462158,-3.5534914,92.0
1296,1.2054195,0.6462307,-0.22703552,-1.7077149,0.54906005,-3.1924074,92.0
1297,0.5818281,1.2335005,-0.51327515,-1.7077149,0.54906005,-3.1924074,92.0
1298,0.5818281,1.2335005,-0.51327515,-2.0634887,0.6818115,-2.9502685,92.0
1299,-0.2248087,1.7651815,-0.71676636,-2.0634887,0.6818115,-2.9502685,92.0
1300,-0.2248087,1.7651815,-0.71676636,-2.4914796,0.7593384,-2.716626,92.0
1301,-0.85173416,1.9821396,-0.6911316,-2.4914796,0.7593384,-2.716626,92.0
1302,-0.85173416,1.9821396,-0.6911316,-2.7261841,0.8241211,-2.4978516,92.0
1303,-1.0808992,1.8310366,-0.4201355,-2.7261841,0.8241211,-2.4978516,92.0
1304,-1.0808992,1.8310366,-0.4201355,-2.7261841,0.8241211,-2.4978516,93.0
1305,-1.0808992,1.8310366,-0.4201355,-2.799463,0.86553955,-2.3364258,93.0
1306,-0.9167824,1.4029398,-0.06750488,-2.799463,0.86553955,-2.3364258,93.0
1307,-0.9167824,1.4029398,-0.06750488,-2.7792847,0.9143921,-2.2344728,93.0
1308,-0.4061308,0.84443474,0.20826721,-2.7792847,0.9143921,-2.2344728,93.0
1309,-0.4061308,0.84443474,0.20826721,-2.4734254,0.991919,-2.084729,93.0
1310,0.29196548,0.4038067,0.33514404,-2.4734254,0.991919,-2.084729,93.0
1311,0.29196548,0.4038067,0.33514404,-2.1134033,1.0333375,-2.0507448,93.0
1312,0.8368921,0.17046928,0.3046875,-2.1134033,1.0333375,-2.0507448,93.0
1313,0.8368921,0.17046928,0.3046875,-1.6620483,1.0545777,-2.0220704,93.0
1314,0.8994942,-0.11070633,0.34118652,-1.6620483,1.0545777,-2.0220704,93.0
1315,0.8994942,-0.11070633,0.34118652,-1.1331666,0.99935305,-2.1102173,93.0
1316,0.62594223,-0.8002472,0.6297455,-1.1331666,0.99935305,-2.1102173,93.0
1317,0.62594223,-0.8002472,0.6297455,-0.24638672,0.91864014,-2.073047,93.0
1318,0.45854187,-1.5858889,0.86691284,-0.24638672,0.91864014,-2.073047,93.0
1319,0.45854187,-1.5858889,0.86691284,0.6064087,0.8028809,-1.8871949,93.0
1320,0.44764423,-1.7733011,0.6434326,0.6064087,0.8028809,-1.8871949,93.0
1321,0.44764423,-1.7733011,0.6434326,0.905896,0.6467652,-1.4613281,93.0
1322,0.3751812,-1.3311777,0.10775757,0.905896,0.6467652,-1.4613281,93.0
1323,0.3751812,-1.3311777,0.10775757,0.901648,0.45666504,-0.8262451,93.0
1324,0.33722973,-0.49648476,-0.3102417,0.901648,0.45666504,-0.8262451,93.0
1325,0.33722973,-0.49648476,-0.3102417,0.81987303,0.15717773,-0.2262085,93.0
1326,0.9908161,0.57739735,-0.5036316,0.81987303,0.15717773,-0.2262085,93.0
1327,0.9908161,0.57739735,-0.5036316,0.7317261,-0.06796875,0.18797608,93.0
1328,2.082118,1.372221,-0.5812988,0.7317261,-0.06796875,0.18797608,93.0
1329,2.082118,1.372221,-0.5812988,0.49277344,0.026550293,0.68074954,93.0
1330,2.095211,1.2774162,-0.55685425,0.49277344,0.026550293,0.68074954,93.0
1331,2.095211,1.2774162,-0.55685425,0.43117675,0.0,0.8889038,93.0
1332,1.0247164,0.8357878,-0.68455505,0.43117675,0.0,0.8889038,93.0
1333,1.0247164,0.8357878,-0.68455505,0.40356445,-0.21346436,1.4262818,93.0
1334,0.34446716,0.41495514,-0.6463165,0.40356445,-0.21346436,1.4262818,93.0
1335,0.34446716,0.41495514,-0.6463165,0.44923097,-0.30373535,1.622754,93.0
1336,-0.2343998,0.03048706,-0.8170929,0.44923097,-0.30373535,1.622754,93.0
1337,-0.2343998,0.03048706,-0.8170929,0.7720825,-0.5649902,2.2100465,93.0
1338,0.03461075,-0.103796005,-0.82066345,0.7720825,-0.5649902,2.2100465,93.0
1339,0.03461075,-0.103796005,-0.82066345,0.9526245,-0.6425171,2.3704102,93.0
1340,1.0657864,0.093502045,-1.0781708,0.9526245,-0.6425171,2.3704102,93.0
1341,1.0657864,0.093502045,-1.0781708,1.5908936,-0.8209351,2.7612305,93.0
1342,1.0339527,-0.055446625,-1.0011444,1.5908936,-0.8209351,2.7612305,93.0
1343,1.0339527,-0.055446625,-1.0011444,1.7459472,-0.86341554,2.8716798,93.0
1344,0.9331322,0.26387024,-0.9284973,1.7459472,-0.86341554,2.8716798,93.0
1345,0.9331322,0.26387024,-0.9284973,1.8744507,-0.92501223,3.165857,93.0
1346,0.52201843,0.034192085,-0.75216675,1.8744507,-0.92501223,3.165857,93.0
1347,0.52201843,0.034192085,-0.75216675,1.897815,-0.94731444,3.2625,93.0
1348,-0.4204712,0.14062214,-0.46466064,1.897815,-0.94731444,3.2625,93.0
1349,-0.4204712,0.14062214,-0.46466064,1.896753,-0.9674927,3.5035768,93.0
1350,-0.8775139,-0.104177475,-0.30995178,1.896753,-0.9674927,3.5035768,93.0
1351,-0.8775139,-0.104177475,-0.30995178,1.902063,-0.9855469,3.5619874,93.0
1352,-2.070798,-0.18212128,-0.08547974,1.902063,-0.9855469,3.5619874,93.0
1353,-2.070798,-0.18212128,-0.08547974,2.16969,-1.0694458,3.7244751,93.0
1354,-2.1875095,-0.49021626,5.493164E-4,2.16969,-1.0694458,3.7244751,93.0
1355,-2.1875095,-0.49021626,5.493164E-4,2.3141236,-1.1225464,3.7605836,93.0
1356,-2.164998,-0.7770357,0.094696045,2.3141236,-1.1225464,3.7605836,93.0
1357,-2.164998,-0.7770357,0.094696045,2.7474244,-1.1352905,3.7478395,93.0
1358,-1.9369793,-0.99682426,0.2116394,2.7474244,-1.1352905,3.7478395,93.0
1359,-1.9369793,-0.99682426,0.2116394,2.8270752,-1.0938721,3.7510254,93.0
1360,-1.6759014,-1.0918446,0.5194397,2.8270752,-1.0938721,3.7510254,93.0
1361,-1.6759014,-1.0918446,0.5194397,2.9502685,-0.9759888,3.6596925,93.0
1362,-1.529357,-1.1352558,0.97520447,2.9502685,-0.9759888,3.6596925,93.0
1363,-1.529357,-1.1352558,0.97520447,2.8451295,-0.727478,3.4738405,93.0
1364,-1.4977283,-1.1128683,1.3729401,2.8451295,-0.727478,3.4738405,93.0
1365,-1.4977283,-1.1128683,1.3729401,2.5573242,-0.46409914,3.0925782,93.0
1366,-1.6229506,-1.0536613,1.6164703,2.5573242,-0.46409914,3.0925782,93.0
1367,-1.6229506,-1.0536613,1.6164703,2.16969,-0.2177124,2.6550293,93.0
1368,-1.7991543,-0.88589764,1.8768463,2.16969,-0.2177124,2.6550293,93.0
1369,-1.7991543,-0.88589764,1.8768463,1.4560181,0.013806152,1.893567,93.0
1370,-1.7991543,-0.88589764,1.8768463,1.1501588,0.057348635,1.634436,93.0
1371,-1.6424484,-0.7433739,1.706131,1.1501588,0.057348635,1.634436,93.0
1372,-1.9716616,-0.1783657,1.8640594,1.1501588,0.057348635,1.634436,93.0
1373,-1.9716616,-0.1783657,1.8640594,0.14230958,0.06796875,0.8050049,93.0
1374,-1.9716616,-0.1783657,1.8640594,-0.15186767,0.039294433,0.48321533,93.0
1375,-1.9716616,-0.1783657,1.8640594,-0.72854006,0.032922365,-0.48533937,93.0
1376,-1.8072615,-0.050419807,1.9886017,-0.72854006,0.032922365,-0.48533937,93.0
1377,-0.45858955,0.014400482,1.337738,-0.72854006,0.032922365,-0.48533937,93.0
1378,-0.45858955,0.014400482,1.337738,-0.9366943,0.03079834,-0.8527954,93.0
1379,-0.45858955,0.014400482,1.337738,-1.4528321,0.06903076,-1.6832886,93.0
1380,-0.45858955,0.014400482,1.337738,-1.9997681,0.19222413,-2.4628053,93.0
1381,0.7812481,-0.056777954,0.37156677,-1.9997681,0.19222413,-2.4628053,93.0
1382,2.4609604,-0.6972418,-0.35003662,-1.9997681,0.19222413,-2.4628053,93.0
1383,2.4609604,-0.6972418,-0.35003662,-2.2833252,0.29417726,-3.0554078,93.0
1384,2.4609604,-0.6972418,-0.35003662,-2.3990846,0.3334717,-3.4674683,93.0
1385,2.4609604,-0.6972418,-0.35003662,-2.531836,0.36108398,-3.6639404,93.0
1386,2.5705137,-0.37725163,-0.27392578,-2.531836,0.36108398,-3.6639404,93.0
1387,2.5705137,-0.37725163,-0.27392578,-2.6390991,0.44604492,-3.6671264,93.0
1388,2.3973408,0.05946541,-0.2501068,-2.6390991,0.44604492,-3.6671264,93.0
1389,2.3973408,0.05946541,-0.2501068,-2.6040528,0.60322267,-3.5184448,93.0
1390,1.8271132,0.5838032,-0.37815857,-2.6040528,0.60322267,-3.5184448,93.0
1391,1.8271132,0.5838032,-0.37815857,-2.5966187,0.7986328,-3.3325927,93.0
1392,1.8271132,0.5838032,-0.37815857,-2.5966187,0.7986328,-3.3325927,94.0
1393,0.8485918,1.3961926,-1.0767059,-2.5966187,0.7986328,-3.3325927,94.0
1394,0.8485918,1.3961926,-1.0767059,-3.1488647,1.1044922,-3.1435547,94.0
1395,0.6475992,1.7096548,-1.2576294,-3.1488647,1.1044922,-3.1435547,94.0
1396,0.6475992,1.7096548,-1.2576294,-3.2232056,1.1852051,-3.0320435,94.0
1397,0.28422928,1.7753782,-1.7694702,-3.2232056,1.1852051,-3.0320435,94.0
1398,0.28422928,1.7753782,-1.7694702,-3.0246093,1.3434448,-2.8345094,94.0
1399,-0.012093544,1.7612934,-2.0143127,-3.0246093,1.3434448,-2.8345094,94.0
1400,-0.012093544,1.7612934,-2.0143127,-3.1509888,1.3625611,-2.7569826,94.0
1401,-0.1317215,1.7313366,-1.9212189,-3.1509888,1.3625611,-2.7569826,94.0
1402,-0.1317215,1.7313366,-1.9212189,-3.0341675,1.364685,-2.6019287,94.0
1403,-0.035345078,1.5115223,-1.5295868,-3.0341675,1.364685,-2.6019287,94.0
1404,-0.035345078,1.5115223,-1.5295868,-2.7251222,1.3391968,-2.4489992,94.0
1405,0.096858025,1.263588,-0.9460907,-2.7251222,1.3391968,-2.4489992,94.0
1406,0.096858025,1.263588,-0.9460907,-2.272705,1.26698,-2.3130615,94.0
1407,0.19615173,1.157978,-0.25613403,-2.272705,1.26698,-2.3130615,94.0
1408,0.19615173,1.157978,-0.25613403,-2.0210083,1.2170655,-2.2291627,94.0
1409,0.26581955,1.0423241,0.39474487,-2.0210083,1.2170655,-2.2291627,94.0
1410,0.26581955,1.0423241,0.39474487,-1.7024049,1.2011353,-2.1813722,94.0
1411,0.18576336,0.8239479,0.767746,-1.7024049,1.2011353,-2.1813722,94.0
1412,0.18576336,0.8239479,0.767746,-1.3784913,1.1087402,-2.1834962,94.0
1413,0.14126205,0.6461334,0.75276184,-1.3784913,1.1087402,-2.1834962,94.0
1414,0.14126205,0.6461334,0.75276184,-1.1278565,1.0216553,-2.167566,94.0
1415,0.30579567,0.60696983,0.5548248,-1.1278565,1.0216553,-2.167566,94.0
1416,0.30579567,0.60696983,0.5548248,-1.2489258,0.9611206,-2.0549927,94.0
1417,0.49099827,0.55221367,0.36358643,-1.2489258,0.9611206,-2.0549927,94.0
1418,0.49099827,0.55221367,0.36358643,-1.2765381,0.87403566,-1.8330323,94.0
1419,0.5839119,0.44003677,0.12579346,-1.2765381,0.87403566,-1.8330323,94.0
1420,0.5839119,0.44003677,0.12579346,-1.2935303,0.72004396,-1.5728394,94.0
1421,0.6907749,0.22081566,-0.114730835,-1.2935303,0.72004396,-1.5728394,94.0
1422,0.6907749,0.22081566,-0.114730835,-1.2032593,0.5076416,-1.2446778,94.0
1423,0.89851856,-0.14121819,-0.15975952,-1.2032593,0.5076416,-1.2446778,94.0
1424,0.89851856,-0.14121819,-0.15975952,-0.81031495,0.21452637,-0.85704345,94.0
1425,1.4387608,-0.43555832,-0.10784912,-0.81031495,0.21452637,-0.85704345,94.0
1426,1.4387608,-0.43555832,-0.10784912,-0.2347046,-0.115759276,-0.47578126,94.0
1427,1.894331,-0.51213074,-0.068603516,-0.2347046,-0.115759276,-0.47578126,94.0
1428,1.894331,-0.51213074,-0.068603516,0.41949463,-0.32603762,-0.09451904,94.0
1429,1.2306862,-0.4068718,0.052886963,0.41949463,-0.32603762,-0.09451904,94.0
1430,1.2306862,-0.4068718,0.052886963,0.994043,-0.64570314,0.31223145,94.0
1431,-0.1995449,-0.17233658,0.31082153,0.994043,-0.64570314,0.31223145,94.0
1432,-0.1995449,-0.17233658,0.31082153,1.2977784,-0.905896,0.80606693,94.0
1433,-1.101079,0.09177017,0.46879578,1.2977784,-0.905896,0.80606693,94.0
1434,-1.101079,0.09177017,0.46879578,1.6482422,-1.1639649,1.3243287,94.0
1435,-0.89833164,0.3328762,0.23680115,1.6482422,-1.1639649,1.3243287,94.0
1436,-0.89833164,0.3328762,0.23680115,2.0199463,-1.358313,1.7438233,94.0
1437,-0.059547424,0.42557716,-0.26730347,2.0199463,-1.358313,1.7438233,94.0
1438,-0.059547424,0.42557716,-0.26730347,2.3778443,-1.4910644,2.1399536,94.0
1439,0.6139221,0.3290844,-0.70111084,2.3778443,-1.4910644,2.1399536,94.0
1440,0.6139221,0.3290844,-0.70111084,2.6571534,-1.5813354,2.52865,94.0
1441,0.8826046,0.16047287,-0.8543854,2.6571534,-1.5813354,2.52865,94.0
1442,0.8826046,0.16047287,-0.8543854,2.7591064,-1.6068238,2.899292,94.0
1443,0.91521454,-0.056728363,-0.71710205,2.7591064,-1.6068238,2.899292,94.0
1444,0.91521454,-0.056728363,-0.71710205,2.7984009,-1.5781494,3.2306397,94.0
1445,0.8030939,-0.38821602,-0.4004364,2.7984009,-1.5781494,3.2306397,94.0
1446,0.8030939,-0.38821602,-0.4004364,2.977881,-1.4900025,3.4950807,94.0
1447,0.38242912,-0.7638569,-0.16740417,2.977881,-1.4900025,3.4950807,94.0
1448,0.38242912,-0.7638569,-0.16740417,3.3633912,-1.3678712,3.6650026,94.0
1449,-0.31948376,-0.89393425,-0.19168091,3.3633912,-1.3678712,3.6650026,94.0
1450,-0.31948376,-0.89393425,-0.19168091,3.5598633,-1.2266235,3.815808,94.0
1451,-0.92753506,-0.885643,-0.33901978,3.5598633,-1.2266235,3.815808,94.0
1452,-0.92753506,-0.885643,-0.33901978,3.7467773,-1.0365235,3.9071412,94.0
1453,-1.1635246,-0.9826603,-0.30618286,3.7467773,-1.0365235,3.9071412,94.0
1454,-1.1635246,-0.9826603,-0.30618286,4.066443,-0.8581055,3.9804199,94.0
1455,-1.1484585,-1.1763992,0.11923218,4.066443,-0.8581055,3.9804199,94.0
1456,-1.1484585,-1.1763992,0.11923218,4.33938,-0.57561034,3.9050171,94.0
1457,-1.0170698,-1.2950134,0.63093567,4.33938,-0.57561034,3.9050171,94.0
1458,-1.0170698,-1.2950134,0.63093567,4.2225585,-0.16779785,3.8200562,94.0
1459,-1.1235924,-0.8843994,0.91700745,4.2225585,-0.16779785,3.8200562,94.0
1460,-1.1235924,-0.8843994,0.91700745,2.4882934,0.19434814,3.3517091,94.0
1461,-1.1197968,-0.7269039,0.81492615,2.4882934,0.19434814,3.3517091,94.0
1462,-1.1197968,-0.7269039,0.81492615,1.0343994,0.70942384,3.085144,94.0
1463,-0.9506836,-1.2489548,0.4355011,1.0343994,0.70942384,3.085144,94.0
1464,-0.9506836,-1.2489548,0.4355011,0.7954468,0.85491943,2.7867188,94.0
1465,-1.1390753,-1.2850523,0.37219238,0.7954468,0.85491943,2.7867188,94.0
1466,-1.1390753,-1.2850523,0.37219238,0.51826173,0.76677245,2.437317,94.0
1467,-1.1390753,-1.2850523,0.37219238,0.5363159,0.7858887,2.0273805,94.0
1468,-1.2523375,-0.9589138,0.81396484,0.5363159,0.7858887,2.0273805,94.0
1469,-2.396572,-0.3773365,1.6379852,0.5363159,0.7858887,2.0273805,94.0
1470,-2.396572,-0.3773365,1.6379852,0.6754395,0.7890747,1.5505371,94.0
1471,-2.396572,-0.3773365,1.6379852,0.45560303,0.815625,1.0620117,94.0
1472,-2.396572,-0.3773365,1.6379852,0.02442627,0.7965088,0.5522461,94.0
1473,-2.6179047,-0.28669548,1.2787476,0.02442627,0.7965088,0.5522461,94.0
1474,-2.6179047,-0.28669548,1.2787476,-0.46728516,0.7317261,-0.07965088,94.0
1475,-2.1491451,-0.2557726,0.860672,-0.46728516,0.7317261,-0.07965088,94.0
1476,-2.1491451,-0.2557726,0.860672,-0.90802,0.68924564,-0.817749,94.0
1477,-1.2928753,-0.1867714,0.4199524,-0.90802,0.68924564,-0.817749,94.0
1478,-1.2928753,-0.1867714,0.4199524,-1.3137085,0.7317261,-1.4613281,94.0
1479,-0.6403799,-0.06855774,6.5612793E-4,-1.3137085,0.7317261,-1.4613281,94.0
1480,-0.6403799,-0.06855774,6.5612793E-4,-1.5930176,0.6945557,-2.0496826,94.0
1481,-0.17034817,4.386902E-4,-0.30859375,-1.5930176,0.6945557,-2.0496826,94.0
1482,-0.17034817,4.386902E-4,-0.30859375,-1.7236451,0.5607422,-2.616797,94.0
1483,0.4140997,-0.08431625,-0.34043884,-1.7236451,0.5607422,-2.616797,94.0
1484,0.4140997,-0.08431625,-0.34043884,-1.7353271,0.3791382,-3.2115235,94.0
1485,1.1715631,-0.3113613,-0.084472656,-1.7353271,0.3791382,-3.2115235,94.0
1486,1.1715631,-0.3113613,-0.084472656,-1.6185058,0.1901001,-3.796692,94.0
1487,1.907978,-0.4948902,0.2734375,-1.6185058,0.1901001,-3.796692,94.0
1488,1.907978,-0.4948902,0.2734375,-1.539917,0.06478272,-4.265039,94.0
1489,2.5002718,-0.52818775,0.53486633,-1.539917,0.06478272,-4.265039,94.0
1490,2.5002718,-0.52818775,0.53486633,-1.4730103,0.025488282,-4.5698366,94.0
1491,2.8188572,-0.32884884,0.56614685,-1.4730103,0.025488282,-4.5698366,94.0
1492,2.8188572,-0.32884884,0.56614685,-1.4379638,0.070092775,-4.7418823,94.0
1493,2.8188572,-0.32884884,0.56614685,-1.4379638,0.070092775,-4.7418823,94.0
1494,2.7164993,0.19529533,0.28875732,-1.4379638,0.070092775,-4.7418823,94.0
1495,2.7164993,0.19529533,0.28875732,-1.7406372,0.22196046,-4.732324,94.0
1496,2.1429014,0.85296535,-0.22990417,-1.7406372,0.22196046,-4.732324,94.0
1497,2.1429014,0.85296535,-0.22990417,-2.252527,0.4800293,-4.541162,94.0
1498,1.1958771,1.3718004,-0.74246216,-2.252527,0.4800293,-4.541162,94.0
1499,1.1958771,1.3718004,-0.74246216,-2.6667116,0.6860596,-4.2852173,94.0
1500,0.26718712,1.6901398,-1.0333252,-2.6667116,0.6860596,-4.2852173,94.0
1501,0.26718712,1.6901398,-1.0333252,-2.972571,0.8506714,-3.987854,94.0
1502,-0.3866043,1.7304201,-0.9550781,-2.972571,0.8506714,-3.987854,94.0
1503,-0.3866043,1.7304201,-0.9550781,-3.079834,0.9759888,-3.5619874,94.0
1504,-0.6604433,1.3390722,-0.53448486,-3.079834,0.9759888,-3.5619874,94.0
1505,-0.6604433,1.3390722,-0.53448486,-2.893982,1.0407715,-3.1170044,94.0
1506,-0.6680031,0.66523933,-0.07850647,-2.893982,1.0407715,-3.1170044,94.0
1507,-0.6680031,0.66523933,-0.07850647,-2.4649293,1.0099732,-2.526526,94.0
1508,-0.697855,0.14414215,0.3010254,-2.4649293,1.0099732,-2.526526,94.0
1509,-0.697855,0.14414215,0.3010254,-1.8542725,0.8729736,-2.0454347,94.0
1510,-0.7291212,-0.03510189,0.70947266,-1.8542725,0.8729736,-2.0454347,94.0
1511,-0.7291212,-0.03510189,0.70947266,-1.2032593,0.72854006,-1.6673584,94.0
1512,-0.6199789,-0.10565758,1.040451,-1.2032593,0.72854006,-1.6673584,94.0
1513,-0.6199789,-0.10565758,1.040451,-0.56605226,0.58304447,-1.3976074,94.0
1514,-0.43511868,-0.3913002,1.1283112,-0.56605226,0.58304447,-1.3976074,94.0
1515,-0.43511868,-0.3913002,1.1283112,-0.07965088,0.4991455,-1.1044922,94.0
1516,-0.3404045,-0.8197422,0.910553,-0.07965088,0.4991455,-1.1044922,94.0
1517,-0.3404045,-0.8197422,0.910553,0.37595215,0.35683593,-0.81881106,94.0
1518,-0.20674801,-0.9254961,0.4161682,0.37595215,0.35683593,-0.81881106,94.0
1519,-0.20674801,-0.9254961,0.4161682,0.7072998,0.21346436,-0.49064943,94.0
1520,0.08111,-0.39830685,-0.1277008,0.7072998,0.21346436,-0.49064943,94.0
1521,0.08111,-0.39830685,-0.1277008,0.63826907,0.12319336,-0.10407715,94.0
1522,0.514802,0.3188181,-0.48075867,0.63826907,0.12319336,-0.10407715,94.0
1523,0.514802,0.3188181,-0.48075867,0.40037844,0.053100586,0.24851075,94.0
1524,1.2705822,0.58989334,-0.7227936,0.40037844,0.053100586,0.24851075,94.0
1525,1.2705822,0.58989334,-0.7227936,0.29523927,-0.09451904,0.59260255,94.0
1526,2.2675037,0.36836243,-0.94532776,0.29523927,-0.09451904,0.59260255,94.0
1527,2.2675037,0.36836243,-0.94532776,0.34090576,-0.1709839,0.9791748,94.0
1528,2.354847,0.15655518,-0.8957062,0.34090576,-0.1709839,0.9791748,94.0
1529,2.354847,0.15655518,-0.8957062,0.68074954,-0.32072756,1.3668091,94.0
1530,1.0510035,0.280468,-0.4901123,0.68074954,-0.32072756,1.3668091,94.0
1531,1.0510035,0.280468,-0.4901123,1.0938721,-0.51826173,1.7034668,94.0
1532,-0.1855402,0.5084076,-0.12295532,1.0938721,-0.51826173,1.7034668,94.0
1533,-0.1855402,0.5084076,-0.12295532,1.5685914,-0.72323,2.080481,94.0
1534,-0.1637516,0.5464964,-0.10939026,1.5685914,-0.72323,2.080481,94.0
1535,-0.1637516,0.5464964,-0.10939026,2.0571167,-0.88359374,2.4861696,94.0
1536,0.65701103,0.41589546,-0.4704895,2.0571167,-0.88359374,2.4861696,94.0
1537,0.65701103,0.41589546,-0.4704895,2.4298828,-0.9717407,2.8504395,94.0
1538,0.65701103,0.41589546,-0.4704895,2.6635253,-0.99510497,3.175415,94.0
1539,1.3459826,0.25642204,-1.0011292,2.6635253,-0.99510497,3.175415,94.0
1540,1.6991367,-0.14592457,-1.6338348,2.6635253,-0.99510497,3.175415,94.0
1541,1.6991367,-0.14592457,-1.6338348,2.611487,-0.9653687,3.4759643,94.0
1542,1.6991367,-0.14592457,-1.6338348,2.366162,-0.9228882,3.714917,94.0
1543,1.6991367,-0.14592457,-1.6338348,2.0241945,-0.84323734,3.9283814,94.0
1544,0.68251514,-0.26946163,-0.8885193,2.0241945,-0.84323734,3.9283814,94.0
1545,0.68251514,-0.26946163,-0.8885193,1.8309082,-0.78376466,4.059009,94.0
1546,-0.6441126,-0.44959068,-0.14144897,1.8309082,-0.78376466,4.059009,94.0
1547,-0.6441126,-0.44959068,-0.14144897,1.9094971,-0.7954468,4.079187,94.0
1548,-1.8174515,-0.6100998,0.34544373,1.9094971,-0.7954468,4.079187,94.0
1549,-1.8174515,-0.6100998,0.34544373,1.8946289,-0.6881836,3.9666138,94.0
1550,-2.610736,-0.75928307,0.49876404,1.8946289,-0.6881836,3.9666138,94.0
1551,-2.610736,-0.75928307,0.49876404,2.0592408,-0.68499756,3.9156373,94.0
1552,-2.8867579,-0.90350723,0.4689331,2.0592408,-0.68499756,3.9156373,94.0
1553,-2.8867579,-0.90350723,0.4689331,2.1898682,-0.58410645,3.8306763,94.0
1554,-2.6430855,-1.0032501,0.46463013,2.1898682,-0.58410645,3.8306763,94.0
1555,-2.6430855,-1.0032501,0.46463013,2.3300538,-0.51082766,3.622522,94.0
1556,-2.2051544,-0.9998903,0.56648254,2.3300538,-0.51082766,3.622522,94.0
1557,-2.2051544,-0.9998903,0.56648254,2.3268678,-0.3451538,3.349585,94.0
1558,-1.9419193,-0.86780834,0.60917664,2.3268678,-0.3451538,3.349585,94.0
1559,-1.9419193,-0.86780834,0.60917664,2.0008302,-0.20921631,2.9279664,94.0
1560,-2.0120564,-0.68914413,0.43148804,2.0008302,-0.20921631,2.9279664,94.0
1561,-2.0120564,-0.68914413,0.43148804,1.4719483,-0.20178223,2.347046,94.0
1562,-2.3456802,-0.54902077,0.21440125,1.4719483,-0.20178223,2.347046,94.0
1563,-2.3456802,-0.54902077,0.21440125,0.9228882,-0.21240234,1.6673584,94.0
1564,-2.7034607,-0.49217033,0.3080902,0.9228882,-0.21240234,1.6673584,94.0
1565,-2.7034607,-0.49217033,0.3080902,0.4715332,-0.27718505,0.9759888,94.0
1566,-2.6624756,-0.4827137,0.7397461,0.4715332,-0.27718505,0.9759888,94.0
1567,-2.6624756,-0.4827137,0.7397461,0.06903076,-0.40250245,0.2793091,94.0
1568,-2.0150023,-0.49522877,1.3189392,0.06903076,-0.40250245,0.2793091,94.0
1569,-2.0150023,-0.49522877,1.3189392,-0.2166504,-0.43754885,-0.22514649,94.0
1570,-1.0726824,-0.47239113,1.8751221,-0.2166504,-0.43754885,-0.22514649,94.0
1571,-1.0726824,-0.47239113,1.8751221,-0.35046387,-0.43011475,-0.70198977,94.0
1572,0.026741982,-0.37478828,2.0420685,-0.35046387,-0.43011475,-0.70198977,94.0
1573,0.026741982,-0.37478828,2.0420685,-0.46834716,-0.45878908,-1.4284058,94.0
1574,1.3749332,-0.23053169,1.5316772,-0.46834716,-0.45878908,-1.4284058,94.0
1575,1.3749332,-0.23053169,1.5316772,-0.8612915,-0.44604492,-2.257837,94.0
1576,2.3859692,-0.037953377,0.656723,-0.8612915,-0.44604492,-2.257837,94.0
1577,2.3859692,-0.037953377,0.656723,-1.6503662,-0.31010744,-2.811145,94.0
1578,2.5462627,0.11363125,-0.092285156,-1.6503662,-0.31010744,-2.811145,94.0
1579,2.5462627,0.11363125,-0.092285156,-2.4489992,-0.1709839,-3.1881592,94.0
1580,2.5274277,0.0980711,-0.41989136,-2.4489992,-0.1709839,-3.1881592,94.0
1581,2.5274277,0.0980711,-0.41989136,-2.4957275,0.03079834,-3.4972045,94.0
1582,2.7774105,0.049354553,-0.28170776,-2.4957275,0.03079834,-3.4972045,94.0
1583,2.7774105,0.049354553,-0.28170776,-2.447937,0.31223145,-3.6416383,94.0
1584,2.750224,0.02227211,-0.0038909912,-2.447937,0.31223145,-3.6416383,94.0
1585,2.750224,0.02227211,-0.0038909912,-2.5498903,0.5692383,-3.5173829,94.0
1586,2.2239828,0.04491806,-0.10079956,-2.5498903,0.5692383,-3.5173829,94.0
1587,2.2239828,0.04491806,-0.10079956,-2.8355713,0.8750977,-3.2242677,94.0
1588,2.2239828,0.04491806,-0.10079956,-2.8355713,0.8750977,-3.2242677,95.0
1589,1.5934067,0.36581707,-0.7226105,-2.8355713,0.8750977,-3.2242677,95.0
1590,1.5934067,0.36581707,-0.7226105,-3.3697631,1.1968873,-2.893982,95.0
1591,1.0144224,0.95274925,-1.4581909,-3.3697631,1.1968873,-2.893982,95.0
1592,1.0144224,0.95274925,-1.4581909,-3.7595215,1.4241577,-2.6029909,95.0
1593,0.3583393,1.4992237,-1.8302765,-3.7595215,1.4241577,-2.6029909,95.0
1594,0.3583393,1.4992237,-1.8302765,-3.8083742,1.5845215,-2.3640382,95.0
1595,-0.3719101,1.9631119,-1.7298889,-3.8083742,1.5845215,-2.3640382,95.0
1596,-0.3719101,1.9631119,-1.7298889,-4.150342,1.6843506,-2.2036743,95.0
1597,-0.8754463,2.0794125,-1.3696442,-4.150342,1.6843506,-2.2036743,95.0
1598,-0.8754463,2.0794125,-1.3696442,-3.5439332,1.7236451,-1.988086,95.0
1599,-0.97967815,2.156437,-1.0011292,-3.5439332,1.7236451,-1.988086,95.0
1600,-0.97967815,2.156437,-1.0011292,-3.7765138,1.7714356,-2.077295,95.0
1601,-0.7236595,2.0809975,-0.83781433,-3.7765138,1.7714356,-2.077295,95.0
1602,-0.7236595,2.0809975,-0.83781433,-3.1881592,1.7501954,-2.005078,95.0
1603,-0.29943562,1.6727562,-0.8065338,-3.1881592,1.7501954,-2.005078,95.0
1604,-0.29943562,1.6727562,-0.8065338,-2.2546508,1.6854126,-2.080481,95.0
1605,0.072719574,1.5874481,-0.72151184,-2.2546508,1.6854126,-2.080481,95.0
1606,0.072719574,1.5874481,-0.72151184,-1.9477295,1.6078857,-2.2174804,95.0
1607,0.43135738,1.670227,-0.46583557,-1.9477295,1.6078857,-2.2174804,95.0
1608,0.43135738,1.670227,-0.46583557,-1.6238159,1.5133667,-2.3927124,95.0
1609,0.60418034,1.2619629,-0.0435791,-1.6238159,1.5133667,-2.3927124,95.0
1610,0.60418034,1.2619629,-0.0435791,-0.9345703,1.4645141,-2.538208,95.0
1611,0.48830032,0.65374756,0.25541687,-0.9345703,1.4645141,-2.538208,95.0
1612,0.48830032,0.65374756,0.25541687,-0.08814698,1.3391968,-2.6847656,95.0
1613,0.27547836,0.4944706,0.27626038,-0.08814698,1.3391968,-2.6847656,95.0
1614,0.27547836,0.4944706,0.27626038,-0.20603028,1.2351197,-2.8780518,95.0
1615,0.14710426,0.416914,0.19622803,-0.20603028,1.2351197,-2.8780518,95.0
1616,0.14710426,0.416914,0.19622803,-0.2548828,1.1076783,-2.8270752,95.0
1617,0.18850899,-0.127491,0.14741516,-0.2548828,1.1076783,-2.8270752,95.0
1618,0.18850899,-0.127491,0.14741516,-0.28780517,0.92926025,-2.5870607,95.0
1619,0.1688118,-0.98088646,-0.0076904297,-0.28780517,0.92926025,-2.5870607,95.0
1620,0.1688118,-0.98088646,-0.0076904297,-0.36851808,0.6180908,-1.9732178,95.0
1621,0.16723919,-1.6622963,-0.25550842,-0.36851808,0.6180908,-1.9732178,95.0
1622,0.16723919,-1.6622963,-0.25550842,-0.29205322,0.14124756,-1.1044922,95.0
1623,0.75108814,-1.4447174,-0.29689026,-0.29205322,0.14124756,-1.1044922,95.0
1624,0.75108814,-1.4447174,-0.29689026,0.053100586,-0.2888672,-0.35046387,95.0
1625,1.225956,-0.22569466,0.24594116,0.053100586,-0.2888672,-0.35046387,95.0
1626,1.225956,-0.22569466,0.24594116,0.49277344,-0.52250975,0.29205322,95.0
1627,0.5273466,0.8929062,1.0821838,0.49277344,-0.52250975,0.29205322,95.0
1628,0.5273466,0.8929062,1.0821838,0.75615233,-0.83474123,0.73703617,95.0
1629,-0.47415543,0.82582283,1.4294434,0.75615233,-0.83474123,0.73703617,95.0
1630,-0.47415543,0.82582283,1.4294434,1.1820191,-1.1342286,1.3190186,95.0
1631,-0.64584064,0.016786575,1.1513519,1.1820191,-1.1342286,1.3190186,95.0
