,accx,accy,accz,gyrox,gyroy,gyroz,heart rate
40528,type,type,type,type,type,type,type
40529,1.7852094,1.8316758,0.15802829,0.021240234,0.16248779,0.04991455,103.0
40530,1.7852094,1.8316758,0.15802829,-0.11363526,0.2538208,0.081774905,103.0
40531,1.4071226,1.3905238,-0.018743385,-0.11363526,0.2538208,0.081774905,103.0
40532,1.4071226,1.3905238,-0.018743385,-0.10407715,0.25700685,0.11469727,103.0
40533,1.1663353,1.054106,-0.24028768,-0.10407715,0.25700685,0.11469727,103.0
40534,1.1663353,1.054106,-0.24028768,-0.12213135,0.2793091,0.14018555,103.0
40535,0.99002624,0.87734246,-0.36740106,-0.12213135,0.2793091,0.14018555,103.0
40536,0.99002624,0.87734246,-0.36740106,-0.14655761,0.29736328,0.16567384,103.0
40537,0.8351362,0.7508731,-0.3806762,-0.14655761,0.29736328,0.16567384,103.0
40538,0.8351362,0.7508731,-0.3806762,-0.083898924,0.28780517,0.15505372,103.0
40539,0.69839454,0.6213405,-0.32966304,-0.083898924,0.28780517,0.15505372,103.0
40540,0.69839454,0.6213405,-0.32966304,-0.07540283,0.32072756,0.14230958,103.0
40541,0.4760008,0.43095922,-0.30713862,-0.07540283,0.32072756,0.14230958,103.0
40542,0.4760008,0.43095922,-0.30713862,-0.078588866,0.33134767,0.14230958,103.0
40543,0.19067597,0.15142012,-0.3435136,-0.078588866,0.33134767,0.14230958,103.0
40544,0.19067597,0.15142012,-0.3435136,-0.13912354,0.3525879,0.14124756,103.0
40545,-0.067478895,-0.13170815,-0.38169563,-0.13912354,0.3525879,0.14124756,103.0
40546,-0.067478895,-0.13170815,-0.38169563,-0.17735596,0.34833986,0.16779785,103.0
40547,-0.119718075,-0.23844767,-0.33969486,-0.17735596,0.34833986,0.16779785,103.0
40548,-0.119718075,-0.23844767,-0.33969486,-0.15717773,0.3345337,0.20709229,103.0
40549,-0.1298933,-0.2413075,-0.22517383,-0.15717773,0.3345337,0.20709229,103.0
40550,-0.1298933,-0.2413075,-0.22517383,-0.124255374,0.32072756,0.2347046,103.0
40551,-0.13404155,-0.16641021,-0.11013174,-0.124255374,0.32072756,0.2347046,103.0
40552,-0.13404155,-0.16641021,-0.11013174,-0.0361084,0.28674316,0.25594482,103.0
40553,-0.18416214,-0.067503214,-0.0070263147,-0.0361084,0.28674316,0.25594482,103.0
40554,-0.18416214,-0.067503214,-0.0070263147,0.015930176,0.27293703,0.2442627,103.0
40555,-0.22505188,0.0033459663,0.06901276,0.015930176,0.27293703,0.2442627,103.0
40556,-0.22505188,0.0033459663,0.06901276,0.0180542,0.26019287,0.2357666,103.0
40557,-0.12858891,0.08142424,0.08666772,0.0180542,0.26019287,0.2357666,103.0
40558,-0.12858891,0.08142424,0.08666772,-0.016992187,0.26019287,0.22833252,103.0
40559,-0.06820321,0.013528109,0.08547187,-0.016992187,0.26019287,0.22833252,103.0
40560,-0.06820321,0.013528109,0.08547187,-0.027612304,0.25063476,0.2357666,103.0
40561,-0.07608366,-0.16406775,0.07385844,-0.027612304,0.25063476,0.2357666,103.0
40562,-0.07608366,-0.16406775,0.07385844,-0.0063720704,0.24638672,0.2357666,103.0
40563,-0.15814471,-0.30458188,0.0475145,-0.0063720704,0.24638672,0.2357666,103.0
40564,-0.15814471,-0.30458188,0.0475145,0.019116212,0.2442627,0.23045655,103.0
40565,-0.23410845,-0.33568215,0.043516994,0.019116212,0.2442627,0.23045655,103.0
40566,-0.23410845,-0.33568215,0.043516994,0.04885254,0.24320069,0.22196046,103.0
40567,-0.23410845,-0.33568215,0.043516994,0.05628662,0.23895264,0.20603028,103.0
40568,-0.27897382,-0.33059406,0.045738935,0.05628662,0.23895264,0.20603028,103.0
40569,-0.31498814,-0.34711683,0.052411437,0.05628662,0.23895264,0.20603028,103.0
40570,-0.31498814,-0.34711683,0.052411437,0.04141846,0.2262085,0.19647217,103.0
40571,-0.3319466,-0.38227105,0.062107384,0.04141846,0.2262085,0.19647217,103.0
40572,-0.3319466,-0.38227105,0.062107384,0.027612304,0.22302246,0.19434814,103.0
40573,-0.30393624,-0.40751362,0.10090661,0.027612304,0.22302246,0.19434814,103.0
40574,-0.30393624,-0.40751362,0.10090661,0.029736329,0.21983643,0.19541016,103.0
40575,-0.30393624,-0.40751362,0.10090661,0.029736329,0.21983643,0.19541016,103.0
40576,-0.30393624,-0.40751362,0.10090661,0.078588866,0.2262085,0.18797608,103.0
40577,-0.27063918,-0.41556168,0.15583515,0.078588866,0.2262085,0.18797608,103.0
40578,-0.29135263,-0.4215728,0.17764664,0.078588866,0.2262085,0.18797608,103.0
40579,-0.29135263,-0.4215728,0.17764664,0.11469727,0.2177124,0.19647217,103.0
40580,-0.33183694,-0.40709472,0.18828431,0.11469727,0.2177124,0.19647217,103.0
40581,-0.33183694,-0.40709472,0.18828431,0.15080567,0.20921631,0.20390625,103.0
40582,-0.33547688,-0.31979203,0.20847654,0.15080567,0.20921631,0.20390625,103.0
40583,-0.33547688,-0.31979203,0.20847654,0.14124756,0.21877442,0.20390625,103.0
40584,-0.33310318,-0.23068714,0.1983242,0.14124756,0.21877442,0.20390625,103.0
40585,-0.33310318,-0.23068714,0.1983242,0.15930176,0.22196046,0.1996582,103.0
40586,-0.37219548,-0.22204971,0.15706024,0.15930176,0.22196046,0.1996582,103.0
40587,-0.37219548,-0.22204971,0.15706024,0.20390625,0.22408448,0.20603028,103.0
40588,-0.38872325,-0.2737335,0.12937135,0.20390625,0.22408448,0.20603028,103.0
40589,-0.38872325,-0.2737335,0.12937135,0.25913087,0.20921631,0.21240234,103.0
40590,-0.36307824,-0.2897265,0.12654395,0.25913087,0.20921631,0.21240234,103.0
40591,-0.36307824,-0.2897265,0.12654395,0.2623169,0.22196046,0.21558838,103.0
40592,-0.33401728,-0.25531638,0.12759015,0.2623169,0.22196046,0.21558838,103.0
40593,-0.33401728,-0.25531638,0.12759015,0.2516968,0.23151855,0.2262085,103.0
40594,-0.32516062,-0.24294937,0.1049774,0.2516968,0.23151855,0.2262085,103.0
40595,-0.32516062,-0.24294937,0.1049774,0.24107666,0.24532472,0.22196046,103.0
40596,-0.31872225,-0.23168862,0.078464344,0.24107666,0.24532472,0.22196046,103.0
40597,-0.31872225,-0.23168862,0.078464344,0.2166504,0.24532472,0.22408448,103.0
40598,-0.2899021,-0.16961604,0.07501513,0.2166504,0.24532472,0.22408448,103.0
40599,-0.2899021,-0.16961604,0.07501513,0.1709839,0.26125488,0.21027832,103.0
40600,-0.23743927,-0.087414026,0.07378164,0.1709839,0.26125488,0.21027832,103.0
40601,-0.23743927,-0.087414026,0.07378164,0.095581055,0.29417726,0.1985962,103.0
40602,-0.23743927,-0.087414026,0.07378164,0.038232423,0.32709962,0.18054199,103.0
40603,-0.20860374,-0.094052315,0.040067792,0.038232423,0.32709962,0.18054199,103.0
40604,-0.22827214,-0.16738051,-0.04940328,0.038232423,0.32709962,0.18054199,103.0
40605,-0.22827214,-0.16738051,-0.04940328,0.03079834,0.33240968,0.19753419,103.0
40606,-0.2671392,-0.21094298,-0.16889274,0.03079834,0.33240968,0.19753419,103.0
40607,-0.2671392,-0.21094298,-0.16889274,-0.011682129,0.34090576,0.20603028,103.0
40608,-0.2554838,-0.14469433,-0.2773261,-0.011682129,0.34090576,0.20603028,103.0
40609,-0.2554838,-0.14469433,-0.2773261,-0.027612304,0.32709962,0.21452637,103.0
40610,-0.18621081,-0.038436115,-0.35307428,-0.027612304,0.32709962,0.21452637,103.0
40611,-0.18621081,-0.038436115,-0.35307428,-0.057348635,0.3154175,0.20709229,103.0
40612,-0.12962049,0.041382432,-0.39088225,-0.057348635,0.3154175,0.20709229,103.0
40613,-0.12962049,0.041382432,-0.39088225,-0.06796875,0.29630128,0.20390625,103.0
40614,-0.11121595,0.0259282,-0.35110915,-0.06796875,0.29630128,0.20390625,103.0
40615,-0.11121595,0.0259282,-0.35110915,-0.03717041,0.26550293,0.1985962,103.0
40616,-0.102241814,-0.067221284,-0.24648792,-0.03717041,0.26550293,0.1985962,103.0
40617,-0.102241814,-0.067221284,-0.24648792,0.016992187,0.23364258,0.20072022,103.0
40618,-0.08656639,-0.11609393,-0.107956946,0.016992187,0.23364258,0.20072022,103.0
40619,-0.08656639,-0.11609393,-0.107956946,0.016992187,0.2166504,0.20603028,103.0
40620,-0.06722671,-0.04084879,0.051146626,0.016992187,0.2166504,0.20603028,103.0
40621,-0.06722671,-0.04084879,0.051146626,-0.022302246,0.21027832,0.20496826,103.0
40622,-0.0395602,0.1253776,0.20491874,-0.022302246,0.21027832,0.20496826,103.0
40623,-0.0395602,0.1253776,0.20491874,-0.107263185,0.24851075,0.17841797,103.0
40624,-0.027509987,0.32846373,0.41226265,-0.107263185,0.24851075,0.17841797,103.0
40625,-0.027509987,0.32846373,0.41226265,-0.18903808,0.33665773,0.13062744,103.0
40626,-0.10995966,0.528335,0.67585504,-0.18903808,0.33665773,0.13062744,103.0
40627,-0.10995966,0.528335,0.67585504,-0.36320803,0.452417,0.05522461,103.0
40628,-0.13365865,0.62084913,0.72812307,-0.36320803,0.452417,0.05522461,103.0
40629,-0.13365865,0.62084913,0.72812307,-0.47790527,0.5246338,-0.010620117,103.0
40630,-0.5207819,0.7078121,1.0234287,-0.47790527,0.5246338,-0.010620117,103.0
40631,-0.5207819,0.7078121,1.0234287,-0.904834,0.7965088,-0.20072022,103.0
40632,-0.4880855,0.5938864,0.82128197,-0.904834,0.7965088,-0.20072022,103.0
40633,-0.4880855,0.5938864,0.82128197,-1.0333375,0.8506714,-0.25913087,103.0
40634,-0.837612,0.05098796,0.31935468,-1.0333375,0.8506714,-0.25913087,103.0
40635,-0.837612,0.05098796,0.31935468,-1.4645141,0.9802368,-0.36851808,103.0
40636,-0.66946703,0.0057561398,0.06213659,-1.4645141,0.9802368,-0.36851808,103.0
40637,-0.66946703,0.0057561398,0.06213659,-1.5420411,1.0036011,-0.40356445,103.0
40638,-0.7716332,-0.63140583,-0.49389425,-1.5420411,1.0036011,-0.40356445,103.0
40639,-0.7716332,-0.63140583,-0.49389425,-1.5845215,0.94625247,-0.42374268,103.0
40640,-0.58588564,-0.50646746,-0.6761701,-1.5845215,0.94625247,-0.42374268,103.0
40641,-0.58588564,-0.50646746,-0.6761701,-1.6121339,0.90270996,-0.3982544,103.0
40642,-0.941377,-0.6706159,-1.5731138,-1.6121339,0.90270996,-0.3982544,103.0
40643,-0.941377,-0.6706159,-1.5731138,-1.9785279,0.75296634,-0.28780517,103.0
40644,-0.8750254,-0.3824278,-1.4157054,-1.9785279,0.75296634,-0.28780517,103.0
40645,-0.8750254,-0.3824278,-1.4157054,-2.076233,0.73597413,-0.19434814,103.0
40646,-0.92364097,-0.3793553,-0.5460165,-2.076233,0.73597413,-0.19434814,103.0
40647,-0.92364097,-0.3793553,-0.5460165,-2.1420777,0.54693604,-0.019116212,103.0
40648,-0.62786543,0.02199179,0.013919234,-2.1420777,0.54693604,-0.019116212,103.0
40649,-0.62786543,0.02199179,0.013919234,-2.35979,0.50870365,0.06478272,103.0
40650,-0.195261,-0.6443573,0.6475001,-2.35979,0.50870365,0.06478272,103.0
40651,-0.195261,-0.6443573,0.6475001,-2.0985353,0.38975832,0.32391357,103.0
40652,-0.04865265,-0.87705815,0.4383248,-2.0985353,0.38975832,0.32391357,103.0
40653,-0.04865265,-0.87705815,0.4383248,-1.7055908,0.28568116,0.36639404,103.0
40654,0.079193115,-1.2444199,0.011890322,-1.7055908,0.28568116,0.36639404,103.0
40655,0.079193115,-1.2444199,0.011890322,-1.1395386,0.11151123,0.41099855,103.0
40656,0.23106694,-0.42242807,0.02256158,-1.1395386,0.11151123,0.41099855,103.0
40657,0.23106694,-0.42242807,0.02256158,-1.002539,-0.02442627,0.41418457,103.0
40658,0.43307137,0.7422211,0.3971508,-1.002539,-0.02442627,0.41418457,103.0
40659,0.43307137,0.7422211,0.3971508,-1.1947632,-0.032922365,0.41418457,103.0
40660,0.5811739,1.431521,0.70152193,-1.1947632,-0.032922365,0.41418457,103.0
40661,0.5811739,1.431521,0.70152193,-1.4900025,-0.038232423,0.3419678,103.0
40662,0.6880227,1.4504659,0.71995777,-1.4900025,-0.038232423,0.3419678,103.0
40663,0.6880227,1.4504659,0.71995777,-1.717273,0.08496094,0.23364258,103.0
40664,0.743863,0.82309246,0.4639179,-1.717273,0.08496094,0.23364258,103.0
40665,0.743863,0.82309246,0.4639179,-1.3275146,0.13168946,0.09451904,103.0
40666,0.7194312,0.27281725,0.26142973,-1.3275146,0.13168946,0.09451904,103.0
40667,0.7194312,0.27281725,0.26142973,-0.9398804,0.09239502,-0.0637207,103.0
40668,0.73694634,0.4302411,0.323426,-0.9398804,0.09239502,-0.0637207,103.0
40669,0.73694634,0.4302411,0.323426,-0.98873293,0.098767094,-0.19753419,103.0
40670,0.73694634,0.4302411,0.323426,-0.98873293,0.098767094,-0.19753419,103.0
40671,1.0427186,0.9607456,0.39237118,-0.98873293,0.098767094,-0.19753419,103.0
40672,1.0427186,0.9607456,0.39237118,-1.3614991,0.2527588,-0.34833986,103.0
40673,1.0141677,0.81904817,0.26768112,-1.3614991,0.2527588,-0.34833986,103.0
40674,1.0141677,0.81904817,0.26768112,-1.2935303,0.270813,-0.38551027,103.0
40675,1.067401,0.1381731,-0.12101135,-1.2935303,0.270813,-0.38551027,103.0
40676,1.067401,0.1381731,-0.12101135,-1.0407715,0.2081543,-0.45772704,103.0
40677,0.98531735,-0.36370468,-0.32439697,-1.0407715,0.2081543,-0.45772704,103.0
40678,0.98531735,-0.36370468,-0.32439697,-0.97067875,0.16461182,-0.49383545,103.0
40679,0.89535844,-0.3527069,-0.24113381,-0.97067875,0.16461182,-0.49383545,103.0
40680,0.89535844,-0.3527069,-0.24113381,-1.1023682,0.1444336,-0.5076416,103.0
40681,0.9055934,-0.08144534,-0.03456965,-1.1023682,0.1444336,-0.5076416,103.0
40682,0.9055934,-0.08144534,-0.03456965,-1.4220337,0.18372802,-0.52250975,103.0
40683,0.94700885,-0.13989997,0.07040337,-1.4220337,0.18372802,-0.52250975,103.0
40684,0.94700885,-0.13989997,0.07040337,-1.5972656,0.2793091,-0.49171144,103.0
40685,0.83596396,-0.50033545,0.024572223,-1.5972656,0.2793091,-0.49171144,103.0
40686,0.83596396,-0.50033545,0.024572223,-1.6365601,0.24638672,-0.5076416,103.0
40687,0.6372893,-0.54106426,-0.067854434,-1.6365601,0.24638672,-0.5076416,103.0
40688,0.6372893,-0.54106426,-0.067854434,-1.8893188,0.29417726,-0.50870365,103.0
40689,0.43358636,-0.29481435,-0.14609264,-1.8893188,0.29417726,-0.50870365,103.0
40690,0.43358636,-0.29481435,-0.14609264,-2.1495118,0.3154175,-0.5012695,103.0
40691,0.17992568,-0.28022403,-0.39065343,-2.1495118,0.3154175,-0.5012695,103.0
40692,0.17992568,-0.28022403,-0.39065343,-2.362976,0.34833986,-0.48640138,103.0
40693,0.09037614,-0.07698679,-0.21774735,-2.362976,0.34833986,-0.48640138,103.0
40694,0.09037614,-0.07698679,-0.21774735,-2.4150147,0.3154175,-0.49489745,103.0
40695,0.007994294,-0.020805776,-0.2158849,-2.4150147,0.3154175,-0.49489745,103.0
40696,0.007994294,-0.020805776,-0.2158849,-2.4702394,0.34833986,-0.49171144,103.0
40697,-0.10327244,-0.088885844,-0.16195352,-2.4702394,0.34833986,-0.49171144,103.0
40698,-0.10327244,-0.088885844,-0.16195352,-2.162256,0.3069214,-0.49064943,103.0
40699,-0.25748372,-0.33370632,0.024184741,-2.162256,0.3069214,-0.49064943,103.0
40700,-0.25748372,-0.33370632,0.024184741,-1.6195679,0.26337892,-0.46516114,103.0
40701,-0.37605536,-0.47920877,0.29811978,-1.6195679,0.26337892,-0.46516114,103.0
40702,-0.37605536,-0.47920877,0.29811978,-1.0482056,0.23045655,-0.44923097,103.0
40703,-0.44679165,-0.47222203,0.4848215,-1.0482056,0.23045655,-0.44923097,103.0
40704,-0.44679165,-0.47222203,0.4848215,-0.52675784,0.17416993,-0.41843262,103.0
40705,-0.41183996,-0.353449,0.5298982,-0.52675784,0.17416993,-0.41843262,103.0
40706,-0.41183996,-0.353449,0.5298982,-0.14655761,0.1359375,-0.38338622,103.0
40707,-0.28862727,-0.15782022,0.5223561,-0.14655761,0.1359375,-0.38338622,103.0
40708,-0.28862727,-0.15782022,0.5223561,-0.028674318,0.12000733,-0.33878174,103.0
40709,-0.2435484,-0.03423959,0.4938004,-0.028674318,0.12000733,-0.33878174,103.0
40710,-0.2435484,-0.03423959,0.4938004,-0.081774905,0.15823975,-0.29417726,103.0
40711,-0.35128403,-0.09328523,0.33763063,-0.081774905,0.15823975,-0.29417726,103.0
40712,-0.35128403,-0.09328523,0.33763063,-0.06478272,0.16567384,-0.27718505,103.0
40713,-0.4873382,-0.2027654,0.027916968,-0.06478272,0.16567384,-0.27718505,103.0
40714,-0.4873382,-0.2027654,0.027916968,-0.040356446,0.14230958,-0.29311523,103.0
40715,-0.59254396,-0.21324995,-0.28514934,-0.040356446,0.14230958,-0.29311523,103.0
40716,-0.59254396,-0.21324995,-0.28514934,-0.014868164,0.078588866,-0.32816163,103.0
40717,-0.62856394,-0.14547789,-0.4136663,-0.014868164,0.078588866,-0.32816163,103.0
40718,-0.62856394,-0.14547789,-0.4136663,-0.06903076,0.04248047,-0.36427003,103.0
40719,-0.5324288,-0.22619677,-0.36894575,-0.06903076,0.04248047,-0.36427003,103.0
40720,-0.5324288,-0.22619677,-0.36894575,-0.0031860352,0.015930176,-0.38657227,103.0
40721,-0.3055207,-0.6112919,-0.2623563,-0.0031860352,0.015930176,-0.38657227,103.0
40722,-0.3055207,-0.6112919,-0.2623563,0.21558838,0.025488282,-0.36639404,103.0
40723,-0.044282317,-0.8554032,-0.18481183,0.21558838,0.025488282,-0.36639404,103.0
40724,-0.044282317,-0.8554032,-0.18481183,0.4056885,0.04248047,-0.32178956,103.0
40725,0.10543108,-0.46888065,-0.18744907,0.4056885,0.04248047,-0.32178956,103.0
40726,0.10543108,-0.46888065,-0.18744907,0.38869628,0.0998291,-0.2814331,103.0
40727,0.15982091,0.20264207,-0.17599685,0.38869628,0.0998291,-0.2814331,103.0
40728,0.15982091,0.20264207,-0.17599685,0.31010744,0.11363526,-0.2888672,103.0
40729,0.19631374,0.53761417,-0.15477453,0.31010744,0.11363526,-0.2888672,103.0
40730,0.19631374,0.53761417,-0.15477453,0.21027832,0.11363526,-0.28780517,103.0
40731,0.21812278,0.35993752,-0.13396367,0.21027832,0.11363526,-0.28780517,103.0
40732,0.21812278,0.35993752,-0.13396367,0.2177124,0.087084964,-0.25913087,103.0
40733,0.2692126,0.0037947372,0.0029364824,0.2177124,0.087084964,-0.25913087,103.0
40734,0.2692126,0.0037947372,0.0029364824,0.3451538,0.078588866,-0.2177124,103.0
40735,0.3767959,-0.063883156,0.21775447,0.3451538,0.078588866,-0.2177124,103.0
40736,0.3767959,-0.063883156,0.21775447,0.39082032,0.09770508,-0.1539917,103.0
40737,0.4489709,0.19136174,0.23600778,0.39082032,0.09770508,-0.1539917,103.0
40738,0.4489709,0.19136174,0.23600778,0.27293703,0.15930176,-0.09770508,103.0
40739,0.26790476,0.38931987,0.048925847,0.27293703,0.15930176,-0.09770508,103.0
40740,0.26790476,0.38931987,0.048925847,0.19222413,0.16354981,-0.07540283,103.0
40741,-0.14652824,0.27164876,-0.0578686,0.19222413,0.16354981,-0.07540283,103.0
40742,-0.14652824,0.27164876,-0.0578686,0.1709839,0.11363526,-0.0541626,103.0
40743,-0.5513656,0.025583178,0.09347564,0.1709839,0.11363526,-0.0541626,103.0
40744,-0.5513656,0.025583178,0.09347564,0.26019287,0.04248047,-0.035046387,103.0
40745,-0.7527502,0.012300044,0.38747585,0.26019287,0.04248047,-0.035046387,103.0
40746,-0.7527502,0.012300044,0.38747585,0.37595215,-0.029736329,-0.0010620117,103.0
40747,-0.7084746,0.18995479,0.5125198,0.37595215,-0.029736329,-0.0010620117,103.0
40748,-0.7084746,0.18995479,0.5125198,0.5787964,-0.09664307,0.032922365,103.0
40749,-0.49695545,0.28432468,0.26713252,0.5787964,-0.09664307,0.032922365,103.0
40750,-0.49695545,0.28432468,0.26713252,0.7582764,-0.1529297,0.058410645,103.0
40751,-0.1760922,0.16480103,-0.16490728,0.7582764,-0.1529297,0.058410645,103.0
40752,-0.1760922,0.16480103,-0.16490728,0.81668705,-0.16036378,0.0998291,103.0
40753,0.14560086,0.01497072,-0.334648,0.81668705,-0.16036378,0.0998291,103.0
40754,0.14560086,0.01497072,-0.334648,0.77102053,-0.115759276,0.13806152,103.0
40755,0.2938977,0.06828761,-0.111724764,0.77102053,-0.115759276,0.13806152,103.0
40756,0.2938977,0.06828761,-0.111724764,0.52250975,-0.038232423,0.15611573,103.0
40757,0.18847507,0.25281125,0.18979499,0.52250975,-0.038232423,0.15611573,103.0
40758,0.18847507,0.25281125,0.18979499,0.09664307,0.0010620117,0.14018555,103.0
40759,-0.05962038,0.23155808,0.27231944,0.09664307,0.0010620117,0.14018555,103.0
40760,-0.05962038,0.23155808,0.27231944,-0.06159668,0.08920898,0.12213135,103.0
40761,-0.27430767,-0.011823833,0.098995686,-0.06159668,0.08920898,0.12213135,103.0
40762,-0.27430767,-0.011823833,0.098995686,0.07540283,0.053100586,0.038232423,103.0
40763,-0.27430767,-0.011823833,0.098995686,0.07540283,0.053100586,0.038232423,103.0
40764,-0.33917272,-0.15739608,-0.14118916,0.07540283,0.053100586,0.038232423,103.0
40765,-0.33917272,-0.15739608,-0.14118916,0.07115479,0.040356446,-0.009558106,103.0
40766,-0.2888919,-0.26666394,-0.23955047,0.07115479,0.040356446,-0.009558106,103.0
40767,-0.2888919,-0.26666394,-0.23955047,0.2081543,0.0010620117,-0.05522461,103.0
40768,-0.22522974,-0.26987413,-0.1434226,0.2081543,0.0010620117,-0.05522461,103.0
40769,-0.22522974,-0.26987413,-0.1434226,0.33028564,-0.029736329,-0.07327881,103.0
40770,-0.21060374,-0.11367762,-0.041813284,0.33028564,-0.029736329,-0.07327881,103.0
40771,-0.21060374,-0.11367762,-0.041813284,0.4428589,-0.04141846,-0.060534667,103.0
40772,-0.21705478,-0.1539914,-0.14808688,0.4428589,-0.04141846,-0.060534667,103.0
40773,-0.21705478,-0.1539914,-0.14808688,0.6680054,-0.09664307,-0.046728518,103.0
40774,-0.20734744,-0.40675026,-0.3667361,0.6680054,-0.09664307,-0.046728518,103.0
40775,-0.20734744,-0.40675026,-0.3667361,0.94731444,-0.16142578,-0.02442627,103.0
40776,-0.17013821,-0.5640111,-0.47542015,0.94731444,-0.16142578,-0.02442627,103.0
40777,-0.17013821,-0.5640111,-0.47542015,1.2372437,-0.2177124,-0.0021240234,103.0
40778,-0.11635959,-0.49790075,-0.41146404,1.2372437,-0.2177124,-0.0021240234,103.0
40779,-0.11635959,-0.49790075,-0.41146404,1.351941,-0.2516968,0.012744141,103.0
40780,-0.034579366,-0.3092093,-0.23149058,1.351941,-0.2516968,0.012744141,103.0
40781,-0.034579366,-0.3092093,-0.23149058,1.4145997,-0.26550293,0.009558106,103.0
40782,0.08598396,0.09535719,-0.05002401,1.4145997,-0.26550293,0.009558106,103.0
40783,0.08598396,0.09535719,-0.05002401,1.3965454,-0.24957275,-0.022302246,103.0
40784,0.17878473,0.775651,0.10492708,1.3965454,-0.24957275,-0.022302246,103.0
40785,0.17878473,0.775651,0.10492708,1.2584839,-0.24957275,-0.059472658,103.0
40786,0.24747115,1.2705818,0.21773073,1.2584839,-0.24957275,-0.059472658,103.0
40787,0.24747115,1.2705818,0.21773073,0.725354,-0.15823975,-0.0053100586,103.0
40788,0.31416345,1.044798,0.34569338,0.725354,-0.15823975,-0.0053100586,103.0
40789,0.31416345,1.044798,0.34569338,0.25913087,-0.06690674,-0.004248047,103.0
40790,0.3074831,0.33522803,0.44514602,0.25913087,-0.06690674,-0.004248047,103.0
40791,0.3074831,0.33522803,0.44514602,0.12213135,-0.06265869,0.03079834,103.0
40792,0.16231948,-0.19651484,0.3699718,0.12213135,-0.06265869,0.03079834,103.0
40793,0.16231948,-0.19651484,0.3699718,0.08602295,-0.081774905,0.008496094,103.0
40794,-0.066250384,-0.37555903,0.20619476,0.08602295,-0.081774905,0.008496094,103.0
40795,-0.066250384,-0.37555903,0.20619476,0.3536499,-0.15080567,-0.08071289,103.0
40796,-0.2520848,-0.122395456,-0.035141855,0.3536499,-0.15080567,-0.08071289,103.0
40797,-0.2520848,-0.122395456,-0.035141855,0.39506838,-0.16354981,-0.14761963,103.0
40798,-0.21217811,-0.040335774,-0.2112922,0.39506838,-0.16354981,-0.14761963,103.0
40799,-0.21217811,-0.040335774,-0.2112922,0.3971924,-0.087084964,-0.08814698,103.0
40800,0.044881523,-0.13477105,-0.26098934,0.3971924,-0.087084964,-0.08814698,103.0
40801,0.044881523,-0.13477105,-0.26098934,0.31966552,-0.043542482,-0.010620117,103.0
40802,0.25135934,0.21999079,-0.19933103,0.31966552,-0.043542482,-0.010620117,103.0
40803,0.25135934,0.21999079,-0.19933103,-0.021240234,0.035046387,-0.029736329,103.0
40804,0.3063243,0.44990623,-8.588731E-4,-0.021240234,0.035046387,-0.029736329,103.0
40805,0.3063243,0.44990623,-8.588731E-4,-0.0031860352,0.0637207,-0.04460449,103.0
40806,0.23885828,0.24346995,0.1280849,-0.0031860352,0.0637207,-0.04460449,103.0
40807,0.23885828,0.24346995,0.1280849,0.08496094,0.090270996,-0.03717041,103.0
40808,0.07944113,-0.11910343,0.08110562,0.08496094,0.090270996,-0.03717041,103.0
40809,0.07944113,-0.11910343,0.08110562,0.18903808,0.08071289,-0.0063720704,103.0
40810,-0.10747981,-0.40349805,-0.09128004,0.18903808,0.08071289,-0.0063720704,103.0
40811,-0.10747981,-0.40349805,-0.09128004,0.2793091,0.04885254,0.0063720704,103.0
40812,-0.25147456,-0.37310362,-0.18957677,0.2793091,0.04885254,0.0063720704,103.0
40813,-0.25147456,-0.37310362,-0.18957677,0.35789797,0.009558106,-0.019116212,103.0
40814,-0.33142868,-0.17607081,-0.123707324,0.35789797,0.009558106,-0.019116212,103.0
40815,-0.33142868,-0.17607081,-0.123707324,0.28780517,-0.0031860352,-0.016992187,103.0
40816,-0.30065322,-0.0194211,0.032857865,0.28780517,-0.0031860352,-0.016992187,103.0
40817,-0.30065322,-0.0194211,0.032857865,0.23364258,0.0010620117,-0.02442627,103.0
40818,-0.12799817,0.24167746,0.22924042,0.23364258,0.0010620117,-0.02442627,103.0
40819,-0.12799817,0.24167746,0.22924042,-0.050976563,0.04460449,0.008496094,103.0
40820,0.10945448,0.41818327,0.25335085,-0.050976563,0.04460449,0.008496094,103.0
40821,0.10945448,0.41818327,0.25335085,-0.21134034,0.11682129,0.014868164,103.0
40822,0.29775646,0.4796272,0.11946535,-0.21134034,0.11682129,0.014868164,103.0
40823,0.29775646,0.4796272,0.11946535,-0.31223145,0.16885987,-0.052038576,103.0
40824,0.38188192,0.4789654,-0.02309227,-0.31223145,0.16885987,-0.052038576,103.0
40825,0.38188192,0.4789654,-0.02309227,-0.32497558,0.1985962,-0.07434082,103.0
40826,0.36121845,0.3381772,-0.23153535,-0.32497558,0.1985962,-0.07434082,103.0
40827,0.36121845,0.3381772,-0.23153535,-0.31010744,0.1709839,-0.06159668,103.0
40828,0.28882825,0.08567846,-0.3111194,-0.31010744,0.1709839,-0.06159668,103.0
40829,0.28882825,0.08567846,-0.3111194,-0.32285157,0.115759276,0.04141846,103.0
40830,0.14624816,-0.21292698,-0.14373195,-0.32285157,0.115759276,0.04141846,103.0
40831,0.14624816,-0.21292698,-0.14373195,-0.17735596,0.04991455,0.0637207,103.0
40832,-0.11043072,-0.28621072,0.14376688,-0.17735596,0.04991455,0.0637207,103.0
40833,-0.11043072,-0.28621072,0.14376688,-0.24107666,0.021240234,0.050976563,103.0
40834,-0.3656395,-0.23095834,0.3267811,-0.24107666,0.021240234,0.050976563,103.0
40835,-0.3656395,-0.23095834,0.3267811,-0.29948732,0.0063720704,0.04991455,103.0
40836,-0.5436102,-0.31995952,0.2221793,-0.29948732,0.0063720704,0.04991455,103.0
40837,-0.5436102,-0.31995952,0.2221793,-0.2527588,-0.021240234,0.021240234,103.0
40838,-0.5557378,-0.5144271,-0.015579313,-0.2527588,-0.021240234,0.021240234,103.0
40839,-0.5557378,-0.5144271,-0.015579313,-0.13806152,-0.058410645,-0.0053100586,103.0
40840,-0.3539164,-0.5652282,-0.18431404,-0.13806152,-0.058410645,-0.0053100586,103.0
40841,-0.3539164,-0.5652282,-0.18431404,-0.04991455,-0.021240234,-0.032922365,103.0
40842,-7.8450143E-4,-0.2896582,-0.19496101,-0.04991455,-0.021240234,-0.032922365,103.0
40843,-7.8450143E-4,-0.2896582,-0.19496101,-0.09770508,0.025488282,-0.046728518,103.0
40844,0.30175278,0.14388382,-0.10696979,-0.09770508,0.025488282,-0.046728518,103.0
40845,0.30175278,0.14388382,-0.10696979,-0.124255374,0.060534667,-0.057348635,103.0
40846,0.3927694,0.457026,-0.035795555,-0.124255374,0.060534667,-0.057348635,103.0
40847,0.3927694,0.457026,-0.035795555,-0.13699952,0.06903076,-0.046728518,103.0
40848,0.29284102,0.44400215,-0.03576535,-0.13699952,0.06903076,-0.046728518,103.0
40849,0.29284102,0.44400215,-0.03576535,-0.1359375,0.035046387,-0.010620117,103.0
40850,0.1302445,0.082337976,-0.008409649,-0.1359375,0.035046387,-0.010620117,103.0
40851,0.1302445,0.082337976,-0.008409649,-0.025488282,-0.0063720704,0.020178223,103.0
40852,-0.017142296,-0.22712278,0.152867,-0.025488282,-0.0063720704,0.020178223,103.0
40853,-0.017142296,-0.22712278,0.152867,0.12850343,-0.026550293,0.039294433,103.0
40854,-0.16475144,-0.277853,0.17400259,0.12850343,-0.026550293,0.039294433,103.0
40855,-0.16475144,-0.277853,0.17400259,0.24744873,-0.046728518,0.015930176,103.0
40856,-0.22426942,-0.20696259,0.03411174,0.24744873,-0.046728518,0.015930176,103.0
40857,-0.22426942,-0.20696259,0.03411174,0.2081543,-0.035046387,-0.0063720704,103.0
40858,-0.1289883,-0.06781617,-0.030315578,0.2081543,-0.035046387,-0.0063720704,103.0
40859,-0.1289883,-0.06781617,-0.030315578,0.095581055,-0.0180542,-0.015930176,103.0
40860,0.013728291,0.11087155,0.0042265356,0.095581055,-0.0180542,-0.015930176,103.0
40861,0.013728291,0.11087155,0.0042265356,-0.118945315,0.027612304,-0.026550293,103.0
40862,0.10801631,0.20534766,0.06525868,-0.118945315,0.027612304,-0.026550293,103.0
40863,0.10801631,0.20534766,0.06525868,-0.23895264,0.083898924,-0.026550293,103.0
40864,0.11989695,0.19709063,0.022775799,-0.23895264,0.083898924,-0.026550293,103.0
40865,0.11989695,0.19709063,0.022775799,-0.22939454,0.09664307,-0.040356446,103.0
40866,0.047504485,0.1269108,-0.16442096,-0.22939454,0.09664307,-0.040356446,103.0
40867,0.047504485,0.1269108,-0.16442096,-0.17523193,0.07540283,-0.025488282,103.0
40868,0.047504485,0.1269108,-0.16442096,-0.17523193,0.07540283,-0.025488282,102.0
40869,0.004483074,0.024075031,-0.26951283,-0.17523193,0.07540283,-0.025488282,102.0
40870,0.004483074,0.024075031,-0.26951283,-0.06690674,0.026550293,-0.012744141,102.0
40871,-0.017983377,-0.15495872,-0.18732658,-0.06690674,0.026550293,-0.012744141,102.0
40872,-0.017983377,-0.15495872,-0.18732658,-0.009558106,-0.008496094,0.0031860352,102.0
40873,-0.05965039,-0.33931124,-0.044783145,-0.009558106,-0.008496094,0.0031860352,102.0
40874,-0.05965039,-0.33931124,-0.044783145,0.06796875,-0.0361084,-0.019116212,102.0
40875,-0.16872862,-0.44983032,-0.044212744,0.06796875,-0.0361084,-0.019116212,102.0
40876,-0.16872862,-0.44983032,-0.044212744,0.045666505,-0.035046387,-0.050976563,102.0
40877,-0.35291505,-0.3810801,-0.0661197,0.045666505,-0.035046387,-0.050976563,102.0
40878,-0.35291505,-0.3810801,-0.0661197,0.046728518,-0.057348635,-0.098767094,102.0
40879,-0.4119707,-0.0020076334,0.29504126,0.046728518,-0.057348635,-0.098767094,102.0
40880,-0.4119707,-0.0020076334,0.29504126,-0.107263185,0.035046387,-0.18266602,102.0
40881,-0.16740616,0.5160086,0.6928445,-0.107263185,0.035046387,-0.18266602,102.0
40882,-0.16740616,0.5160086,0.6928445,-0.16567384,0.095581055,-0.25913087,102.0
40883,0.19201502,0.71861744,0.5401399,-0.16567384,0.095581055,-0.25913087,102.0
40884,0.19201502,0.71861744,0.5401399,-0.3451538,0.1709839,-0.28461915,102.0
40885,0.3537585,0.32728648,0.0019849539,-0.3451538,0.1709839,-0.28461915,102.0
40886,0.3537585,0.32728648,0.0019849539,-0.17735596,0.1359375,-0.25806886,102.0
40887,0.30349022,-0.05395454,-0.37217912,-0.17735596,0.1359375,-0.25806886,102.0
40888,0.30349022,-0.05395454,-0.37217912,-0.09770508,0.10620117,-0.18372802,102.0
40889,0.21000409,0.025635183,-0.40007484,-0.09770508,0.10620117,-0.18372802,102.0
40890,0.21000409,0.025635183,-0.40007484,-0.22833252,0.09133301,-0.06265869,102.0
40891,0.19151402,0.058105826,-0.32427132,-0.22833252,0.09133301,-0.06265869,102.0
40892,0.19151402,0.058105826,-0.32427132,-0.33134767,0.057348635,0.06265869,102.0
40893,0.1511116,-0.10931373,-0.33108452,-0.33134767,0.057348635,0.06265869,102.0
40894,0.1511116,-0.10931373,-0.33108452,-0.09664307,-0.026550293,0.098767094,102.0
40895,-0.006954968,-0.091821134,-0.22571966,-0.09664307,-0.026550293,0.098767094,102.0
40896,-0.006954968,-0.091821134,-0.22571966,-0.14549561,-0.043542482,0.09770508,102.0
40897,-0.13403079,0.005046487,0.05503218,-0.14549561,-0.043542482,0.09770508,102.0
40898,-0.13403079,0.005046487,0.05503218,-0.24213867,-0.05522461,0.07965088,102.0
40899,-0.14275932,0.060323834,0.31527817,-0.24213867,-0.05522461,0.07965088,102.0
40900,-0.14275932,0.060323834,0.31527817,-0.36108398,-0.04141846,0.078588866,102.0
40901,-0.11348724,0.01978004,0.31298915,-0.36108398,-0.04141846,0.078588866,102.0
40902,-0.11348724,0.01978004,0.31298915,-0.3164795,-0.029736329,0.07540283,102.0
40903,-0.08339232,-0.017586589,0.14116281,-0.3164795,-0.029736329,0.07540283,102.0
40904,-0.08339232,-0.017586589,0.14116281,-0.21240234,-0.026550293,0.057348635,102.0
40905,-0.04504639,-0.027118564,0.035977125,-0.21240234,-0.026550293,0.057348635,102.0
40906,-0.04504639,-0.027118564,0.035977125,-0.21452637,-0.0053100586,0.050976563,102.0
40907,-0.012526363,-0.17761528,-0.04438725,-0.21452637,-0.0053100586,0.050976563,102.0
40908,-0.012526363,-0.17761528,-0.04438725,-0.22196046,-0.0063720704,0.090270996,102.0
40909,-0.010240823,-0.40755856,-0.16212113,-0.22196046,-0.0063720704,0.090270996,102.0
40910,-0.010240823,-0.40755856,-0.16212113,-0.09770508,-0.046728518,0.11682129,102.0
40911,-0.01838553,-0.4941987,-0.22380091,-0.09770508,-0.046728518,0.11682129,102.0
40912,-0.01838553,-0.4941987,-0.22380091,0.04141846,-0.07327881,0.13806152,102.0
40913,-0.024962336,-0.35259774,-0.13507101,0.04141846,-0.07327881,0.13806152,102.0
40914,-0.024962336,-0.35259774,-0.13507101,0.14868164,-0.08602295,0.15186767,102.0
40915,-0.030235976,-0.07031059,0.057067707,0.14868164,-0.08602295,0.15186767,102.0
40916,-0.030235976,-0.07031059,0.057067707,0.18266602,-0.08496094,0.15717773,102.0
40917,-0.016156554,0.18054354,0.20120835,0.18266602,-0.08496094,0.15717773,102.0
40918,-0.016156554,0.18054354,0.20120835,0.14974366,-0.053100586,0.15717773,102.0
40919,0.002016157,0.1388318,0.14657459,0.14974366,-0.053100586,0.15717773,102.0
40920,0.002016157,0.1388318,0.14657459,0.14655761,-0.04885254,0.1720459,102.0
40921,-0.019090205,-0.23577294,-0.12402451,0.14655761,-0.04885254,0.1720459,102.0
40922,-0.019090205,-0.23577294,-0.12402451,0.27399904,-0.07327881,0.18266602,102.0
40923,-0.06126827,-0.52306664,-0.3412118,0.27399904,-0.07327881,0.18266602,102.0
40924,-0.06126827,-0.52306664,-0.3412118,0.43861085,-0.11682129,0.16885987,102.0
40925,-0.06979099,-0.28356558,-0.24289133,0.43861085,-0.11682129,0.16885987,102.0
40926,-0.06979099,-0.28356558,-0.24289133,0.4333008,-0.11682129,0.12319336,102.0
40927,-0.039438754,0.25511774,0.057859793,0.4333008,-0.11682129,0.12319336,102.0
40928,-0.039438754,0.25511774,0.057859793,0.33984375,-0.07434082,0.06690674,102.0
40929,0.00986746,0.6567309,0.29096556,0.33984375,-0.07434082,0.06690674,102.0
40930,0.00986746,0.6567309,0.29096556,0.21877442,-0.043542482,-0.011682129,102.0
40931,0.06923431,0.7671938,0.34159815,0.21877442,-0.043542482,-0.011682129,102.0
40932,0.06923431,0.7671938,0.34159815,-0.047790527,0.026550293,-0.03186035,102.0
40933,0.10647386,0.4239235,0.19840059,-0.047790527,0.026550293,-0.03186035,102.0
40934,0.10647386,0.4239235,0.19840059,-0.10195313,0.053100586,-0.03079834,102.0
40935,0.062168837,-0.11476749,-0.059199452,-0.10195313,0.053100586,-0.03079834,102.0
40936,0.062168837,-0.11476749,-0.059199452,-0.03717041,0.03186035,-0.027612304,102.0
40937,-0.01757449,-0.37742192,-0.2133874,-0.03717041,0.03186035,-0.027612304,102.0
40938,-0.01757449,-0.37742192,-0.2133874,0.02442627,0.009558106,-0.020178223,102.0
40939,-0.057235867,-0.36673248,-0.2243354,0.02442627,0.009558106,-0.020178223,102.0
40940,-0.057235867,-0.36673248,-0.2243354,0.098767094,-0.0180542,-0.0031860352,102.0
40941,-0.048352182,-0.22485572,-0.15079401,0.098767094,-0.0180542,-0.0031860352,102.0
40942,-0.048352182,-0.22485572,-0.15079401,0.14655761,-0.0361084,0.007434082,102.0
40943,-0.021909297,0.0056989193,-0.028203577,0.14655761,-0.0361084,0.007434082,102.0
40944,-0.021909297,0.0056989193,-0.028203577,0.13062744,-0.033984374,-0.0063720704,102.0
40945,0.0031756759,0.2374571,0.087800905,0.13062744,-0.033984374,-0.0063720704,102.0
40946,0.0031756759,0.2374571,0.087800905,0.06584473,-0.015930176,-0.014868164,102.0
40947,0.017311037,0.31284165,0.14829248,0.06584473,-0.015930176,-0.014868164,102.0
40948,0.017311037,0.31284165,0.14829248,0.0053100586,0.0010620117,-0.02442627,102.0
40949,0.020977736,0.19680655,0.114862025,0.0053100586,0.0010620117,-0.02442627,102.0
40950,0.020977736,0.19680655,0.114862025,-0.0180542,0.009558106,-0.027612304,102.0
40951,0.024301708,0.032274365,0.0390698,-0.0180542,0.009558106,-0.027612304,102.0
40952,0.024301708,0.032274365,0.0390698,-0.02442627,0.013806152,-0.03717041,102.0
40953,4.838407E-4,-0.12914878,-0.057623565,-0.02442627,0.013806152,-0.03717041,102.0
40954,4.838407E-4,-0.12914878,-0.057623565,-0.007434082,0.012744141,-0.03079834,102.0
40955,-0.020047486,-0.2501086,-0.12999777,-0.007434082,0.012744141,-0.03079834,102.0
40956,-0.020047486,-0.2501086,-0.12999777,0.04141846,-0.004248047,-0.023364259,102.0
40957,-0.024680555,-0.2556533,-0.12058757,0.04141846,-0.004248047,-0.023364259,102.0
40958,-0.024680555,-0.2556533,-0.12058757,0.11044922,-0.016992187,-0.020178223,102.0
40959,-0.02561602,-0.069122255,-0.036875337,0.11044922,-0.016992187,-0.020178223,102.0
40960,-0.02561602,-0.069122255,-0.036875337,0.087084964,-0.008496094,-0.026550293,102.0
40961,-0.032297015,0.083850145,0.011783913,0.087084964,-0.008496094,-0.026550293,102.0
40962,-0.032297015,0.083850145,0.011783913,0.06584473,-0.009558106,-0.029736329,102.0
40963,-0.007954299,0.031594276,0.05101648,0.06584473,-0.009558106,-0.029736329,102.0
40964,-0.007954299,0.031594276,0.05101648,0.10195313,-0.009558106,-0.025488282,102.0
40965,-0.007954299,0.031594276,0.05101648,0.10195313,-0.009558106,-0.025488282,102.0
40966,0.027450025,-0.051433563,0.16100362,0.10195313,-0.009558106,-0.025488282,102.0
40967,0.027450025,-0.051433563,0.16100362,0.15611573,-0.0063720704,-0.013806152,102.0
40968,0.016637743,-0.001046747,0.23113444,0.15611573,-0.0063720704,-0.013806152,102.0
40969,0.016637743,-0.001046747,0.23113444,0.11151123,0.0063720704,-0.023364259,102.0
40970,-0.016413927,0.04132569,0.029695153,0.11151123,0.0063720704,-0.023364259,102.0
40971,-0.016413927,0.04132569,0.029695153,0.09770508,0.014868164,-0.022302246,102.0
40972,-0.008590132,0.06434715,-0.3224231,0.09770508,0.014868164,-0.022302246,102.0
40973,-0.008590132,0.06434715,-0.3224231,0.14974366,0.046728518,-0.06584473,102.0
40974,0.009485334,0.09289616,-0.5216836,0.14974366,0.046728518,-0.06584473,102.0
40975,0.009485334,0.09289616,-0.5216836,0.19434814,0.033984374,-0.07540283,102.0
40976,0.015815794,-0.039953113,-0.37194893,0.19434814,0.033984374,-0.07540283,102.0
40977,0.015815794,-0.039953113,-0.37194893,0.3058594,0.0031860352,-0.060534667,102.0
40978,0.019244432,-0.16965783,0.06789496,0.3058594,0.0031860352,-0.060534667,102.0
40979,0.019244432,-0.16965783,0.06789496,0.40037844,-0.039294433,-0.016992187,102.0
40980,-0.03069821,-0.028865904,0.37326127,0.40037844,-0.039294433,-0.016992187,102.0
40981,-0.03069821,-0.028865904,0.37326127,0.271875,-0.03079834,-0.008496094,102.0
40982,-0.09153855,0.14824519,0.31772524,0.271875,-0.03079834,-0.008496094,102.0
40983,-0.09153855,0.14824519,0.31772524,0.19116211,-0.03717041,-0.016992187,102.0
40984,-0.06851894,0.11650875,0.15563282,0.19116211,-0.03717041,-0.016992187,102.0
40985,-0.06851894,0.11650875,0.15563282,0.10620117,-0.023364259,-0.009558106,102.0
40986,-0.019610077,-0.041412145,0.06585148,0.10620117,-0.023364259,-0.009558106,102.0
40987,-0.019610077,-0.041412145,0.06585148,0.023364259,-0.020178223,-0.0031860352,102.0
40988,-0.00814411,-0.2594969,0.003975138,0.023364259,-0.020178223,-0.0031860352,102.0
40989,-0.00814411,-0.2594969,0.003975138,-0.032922365,-0.016992187,0.012744141,102.0
40990,-0.016415194,-0.41471425,-0.10475446,-0.032922365,-0.016992187,0.012744141,102.0
40991,-0.016415194,-0.41471425,-0.10475446,0.08814698,0.008496094,0.0031860352,102.0
40992,0.00797379,-0.15099749,-0.09049302,0.08814698,0.008496094,0.0031860352,102.0
40993,0.00797379,-0.15099749,-0.09049302,0.11151123,0.013806152,-0.007434082,102.0
40994,0.072712034,0.48219275,0.08021788,0.11151123,0.013806152,-0.007434082,102.0
40995,0.072712034,0.48219275,0.08021788,-0.11257324,0.039294433,-0.07115479,102.0
40996,0.105398625,0.7310789,-0.017454103,-0.11257324,0.039294433,-0.07115479,102.0
40997,0.105398625,0.7310789,-0.017454103,-0.23682861,-0.007434082,-0.06903076,102.0
40998,0.0553028,0.18116438,-0.36439055,-0.23682861,-0.007434082,-0.06903076,102.0
40999,0.0553028,0.18116438,-0.36439055,-0.09451904,-0.06690674,-0.035046387,102.0
41000,-0.021138608,-0.6365138,-0.49670044,-0.09451904,-0.06690674,-0.035046387,102.0
41001,-0.021138608,-0.6365138,-0.49670044,0.17416993,-0.10195313,0.0021240234,102.0
41002,-0.11688647,-0.8426217,-0.34035352,0.17416993,-0.10195313,0.0021240234,102.0
41003,-0.11688647,-0.8426217,-0.34035352,0.2814331,-0.1178833,-0.025488282,102.0
41004,-0.23790614,-0.39306712,-0.21093027,0.2814331,-0.1178833,-0.025488282,102.0
41005,-0.23790614,-0.39306712,-0.21093027,0.06796875,-0.11363526,-0.059472658,102.0
41006,-0.2590139,0.069359794,0.03959319,0.06796875,-0.11363526,-0.059472658,102.0
41007,-0.2590139,0.069359794,0.03959319,0.11682129,-0.14337158,-0.121069334,102.0
41008,-0.058419608,0.57167435,0.7271335,0.11682129,-0.14337158,-0.121069334,102.0
41009,-0.058419608,0.57167435,0.7271335,-0.0637207,-0.022302246,-0.16461182,102.0
41010,0.17491959,0.9598297,0.95929474,-0.0637207,-0.022302246,-0.16461182,102.0
41011,0.17491959,0.9598297,0.95929474,-0.26125488,0.045666505,-0.18691407,102.0
41012,0.275568,0.60394776,0.39705005,-0.26125488,0.045666505,-0.18691407,102.0
41013,0.275568,0.60394776,0.39705005,-0.22089843,0.04460449,-0.11469727,102.0
41014,0.27484894,-0.11355811,-0.1692496,-0.22089843,0.04460449,-0.11469727,102.0
41015,0.27484894,-0.11355811,-0.1692496,-0.098767094,0.023364259,-0.009558106,102.0
41016,0.18085328,-0.46698177,-0.45495534,-0.098767094,0.023364259,-0.009558106,102.0
41017,0.18085328,-0.46698177,-0.45495534,0.014868164,0.0053100586,0.06478272,102.0
41018,0.0027148426,-0.26303855,-0.38633978,0.014868164,0.0053100586,0.06478272,102.0
41019,0.0027148426,-0.26303855,-0.38633978,0.047790527,-0.03079834,0.025488282,102.0
41020,-0.14261574,0.11640024,-0.072633825,0.047790527,-0.03079834,0.025488282,102.0
41021,-0.14261574,0.11640024,-0.072633825,-0.06796875,-0.032922365,-0.0063720704,102.0
41022,-0.17153886,0.11805916,0.08588708,-0.06796875,-0.032922365,-0.0063720704,102.0
41023,-0.17153886,0.11805916,0.08588708,-0.1529297,-0.027612304,-0.0180542,102.0
41024,-0.11712611,-0.0936386,-0.026053518,-0.1529297,-0.027612304,-0.0180542,102.0
41025,-0.11712611,-0.0936386,-0.026053518,-0.09133301,-0.015930176,-0.029736329,102.0
41026,-0.052258015,-0.25924927,-0.1953057,-0.09133301,-0.015930176,-0.029736329,102.0
41027,-0.052258015,-0.25924927,-0.1953057,-0.025488282,-0.026550293,-0.03186035,102.0
41028,-0.004904568,-0.21152541,-0.15897894,-0.025488282,-0.026550293,-0.03186035,102.0
41029,-0.004904568,-0.21152541,-0.15897894,0.03717041,-0.026550293,-0.03717041,102.0
41030,0.054584652,0.10314298,0.14869575,0.03717041,-0.026550293,-0.03717041,102.0
41031,0.054584652,0.10314298,0.14869575,-0.04991455,0.016992187,-0.05628662,102.0
41032,0.09638989,0.37936497,0.34612948,-0.04991455,0.016992187,-0.05628662,102.0
41033,0.09638989,0.37936497,0.34612948,-0.18903808,0.047790527,-0.04885254,102.0
41034,0.085107505,0.2968514,0.20034108,-0.18903808,0.047790527,-0.04885254,102.0
41035,0.085107505,0.2968514,0.20034108,-0.26444092,0.04248047,-0.040356446,102.0
41036,0.02924323,-0.07034361,-0.04996884,-0.26444092,0.04248047,-0.040356446,102.0
41037,0.02924323,-0.07034361,-0.04996884,-0.35895997,0.02442627,-0.011682129,102.0
41038,-0.04359761,-0.46247607,-0.20812693,-0.35895997,0.02442627,-0.011682129,102.0
41039,-0.04359761,-0.46247607,-0.20812693,-0.26975098,-0.022302246,-0.02442627,102.0
41040,-0.08460954,-0.6385478,-0.17878182,-0.26975098,-0.022302246,-0.02442627,102.0
41041,-0.08460954,-0.6385478,-0.17878182,-0.33134767,0.010620117,-0.021240234,102.0
41042,-0.06289026,-0.21835776,0.14015326,-0.33134767,0.010620117,-0.021240234,102.0
41043,-0.06289026,-0.21835776,0.14015326,-0.27293703,0.06690674,-0.09770508,102.0
41044,0.05074981,0.9162684,0.71596783,-0.27293703,0.06690674,-0.09770508,102.0
41045,0.05074981,0.9162684,0.71596783,-0.50233155,0.19753419,-0.18266602,102.0
41046,0.18212816,1.7176217,1.0163412,-0.50233155,0.19753419,-0.18266602,102.0
41047,0.18212816,1.7176217,1.0163412,-0.9143921,0.32922363,-0.26975098,102.0
41048,0.18654725,1.2302619,0.6182121,-0.9143921,0.32922363,-0.26975098,102.0
41049,0.18654725,1.2302619,0.6182121,-1.1384766,0.37382814,-0.30479738,102.0
41050,0.038031757,0.031206608,-0.05939758,-1.1384766,0.37382814,-0.30479738,102.0
41051,0.038031757,0.031206608,-0.05939758,-1.0567017,0.32285157,-0.32603762,102.0
41052,-0.08281922,-0.67802536,-0.3656333,-1.0567017,0.32285157,-0.32603762,102.0
41053,-0.08281922,-0.67802536,-0.3656333,-1.0864381,0.26550293,-0.26444092,102.0
41054,-0.14231738,-0.73391205,-0.28054374,-1.0864381,0.26550293,-0.26444092,102.0
41055,-0.14231738,-0.73391205,-0.28054374,-1.26698,0.20921631,-0.13912354,102.0
41056,-0.2437001,-0.6104939,-0.24720111,-1.26698,0.20921631,-0.13912354,102.0
41057,-0.2437001,-0.6104939,-0.24720111,-1.3625611,0.13168946,-0.07115479,102.0
41058,-0.32674718,-0.8433512,-0.70322967,-1.3625611,0.13168946,-0.07115479,102.0
41059,-0.32674718,-0.8433512,-0.70322967,-0.6149048,0.026550293,-0.07327881,102.0
41060,-0.29786018,-1.2324935,-1.3288069,-0.6149048,0.026550293,-0.07327881,102.0
41061,-0.29786018,-1.2324935,-1.3288069,0.095581055,-0.095581055,-0.10513916,102.0
41062,-0.11033403,-1.074154,-1.2488976,0.095581055,-0.095581055,-0.10513916,102.0
41063,-0.11033403,-1.074154,-1.2488976,0.32072756,-0.14868164,-0.06478272,102.0
41064,0.14331236,-0.41392523,-0.45656437,0.32072756,-0.14868164,-0.06478272,102.0
41065,0.14331236,-0.41392523,-0.45656437,0.43117675,-0.1709839,-0.011682129,102.0
41066,0.2606948,0.27427974,0.25722167,0.43117675,-0.1709839,-0.011682129,102.0
41067,0.2606948,0.27427974,0.25722167,0.3717041,-0.15823975,0.040356446,102.0
41068,0.2305163,0.5112695,0.50959814,0.3717041,-0.15823975,0.040356446,102.0
41069,0.2305163,0.5112695,0.50959814,0.50233155,-0.1444336,0.04248047,102.0
41070,0.17229146,0.5123115,0.5216678,0.50233155,-0.1444336,0.04248047,102.0
41071,0.17229146,0.5123115,0.5216678,0.49277344,-0.13381349,0.029736329,102.0
41072,0.17027944,0.52919734,0.58178735,0.49277344,-0.13381349,0.029736329,102.0
41073,0.17027944,0.52919734,0.58178735,0.2357666,-0.087084964,0.05628662,102.0
41074,0.17027944,0.52919734,0.58178735,0.2357666,-0.087084964,0.05628662,102.0
41075,0.18485636,0.48766452,0.6058596,0.2357666,-0.087084964,0.05628662,102.0
41076,0.18485636,0.48766452,0.6058596,0.08283692,-0.04141846,0.078588866,102.0
41077,0.11236262,0.40308326,0.4364821,0.08283692,-0.04141846,0.078588866,102.0
41078,0.11236262,0.40308326,0.4364821,-0.06584473,0.0010620117,0.06265869,102.0
41079,-2.503395E-6,0.32073325,0.29027456,-0.06584473,0.0010620117,0.06265869,102.0
41080,-2.503395E-6,0.32073325,0.29027456,-0.2262085,0.040356446,0.03717041,102.0
41081,-0.13176471,0.09796846,0.22913125,-0.2262085,0.040356446,0.03717041,102.0
41082,-0.13176471,0.09796846,0.22913125,-0.41843262,0.0722168,0.010620117,102.0
41083,-0.23271888,-0.2358098,0.18284112,-0.41843262,0.0722168,0.010620117,102.0
41084,-0.23271888,-0.2358098,0.18284112,-0.3717041,0.06159668,-0.032922365,102.0
41085,-0.24633135,-0.45528603,-0.002018094,-0.3717041,0.06159668,-0.032922365,102.0
41086,-0.24633135,-0.45528603,-0.002018094,-0.13912354,0.04460449,-0.08814698,102.0
41087,-0.14851771,-0.2997757,-0.29623118,-0.13912354,0.04460449,-0.08814698,102.0
41088,-0.14851771,-0.2997757,-0.29623118,-0.15823975,0.014868164,-0.07965088,102.0
41089,0.0020598471,-0.12340212,-0.55530775,-0.15823975,0.014868164,-0.07965088,102.0
41090,0.0020598471,-0.12340212,-0.55530775,-0.021240234,-0.027612304,-0.046728518,102.0
41091,0.097424254,-0.07154885,-0.5584796,-0.021240234,-0.027612304,-0.046728518,102.0
41092,0.097424254,-0.07154885,-0.5584796,0.0053100586,-0.043542482,0.010620117,102.0
41093,0.07992914,0.07487762,-0.2659243,0.0053100586,-0.043542482,0.010620117,102.0
41094,0.07992914,0.07487762,-0.2659243,-0.08496094,-0.052038576,0.035046387,102.0
41095,0.039614707,0.22624731,0.09692854,-0.08496094,-0.052038576,0.035046387,102.0
41096,0.039614707,0.22624731,0.09692854,-0.1274414,-0.039294433,0.021240234,102.0
41097,0.043557018,0.25268975,0.34440073,-0.1274414,-0.039294433,0.021240234,102.0
41098,0.043557018,0.25268975,0.34440073,-0.25700685,-0.0031860352,0.0,102.0
41099,0.035797745,0.119351506,0.376253,-0.25700685,-0.0031860352,0.0,102.0
41100,0.035797745,0.119351506,0.376253,-0.24107666,0.013806152,-0.025488282,102.0
41101,-0.019054681,-0.09190893,0.28994283,-0.24107666,0.013806152,-0.025488282,102.0
41102,-0.019054681,-0.09190893,0.28994283,-0.21027832,0.043542482,-0.04460449,102.0
41103,-0.079440534,-0.2823162,0.2052941,-0.21027832,0.043542482,-0.04460449,102.0
41104,-0.079440534,-0.2823162,0.2052941,-0.11363526,0.046728518,-0.046728518,102.0
41105,-0.088540226,-0.24598238,0.019740641,-0.11363526,0.046728518,-0.046728518,102.0
41106,-0.088540226,-0.24598238,0.019740641,-0.13487549,0.04141846,-0.045666505,102.0
41107,-0.03583461,0.039432347,-0.2750156,-0.13487549,0.04141846,-0.045666505,102.0
41108,-0.03583461,0.039432347,-0.2750156,-0.17735596,0.009558106,-0.026550293,102.0
41109,0.054535434,0.3258574,-0.3389944,-0.17735596,0.009558106,-0.026550293,102.0
41110,0.054535434,0.3258574,-0.3389944,-0.29099122,-0.009558106,0.021240234,102.0
41111,0.1197758,0.44507313,-0.099784404,-0.29099122,-0.009558106,0.021240234,102.0
41112,0.1197758,0.44507313,-0.099784404,-0.55543214,0.012744141,0.0637207,102.0
41113,0.15648958,0.3486855,0.18683508,-0.55543214,0.012744141,0.0637207,102.0
41114,0.15648958,0.3486855,0.18683508,-0.6988037,0.05628662,0.0722168,102.0
41115,0.15165651,0.19423163,0.27927765,-0.6988037,0.05628662,0.0722168,102.0
41116,0.15165651,0.19423163,0.27927765,-0.81668705,0.087084964,0.07646485,102.0
41117,0.07088575,0.028114796,0.09527272,-0.81668705,0.087084964,0.07646485,102.0
41118,0.07088575,0.028114796,0.09527272,-0.8071289,0.11044922,0.06903076,102.0
41119,-0.028252363,-0.18656582,-0.16903329,-0.8071289,0.11044922,0.06903076,102.0
41120,-0.028252363,-0.18656582,-0.16903329,-0.77526855,0.11151123,0.07434082,102.0
41121,-0.07874203,-0.29277074,-0.22884236,-0.77526855,0.11151123,0.07434082,102.0
41122,-0.07874203,-0.29277074,-0.22884236,-0.5766724,0.0998291,0.060534667,102.0
41123,-0.07085496,-0.21064481,-0.059221342,-0.5766724,0.0998291,0.060534667,102.0
41124,-0.07085496,-0.21064481,-0.059221342,-0.4598511,0.08283692,0.07115479,102.0
41125,-0.07993835,-0.17286158,0.032615602,-0.4598511,0.08283692,0.07115479,102.0
41126,-0.07993835,-0.17286158,0.032615602,-0.28461915,0.053100586,0.058410645,102.0
41127,-0.11071584,-0.38284492,-0.110394344,-0.28461915,0.053100586,0.058410645,102.0
41128,-0.11071584,-0.38284492,-0.110394344,0.124255374,-0.013806152,0.078588866,102.0
41129,-0.10956876,-0.45578766,-0.22050542,0.124255374,-0.013806152,0.078588866,102.0
41130,-0.10956876,-0.45578766,-0.22050542,0.30373535,-0.046728518,0.08071289,102.0
41131,-0.19447875,-0.37702027,-0.41452688,0.30373535,-0.046728518,0.08071289,102.0
41132,-0.19447875,-0.37702027,-0.41452688,0.5384399,-0.1274414,0.07115479,102.0
41133,-0.15378857,-0.33799317,-0.38944623,0.5384399,-0.1274414,0.07115479,102.0
41134,-0.15378857,-0.33799317,-0.38944623,0.55755615,-0.15717773,0.087084964,102.0
41135,-0.05695419,-0.19903223,-0.007296726,0.55755615,-0.15717773,0.087084964,102.0
41136,-0.05695419,-0.19903223,-0.007296726,0.6881836,-0.17416993,0.10513916,102.0
41137,-0.015582889,-0.028293172,0.1342139,0.6881836,-0.17416993,0.10513916,102.0
41138,-0.015582889,-0.028293172,0.1342139,0.6552612,-0.15080567,0.0998291,102.0
41139,0.03205274,0.247385,0.3469341,0.6552612,-0.15080567,0.0998291,102.0
41140,0.03205274,0.247385,0.3469341,0.6701294,-0.14018555,0.14974366,102.0
41141,0.033881947,-0.061540246,0.06388762,0.6701294,-0.14018555,0.14974366,102.0
41142,0.033881947,-0.061540246,0.06388762,0.7943848,-0.16248779,0.16779785,102.0
41143,0.04218124,-0.81240356,-0.47653884,0.7943848,-0.16248779,0.16779785,102.0
41144,0.04218124,-0.81240356,-0.47653884,1.3275146,-0.2357666,0.20709229,102.0
41145,0.035551637,-0.7596885,-0.42589658,1.3275146,-0.2357666,0.20709229,102.0
41146,0.035551637,-0.7596885,-0.42589658,1.360437,-0.22939454,0.20178223,102.0
41147,0.036327064,0.3063361,0.24457325,1.360437,-0.22939454,0.20178223,102.0
41148,0.036327064,0.3063361,0.24457325,1.0078491,-0.17947999,0.17947999,102.0
41149,0.011654422,0.5030035,0.28088808,1.0078491,-0.17947999,0.17947999,102.0
41150,0.011654422,0.5030035,0.28088808,0.8889038,-0.15717773,0.12956543,102.0
41151,0.015121877,0.78168744,0.3834141,0.8889038,-0.15717773,0.12956543,102.0
41152,0.015121877,0.78168744,0.3834141,0.91120607,-0.10620117,-0.052038576,102.0
41153,0.029150724,0.6950155,0.33219516,0.91120607,-0.10620117,-0.052038576,102.0
41154,0.029150724,0.6950155,0.33219516,0.79969484,-0.06584473,-0.11363526,102.0
41155,0.20176296,1.0913885,0.4573699,0.79969484,-0.06584473,-0.11363526,102.0
41156,0.20176296,1.0913885,0.4573699,0.02442627,0.053100586,-0.078588866,102.0
41157,0.2515471,0.7980741,0.29497308,0.02442627,0.053100586,-0.078588866,102.0
41158,0.2515471,0.7980741,0.29497308,-0.10938721,0.057348635,-0.03186035,102.0
41159,0.3099657,0.17533672,-0.036689997,-0.10938721,0.057348635,-0.03186035,102.0
41160,0.3099657,0.17533672,-0.036689997,-0.16567384,0.058410645,0.045666505,102.0
41161,0.19714248,-0.2716081,-0.18515033,-0.16567384,0.058410645,0.045666505,102.0
41162,0.19714248,-0.2716081,-0.18515033,-0.058410645,0.06584473,0.04991455,102.0
41163,-0.02172938,-0.3349501,-0.029907376,-0.058410645,0.06584473,0.04991455,102.0
41164,-0.02172938,-0.3349501,-0.029907376,-0.08071289,0.06584473,0.025488282,102.0
41165,-0.21550363,-0.43545276,0.0077635646,-0.08071289,0.06584473,0.025488282,102.0
41166,-0.21550363,-0.43545276,0.0077635646,0.06903076,0.043542482,0.020178223,102.0
41167,-0.3164703,-0.81419474,-0.25713143,0.06903076,0.043542482,0.020178223,102.0
41168,-0.3164703,-0.81419474,-0.25713143,0.4630371,-0.0063720704,-0.007434082,102.0
41169,-0.31325924,-0.82778406,-0.44281453,0.4630371,-0.0063720704,-0.007434082,102.0
41170,-0.31325924,-0.82778406,-0.44281453,0.58410645,-0.06903076,-0.029736329,102.0
41171,-0.13753366,-0.16590154,-0.33341423,0.58410645,-0.06903076,-0.029736329,102.0
41172,-0.13753366,-0.16590154,-0.33341423,0.38975832,-0.08920898,-0.045666505,102.0
41173,0.088801205,0.53095067,-0.0973344,0.38975832,-0.08920898,-0.045666505,102.0
41174,0.088801205,0.53095067,-0.0973344,0.10301514,-0.09451904,-0.053100586,102.0
41175,0.16573091,0.46233377,-0.0514393,0.10301514,-0.09451904,-0.053100586,102.0
41176,0.16573091,0.46233377,-0.0514393,0.06478272,-0.10620117,-0.040356446,102.0
41177,0.07063404,0.2016297,-0.07651521,0.06478272,-0.10620117,-0.040356446,102.0
41178,0.07063404,0.2016297,-0.07651521,0.16567384,-0.1263794,-0.052038576,102.0
41179,-0.08350742,0.060827702,-0.05808717,0.16567384,-0.1263794,-0.052038576,102.0
41180,-0.08350742,0.060827702,-0.05808717,0.032922365,-0.11044922,-0.0998291,102.0
41181,-0.12897635,0.31705815,0.17929931,0.032922365,-0.11044922,-0.0998291,102.0
41182,-0.12897635,0.31705815,0.17929931,-0.1539917,-0.07540283,-0.1444336,102.0
41183,0.021062091,0.4820279,0.6112373,-0.1539917,-0.07540283,-0.1444336,102.0
41184,0.021062091,0.4820279,0.6112373,-0.30267334,0.010620117,-0.13275146,102.0
41185,0.14789215,0.29914773,0.7084967,-0.30267334,0.010620117,-0.13275146,102.0
41186,0.14789215,0.29914773,0.7084967,-0.45560303,0.08814698,-0.09451904,102.0
41187,0.136136,-0.22966373,0.28260547,-0.45560303,0.08814698,-0.09451904,102.0
41188,0.136136,-0.22966373,0.28260547,-0.20178223,0.059472658,-0.07115479,102.0
41189,0.012863874,-0.72997123,-0.3114156,-0.20178223,0.059472658,-0.07115479,102.0
41190,0.012863874,-0.72997123,-0.3114156,-0.029736329,0.032922365,-0.027612304,102.0
41191,-0.14228457,-0.92031735,-0.75600505,-0.029736329,0.032922365,-0.027612304,102.0
41192,-0.14228457,-0.92031735,-0.75600505,0.29205322,-0.046728518,0.004248047,102.0
41193,-0.14228457,-0.92031735,-0.75600505,0.29205322,-0.046728518,0.004248047,101.0
41194,-0.17685255,-0.6716543,-0.720368,0.29205322,-0.046728518,0.004248047,101.0
41195,-0.17685255,-0.6716543,-0.720368,0.46622315,-0.078588866,0.046728518,101.0
41196,0.022861212,0.4143001,0.11831007,0.46622315,-0.078588866,0.046728518,101.0
41197,0.022861212,0.4143001,0.11831007,0.008496094,-0.026550293,0.06584473,101.0
41198,0.09117715,0.7810373,0.3523507,0.008496094,-0.026550293,0.06584473,101.0
41199,0.09117715,0.7810373,0.3523507,-0.11044922,0.004248047,0.033984374,101.0
41200,0.16288313,1.2201667,0.4999958,-0.11044922,0.004248047,0.033984374,101.0
41201,0.16288313,1.2201667,0.4999958,-0.16779785,0.04248047,-0.052038576,101.0
41202,0.13781384,0.8408917,0.24998444,-0.16779785,0.04248047,-0.052038576,101.0
41203,0.13781384,0.8408917,0.24998444,-0.27612305,0.047790527,-0.04460449,101.0
41204,0.034945905,-0.030399442,-0.12934595,-0.27612305,0.047790527,-0.04460449,101.0
41205,0.034945905,-0.030399442,-0.12934595,-0.1985962,0.0063720704,-0.019116212,101.0
41206,-0.05248761,-0.6698274,-0.3115334,-0.1985962,0.0063720704,-0.019116212,101.0
41207,-0.05248761,-0.6698274,-0.3115334,-0.032922365,-0.010620117,-0.0053100586,101.0
41208,-0.061582386,-0.7455055,-0.18352848,-0.032922365,-0.010620117,-0.0053100586,101.0
41209,-0.061582386,-0.7455055,-0.18352848,0.095581055,-0.015930176,0.0031860352,101.0
41210,-0.060142368,-0.5656061,0.030655243,0.095581055,-0.015930176,0.0031860352,101.0
41211,-0.060142368,-0.5656061,0.030655243,0.23364258,-0.021240234,0.022302246,101.0
41212,-0.12402943,-0.4743843,0.118420675,0.23364258,-0.021240234,0.022302246,101.0
41213,-0.12402943,-0.4743843,0.118420675,0.39400634,-0.047790527,0.007434082,101.0
41214,-0.15532707,-0.44145814,0.023362026,0.39400634,-0.047790527,0.007434082,101.0
41215,-0.15532707,-0.44145814,0.023362026,0.48533937,-0.06690674,0.013806152,101.0
41216,-0.06311664,-0.3232959,-0.13301936,0.48533937,-0.06690674,0.013806152,101.0
41217,-0.06311664,-0.3232959,-0.13301936,0.6616333,-0.08071289,0.022302246,101.0
41218,0.14912827,0.153375,-0.010541469,0.6616333,-0.08071289,0.022302246,101.0
41219,0.14912827,0.153375,-0.010541469,0.40250245,-0.023364259,0.027612304,101.0
41220,0.32406336,0.6178782,0.111232355,0.40250245,-0.023364259,0.027612304,101.0
41221,0.32406336,0.6178782,0.111232355,-0.019116212,0.050976563,0.09239502,101.0
41222,0.2707009,0.46141684,-0.05060152,-0.019116212,0.050976563,0.09239502,101.0
41223,0.2707009,0.46141684,-0.05060152,0.3175415,0.013806152,0.0541626,101.0
41224,0.07169989,-0.050092608,-0.19107936,0.3175415,0.013806152,0.0541626,101.0
41225,0.07169989,-0.050092608,-0.19107936,0.4991455,0.0053100586,0.09133301,101.0
41226,-0.07208347,-0.27862388,-0.18865451,0.4991455,0.0053100586,0.09133301,101.0
41227,-0.07208347,-0.27862388,-0.18865451,0.42161867,0.0021240234,0.14337158,101.0
41228,-0.16467363,-0.01818721,-0.11656082,0.42161867,0.0021240234,0.14337158,101.0
41229,-0.16467363,-0.01818721,-0.11656082,0.29311523,-0.0063720704,0.13275146,101.0
41230,-0.23001772,0.37236428,-0.012120724,0.29311523,-0.0063720704,0.13275146,101.0
41231,-0.23001772,0.37236428,-0.012120724,0.14655761,-0.004248047,0.09239502,101.0
41232,-0.23605275,0.5067049,0.11502266,0.14655761,-0.004248047,0.09239502,101.0
41233,-0.23605275,0.5067049,0.11502266,0.115759276,0.0031860352,0.04460449,101.0
41234,-0.14710636,0.451299,0.25003815,0.115759276,0.0031860352,0.04460449,101.0
41235,-0.14710636,0.451299,0.25003815,0.10513916,0.025488282,0.004248047,101.0
41236,0.0064726174,0.33453774,0.31023562,0.10513916,0.025488282,0.004248047,101.0
41237,0.0064726174,0.33453774,0.31023562,-0.09239502,0.06265869,0.019116212,101.0
41238,0.1258446,0.17860436,0.19182862,-0.09239502,0.06265869,0.019116212,101.0
41239,0.1258446,0.17860436,0.19182862,-0.1178833,0.057348635,0.0053100586,101.0
41240,0.1488202,-0.008349419,0.05297461,-0.1178833,0.057348635,0.0053100586,101.0
41241,0.1488202,-0.008349419,0.05297461,-0.12000733,0.06159668,0.010620117,101.0
41242,0.11053565,-0.15569079,-0.013113469,-0.12000733,0.06159668,0.010620117,101.0
41243,0.11053565,-0.15569079,-0.013113469,-0.12850343,0.060534667,0.021240234,101.0
41244,0.033496886,-0.22906923,-0.07828863,-0.12850343,0.060534667,0.021240234,101.0
41245,0.033496886,-0.22906923,-0.07828863,-0.11044922,0.050976563,0.022302246,101.0
41246,-0.05694273,-0.30560645,-0.1379727,-0.11044922,0.050976563,0.022302246,101.0
41247,-0.05694273,-0.30560645,-0.1379727,-0.046728518,0.02442627,0.033984374,101.0
41248,-0.104855955,-0.3622342,-0.15584935,-0.046728518,0.02442627,0.033984374,101.0
41249,-0.104855955,-0.3622342,-0.15584935,0.058410645,0.009558106,0.0361084,101.0
41250,-0.09207569,-0.21722877,-0.10425712,0.058410645,0.009558106,0.0361084,101.0
41251,-0.09207569,-0.21722877,-0.10425712,0.06690674,0.010620117,0.015930176,101.0
41252,-0.04369229,0.0076622963,0.037529364,0.06690674,0.010620117,0.015930176,101.0
41253,-0.04369229,0.0076622963,0.037529364,0.04885254,0.019116212,0.004248047,101.0
41254,0.012165308,0.14074898,0.18728667,0.04885254,0.019116212,0.004248047,101.0
41255,0.012165308,0.14074898,0.18728667,0.03717041,0.03079834,0.0,101.0
41256,0.048843578,0.1379776,0.19948754,0.03717041,0.03079834,0.0,101.0
41257,0.048843578,0.1379776,0.19948754,0.0,0.060534667,0.013806152,101.0
41258,0.065820456,0.06787717,0.12917012,0.0,0.060534667,0.013806152,101.0
41259,0.065820456,0.06787717,0.12917012,0.06159668,0.07115479,0.0063720704,101.0
41260,0.025385857,0.09955323,0.04438834,0.06159668,0.07115479,0.0063720704,101.0
41261,0.025385857,0.09955323,0.04438834,0.0010620117,0.093457036,0.0031860352,101.0
41262,-0.0124427825,0.15305567,-0.06370808,0.0010620117,0.093457036,0.0031860352,101.0
41263,-0.0124427825,0.15305567,-0.06370808,-0.1263794,0.11363526,-0.008496094,101.0
41264,0.011871934,0.0131549835,-0.18391325,-0.1263794,0.11363526,-0.008496094,101.0
41265,0.011871934,0.0131549835,-0.18391325,-0.06903076,0.10089111,-0.0180542,101.0
41266,0.03324023,-0.12515718,-0.23469163,-0.06903076,0.10089111,-0.0180542,101.0
41267,0.03324023,-0.12515718,-0.23469163,-0.060534667,0.08496094,-0.021240234,101.0
41268,0.0063529313,-0.13170534,-0.19247743,-0.060534667,0.08496094,-0.021240234,101.0
41269,0.0063529313,-0.13170534,-0.19247743,-0.095581055,0.0722168,-0.023364259,101.0
41270,-0.046651065,-0.07085499,-0.12822512,-0.095581055,0.0722168,-0.023364259,101.0
41271,-0.046651065,-0.07085499,-0.12822512,-0.13168946,0.045666505,-0.029736329,101.0
41272,-0.10093169,0.045012802,-0.123649426,-0.13168946,0.045666505,-0.029736329,101.0
41273,-0.10093169,0.045012802,-0.123649426,-0.18372802,0.013806152,-0.05628662,101.0
41274,-0.1501057,0.13724315,-0.16996446,-0.18372802,0.013806152,-0.05628662,101.0
41275,-0.1501057,0.13724315,-0.16996446,-0.24532472,-0.028674318,-0.08071289,101.0
41276,-0.15008944,-0.022334397,-0.116635635,-0.24532472,-0.028674318,-0.08071289,101.0
41277,-0.15008944,-0.022334397,-0.116635635,-0.24638672,-0.052038576,-0.059472658,101.0
41278,-0.074649185,-0.414889,0.036256917,-0.24638672,-0.052038576,-0.059472658,101.0
41279,-0.074649185,-0.414889,0.036256917,-0.24638672,-0.052038576,-0.059472658,98.0
41280,-0.074649185,-0.414889,0.036256917,-0.15080567,-0.06903076,-0.029736329,98.0
41281,0.027036026,-0.66458946,0.083851725,-0.15080567,-0.06903076,-0.029736329,98.0
41282,0.027036026,-0.66458946,0.083851725,0.07540283,-0.095581055,0.014868164,98.0
41283,0.06843057,-0.4124699,0.04233773,0.07540283,-0.095581055,0.014868164,98.0
41284,0.06843057,-0.4124699,0.04233773,0.08071289,-0.0998291,0.035046387,98.0
41285,0.05954182,0.11793668,0.0607989,0.08071289,-0.0998291,0.035046387,98.0
41286,0.05954182,0.11793668,0.0607989,0.07965088,-0.10620117,0.027612304,98.0
41287,0.048573405,0.5126721,0.15881978,0.07965088,-0.10620117,0.027612304,98.0
41288,0.048573405,0.5126721,0.15881978,0.013806152,-0.090270996,0.014868164,98.0
41289,0.06570199,0.68254983,0.2153737,0.013806152,-0.090270996,0.014868164,98.0
41290,0.06570199,0.68254983,0.2153737,-0.09770508,-0.053100586,-0.0053100586,98.0
41291,0.084324285,0.41194558,0.12015052,-0.09770508,-0.053100586,-0.0053100586,98.0
41292,0.084324285,0.41194558,0.12015052,-0.19753419,-0.027612304,0.009558106,98.0
41293,0.04963717,-0.2182585,-0.06922382,-0.19753419,-0.027612304,0.009558106,98.0
41294,0.04963717,-0.2182585,-0.06922382,-0.12000733,-0.04248047,0.021240234,98.0
41295,-0.031615958,-0.5615819,-0.17846255,-0.12000733,-0.04248047,0.021240234,98.0
41296,-0.031615958,-0.5615819,-0.17846255,0.011682129,-0.070092775,0.014868164,98.0
41297,-0.069518834,-0.3440287,-0.092355005,0.011682129,-0.070092775,0.014868164,98.0
41298,-0.069518834,-0.3440287,-0.092355005,-0.038232423,-0.04460449,0.0,98.0
41299,-0.04396957,-0.04388754,0.065239534,-0.038232423,-0.04460449,0.0,98.0
41300,-0.04396957,-0.04388754,0.065239534,-0.08602295,-0.025488282,-0.0031860352,98.0
41301,-0.015864134,0.029916823,0.12145432,-0.08602295,-0.025488282,-0.0031860352,98.0
41302,-0.015864134,0.029916823,0.12145432,-0.050976563,-0.03079834,-0.012744141,98.0
41303,-0.017012596,0.013667345,0.06309363,-0.050976563,-0.03079834,-0.012744141,98.0
41304,-0.017012596,0.013667345,0.06309363,-0.015930176,-0.032922365,-0.015930176,98.0
41305,-0.023986056,0.017135054,-0.03350947,-0.015930176,-0.032922365,-0.015930176,98.0
41306,-0.023986056,0.017135054,-0.03350947,0.012744141,-0.032922365,-0.015930176,98.0
41307,-0.052550673,0.02825883,-0.10494478,0.012744141,-0.032922365,-0.015930176,98.0
41308,-0.052550673,0.02825883,-0.10494478,0.039294433,-0.039294433,-0.020178223,98.0
41309,-0.11246291,-0.04721716,-0.06305739,0.039294433,-0.039294433,-0.020178223,98.0
41310,-0.11246291,-0.04721716,-0.06305739,0.06584473,-0.058410645,-0.028674318,98.0
41311,-0.10410607,-0.04108183,-0.007672474,0.06584473,-0.058410645,-0.028674318,98.0
41312,-0.10410607,-0.04108183,-0.007672474,0.0637207,-0.07115479,-0.02442627,98.0
41313,-0.063802436,0.01552321,0.064528525,0.0637207,-0.07115479,-0.02442627,98.0
41314,-0.063802436,0.01552321,0.064528525,0.040356446,-0.07752686,-0.02442627,98.0
41315,-0.04611031,0.12945959,0.080065206,0.040356446,-0.07752686,-0.02442627,98.0
41316,-0.04611031,0.12945959,0.080065206,0.040356446,-0.078588866,-0.0180542,98.0
41317,-0.030015692,0.17143875,0.09277531,0.040356446,-0.078588866,-0.0180542,98.0
41318,-0.030015692,0.17143875,0.09277531,-0.028674318,-0.06796875,-0.033984374,98.0
41319,-0.008704938,0.070708126,0.09193265,-0.028674318,-0.06796875,-0.033984374,98.0
41320,-0.008704938,0.070708126,0.09193265,-0.0637207,-0.07434082,-0.025488282,98.0
41321,-0.014141686,-0.02512297,0.03223753,-0.0637207,-0.07434082,-0.025488282,98.0
41322,-0.014141686,-0.02512297,0.03223753,-0.06478272,-0.081774905,-0.013806152,98.0
41323,0.004470341,-0.1057429,-0.042374037,-0.06478272,-0.081774905,-0.013806152,98.0
41324,0.004470341,-0.1057429,-0.042374037,-0.06159668,-0.07327881,-0.007434082,98.0
41325,0.022668071,-0.24296835,-0.11312286,-0.06159668,-0.07327881,-0.007434082,98.0
41326,0.022668071,-0.24296835,-0.11312286,-0.0063720704,-0.04885254,0.04991455,98.0
41327,0.058515318,-0.29276335,-0.11912377,-0.0063720704,-0.04885254,0.04991455,98.0
41328,0.058515318,-0.29276335,-0.11912377,-0.015930176,-0.04248047,-0.0063720704,98.0
41329,0.15773755,-0.21360523,-0.055821482,-0.015930176,-0.04248047,-0.0063720704,98.0
41330,0.15773755,-0.21360523,-0.055821482,-0.08920898,-0.022302246,-0.028674318,98.0
41331,0.27092883,-0.17432657,-0.024185995,-0.08920898,-0.022302246,-0.028674318,98.0
41332,0.27092883,-0.17432657,-0.024185995,-0.13487549,-0.0053100586,-0.021240234,98.0
41333,0.3082592,-0.0805135,-0.028198894,-0.13487549,-0.0053100586,-0.021240234,98.0
41334,0.3082592,-0.0805135,-0.028198894,-0.2081543,-0.0031860352,-0.016992187,98.0
41335,0.19680268,0.096612155,0.029882291,-0.2081543,-0.0031860352,-0.016992187,98.0
41336,0.19680268,0.096612155,0.029882291,-0.24320069,0.0,-0.015930176,98.0
41337,0.031074941,0.29175505,0.12447957,-0.24320069,0.0,-0.015930176,98.0
41338,0.031074941,0.29175505,0.12447957,-0.29736328,0.029736329,-0.02442627,98.0
41339,-0.082000405,0.32665354,0.14877799,-0.29736328,0.029736329,-0.02442627,98.0
41340,-0.082000405,0.32665354,0.14877799,-0.33134767,0.039294433,-0.02442627,98.0
41341,-0.12485325,0.2336373,0.0943764,-0.33134767,0.039294433,-0.02442627,98.0
41342,-0.12485325,0.2336373,0.0943764,-0.32285157,0.021240234,-0.0361084,98.0
41343,-0.12519999,0.19633368,0.07175356,-0.32285157,0.021240234,-0.0361084,98.0
41344,-0.12519999,0.19633368,0.07175356,-0.48427734,0.03079834,-0.038232423,98.0
41345,-0.11828743,0.1604605,0.07864308,-0.48427734,0.03079834,-0.038232423,98.0
41346,-0.11828743,0.1604605,0.07864308,-0.631897,0.011682129,-0.03717041,98.0
41347,-0.120618716,0.12955248,0.057726473,-0.631897,0.011682129,-0.03717041,98.0
41348,-0.120618716,0.12955248,0.057726473,-0.75721437,0.0010620117,-0.032922365,98.0
41349,-0.091868505,0.15854922,0.054311052,-0.75721437,0.0010620117,-0.032922365,98.0
41350,-0.091868505,0.15854922,0.054311052,-0.9420044,0.0361084,-0.025488282,98.0
41351,-0.014254078,0.09655374,0.066691026,-0.9420044,0.0361084,-0.025488282,98.0
41352,-0.014254078,0.09655374,0.066691026,-0.97280276,0.07646485,-0.023364259,98.0
41353,0.07206842,-0.06302801,0.032527626,-0.97280276,0.07646485,-0.023364259,98.0
41354,0.07206842,-0.06302801,0.032527626,-0.9398804,0.1083252,-0.0361084,98.0
41355,0.07493991,-0.3337598,-0.12533288,-0.9398804,0.1083252,-0.0361084,98.0
41356,0.07493991,-0.3337598,-0.12533288,-0.7327881,0.13699952,-0.04991455,98.0
41357,-0.014486551,-0.5923741,-0.30118185,-0.7327881,0.13699952,-0.04991455,98.0
41358,-0.014486551,-0.5923741,-0.30118185,-0.3982544,0.09239502,-0.090270996,98.0
41359,-0.056328014,-0.43595982,-0.16560367,-0.3982544,0.09239502,-0.090270996,98.0
41360,-0.056328014,-0.43595982,-0.16560367,-0.3069214,0.09451904,-0.11682129,98.0
41361,-0.012347564,0.08423996,0.1856323,-0.3069214,0.09451904,-0.11682129,98.0
41362,-0.012347564,0.08423996,0.1856323,-0.4991455,0.12213135,-0.12850343,98.0
41363,0.03185779,0.40050966,0.35510987,-0.4991455,0.12213135,-0.12850343,98.0
41364,0.03185779,0.40050966,0.35510987,-0.7041138,0.14868164,-0.11257324,98.0
41365,0.032151267,0.26841798,0.23185402,-0.7041138,0.14868164,-0.11257324,98.0
41366,0.032151267,0.26841798,0.23185402,-0.79013675,0.14868164,-0.08496094,98.0
41367,0.0066536367,-0.0425044,-0.0039821267,-0.79013675,0.14868164,-0.08496094,98.0
41368,0.0066536367,-0.0425044,-0.0039821267,-0.7582764,0.1263794,-0.04991455,98.0
41369,-0.025682956,-0.23043907,-0.1787106,-0.7582764,0.1263794,-0.04991455,98.0
41370,-0.025682956,-0.23043907,-0.1787106,-0.74659425,0.09664307,-0.007434082,98.0
41371,-0.040761217,-0.31157294,-0.27635473,-0.74659425,0.09664307,-0.007434082,98.0
41372,-0.040761217,-0.31157294,-0.27635473,-0.5798584,0.058410645,0.014868164,98.0
41373,-0.023453712,-0.25217584,-0.24635233,-0.5798584,0.058410645,0.014868164,98.0
41374,-0.023453712,-0.25217584,-0.24635233,-0.42055663,0.029736329,0.038232423,98.0
41375,-0.010987088,-0.115693316,-0.16652767,-0.42055663,0.029736329,0.038232423,98.0
41376,-0.010987088,-0.115693316,-0.16652767,-0.3430298,0.0,0.053100586,98.0
41377,-0.010987088,-0.115693316,-0.16652767,-0.3430298,0.0,0.053100586,97.0
41378,-0.056470335,-0.09604587,-0.15707467,-0.3430298,0.0,0.053100586,97.0
41379,-0.056470335,-0.09604587,-0.15707467,-0.22089843,-0.04248047,0.039294433,97.0
41380,-0.11755176,-0.14557448,-0.1418829,-0.22089843,-0.04248047,0.039294433,97.0
41381,-0.11755176,-0.14557448,-0.1418829,-0.15717773,-0.07327881,0.02442627,97.0
41382,-0.100474514,-0.16774133,-0.0622734,-0.15717773,-0.07327881,0.02442627,97.0
41383,-0.100474514,-0.16774133,-0.0622734,-0.06159668,-0.08283692,0.0063720704,97.0
41384,-0.007613495,-0.10536006,0.06273011,-0.06159668,-0.08283692,0.0063720704,97.0
41385,-0.007613495,-0.10536006,0.06273011,0.04141846,-0.07540283,0.0010620117,97.0
41386,0.11165823,0.037452675,0.21400245,0.04141846,-0.07540283,0.0010620117,97.0
41387,0.11165823,0.037452675,0.21400245,0.07327881,-0.027612304,-0.0031860352,97.0
41388,0.1952714,0.13764036,0.2724349,0.07327881,-0.027612304,-0.0031860352,97.0
41389,0.1952714,0.13764036,0.2724349,0.23895264,0.03079834,0.0,97.0
41390,0.16966927,0.15073729,0.15010121,0.23895264,0.03079834,0.0,97.0
41391,0.16966927,0.15073729,0.15010121,0.35577393,0.03717041,0.0031860352,97.0
41392,0.050701246,0.093026355,-0.030419514,0.35577393,0.03717041,0.0031860352,97.0
41393,0.050701246,0.093026355,-0.030419514,0.36108398,0.027612304,0.023364259,97.0
41394,-0.06380911,-0.018364558,-0.15932097,0.36108398,0.027612304,0.023364259,97.0
41395,-0.06380911,-0.018364558,-0.15932097,0.3525879,-0.0021240234,0.040356446,97.0
41396,-0.14010979,-0.08341724,-0.2115144,0.3525879,-0.0021240234,0.040356446,97.0
41397,-0.14010979,-0.08341724,-0.2115144,0.3058594,-0.028674318,0.04991455,97.0
41398,-0.15395796,-0.119492576,-0.18731454,0.3058594,-0.028674318,0.04991455,97.0
41399,-0.15395796,-0.119492576,-0.18731454,0.33134767,-0.06478272,0.052038576,97.0
41400,-0.11049547,-0.090125315,-0.09430964,0.33134767,-0.06478272,0.052038576,97.0
41401,-0.11049547,-0.090125315,-0.09430964,0.2984253,-0.083898924,0.0541626,97.0
41402,-0.042351454,0.03015805,0.03826078,0.2984253,-0.083898924,0.0541626,97.0
41403,-0.042351454,0.03015805,0.03826078,0.24957275,-0.08602295,0.045666505,97.0
41404,0.020440124,0.18457566,0.14804026,0.24957275,-0.08602295,0.045666505,97.0
41405,0.020440124,0.18457566,0.14804026,0.16036378,-0.06690674,0.04141846,97.0
41406,0.03749468,0.23702821,0.13248251,0.16036378,-0.06690674,0.04141846,97.0
41407,0.03749468,0.23702821,0.13248251,0.03717041,-0.07646485,0.050976563,97.0
41408,0.011795059,0.08575294,-0.012812819,0.03717041,-0.07646485,0.050976563,97.0
41409,0.011795059,0.08575294,-0.012812819,0.038232423,-0.098767094,0.070092775,97.0
41410,0.03275147,-0.09483759,-0.06733034,0.038232423,-0.098767094,0.070092775,97.0
41411,0.03275147,-0.09483759,-0.06733034,0.21134034,-0.08496094,0.060534667,97.0
41412,0.09320557,9.731911E-4,0.10415575,0.21134034,-0.08496094,0.060534667,97.0
41413,0.09320557,9.731911E-4,0.10415575,0.2262085,-0.04460449,0.04991455,97.0
41414,0.10090724,0.22802465,0.27283877,0.2262085,-0.04460449,0.04991455,97.0
41415,0.10090724,0.22802465,0.27283877,0.19328614,0.010620117,0.035046387,97.0
41416,0.044251174,0.1910623,0.18643507,0.19328614,0.010620117,0.035046387,97.0
41417,0.044251174,0.1910623,0.18643507,0.25063476,0.021240234,0.010620117,97.0
41418,-0.045385197,-0.13690846,-0.12773183,0.25063476,0.021240234,0.010620117,97.0
41419,-0.045385197,-0.13690846,-0.12773183,0.44604492,0.014868164,-0.0021240234,97.0
41420,-0.1358565,-0.41923136,-0.37188762,0.44604492,0.014868164,-0.0021240234,97.0
41421,-0.1358565,-0.41923136,-0.37188762,0.55755615,-0.04991455,-0.014868164,97.0
41422,-0.16118765,-0.35638118,-0.31010774,0.55755615,-0.04991455,-0.014868164,97.0
41423,-0.16118765,-0.35638118,-0.31010774,0.4333008,-0.059472658,0.0021240234,97.0
41424,-0.082746506,-0.06832029,-0.051638447,0.4333008,-0.059472658,0.0021240234,97.0
41425,-0.082746506,-0.06832029,-0.051638447,0.35895997,-0.06690674,-0.0010620117,97.0
41426,0.048634343,0.14776076,0.13276151,0.35895997,-0.06690674,-0.0010620117,97.0
41427,0.048634343,0.14776076,0.13276151,0.32603762,-0.039294433,0.009558106,97.0
41428,0.11821656,0.14329407,0.10773509,0.32603762,-0.039294433,0.009558106,97.0
41429,0.11821656,0.14329407,0.10773509,0.3430298,-0.0361084,0.020178223,97.0
41430,0.0821587,0.005895016,0.015607018,0.3430298,-0.0361084,0.020178223,97.0
41431,0.0821587,0.005895016,0.015607018,0.3175415,-0.040356446,0.03717041,97.0
41432,0.020866126,-0.108491994,-0.025600323,0.3175415,-0.040356446,0.03717041,97.0
41433,0.020866126,-0.108491994,-0.025600323,0.2814331,-0.04141846,0.06584473,97.0
41434,0.016314477,-0.08552407,-0.015426548,0.2814331,-0.04141846,0.06584473,97.0
41435,0.016314477,-0.08552407,-0.015426548,0.3154175,-0.04141846,0.07434082,97.0
41436,0.033950016,0.089808285,0.039135814,0.3154175,-0.04141846,0.07434082,97.0
41437,0.033950016,0.089808285,0.039135814,0.3058594,-0.032922365,0.07434082,97.0
41438,0.024657577,0.25658786,0.10887213,0.3058594,-0.032922365,0.07434082,97.0
41439,0.024657577,0.25658786,0.10887213,0.26019287,-0.009558106,0.06159668,97.0
41440,0.006127417,0.290219,0.13182427,0.26019287,-0.009558106,0.06159668,97.0
41441,0.006127417,0.290219,0.13182427,0.19753419,-0.004248047,0.04460449,97.0
41442,-0.009477943,0.22688957,0.10193159,0.19753419,-0.004248047,0.04460449,97.0
41443,-0.009477943,0.22688957,0.10193159,0.08920898,0.009558106,0.028674318,97.0
41444,-0.028041333,0.12629925,0.054091662,0.08920898,0.009558106,0.028674318,97.0
41445,-0.028041333,0.12629925,0.054091662,-0.023364259,0.021240234,0.020178223,97.0
41446,-0.05447653,0.002296716,-0.009595327,-0.023364259,0.021240234,0.020178223,97.0
41447,-0.05447653,0.002296716,-0.009595327,-0.05628662,0.0180542,0.007434082,97.0
41448,-0.05217497,-0.08169535,-0.08093066,-0.05628662,0.0180542,0.007434082,97.0
41449,-0.05217497,-0.08169535,-0.08093066,-0.058410645,0.014868164,0.009558106,97.0
41450,-0.036259025,-0.14075911,-0.12126309,-0.058410645,0.014868164,0.009558106,97.0
41451,-0.036259025,-0.14075911,-0.12126309,-0.015930176,-0.0010620117,0.0031860352,97.0
41452,-0.0049593747,-0.14552966,-0.09849973,-0.015930176,-0.0010620117,0.0031860352,97.0
41453,-0.0049593747,-0.14552966,-0.09849973,0.025488282,-0.0063720704,0.0053100586,97.0
41454,0.018884063,-0.072563864,-0.04455906,0.025488282,-0.0063720704,0.0053100586,97.0
41455,0.018884063,-0.072563864,-0.04455906,0.035046387,-0.011682129,-0.0021240234,97.0
41456,0.037714675,0.026226252,0.030636933,0.035046387,-0.011682129,-0.0021240234,97.0
41457,0.037714675,0.026226252,0.030636933,0.014868164,0.008496094,-0.010620117,97.0
41458,0.042647332,0.06921098,0.08600857,0.014868164,0.008496094,-0.010620117,97.0
41459,0.042647332,0.06921098,0.08600857,0.027612304,0.027612304,-0.015930176,97.0
41460,0.017186716,0.06731947,0.090877175,0.027612304,0.027612304,-0.015930176,97.0
41461,0.017186716,0.06731947,0.090877175,0.027612304,0.04248047,-0.022302246,97.0
41462,-0.017402962,0.0193585,0.06388826,0.027612304,0.04248047,-0.022302246,97.0
41463,-0.017402962,0.0193585,0.06388826,0.03186035,0.04885254,-0.022302246,97.0
41464,-0.05462061,-0.032413594,0.024596937,0.03186035,0.04885254,-0.022302246,97.0
41465,-0.05462061,-0.032413594,0.024596937,0.014868164,0.04885254,-0.012744141,97.0
41466,-0.097505085,-0.052847378,-0.021020696,0.014868164,0.04885254,-0.012744141,97.0
41467,-0.097505085,-0.052847378,-0.021020696,0.012744141,0.028674318,-0.010620117,97.0
41468,-0.13658561,-0.06948738,-0.03986343,0.012744141,0.028674318,-0.010620117,97.0
41469,-0.13658561,-0.06948738,-0.03986343,-0.0053100586,-0.0021240234,0.010620117,97.0
41470,-0.11617766,-0.046800844,-0.052813597,-0.0053100586,-0.0021240234,0.010620117,97.0
41471,-0.11617766,-0.046800844,-0.052813597,0.011682129,-0.038232423,0.04141846,97.0
41472,-0.009677976,0.029099852,-0.055434473,0.011682129,-0.038232423,0.04141846,97.0
41473,-0.009677976,0.029099852,-0.055434473,-0.0010620117,-0.06690674,0.0722168,97.0
41474,0.14122002,0.07774766,-0.02726994,-0.0010620117,-0.06690674,0.0722168,97.0
41475,0.14122002,0.07774766,-0.02726994,0.010620117,-0.0722168,0.0998291,97.0
41476,0.24965814,0.07674891,0.017405238,0.010620117,-0.0722168,0.0998291,97.0
41477,0.24965814,0.07674891,0.017405238,0.011682129,-0.057348635,0.107263185,97.0
41478,0.23230708,0.062058315,0.064607784,0.011682129,-0.057348635,0.107263185,97.0
41479,0.23230708,0.062058315,0.064607784,-0.03717041,-0.027612304,0.10195313,97.0
41480,0.101653755,0.034802914,0.08459638,-0.03717041,-0.027612304,0.10195313,97.0
41481,0.101653755,0.034802914,0.08459638,-0.09664307,-0.009558106,0.081774905,97.0
41482,-0.06652856,-0.039943308,0.026588239,-0.09664307,-0.009558106,0.081774905,97.0
41483,-0.06652856,-0.039943308,0.026588239,-0.14124756,0.007434082,0.060534667,97.0
41484,-0.06652856,-0.039943308,0.026588239,-0.14124756,0.007434082,0.060534667,96.0
41485,-0.160425,-0.15058258,-0.08804338,-0.14124756,0.007434082,0.060534667,96.0
41486,-0.160425,-0.15058258,-0.08804338,-0.05628662,-0.011682129,0.03717041,96.0
41487,-0.16103044,-0.20393774,-0.15141615,-0.05628662,-0.011682129,0.03717041,96.0
41488,-0.16103044,-0.20393774,-0.15141615,-0.04248047,-0.023364259,0.029736329,96.0
41489,-0.10509389,-0.1687044,-0.119631454,-0.04248047,-0.023364259,0.029736329,96.0
41490,-0.10509389,-0.1687044,-0.119631454,-0.026550293,-0.032922365,0.040356446,96.0
41491,-0.029875897,-0.072365865,-0.05262655,-0.026550293,-0.032922365,0.040356446,96.0
41492,-0.029875897,-0.072365865,-0.05262655,-0.0180542,-0.038232423,0.04991455,96.0
41493,0.018360026,0.037517462,0.015125321,-0.0180542,-0.038232423,0.04991455,96.0
41494,0.018360026,0.037517462,0.015125321,-0.013806152,-0.04460449,0.05628662,96.0
41495,0.022097692,0.11332696,0.057388343,-0.013806152,-0.04460449,0.05628662,96.0
41496,0.022097692,0.11332696,0.057388343,-0.015930176,-0.043542482,0.0541626,96.0
41497,0.02466058,0.11098628,0.07468265,-0.015930176,-0.043542482,0.0541626,96.0
41498,0.02466058,0.11098628,0.07468265,0.004248047,-0.039294433,0.046728518,96.0
41499,0.03073921,0.070100054,0.0727344,0.004248047,-0.039294433,0.046728518,96.0
41500,0.03073921,0.070100054,0.0727344,-0.0053100586,-0.027612304,0.045666505,96.0
41501,0.028778382,0.030909143,0.05672268,-0.0053100586,-0.027612304,0.045666505,96.0
41502,0.028778382,0.030909143,0.05672268,-0.010620117,-0.016992187,0.040356446,96.0
41503,0.0256228,-0.010795146,0.021891814,-0.010620117,-0.016992187,0.040356446,96.0
41504,0.0256228,-0.010795146,0.021891814,-0.0031860352,-0.0031860352,0.033984374,96.0
41505,0.008694038,-0.013702035,-0.009854712,-0.0031860352,-0.0031860352,0.033984374,96.0
41506,0.008694038,-0.013702035,-0.009854712,-0.004248047,0.010620117,0.03186035,96.0
41507,-0.018496431,0.011047646,-0.011973128,-0.004248047,0.010620117,0.03186035,96.0
41508,-0.018496431,0.011047646,-0.011973128,-0.016992187,0.02442627,0.016992187,96.0
41509,-0.04300759,0.018469468,-0.0039022341,-0.016992187,0.02442627,0.016992187,96.0
41510,-0.04300759,0.018469468,-0.0039022341,-0.03186035,0.03717041,0.011682129,96.0
41511,-0.045685373,0.0029225498,0.0037263557,-0.03186035,0.03717041,0.011682129,96.0
41512,-0.045685373,0.0029225498,0.0037263557,-0.043542482,0.047790527,0.010620117,96.0
41513,-0.068457484,0.0075748563,-0.02739001,-0.043542482,0.047790527,0.010620117,96.0
41514,-0.068457484,0.0075748563,-0.02739001,-0.060534667,0.043542482,-0.004248047,96.0
41515,-0.1040946,0.005962223,-0.09681435,-0.060534667,0.043542482,-0.004248047,96.0
41516,-0.1040946,0.005962223,-0.09681435,-0.070092775,0.032922365,-0.029736329,96.0
41517,-0.11404961,-0.03800366,-0.14159943,-0.070092775,0.032922365,-0.029736329,96.0
41518,-0.11404961,-0.03800366,-0.14159943,-0.059472658,0.009558106,-0.047790527,96.0
41519,-0.064555116,-0.068684176,-0.1083357,-0.059472658,0.009558106,-0.047790527,96.0
41520,-0.064555116,-0.068684176,-0.1083357,-0.0637207,-0.0021240234,-0.0637207,96.0
41521,0.012198679,-0.06623885,-0.0318712,-0.0637207,-0.0021240234,-0.0637207,96.0
41522,0.012198679,-0.06623885,-0.0318712,-0.06265869,-0.007434082,-0.0722168,96.0
41523,0.06898746,-0.022302601,0.029141713,-0.06265869,-0.007434082,-0.0722168,96.0
41524,0.06898746,-0.022302601,0.029141713,-0.06478272,-0.0053100586,-0.07752686,96.0
41525,0.07082718,0.03268282,0.047666397,-0.06478272,-0.0053100586,-0.07752686,96.0
41526,0.07082718,0.03268282,0.047666397,-0.07327881,-0.0063720704,-0.093457036,96.0
41527,0.051656857,0.025621355,0.065354794,-0.07327881,-0.0063720704,-0.093457036,96.0
41528,0.051656857,0.025621355,0.065354794,-0.052038576,0.0,-0.10089111,96.0
41529,0.060209766,-0.049144033,0.07680777,-0.052038576,0.0,-0.10089111,96.0
41530,0.060209766,-0.049144033,0.07680777,-0.021240234,0.0063720704,-0.08496094,96.0
41531,0.09509164,-0.093734175,0.08748381,-0.021240234,0.0063720704,-0.08496094,96.0
41532,0.09509164,-0.093734175,0.08748381,0.0063720704,0.014868164,-0.039294433,96.0
41533,0.099559635,-0.07037308,0.065250725,0.0063720704,0.014868164,-0.039294433,96.0
41534,0.099559635,-0.07037308,0.065250725,0.053100586,0.0180542,-0.0053100586,96.0
41535,0.063510016,-0.014843386,0.021023821,0.053100586,0.0180542,-0.0053100586,96.0
41536,0.063510016,-0.014843386,0.021023821,0.093457036,0.016992187,0.023364259,96.0
41537,0.020974025,0.026345506,-0.0010886565,0.093457036,0.016992187,0.023364259,96.0
41538,0.020974025,0.026345506,-0.0010886565,0.10407715,0.014868164,0.043542482,96.0
41539,-0.011394605,0.06773168,0.0049152076,0.10407715,0.014868164,0.043542482,96.0
41540,-0.011394605,0.06773168,0.0049152076,0.09239502,0.0180542,0.047790527,96.0
41541,-0.04101266,0.11470781,0.0037368536,0.09239502,0.0180542,0.047790527,96.0
41542,-0.04101266,0.11470781,0.0037368536,0.06690674,0.016992187,0.04460449,96.0
41543,-0.07343513,0.11915883,-0.012891866,0.06690674,0.016992187,0.04460449,96.0
41544,-0.07343513,0.11915883,-0.012891866,0.023364259,0.012744141,0.03079834,96.0
41545,-0.09445367,0.057204507,-0.039378434,0.023364259,0.012744141,0.03079834,96.0
41546,-0.09445367,0.057204507,-0.039378434,0.0021240234,0.0053100586,0.016992187,96.0
41547,-0.09670552,-0.031397037,-0.054708313,0.0021240234,0.0053100586,0.016992187,96.0
41548,-0.09670552,-0.031397037,-0.054708313,-0.012744141,0.0021240234,0.0063720704,96.0
41549,-0.06827018,-0.090425245,-0.05143267,-0.012744141,0.0021240234,0.0063720704,96.0
41550,-0.06827018,-0.090425245,-0.05143267,-0.014868164,-0.008496094,0.0053100586,96.0
41551,-0.0069965124,-0.08869762,-0.037886858,-0.014868164,-0.008496094,0.0053100586,96.0
41552,-0.0069965124,-0.08869762,-0.037886858,0.004248047,-0.011682129,0.007434082,96.0
41553,0.060357384,-0.044566497,-0.01014347,0.004248047,-0.011682129,0.007434082,96.0
41554,0.060357384,-0.044566497,-0.01014347,0.026550293,-0.009558106,0.009558106,96.0
41555,0.08816628,0.008572878,0.026540985,0.026550293,-0.009558106,0.009558106,96.0
41556,0.08816628,0.008572878,0.026540985,0.032922365,0.0010620117,0.015930176,96.0
41557,0.052344546,0.035349514,0.04791736,0.032922365,0.0010620117,0.015930176,96.0
41558,0.052344546,0.035349514,0.04791736,0.028674318,0.007434082,0.015930176,96.0
41559,0.013836086,0.045662425,0.027115628,0.028674318,0.007434082,0.015930176,96.0
41560,0.013836086,0.045662425,0.027115628,0.025488282,0.008496094,0.013806152,96.0
41561,-0.014858872,0.05048258,-0.0123895295,0.025488282,0.008496094,0.013806152,96.0
41562,-0.014858872,0.05048258,-0.0123895295,0.022302246,0.0021240234,0.007434082,96.0
41563,-0.030307509,0.024944171,-0.020153323,0.022302246,0.0021240234,0.007434082,96.0
41564,-0.030307509,0.024944171,-0.020153323,0.012744141,0.0010620117,0.0010620117,96.0
41565,-0.027908117,-0.012002669,0.009805076,0.012744141,0.0010620117,0.0010620117,96.0
41566,-0.027908117,-0.012002669,0.009805076,0.0,0.0053100586,-0.0031860352,96.0
41567,0.007129073,-0.006062098,0.06791486,0.0,0.0053100586,-0.0031860352,96.0
41568,0.007129073,-0.006062098,0.06791486,-0.050976563,0.028674318,-0.013806152,96.0
41569,0.03637953,0.014351979,0.09557945,-0.050976563,0.028674318,-0.013806152,96.0
41570,0.03637953,0.014351979,0.09557945,-0.045666505,0.050976563,-0.023364259,96.0
41571,0.008034289,0.0039498433,0.04515253,-0.045666505,0.050976563,-0.023364259,96.0
41572,0.008034289,0.0039498433,0.04515253,-0.047790527,0.05522461,-0.016992187,96.0
41573,-0.06520343,-0.013490513,-0.06642924,-0.047790527,0.05522461,-0.016992187,96.0
41574,-0.06520343,-0.013490513,-0.06642924,-0.06796875,0.033984374,-0.013806152,96.0
41575,-0.08911343,-0.011268482,-0.13626108,-0.06796875,0.033984374,-0.013806152,96.0
41576,-0.08911343,-0.011268482,-0.13626108,-0.06265869,0.004248047,-0.0053100586,96.0
41577,-0.04397141,0.016766466,-0.11596687,-0.06265869,0.004248047,-0.0053100586,96.0
41578,-0.04397141,0.016766466,-0.11596687,-0.060534667,-0.011682129,0.0,96.0
41579,-0.0024134554,0.06006845,-0.052771054,-0.060534667,-0.011682129,0.0,96.0
41580,-0.0024134554,0.06006845,-0.052771054,-0.08283692,-0.019116212,-0.0031860352,96.0
41581,-0.008119728,0.08398005,-0.0029468257,-0.08283692,-0.019116212,-0.0031860352,96.0
41582,-0.008119728,0.08398005,-0.0029468257,-0.12213135,-0.019116212,-0.014868164,96.0
41583,-0.029664729,0.04412496,0.026890587,-0.12213135,-0.019116212,-0.014868164,96.0
41584,-0.029664729,0.04412496,0.026890587,-0.12956543,-0.013806152,-0.04248047,96.0
41585,-0.019654635,-0.06056185,0.03672243,-0.12956543,-0.013806152,-0.04248047,96.0
41586,-0.019654635,-0.06056185,0.03672243,-0.083898924,-0.0010620117,-0.053100586,96.0
41587,-0.012037184,-0.11544167,0.020344742,-0.083898924,-0.0010620117,-0.053100586,96.0
41588,-0.012037184,-0.11544167,0.020344742,-0.083898924,-0.0010620117,-0.053100586,96.0
41589,-0.012037184,-0.11544167,0.020344742,-0.087084964,-0.0010620117,-0.05522461,96.0
41590,-0.018028185,-0.09074201,-0.019808192,-0.087084964,-0.0010620117,-0.05522461,96.0
41591,-0.018028185,-0.09074201,-0.019808192,-0.06690674,0.0,-0.06584473,96.0
41592,-0.0119201075,-0.06879722,-0.05195495,-0.06690674,0.0,-0.06584473,96.0
41593,-0.0119201075,-0.06879722,-0.05195495,-0.02442627,-0.008496094,-0.06903076,96.0
41594,0.024179734,-0.060396668,-0.025023434,-0.02442627,-0.008496094,-0.06903076,96.0
41595,0.024179734,-0.060396668,-0.025023434,-0.021240234,-0.007434082,-0.059472658,96.0
41596,0.06514457,-0.045180127,0.017469047,-0.021240234,-0.007434082,-0.059472658,96.0
41597,0.06514457,-0.045180127,0.017469047,0.011682129,-0.010620117,-0.04991455,96.0
41598,0.07784808,-0.0056875595,0.022263812,0.011682129,-0.010620117,-0.04991455,96.0
41599,0.07784808,-0.0056875595,0.022263812,0.023364259,-0.013806152,-0.04141846,96.0
41600,0.0647687,0.034610108,0.02681984,0.023364259,-0.013806152,-0.04141846,96.0
41601,0.0647687,0.034610108,0.02681984,0.014868164,-0.019116212,-0.033984374,96.0
41602,0.06446145,0.024074808,0.06853839,0.014868164,-0.019116212,-0.033984374,96.0
41603,0.06446145,0.024074808,0.06853839,0.021240234,-0.009558106,-0.020178223,96.0
41604,0.07323664,0.038180746,0.0902189,0.021240234,-0.009558106,-0.020178223,96.0
41605,0.07323664,0.038180746,0.0902189,0.009558106,-0.007434082,0.0,96.0
41606,0.06253219,0.09784196,0.048054025,0.009558106,-0.007434082,0.0,96.0
41607,0.06253219,0.09784196,0.048054025,-0.014868164,-0.007434082,0.022302246,96.0
41608,0.02943249,0.12357387,-4.361719E-4,-0.014868164,-0.007434082,0.022302246,96.0
41609,0.02943249,0.12357387,-4.361719E-4,-0.035046387,-0.021240234,0.025488282,96.0
41610,-0.023670807,0.12929122,-0.014448062,-0.035046387,-0.021240234,0.025488282,96.0
41611,-0.023670807,0.12929122,-0.014448062,-0.10089111,-0.016992187,0.0180542,96.0
41612,-0.10798694,0.070156604,-0.04761802,-0.10089111,-0.016992187,0.0180542,96.0
41613,-0.10798694,0.070156604,-0.04761802,-0.08602295,-0.014868164,-0.015930176,96.0
41614,-0.18167764,-0.041592002,-0.062361997,-0.08602295,-0.014868164,-0.015930176,96.0
41615,-0.18167764,-0.041592002,-0.062361997,-0.08920898,-0.014868164,-0.033984374,96.0
41616,-0.17396761,-0.13052702,-0.023900827,-0.08920898,-0.014868164,-0.033984374,96.0
41617,-0.17396761,-0.13052702,-0.023900827,-0.08602295,-0.0031860352,-0.040356446,96.0
41618,-0.106410414,-0.18011741,-0.0055830646,-0.08602295,-0.0031860352,-0.040356446,96.0
41619,-0.106410414,-0.18011741,-0.0055830646,-0.06584473,0.004248047,-0.04141846,96.0
41620,-0.013241127,-0.21644501,-0.020701803,-0.06584473,0.004248047,-0.04141846,96.0
41621,-0.013241127,-0.21644501,-0.020701803,-0.020178223,0.010620117,-0.03717041,96.0
41622,0.06279577,-0.22916187,-0.025850993,-0.020178223,0.010620117,-0.03717041,96.0
41623,0.06279577,-0.22916187,-0.025850993,0.03717041,0.0180542,-0.029736329,96.0
41624,0.109123334,-0.1998212,-0.026747689,0.03717041,0.0180542,-0.029736329,96.0
41625,0.109123334,-0.1998212,-0.026747689,0.10089111,0.023364259,-0.015930176,96.0
41626,0.11884164,-0.1331724,-0.0167961,0.10089111,0.023364259,-0.015930176,96.0
41627,0.11884164,-0.1331724,-0.0167961,0.15186767,0.019116212,0.0021240234,96.0
41628,0.15052986,-0.06708479,-0.026962273,0.15186767,0.019116212,0.0021240234,96.0
41629,0.15052986,-0.06708479,-0.026962273,0.098767094,0.015930176,0.03186035,96.0
41630,0.14358063,-0.040606305,-0.03665771,0.098767094,0.015930176,0.03186035,96.0
41631,0.14358063,-0.040606305,-0.03665771,0.06159668,0.033984374,0.08071289,96.0
41632,0.07762085,0.031186834,-0.11621582,0.06159668,0.033984374,0.08071289,96.0
41633,0.07762085,0.031186834,-0.11621582,0.18160401,-0.027612304,0.08920898,96.0
41634,0.004503906,0.091941655,-0.10743798,0.18160401,-0.027612304,0.08920898,96.0
41635,0.004503906,0.091941655,-0.10743798,0.16885987,-0.032922365,0.06796875,96.0
41636,-0.19306436,0.32096544,-0.004383005,0.16885987,-0.032922365,0.06796875,96.0
41637,-0.19306436,0.32096544,-0.004383005,0.15080567,-0.046728518,0.021240234,96.0
41638,-0.22209066,0.31265613,0.035629332,0.15080567,-0.046728518,0.021240234,96.0
41639,-0.22209066,0.31265613,0.035629332,0.14974366,-0.050976563,-0.0053100586,96.0
41640,-0.2852409,0.3827177,0.21196294,0.14974366,-0.050976563,-0.0053100586,96.0
41641,-0.2852409,0.3827177,0.21196294,0.12000733,-0.02442627,-0.070092775,96.0
41642,-0.21917172,0.30701646,0.2309229,0.12000733,-0.02442627,-0.070092775,96.0
41643,-0.21917172,0.30701646,0.2309229,0.07752686,-0.007434082,-0.083898924,96.0
41644,-0.010212861,0.13284461,0.2411226,0.07752686,-0.007434082,-0.083898924,96.0
41645,-0.010212861,0.13284461,0.2411226,-0.09239502,0.058410645,-0.08283692,96.0
41646,0.052315548,0.017799139,0.14055434,-0.09239502,0.058410645,-0.08283692,96.0
41647,0.052315548,0.017799139,0.14055434,-0.08496094,0.060534667,-0.07646485,96.0
41648,0.10185,-0.21489887,-0.13234413,-0.08496094,0.060534667,-0.07646485,96.0
41649,0.10185,-0.21489887,-0.13234413,-0.009558106,0.03079834,-0.07965088,96.0
41650,0.080063984,-0.1943312,-0.15156622,-0.009558106,0.03079834,-0.07965088,96.0
41651,0.080063984,-0.1943312,-0.15156622,0.0,0.025488282,-0.06903076,96.0
41652,0.09925627,-0.16280138,-0.13407037,0.0,0.025488282,-0.06903076,96.0
41653,0.09925627,-0.16280138,-0.13407037,0.058410645,-0.0053100586,-0.043542482,96.0
41654,0.09172191,-0.1277997,-0.090544865,0.058410645,-0.0053100586,-0.043542482,96.0
41655,0.09172191,-0.1277997,-0.090544865,0.06584473,-0.007434082,-0.040356446,96.0
41656,0.08591415,-0.050420918,-0.0023431173,0.06584473,-0.007434082,-0.040356446,96.0
41657,0.08591415,-0.050420918,-0.0023431173,0.06796875,0.0,-0.032922365,96.0
41658,0.060650267,0.017524593,0.0788384,0.06796875,0.0,-0.032922365,96.0
41659,0.060650267,0.017524593,0.0788384,0.07540283,0.013806152,-0.03079834,96.0
41660,0.026486523,0.042047016,0.09466252,0.07540283,0.013806152,-0.03079834,96.0
41661,0.026486523,0.042047016,0.09466252,0.06478272,0.025488282,-0.03079834,96.0
41662,-0.01163549,0.039081953,0.031027865,0.06478272,0.025488282,-0.03079834,96.0
41663,-0.01163549,0.039081953,0.031027865,0.06159668,0.028674318,-0.03186035,96.0
41664,-0.03296562,-0.0059292614,-0.016229954,0.06159668,0.028674318,-0.03186035,96.0
41665,-0.03296562,-0.0059292614,-0.016229954,0.06796875,0.032922365,-0.025488282,96.0
41666,-0.047930114,-0.0064646006,-0.049641676,0.06796875,0.032922365,-0.025488282,96.0
41667,-0.047930114,-0.0064646006,-0.049641676,0.06265869,0.022302246,-0.03186035,96.0
41668,-0.064686865,0.03915205,-0.07390524,0.06265869,0.022302246,-0.03186035,96.0
41669,-0.064686865,0.03915205,-0.07390524,0.029736329,0.008496094,-0.03079834,96.0
41670,-0.061563946,0.033653185,-0.058928877,0.029736329,0.008496094,-0.03079834,96.0
41671,-0.061563946,0.033653185,-0.058928877,0.03186035,-0.004248047,-0.038232423,96.0
41672,-0.020528015,-0.0018982515,-0.016613318,0.03186035,-0.004248047,-0.038232423,96.0
41673,-0.020528015,-0.0018982515,-0.016613318,0.039294433,-0.0021240234,-0.033984374,96.0
41674,0.046187453,-0.055192918,0.013589229,0.039294433,-0.0021240234,-0.033984374,96.0
41675,0.046187453,-0.055192918,0.013589229,-0.0053100586,0.008496094,-0.021240234,96.0
41676,0.07973561,-0.09658354,0.007856246,-0.0053100586,0.008496094,-0.021240234,96.0
41677,0.07973561,-0.09658354,0.007856246,-0.004248047,0.007434082,-0.008496094,96.0
41678,0.03737247,-0.06261839,-0.02724772,-0.004248047,0.007434082,-0.008496094,96.0
41679,0.03737247,-0.06261839,-0.02724772,0.025488282,-0.009558106,-0.0010620117,96.0
41680,-0.05680857,0.060244642,-0.035079427,0.025488282,-0.009558106,-0.0010620117,96.0
41681,-0.05680857,0.060244642,-0.035079427,0.06903076,-0.015930176,-0.027612304,96.0
41682,-0.13177499,0.17940909,0.010669371,0.06903076,-0.015930176,-0.027612304,96.0
41683,-0.13177499,0.17940909,0.010669371,0.06584473,-0.03186035,-0.04141846,96.0
41684,-0.11119391,0.20182806,0.06745884,0.06584473,-0.03186035,-0.04141846,96.0
41685,-0.11119391,0.20182806,0.06745884,0.0010620117,-0.0180542,-0.0541626,96.0
41686,-0.015053764,0.10072026,0.09489725,0.0010620117,-0.0180542,-0.0541626,96.0
41687,-0.015053764,0.10072026,0.09489725,-0.040356446,-0.008496094,-0.043542482,96.0
41688,0.050688922,-0.023830533,0.06225813,-0.040356446,-0.008496094,-0.043542482,96.0
41689,0.050688922,-0.023830533,0.06225813,-0.04460449,-0.0021240234,-0.04248047,96.0
41690,0.050688922,-0.023830533,0.06225813,-0.04460449,-0.0021240234,-0.04248047,96.0
41691,0.061058953,-0.09664011,0.0016863868,-0.04460449,-0.0021240234,-0.04248047,96.0
41692,0.061058953,-0.09664011,0.0016863868,-0.028674318,0.0031860352,-0.0361084,96.0
41693,0.046881832,-0.09266853,-0.025628429,-0.028674318,0.0031860352,-0.0361084,96.0
41694,0.046881832,-0.09266853,-0.025628429,-0.014868164,-0.004248047,-0.032922365,96.0
41695,0.028936129,-0.04836578,-0.022590147,-0.014868164,-0.004248047,-0.032922365,96.0
41696,0.028936129,-0.04836578,-0.022590147,-0.032922365,0.0021240234,-0.020178223,96.0
41697,0.017924294,-0.027193606,-0.0105159655,-0.032922365,0.0021240234,-0.020178223,96.0
41698,0.017924294,-0.027193606,-0.0105159655,0.0,-0.0053100586,-0.026550293,96.0
41699,0.008992756,-0.01196485,-0.017275078,0.0,-0.0053100586,-0.026550293,96.0
41700,0.008992756,-0.01196485,-0.017275078,0.0031860352,-0.007434082,-0.026550293,96.0
41701,0.013163444,-0.0066666007,-0.014540277,0.0031860352,-0.007434082,-0.026550293,96.0
41702,0.013163444,-0.0066666007,-0.014540277,0.0,-0.004248047,-0.029736329,96.0
41703,0.012544915,-0.0015735105,0.0035167038,0.0,-0.004248047,-0.029736329,96.0
41704,0.012544915,-0.0015735105,0.0035167038,-0.0021240234,-0.0031860352,-0.03186035,96.0
41705,0.0038591772,0.021617167,-0.0012515783,-0.0021240234,-0.0031860352,-0.03186035,96.0
41706,0.0038591772,0.021617167,-0.0012515783,-0.011682129,-0.009558106,-0.038232423,96.0
41707,-0.0020884387,0.055452913,-0.03209257,-0.011682129,-0.009558106,-0.038232423,96.0
41708,-0.0020884387,0.055452913,-0.03209257,-0.012744141,-0.021240234,-0.046728518,96.0
41709,-0.003745947,0.044215843,-0.04149437,-0.012744141,-0.021240234,-0.046728518,96.0
41710,-0.003745947,0.044215843,-0.04149437,-0.007434082,-0.021240234,-0.047790527,96.0
41711,0.015289377,-0.018338263,-0.010588074,-0.007434082,-0.021240234,-0.047790527,96.0
41712,0.015289377,-0.018338263,-0.010588074,-0.007434082,-0.012744141,-0.04141846,96.0
41713,0.03624273,-0.056772664,0.018165283,-0.007434082,-0.012744141,-0.04141846,96.0
41714,0.03624273,-0.056772664,0.018165283,-0.0053100586,-0.004248047,-0.043542482,96.0
41715,0.010134321,-0.026131026,0.010552734,-0.0053100586,-0.004248047,-0.043542482,96.0
41716,0.010134321,-0.026131026,0.010552734,-0.010620117,-0.007434082,-0.050976563,96.0
41717,-0.07068893,0.015057094,0.031977344,-0.010620117,-0.007434082,-0.050976563,96.0
41718,-0.07068893,0.015057094,0.031977344,-0.029736329,-0.022302246,-0.057348635,96.0
41719,-0.13865563,-0.033657454,0.10065512,-0.029736329,-0.022302246,-0.057348635,96.0
41720,-0.13865563,-0.033657454,0.10065512,-0.0361084,-0.0180542,-0.04991455,96.0
41721,-0.16915205,-0.20715058,0.009784348,-0.0361084,-0.0180542,-0.04991455,96.0
41722,-0.16915205,-0.20715058,0.009784348,0.08283692,-0.07115479,-0.047790527,96.0
41723,-0.11918395,-0.43010035,-0.13650846,0.08283692,-0.07115479,-0.047790527,96.0
41724,-0.11918395,-0.43010035,-0.13650846,0.23895264,-0.052038576,-0.04991455,96.0
41725,-0.0025371015,-0.37547678,-0.14981957,0.23895264,-0.052038576,-0.04991455,96.0
41726,-0.0025371015,-0.37547678,-0.14981957,0.41312256,-0.12000733,-0.043542482,96.0
41727,0.09771398,0.037802175,-0.14401338,0.41312256,-0.12000733,-0.043542482,96.0
41728,0.09771398,0.037802175,-0.14401338,0.2166504,-0.10407715,-0.009558106,96.0
41729,0.09692118,0.29584235,-0.105054446,0.2166504,-0.10407715,-0.009558106,96.0
41730,0.09692118,0.29584235,-0.105054446,0.17735596,-0.09770508,-0.040356446,96.0
41731,0.04791048,0.33544096,0.18789248,0.17735596,-0.09770508,-0.040356446,96.0
41732,0.04791048,0.33544096,0.18789248,0.16992188,-0.07115479,-0.07646485,96.0
41733,0.055100847,0.39190015,0.4715054,0.16992188,-0.07115479,-0.07646485,96.0
41734,0.055100847,0.39190015,0.4715054,0.02442627,-0.011682129,-0.078588866,96.0
41735,0.035609,0.26373982,0.268696,0.02442627,-0.011682129,-0.078588866,96.0
41736,0.035609,0.26373982,0.268696,0.06478272,-0.020178223,-0.095581055,96.0
41737,-0.04852696,-0.22250423,-0.10387863,0.06478272,-0.020178223,-0.095581055,96.0
41738,-0.04852696,-0.22250423,-0.10387863,0.1985962,-0.032922365,-0.07540283,96.0
41739,-0.060012978,-0.5773198,-0.24189197,0.1985962,-0.032922365,-0.07540283,96.0
41740,-0.060012978,-0.5773198,-0.24189197,0.3695801,-0.0361084,-0.06584473,96.0
41741,0.045373406,-0.3244779,-0.18112344,0.3695801,-0.0361084,-0.06584473,96.0
41742,0.045373406,-0.3244779,-0.18112344,0.3525879,-0.0031860352,-0.035046387,96.0
41743,0.11619375,0.1587038,-0.10543342,0.3525879,-0.0031860352,-0.035046387,96.0
41744,0.11619375,0.1587038,-0.10543342,0.23682861,0.015930176,-0.039294433,96.0
41745,0.083225995,0.41097182,-0.08421246,0.23682861,0.015930176,-0.039294433,96.0
41746,0.083225995,0.41097182,-0.08421246,0.16992188,0.008496094,-0.060534667,96.0
41747,6.9944933E-4,0.35828185,-0.03482602,0.16992188,0.008496094,-0.060534667,96.0
41748,6.9944933E-4,0.35828185,-0.03482602,0.09239502,0.0010620117,-0.07115479,96.0
41749,-0.037282236,0.11958447,0.01612112,0.09239502,0.0010620117,-0.07115479,96.0
41750,-0.037282236,0.11958447,0.01612112,0.07434082,-0.0031860352,-0.052038576,96.0
41751,-0.030350693,-0.0659291,0.005328536,0.07434082,-0.0031860352,-0.052038576,96.0
41752,-0.030350693,-0.0659291,0.005328536,0.14549561,-0.0180542,-0.039294433,96.0
41753,-0.01253739,-0.066024534,-0.038278677,0.14549561,-0.0180542,-0.039294433,96.0
41754,-0.01253739,-0.066024534,-0.038278677,0.14337158,-0.022302246,-0.022302246,96.0
41755,0.04288757,-0.013317674,-0.023628317,0.14337158,-0.022302246,-0.022302246,96.0
41756,0.04288757,-0.013317674,-0.023628317,0.15080567,-0.0063720704,0.0031860352,96.0
41757,0.09095068,0.034768224,0.0584411,0.15080567,-0.0063720704,0.0031860352,96.0
41758,0.09095068,0.034768224,0.0584411,0.11151123,0.009558106,0.016992187,96.0
41759,0.062250294,0.074604124,0.11043696,0.11151123,0.009558106,0.016992187,96.0
41760,0.062250294,0.074604124,0.11043696,-0.032922365,0.038232423,0.023364259,96.0
41761,0.004560977,0.093167186,0.0977734,-0.032922365,0.038232423,0.023364259,96.0
41762,0.004560977,0.093167186,0.0977734,-0.05628662,0.032922365,-0.004248047,96.0
41763,-0.03778188,0.10580817,0.048921846,-0.05628662,0.032922365,-0.004248047,96.0
41764,-0.03778188,0.10580817,0.048921846,-0.1731079,0.038232423,-0.007434082,96.0
41765,-0.048560467,0.022341847,0.0034563243,-0.1731079,0.038232423,-0.007434082,96.0
41766,-0.048560467,0.022341847,0.0034563243,-0.14761963,0.039294433,-0.026550293,96.0
41767,-0.026922103,-0.11258307,-0.02306502,-0.14761963,0.039294433,-0.026550293,96.0
41768,-0.026922103,-0.11258307,-0.02306502,-0.12213135,0.0361084,-0.025488282,96.0
41769,-0.0137618035,-0.16904595,-0.07012438,-0.12213135,0.0361084,-0.025488282,96.0
41770,-0.0137618035,-0.16904595,-0.07012438,-0.13381349,0.026550293,-0.019116212,96.0
41771,-0.020543136,-0.1569897,-0.07564296,-0.13381349,0.026550293,-0.019116212,96.0
41772,-0.020543136,-0.1569897,-0.07564296,-0.08814698,0.008496094,-0.0053100586,96.0
41773,-0.038858823,-0.093816854,-0.04236251,-0.08814698,0.008496094,-0.0053100586,96.0
41774,-0.038858823,-0.093816854,-0.04236251,-0.0361084,-0.012744141,0.007434082,96.0
41775,-0.041926906,-0.01092995,0.021395637,-0.0361084,-0.012744141,0.007434082,96.0
41776,-0.041926906,-0.01092995,0.021395637,-0.028674318,-0.016992187,0.02442627,96.0
41777,-0.0049282424,0.074422546,0.08001934,-0.028674318,-0.016992187,0.02442627,96.0
41778,-0.0049282424,0.074422546,0.08001934,-0.040356446,0.0,0.021240234,96.0
41779,0.014819615,0.16013618,0.11507749,-0.040356446,0.0,0.021240234,96.0
41780,0.014819615,0.16013618,0.11507749,-0.10089111,0.014868164,0.014868164,96.0
41781,0.0019557886,0.16902691,0.100387186,-0.10089111,0.014868164,0.014868164,96.0
41782,0.0019557886,0.16902691,0.100387186,-0.14761963,0.033984374,0.0031860352,96.0
41783,-0.019419257,0.05925718,0.032299496,-0.14761963,0.033984374,0.0031860352,96.0
41784,-0.019419257,0.05925718,0.032299496,-0.1539917,0.035046387,-0.0010620117,96.0
41785,-0.017830327,-0.08411281,-0.028689213,-0.1539917,0.035046387,-0.0010620117,96.0
41786,-0.017830327,-0.08411281,-0.028689213,-0.14761963,0.039294433,-0.0053100586,96.0
41787,0.010369527,-0.16566671,-0.055190142,-0.14761963,0.039294433,-0.0053100586,96.0
41788,0.010369527,-0.16566671,-0.055190142,-0.1263794,0.03717041,-0.0031860352,96.0
41789,0.032563202,-0.20100261,-0.029235123,-0.1263794,0.03717041,-0.0031860352,96.0
41790,0.032563202,-0.20100261,-0.029235123,-0.087084964,0.035046387,-0.0053100586,96.0
41791,0.021411888,-0.23185922,-0.056688882,-0.087084964,0.035046387,-0.0053100586,96.0
41792,0.021411888,-0.23185922,-0.056688882,0.0053100586,0.015930176,-0.010620117,96.0
41793,-0.05265809,-0.2334488,-0.16755569,0.0053100586,0.015930176,-0.010620117,96.0
41794,-0.05265809,-0.2334488,-0.16755569,0.059472658,-0.007434082,-0.028674318,96.0
41795,-0.12269288,-0.22121951,-0.14699623,0.059472658,-0.007434082,-0.028674318,96.0
41796,-0.12269288,-0.22121951,-0.14699623,0.17841797,-0.022302246,-0.04460449,96.0
41797,-0.09590821,0.06158641,0.07024482,0.17841797,-0.022302246,-0.04460449,96.0
41798,-0.09590821,0.06158641,0.07024482,0.19753419,-0.0063720704,-0.10620117,96.0
41799,0.02554394,0.56806797,0.27323687,0.19753419,-0.0063720704,-0.10620117,96.0
41800,0.02554394,0.56806797,0.27323687,-0.05628662,0.059472658,-0.09770508,96.0
41801,0.15567686,0.6160877,0.28013736,-0.05628662,0.059472658,-0.09770508,96.0
41802,0.15567686,0.6160877,0.28013736,-0.1709839,0.087084964,-0.093457036,96.0
41803,0.15567686,0.6160877,0.28013736,-0.1709839,0.087084964,-0.093457036,95.0
41804,0.18667528,0.21561186,0.10748391,-0.1709839,0.087084964,-0.093457036,95.0
41805,0.18667528,0.21561186,0.10748391,-0.22514649,0.09133301,-0.06159668,95.0
41806,0.12683046,-0.054878682,-0.04191815,-0.22514649,0.09133301,-0.06159668,95.0
41807,0.12683046,-0.054878682,-0.04191815,-0.23151855,0.087084964,-0.057348635,95.0
41808,0.08467971,-0.010858506,-0.049342625,-0.23151855,0.087084964,-0.057348635,95.0
41809,0.08467971,-0.010858506,-0.049342625,-0.2984253,0.098767094,-0.046728518,95.0
41810,0.06861046,0.06769258,-0.024996564,-0.2984253,0.098767094,-0.046728518,95.0
41811,0.06861046,0.06769258,-0.024996564,-0.32391357,0.0998291,-0.02442627,95.0
41812,0.016301937,-0.107283935,-0.08051971,-0.32391357,0.0998291,-0.02442627,95.0
41813,0.016301937,-0.107283935,-0.08051971,-0.29099122,0.090270996,-0.007434082,95.0
41814,0.0027510226,-0.43664503,-0.16269457,-0.29099122,0.090270996,-0.007434082,95.0
41815,0.0027510226,-0.43664503,-0.16269457,-0.23258057,0.08071289,-0.04991455,95.0
41816,-0.053475454,-0.36513633,-0.10140811,-0.23258057,0.08071289,-0.04991455,95.0
41817,-0.053475454,-0.36513633,-0.10140811,-0.115759276,0.07327881,-0.08283692,95.0
41818,-0.15662314,0.15885529,0.12730858,-0.115759276,0.07327881,-0.08283692,95.0
41819,-0.15662314,0.15885529,0.12730858,-0.107263185,0.087084964,-0.11363526,95.0
41820,-0.11628972,0.5444548,0.29134881,-0.107263185,0.087084964,-0.11363526,95.0
41821,-0.11628972,0.5444548,0.29134881,-0.23364258,0.14018555,-0.15186767,95.0
41822,-0.008754436,0.41548333,0.2166484,-0.23364258,0.14018555,-0.15186767,95.0
41823,-0.008754436,0.41548333,0.2166484,-0.25594482,0.15611573,-0.16779785,95.0
41824,0.0023226216,0.024915963,0.015432969,-0.25594482,0.15611573,-0.16779785,95.0
41825,0.0023226216,0.024915963,0.015432969,-0.12956543,0.15505372,-0.20603028,95.0
41826,-0.032992978,-0.0033216178,-0.032660946,-0.12956543,0.15505372,-0.20603028,95.0
41827,-0.032992978,-0.0033216178,-0.032660946,-0.15505372,0.17416993,-0.24107666,95.0
41828,-0.0152249485,0.23475724,0.043854147,-0.15505372,0.17416993,-0.24107666,95.0
41829,-0.0152249485,0.23475724,0.043854147,-0.24638672,0.1901001,-0.26550293,95.0
41830,0.037124243,0.18877015,0.014026195,-0.24638672,0.1901001,-0.26550293,95.0
41831,0.037124243,0.18877015,0.014026195,-0.29417726,0.18585205,-0.24957275,95.0
41832,0.0836911,-0.16630566,-0.14029272,-0.29417726,0.18585205,-0.24957275,95.0
41833,0.0836911,-0.16630566,-0.14029272,-0.30479738,0.15505372,-0.22302246,95.0
41834,0.09701879,-0.45852062,-0.27884793,-0.30479738,0.15505372,-0.22302246,95.0
41835,0.09701879,-0.45852062,-0.27884793,-0.32603762,0.13487549,-0.17416993,95.0
41836,0.05144316,-0.489192,-0.3087107,-0.32603762,0.13487549,-0.17416993,95.0
41837,0.05144316,-0.489192,-0.3087107,-0.32391357,0.11257324,-0.12531738,95.0
41838,-0.049140885,-0.3811363,-0.27069902,-0.32391357,0.11257324,-0.12531738,95.0
41839,-0.049140885,-0.3811363,-0.27069902,-0.27399904,0.08920898,-0.081774905,95.0
41840,-0.17022091,-0.3114398,-0.27449378,-0.27399904,0.08920898,-0.081774905,95.0
41841,-0.17022091,-0.3114398,-0.27449378,-0.2516968,0.043542482,-0.04885254,95.0
41842,-0.27096677,-0.36541164,-0.30421418,-0.2516968,0.043542482,-0.04885254,95.0
41843,-0.27096677,-0.36541164,-0.30421418,-0.15611573,-0.023364259,-0.04141846,95.0
41844,-0.30488378,-0.43433368,-0.23756081,-0.15611573,-0.023364259,-0.04141846,95.0
41845,-0.30488378,-0.43433368,-0.23756081,0.016992187,-0.059472658,-0.03186035,95.0
41846,-0.20458817,-0.24973747,-0.004904598,0.016992187,-0.059472658,-0.03186035,95.0
41847,-0.20458817,-0.24973747,-0.004904598,0.10513916,-0.06796875,-0.029736329,95.0
41848,-0.033409312,0.13050789,0.22553189,0.10513916,-0.06796875,-0.029736329,95.0
41849,-0.033409312,0.13050789,0.22553189,0.057348635,-0.05522461,-0.020178223,95.0
41850,0.10066514,0.39608112,0.2734187,0.057348635,-0.05522461,-0.020178223,95.0
41851,0.10066514,0.39608112,0.2734187,0.0031860352,-0.0541626,-0.0031860352,95.0
41852,0.1836327,0.4545236,0.23743613,0.0031860352,-0.0541626,-0.0031860352,95.0
41853,0.1836327,0.4545236,0.23743613,-0.011682129,-0.052038576,0.023364259,95.0
41854,0.24690616,0.41271555,0.28638446,-0.011682129,-0.052038576,0.023364259,95.0
41855,0.24690616,0.41271555,0.28638446,0.038232423,-0.0361084,0.05628662,95.0
41856,0.2836089,0.4274625,0.33244008,0.038232423,-0.0361084,0.05628662,95.0
41857,0.2836089,0.4274625,0.33244008,0.022302246,-0.0063720704,0.070092775,95.0
41858,0.22708246,0.2758445,0.14844719,0.022302246,-0.0063720704,0.070092775,95.0
41859,0.22708246,0.2758445,0.14844719,0.03186035,-0.0031860352,0.13275146,95.0
41860,0.07359712,-0.23033758,-0.19106892,0.03186035,-0.0031860352,0.13275146,95.0
41861,0.07359712,-0.23033758,-0.19106892,0.13912354,-0.058410645,0.18585205,95.0
41862,-0.0626311,-0.65312994,-0.42347282,0.13912354,-0.058410645,0.18585205,95.0
41863,-0.0626311,-0.65312994,-0.42347282,0.24107666,-0.121069334,0.2527588,95.0
41864,-0.15580557,-0.7196475,-0.42420307,0.24107666,-0.121069334,0.2527588,95.0
41865,-0.15580557,-0.7196475,-0.42420307,0.24851075,-0.13699952,0.29630128,95.0
41866,-0.28073576,-0.5272439,-0.31725553,0.24851075,-0.13699952,0.29630128,95.0
41867,-0.28073576,-0.5272439,-0.31725553,0.22408448,-0.18903808,0.2984253,95.0
41868,-0.42165893,-0.39299875,-0.29864085,0.22408448,-0.18903808,0.2984253,95.0
41869,-0.42165893,-0.39299875,-0.29864085,0.11363526,-0.23045655,0.28355715,95.0
41870,-0.47814745,-0.41676718,-0.27614415,0.11363526,-0.23045655,0.28355715,95.0
41871,-0.47814745,-0.41676718,-0.27614415,0.32922363,-0.2814331,0.19222413,95.0
41872,-0.42733,-0.07320869,0.07809591,0.32922363,-0.2814331,0.19222413,95.0
41873,-0.42733,-0.07320869,0.07809591,0.4630371,-0.26656494,0.08814698,95.0
41874,-0.19775999,0.6476953,0.637965,0.4630371,-0.26656494,0.08814698,95.0
41875,-0.19775999,0.6476953,0.637965,0.39613038,-0.17947999,-0.012744141,95.0
41876,0.17643556,1.1613569,0.86541355,0.39613038,-0.17947999,-0.012744141,95.0
41877,0.17643556,1.1613569,0.86541355,0.23045655,-0.10513916,-0.059472658,95.0
41878,0.49725196,1.1059288,0.70114434,0.23045655,-0.10513916,-0.059472658,95.0
41879,0.49725196,1.1059288,0.70114434,-0.016992187,-0.0063720704,-0.13062744,95.0
41880,0.62177616,0.58047056,0.31126946,-0.016992187,-0.0063720704,-0.13062744,95.0
41881,0.62177616,0.58047056,0.31126946,-0.17735596,0.06903076,-0.10620117,95.0
41882,0.54433256,-0.01988864,-0.07554498,-0.17735596,0.06903076,-0.10620117,95.0
41883,0.54433256,-0.01988864,-0.07554498,-0.16992188,0.08283692,-0.057348635,95.0
41884,0.35218972,-0.25796413,-0.19410299,-0.16992188,0.08283692,-0.057348635,95.0
41885,0.35218972,-0.25796413,-0.19410299,-0.26868898,0.05628662,-0.0180542,95.0
41886,0.14386114,-0.045104206,-0.11349772,-0.26868898,0.05628662,-0.0180542,95.0
41887,0.14386114,-0.045104206,-0.11349772,-0.39294434,0.04248047,0.020178223,95.0
41888,0.0019297302,0.051807255,-0.094899744,-0.39294434,0.04248047,0.020178223,95.0
41889,0.0019297302,0.051807255,-0.094899744,-0.20709229,0.011682129,0.014868164,95.0
41890,-0.07240641,-0.06250927,-0.13372009,-0.20709229,0.011682129,0.014868164,95.0
41891,-0.07240641,-0.06250927,-0.13372009,-0.19753419,0.0031860352,0.026550293,95.0
41892,-0.07240641,-0.06250927,-0.13372009,-0.19753419,0.0031860352,0.026550293,95.0
41893,-0.11833772,-0.2216749,-0.16627783,-0.19753419,0.0031860352,0.026550293,95.0
41894,-0.11833772,-0.2216749,-0.16627783,-0.1359375,-0.010620117,0.04460449,95.0
41895,-0.13450173,-0.36486435,-0.17744365,-0.1359375,-0.010620117,0.04460449,95.0
41896,-0.13450173,-0.36486435,-0.17744365,-0.06159668,-0.023364259,0.04991455,95.0
41897,-0.14054815,-0.31358337,-0.12568295,-0.06159668,-0.023364259,0.04991455,95.0
41898,-0.14054815,-0.31358337,-0.12568295,-0.016992187,-0.029736329,0.0361084,95.0
41899,-0.12359576,-0.16072997,-0.053195287,-0.016992187,-0.029736329,0.0361084,95.0
41900,-0.12359576,-0.16072997,-0.053195287,-0.03079834,-0.022302246,0.02442627,95.0
41901,-0.08632778,-0.064814456,-0.020412676,-0.03079834,-0.022302246,0.02442627,95.0
41902,-0.08632778,-0.064814456,-0.020412676,0.027612304,-0.019116212,0.014868164,95.0
41903,-0.039130583,0.008231446,-5.8307126E-4,0.027612304,-0.019116212,0.014868164,95.0
41904,-0.039130583,0.008231446,-5.8307126E-4,0.025488282,-0.019116212,0.0010620117,95.0
41905,0.0035099871,0.09751534,0.029526219,0.025488282,-0.019116212,0.0010620117,95.0
41906,0.0035099871,0.09751534,0.029526219,-0.0021240234,-0.009558106,0.0,95.0
41907,0.030969612,0.078744695,0.029309452,-0.0021240234,-0.009558106,0.0,95.0
41908,0.030969612,0.078744695,0.029309452,0.020178223,-0.007434082,0.0053100586,95.0
41909,0.031941216,-0.008354345,0.0052468777,0.020178223,-0.007434082,0.0053100586,95.0
41910,0.031941216,-0.008354345,0.0052468777,0.078588866,-0.015930176,-0.0021240234,95.0
41911,0.017313227,-0.04568494,0.007566643,0.078588866,-0.015930176,-0.0021240234,95.0
41912,0.017313227,-0.04568494,0.007566643,0.08283692,-0.014868164,0.007434082,95.0
41913,1.2987852E-4,-0.060095318,-0.004322663,0.08283692,-0.014868164,0.007434082,95.0
41914,1.2987852E-4,-0.060095318,-0.004322663,0.12319336,-0.0063720704,0.009558106,95.0
41915,-0.014935158,-0.066826254,-0.042545043,0.12319336,-0.0063720704,0.009558106,95.0
41916,-0.014935158,-0.066826254,-0.042545043,0.13275146,-0.013806152,0.012744141,95.0
41917,-0.022189826,-0.037262276,-0.057363674,0.13275146,-0.013806152,0.012744141,95.0
41918,-0.022189826,-0.037262276,-0.057363674,0.13168946,-0.012744141,0.009558106,95.0
41919,-0.017971588,-0.0127443895,-0.03802961,0.13168946,-0.012744141,0.009558106,95.0
41920,-0.017971588,-0.0127443895,-0.03802961,0.1274414,-0.014868164,0.0053100586,95.0
41921,-0.016159499,-0.0506252,0.017061662,0.1274414,-0.014868164,0.0053100586,95.0
41922,-0.016159499,-0.0506252,0.017061662,0.16036378,-0.016992187,-0.004248047,95.0
41923,-0.023474474,-0.11889371,0.09504582,0.16036378,-0.016992187,-0.004248047,95.0
41924,-0.023474474,-0.11889371,0.09504582,0.24001466,-0.004248047,-0.0010620117,95.0
41925,-0.054936808,-0.20405051,0.14024565,0.24001466,-0.004248047,-0.0010620117,95.0
41926,-0.054936808,-0.20405051,0.14024565,0.35046387,-0.0361084,0.008496094,95.0
41927,-0.05577806,-0.114278,0.06010911,0.35046387,-0.0361084,0.008496094,95.0
41928,-0.05577806,-0.114278,0.06010911,0.34833986,-0.011682129,0.007434082,95.0
41929,0.024298452,0.20584324,-0.018843863,0.34833986,-0.011682129,0.007434082,95.0
41930,0.024298452,0.20584324,-0.018843863,0.14230958,0.016992187,0.019116212,95.0
41931,0.113738075,0.57402515,-0.01882265,0.14230958,0.016992187,0.019116212,95.0
41932,0.113738075,0.57402515,-0.01882265,-0.047790527,0.078588866,-0.06478272,95.0
41933,0.17364427,0.7304115,-0.09658888,-0.047790527,0.078588866,-0.06478272,95.0
41934,0.17364427,0.7304115,-0.09658888,-0.20390625,0.0998291,-0.06265869,95.0
41935,0.1496454,0.40154117,-0.19127257,-0.20390625,0.0998291,-0.06265869,95.0
41936,0.1496454,0.40154117,-0.19127257,-0.24638672,0.04885254,-0.025488282,95.0
41937,0.07509963,-0.045930147,-0.16145311,-0.24638672,0.04885254,-0.025488282,95.0
41938,0.07509963,-0.045930147,-0.16145311,-0.16779785,-0.039294433,-0.008496094,95.0
41939,0.031466424,-0.13950291,0.030908309,-0.16779785,-0.039294433,-0.008496094,95.0
41940,0.031466424,-0.13950291,0.030908309,-0.1985962,-0.04991455,0.007434082,95.0
41941,0.032411903,-0.07869217,0.21909921,-0.1985962,-0.04991455,0.007434082,95.0
41942,0.032411903,-0.07869217,0.21909921,-0.21877442,-0.045666505,0.009558106,95.0
41943,-0.00751774,-0.18386437,0.2869249,-0.21877442,-0.045666505,0.009558106,95.0
41944,-0.00751774,-0.18386437,0.2869249,-0.07327881,-0.043542482,0.015930176,95.0
41945,-0.1454307,-0.38968182,0.31153452,-0.07327881,-0.043542482,0.015930176,95.0
41946,-0.1454307,-0.38968182,0.31153452,-0.020178223,-0.029736329,0.016992187,95.0
41947,-0.30175716,-0.45414048,0.16939366,-0.020178223,-0.029736329,0.016992187,95.0
41948,-0.30175716,-0.45414048,0.16939366,0.032922365,-0.04991455,-0.008496094,95.0
41949,-0.36086375,-0.2962958,-0.095905975,0.032922365,-0.04991455,-0.008496094,95.0
41950,-0.36086375,-0.2962958,-0.095905975,-0.115759276,0.019116212,-0.020178223,95.0
41951,-0.25547567,-0.11937307,-0.30217645,-0.115759276,0.019116212,-0.020178223,95.0
41952,-0.25547567,-0.11937307,-0.30217645,-0.14337158,0.07115479,-0.047790527,95.0
41953,-0.058140308,0.044467367,-0.41405562,-0.14337158,0.07115479,-0.047790527,95.0
41954,-0.058140308,0.044467367,-0.41405562,-0.14124756,0.06584473,-0.06584473,95.0
41955,0.12715718,0.1338527,-0.39865172,-0.14124756,0.06584473,-0.06584473,95.0
41956,0.12715718,0.1338527,-0.39865172,-0.09451904,0.02442627,-0.050976563,95.0
41957,0.23901823,0.12478236,-0.2257207,-0.09451904,0.02442627,-0.050976563,95.0
41958,0.23901823,0.12478236,-0.2257207,-0.011682129,-0.039294433,-0.027612304,95.0
41959,0.26047727,0.14189132,0.029579684,-0.011682129,-0.039294433,-0.027612304,95.0
41960,0.26047727,0.14189132,0.029579684,-0.014868164,-0.06903076,0.004248047,95.0
41961,0.20755175,0.20150134,0.22988933,-0.014868164,-0.06903076,0.004248047,95.0
41962,0.20755175,0.20150134,0.22988933,-0.013806152,-0.07434082,0.0021240234,95.0
41963,0.09538711,0.2890209,0.30693394,-0.013806152,-0.07434082,0.0021240234,95.0
41964,0.09538711,0.2890209,0.30693394,-0.15611573,-0.038232423,0.010620117,95.0
41965,-0.028951548,0.20032072,0.25403103,-0.15611573,-0.038232423,0.010620117,95.0
41966,-0.028951548,0.20032072,0.25403103,-0.1444336,-0.013806152,-0.02442627,95.0
41967,-0.12427208,-0.028793707,0.16534641,-0.1444336,-0.013806152,-0.02442627,95.0
41968,-0.12427208,-0.028793707,0.16534641,-0.26550293,0.025488282,-0.0053100586,95.0
41969,-0.14214228,-0.16173126,0.12340262,-0.26550293,0.025488282,-0.0053100586,95.0
41970,-0.14214228,-0.16173126,0.12340262,-0.2984253,0.060534667,-0.015930176,95.0
41971,-0.10944136,-0.14142114,0.044449627,-0.2984253,0.060534667,-0.015930176,95.0
41972,-0.10944136,-0.14142114,0.044449627,-0.30054933,0.06584473,-0.026550293,95.0
41973,-0.058036488,-0.10108857,-0.070165396,-0.30054933,0.06584473,-0.026550293,95.0
41974,-0.058036488,-0.10108857,-0.070165396,-0.2623169,0.060534667,-0.03186035,95.0
41975,-0.012493644,-0.15214771,-0.16031933,-0.2623169,0.060534667,-0.03186035,95.0
41976,-0.012493644,-0.15214771,-0.16031933,-0.13699952,0.026550293,-0.027612304,95.0
41977,0.012466023,-0.18144718,-0.17548448,-0.13699952,0.026550293,-0.027612304,95.0
41978,0.012466023,-0.18144718,-0.17548448,-0.0637207,-0.0053100586,-0.020178223,95.0
41979,0.025622232,-0.16808255,-0.1241034,-0.0637207,-0.0053100586,-0.020178223,95.0
41980,0.025622232,-0.16808255,-0.1241034,0.04885254,-0.039294433,-0.008496094,95.0
41981,0.032875717,-0.08691965,-0.049172856,0.04885254,-0.039294433,-0.008496094,95.0
41982,0.032875717,-0.08691965,-0.049172856,0.08496094,-0.05522461,-0.0031860352,95.0
41983,0.03174491,0.04538127,0.005925387,0.08496094,-0.05522461,-0.0031860352,95.0
41984,0.03174491,0.04538127,0.005925387,0.09133301,-0.053100586,-0.0021240234,95.0
41985,0.03174491,0.04538127,0.005925387,0.09133301,-0.053100586,-0.0021240234,95.0
41986,0.019182548,0.09431283,0.04010408,0.09133301,-0.053100586,-0.0021240234,95.0
41987,0.019182548,0.09431283,0.04010408,0.10620117,-0.046728518,-0.0063720704,95.0
41988,0.011073578,0.067845285,0.044290297,0.10620117,-0.046728518,-0.0063720704,95.0
