,accx,accy,accz,gyrox,gyroy,gyroz,heart rate
46144,type,type,type,type,type,type,type
46145,-0.20612812,0.019198418,0.17488098,0.012744141,0.087084964,0.30373535,106.0
46146,-0.20612812,0.019198418,0.17488098,-0.14868164,0.023364259,0.22939454,106.0
46147,-0.42913628,0.25790024,-0.14051819,-0.14868164,0.023364259,0.22939454,106.0
46148,-0.42913628,0.25790024,-0.14051819,-0.0361084,0.028674318,0.24001466,106.0
46149,-0.34125805,0.039402008,-0.2600708,-0.0361084,0.028674318,0.24001466,106.0
46150,-0.34125805,0.039402008,-0.2600708,0.039294433,0.053100586,0.2177124,106.0
46151,-0.24923897,-0.23394394,-0.15830994,0.039294433,0.053100586,0.2177124,106.0
46152,-0.24923897,-0.23394394,-0.15830994,0.12000733,0.060534667,0.18054199,106.0
46153,-0.24923897,-0.23394394,-0.15830994,0.059472658,0.070092775,0.18372802,106.0
46154,-0.21641922,-0.2476654,0.07388306,0.059472658,0.070092775,0.18372802,106.0
46155,-0.2332182,-0.120910645,0.26785278,0.059472658,0.070092775,0.18372802,106.0
46156,-0.2332182,-0.120910645,0.26785278,-0.025488282,0.06478272,0.1901001,106.0
46157,-0.24720764,-0.1541996,0.27340698,-0.025488282,0.06478272,0.1901001,106.0
46158,-0.24720764,-0.1541996,0.27340698,-0.0053100586,0.07965088,0.19647217,106.0
46159,-0.27316856,-0.3060007,0.12635803,-0.0053100586,0.07965088,0.19647217,106.0
46160,-0.27316856,-0.3060007,0.12635803,0.059472658,0.07965088,0.18903808,106.0
46161,-0.28975105,-0.38005447,-0.013061523,0.059472658,0.07965088,0.18903808,106.0
46162,-0.28975105,-0.38005447,-0.013061523,0.13381349,0.08071289,0.18372802,106.0
46163,-0.26472282,-0.33392715,-0.063705444,0.13381349,0.08071289,0.18372802,106.0
46164,-0.26472282,-0.33392715,-0.063705444,0.14337158,0.093457036,0.1901001,106.0
46165,-0.2302599,-0.24459553,-0.050430298,0.14337158,0.093457036,0.1901001,106.0
46166,-0.2302599,-0.24459553,-0.050430298,0.13699952,0.093457036,0.20496826,106.0
46167,-0.2126503,-0.18700981,-0.0032653809,0.13699952,0.093457036,0.20496826,106.0
46168,-0.2126503,-0.18700981,-0.0032653809,0.10513916,0.08920898,0.2357666,106.0
46169,-0.20528889,-0.1887188,0.060791016,0.10513916,0.08920898,0.2357666,106.0
46170,-0.20528889,-0.1887188,0.060791016,0.083898924,0.07327881,0.26125488,106.0
46171,-0.18317604,-0.2776718,0.11012268,0.083898924,0.07327881,0.26125488,106.0
46172,-0.18317604,-0.2776718,0.11012268,0.090270996,0.059472658,0.28355715,106.0
46173,-0.16220284,-0.39101028,0.12872314,0.090270996,0.059472658,0.28355715,106.0
46174,-0.16220284,-0.39101028,0.12872314,0.14974366,0.08602295,0.29736328,106.0
46175,-0.1499281,-0.40262794,0.12889099,0.14974366,0.08602295,0.29736328,106.0
46176,-0.1499281,-0.40262794,0.12889099,0.20284425,0.11257324,0.32285157,106.0
46177,-0.13455391,-0.27469063,0.17089844,0.20284425,0.11257324,0.32285157,106.0
46178,-0.13455391,-0.27469063,0.17089844,0.17947999,0.13487549,0.36108398,106.0
46179,-0.10951042,-0.15380955,0.2195282,0.17947999,0.13487549,0.36108398,106.0
46180,-0.10951042,-0.15380955,0.2195282,0.14337158,0.1263794,0.37701416,106.0
46181,-0.059740067,-0.16187859,0.20291138,0.14337158,0.1263794,0.37701416,106.0
46182,-0.059740067,-0.16187859,0.20291138,0.14761963,0.14868164,0.39294434,106.0
46183,-0.035120964,-0.16996956,0.114974976,0.14761963,0.14868164,0.39294434,106.0
46184,-0.035120964,-0.16996956,0.114974976,0.1444336,0.19434814,0.4067505,106.0
46185,-0.10968876,-0.09364128,0.0049591064,0.1444336,0.19434814,0.4067505,106.0
46186,-0.10968876,-0.09364128,0.0049591064,0.11257324,0.19116211,0.4343628,106.0
46187,-0.10968876,-0.09364128,0.0049591064,0.14230958,0.19222413,0.44710693,106.0
46188,-0.22130775,-0.0349226,-0.04374695,0.14230958,0.19222413,0.44710693,106.0
46189,-0.2920971,-0.023506165,-0.037231445,0.14230958,0.19222413,0.44710693,106.0
46190,-0.2920971,-0.023506165,-0.037231445,0.16461182,0.1996582,0.44498292,106.0
46191,-0.36907768,0.029363632,-0.047302246,0.16461182,0.1996582,0.44498292,106.0
46192,-0.36907768,0.029363632,-0.047302246,0.1083252,0.18585205,0.44923097,106.0
46193,-0.47756195,0.041179657,-0.09477234,0.1083252,0.18585205,0.44923097,106.0
46194,-0.47756195,0.041179657,-0.09477234,0.07752686,0.14018555,0.42692873,106.0
46195,-0.56137085,-0.063406944,-0.14622498,0.07752686,0.14018555,0.42692873,106.0
46196,-0.56137085,-0.063406944,-0.14622498,0.12000733,0.11363526,0.41737062,106.0
46197,-0.56137085,-0.063406944,-0.14622498,0.18691407,0.11257324,0.39294434,106.0
46198,-0.56206036,-0.16171265,-0.14787292,0.18691407,0.11257324,0.39294434,106.0
46199,-0.5470238,-0.19311523,-0.079696655,0.18691407,0.11257324,0.39294434,106.0
46200,-0.5470238,-0.19311523,-0.079696655,0.20603028,0.078588866,0.37595215,106.0
46201,-0.5358496,-0.20477295,0.023529053,0.20603028,0.078588866,0.37595215,106.0
46202,-0.5358496,-0.20477295,0.023529053,0.19541016,0.04141846,0.36851808,106.0
46203,-0.5030327,-0.2984867,0.14912415,0.19541016,0.04141846,0.36851808,106.0
46204,-0.5030327,-0.2984867,0.14912415,0.17947999,0.0031860352,0.3812622,106.0
46205,-0.3868866,-0.44535637,0.29145813,0.17947999,0.0031860352,0.3812622,106.0
46206,-0.3868866,-0.44535637,0.29145813,0.22833252,0.014868164,0.40144044,106.0
46207,-0.20379639,-0.5127678,0.37738037,0.22833252,0.014868164,0.40144044,106.0
46208,-0.20379639,-0.5127678,0.37738037,0.22196046,0.0637207,0.43011475,106.0
46209,-0.08955097,-0.44978905,0.33067322,0.22196046,0.0637207,0.43011475,106.0
46210,-0.08955097,-0.44978905,0.33067322,0.16036378,0.13699952,0.4704712,106.0
46211,-0.103720665,-0.30505848,0.14465332,0.16036378,0.13699952,0.4704712,106.0
46212,-0.103720665,-0.30505848,0.14465332,0.083898924,0.1996582,0.5065796,106.0
46213,-0.17173386,-0.0640049,-0.13352966,0.083898924,0.1996582,0.5065796,106.0
46214,-0.17173386,-0.0640049,-0.13352966,-0.019116212,0.2442627,0.54906005,106.0
46215,-0.1909275,0.28961563,-0.51145935,-0.019116212,0.2442627,0.54906005,106.0
46216,-0.1909275,0.28961563,-0.51145935,-0.22727051,0.24957275,0.56605226,106.0
46217,-0.19838428,0.6429844,-1.0938873,-0.22727051,0.24957275,0.56605226,106.0
46218,-0.19838428,0.6429844,-1.0938873,-0.4364868,0.23682861,0.542688,106.0
46219,-0.29742813,0.92993927,-1.8929596,-0.4364868,0.23682861,0.542688,106.0
46220,-0.29742813,0.92993927,-1.8929596,-0.5894165,0.17416993,0.44179687,106.0
46221,-0.43260765,1.1563778,-2.6305847,-0.5894165,0.17416993,0.44179687,106.0
46222,-0.43260765,1.1563778,-2.6305847,-0.6064087,-0.033984374,0.2262085,106.0
46223,-0.35129833,1.313384,-2.9421844,-0.6064087,-0.033984374,0.2262085,106.0
46224,-0.35129833,1.313384,-2.9421844,-0.6117188,-0.28780517,-0.028674318,106.0
46225,-0.041707993,1.4248533,-2.7531128,-0.6117188,-0.28780517,-0.028674318,106.0
46226,-0.041707993,1.4248533,-2.7531128,-0.7083618,-0.5671143,-0.2782471,106.0
46227,0.2850294,1.4671288,-2.3343048,-0.7083618,-0.5671143,-0.2782471,106.0
46228,0.2850294,1.4671288,-2.3343048,-1.0333375,-0.8952759,-0.51932377,106.0
46229,0.2850294,1.4671288,-2.3343048,-1.0333375,-0.8952759,-0.51932377,106.0
46230,0.56034756,1.2468853,-2.0109253,-1.0333375,-0.8952759,-0.51932377,106.0
46231,0.56034756,1.2468853,-2.0109253,-1.2871583,-1.356189,-0.7688965,106.0
46232,0.9736929,0.7219963,-1.869278,-1.2871583,-1.356189,-0.7688965,106.0
46233,0.9736929,0.7219963,-1.869278,-1.2393677,-1.7448853,-1.1119263,106.0
46234,1.6071033,0.36789322,-1.8253784,-1.2393677,-1.7448853,-1.1119263,106.0
46235,1.6071033,0.36789322,-1.8253784,-1.3487549,-2.176062,-1.4730103,106.0
46236,2.2485733,0.43078995,-1.8747864,-1.3487549,-2.176062,-1.4730103,106.0
46237,2.2485733,0.43078995,-1.8747864,-1.5707153,-2.6730835,-1.8447144,106.0
46238,2.7706852,0.727005,-2.117279,-1.5707153,-2.6730835,-1.8447144,106.0
46239,2.7706852,0.727005,-2.117279,-1.992334,-3.2178955,-2.173938,106.0
46240,3.2485065,1.0105228,-2.5688171,-1.992334,-3.2178955,-2.173938,106.0
46241,3.2485065,1.0105228,-2.5688171,-2.5753784,-3.7563355,-2.4946656,106.0
46242,3.7508678,1.0580769,-3.1359863,-2.5753784,-3.7563355,-2.4946656,106.0
46243,3.7508678,1.0580769,-3.1359863,-3.0320435,-4.236365,-2.8408813,106.0
46244,4.2279644,0.86388016,-3.5987701,-3.0320435,-4.236365,-2.8408813,106.0
46245,4.2279644,0.86388016,-3.5987701,-3.3400269,-4.6388674,-3.1308105,106.0
46246,4.555504,0.57491684,-3.7602692,-3.3400269,-4.6388674,-3.1308105,106.0
46247,4.555504,0.57491684,-3.7602692,-3.3803833,-5.0265017,-3.43136,106.0
46248,4.733124,0.46674538,-3.5861053,-3.3803833,-5.0265017,-3.43136,106.0
46249,4.733124,0.46674538,-3.5861053,-3.2370117,-5.3036866,-3.6671264,106.0
46250,4.749695,0.7118969,-3.0238647,-3.2370117,-5.3036866,-3.6671264,106.0
46251,4.749695,0.7118969,-3.0238647,-3.2210815,-5.526709,-3.7627075,106.0
46252,4.540905,0.96788216,-2.0072632,-3.2210815,-5.526709,-3.7627075,106.0
46253,4.540905,0.96788216,-2.0072632,-3.1350586,-5.615918,-3.885901,106.0
46254,4.0349464,0.6569958,-0.7711487,-3.1350586,-5.615918,-3.885901,106.0
46255,4.0349464,0.6569958,-0.7711487,-2.4978516,-5.431128,-3.9400635,106.0
46256,2.9477081,-0.20058823,-0.018844604,-2.4978516,-5.431128,-3.9400635,106.0
46257,2.9477081,-0.20058823,-0.018844604,-1.5547851,-4.805603,-3.7382812,106.0
46258,0.8732414,-1.2033901,-0.3173523,-1.5547851,-4.805603,-3.7382812,106.0
46259,0.8732414,-1.2033901,-0.3173523,-0.79013675,-4.0271487,-3.3198488,106.0
46260,-1.8626499,-1.9593067,-1.1989746,-0.79013675,-4.0271487,-3.3198488,106.0
46261,-1.8626499,-1.9593067,-1.1989746,-0.124255374,-3.443042,-2.72937,106.0
46262,-3.136507,-1.9307022,-1.3264313,-0.124255374,-3.443042,-2.72937,106.0
46263,-3.136507,-1.9307022,-1.3264313,0.23045655,-3.2083375,-2.4022706,106.0
46264,-5.042824,-0.92982674,-1.1847076,0.23045655,-3.2083375,-2.4022706,106.0
46265,-5.042824,-0.92982674,-1.1847076,0.7975708,-2.613611,-1.3264526,106.0
46266,-4.6163273,-0.2290535,-0.646698,0.7975708,-2.613611,-1.3264526,106.0
46267,-4.6163273,-0.2290535,-0.646698,0.7975708,-2.3619142,-0.9611206,106.0
46268,-4.1851883,1.3402195,0.40257263,0.7975708,-2.3619142,-0.9611206,106.0
46269,-4.1851883,1.3402195,0.40257263,0.6796875,-1.7852417,-0.10089111,106.0
46270,-3.7102852,1.1521435,0.71980286,0.6796875,-1.7852417,-0.10089111,106.0
46271,-3.7102852,1.1521435,0.71980286,0.70198977,-1.6004517,0.10089111,106.0
46272,-3.774332,0.7195778,1.8369904,0.70198977,-1.6004517,0.10089111,106.0
46273,-3.774332,0.7195778,1.8369904,0.7391602,-1.1469727,0.47790527,106.0
46274,-3.3884478,0.44874573,1.981781,0.7391602,-1.1469727,0.47790527,106.0
46275,-3.3884478,0.44874573,1.981781,0.7041138,-1.0343994,0.5384399,106.0
46276,-3.248991,0.38685226,2.9270172,0.7041138,-1.0343994,0.5384399,106.0
46277,-3.248991,0.38685226,2.9270172,0.542688,-0.69136965,0.60109866,106.0
46278,-2.7409534,0.38526344,2.6960144,0.542688,-0.69136965,0.60109866,106.0
46279,-2.7409534,0.38526344,2.6960144,0.4609131,-0.5479981,0.60216063,106.0
46280,-2.3728523,0.65851593,2.2673035,0.4609131,-0.5479981,0.60216063,106.0
46281,-2.3728523,0.65851593,2.2673035,0.007434082,-0.1985962,0.5235718,106.0
46282,-1.7974882,0.62976646,1.4949646,0.007434082,-0.1985962,0.5235718,106.0
46283,-1.7974882,0.62976646,1.4949646,-0.1529297,-0.11469727,0.4619751,106.0
46284,-0.0569973,0.27671242,-0.54815674,-0.1529297,-0.11469727,0.4619751,106.0
46285,-0.0569973,0.27671242,-0.54815674,-0.2824951,0.30267334,0.33028564,106.0
46286,0.6938677,0.061494827,-1.0951538,-0.2824951,0.30267334,0.33028564,106.0
46287,0.6938677,0.061494827,-1.0951538,-0.24744873,0.542688,0.35577393,106.0
46288,1.4458408,-0.640295,-2.301178,-0.24744873,0.542688,0.35577393,106.0
46289,1.4458408,-0.640295,-2.301178,-0.14761963,1.3349488,0.63933104,106.0
46290,0.88012314,-0.6599407,-2.1611786,-0.14761963,1.3349488,0.63933104,106.0
46291,0.88012314,-0.6599407,-2.1611786,-0.08283692,1.4942505,0.77951664,106.0
46292,-0.77659035,-0.6865101,-2.0365448,-0.08283692,1.4942505,0.77951664,106.0
46293,-0.77659035,-0.6865101,-2.0365448,0.13487549,1.6471802,1.0768799,106.0
46294,-1.9666939,-0.4136486,-1.8459778,0.13487549,1.6471802,1.0768799,106.0
46295,-1.9666939,-0.4136486,-1.8459778,0.40250245,1.7119629,1.3530029,106.0
46296,-2.0038853,0.025587082,-1.8930969,0.40250245,1.7119629,1.3530029,106.0
46297,-2.0038853,0.025587082,-1.8930969,0.7614624,1.5685914,1.5930176,106.0
46298,-1.0622511,0.017368317,-1.7618103,0.7614624,1.5685914,1.5930176,106.0
46299,-1.0622511,0.017368317,-1.7618103,0.85385746,1.545227,1.63125,106.0
46300,1.0117722,-0.40098572,-2.0120544,0.85385746,1.545227,1.63125,106.0
46301,1.0117722,-0.40098572,-2.0120544,1.0917481,1.5760254,1.5962037,106.0
46302,1.6110287,-0.732996,-1.7867737,1.0917481,1.5760254,1.5962037,106.0
46303,1.6110287,-0.732996,-1.7867737,1.1682129,1.5983276,1.5282348,106.0
46304,2.4316082,-1.4326248,-1.574646,1.1682129,1.5983276,1.5282348,106.0
46305,2.4316082,-1.4326248,-1.574646,1.1820191,1.5271729,1.2967163,106.0
46306,2.965086,-1.9418755,-1.3104248,1.1820191,1.5271729,1.2967163,106.0
46307,2.965086,-1.9418755,-1.3104248,1.1034302,1.4953126,1.1490967,106.0
46308,3.1298447,-2.1536713,-1.1327057,1.1034302,1.4953126,1.1490967,106.0
46309,3.1298447,-2.1536713,-1.1327057,0.9791748,1.4337158,1.0917481,106.0
46310,2.8453922,-2.1323738,-1.1748505,0.9791748,1.4337158,1.0917481,106.0
46311,2.8453922,-2.1323738,-1.1748505,0.8846558,1.4220337,1.2329956,106.0
46312,2.2822218,-1.8236485,-1.4519043,0.8846558,1.4220337,1.2329956,106.0
46313,2.2822218,-1.8236485,-1.4519043,0.724292,1.5080566,1.5643433,106.0
46314,1.546236,-1.1186237,-1.7283783,0.724292,1.5080566,1.5643433,106.0
46315,1.546236,-1.1186237,-1.7283783,0.44073486,1.5271729,2.0082643,106.0
46316,0.8605852,-0.27008247,-1.7606354,0.44073486,1.5271729,2.0082643,106.0
46317,0.8605852,-0.27008247,-1.7606354,0.13168946,1.5303589,2.4808595,106.0
46318,0.41584778,0.3673811,-1.513794,0.13168946,1.5303589,2.4808595,106.0
46319,0.41584778,0.3673811,-1.513794,-0.15505372,1.5112427,2.9481447,106.0
46320,0.20289326,0.6173792,-1.1483307,-0.15505372,1.5112427,2.9481447,106.0
46321,0.20289326,0.6173792,-1.1483307,-0.41418457,1.4528321,3.347461,106.0
46322,0.09406471,0.5651798,-0.79766846,-0.41418457,1.4528321,3.347461,106.0
46323,0.09406471,0.5651798,-0.79766846,-0.52675784,1.3476928,3.6023438,106.0
46324,-0.0175457,0.37067413,-0.51789856,-0.52675784,1.3476928,3.6023438,106.0
46325,-0.0175457,0.37067413,-0.51789856,-0.50445557,1.2053833,3.714917,106.0
46326,-0.24540901,0.09328079,-0.26835632,-0.50445557,1.2053833,3.714917,106.0
46327,-0.24540901,0.09328079,-0.26835632,-0.2782471,1.0120972,3.6777465,106.0
46328,-0.56457615,-0.20773697,0.026565552,-0.2782471,1.0120972,3.6777465,106.0
46329,-0.56457615,-0.20773697,0.026565552,0.1359375,0.77951664,3.5025146,106.0
46330,-0.56457615,-0.20773697,0.026565552,0.1359375,0.77951664,3.5025146,105.0
46331,-0.84375095,-0.3967924,0.33085632,0.1359375,0.77951664,3.5025146,105.0
46332,-0.84375095,-0.3967924,0.33085632,0.63933104,0.54587406,3.2444458,105.0
46333,-1.093091,-0.40005112,0.5878601,0.63933104,0.54587406,3.2444458,105.0
46334,-1.093091,-0.40005112,0.5878601,1.179895,0.27612305,2.9035401,105.0
46335,-1.3321877,-0.3179903,0.8083801,1.179895,0.27612305,2.9035401,105.0
46336,-1.3321877,-0.3179903,0.8083801,1.718335,-0.032922365,2.5127199,105.0
46337,-1.4584866,-0.27869606,1.0091095,1.718335,-0.032922365,2.5127199,105.0
46338,-1.4584866,-0.27869606,1.0091095,2.266333,-0.33984375,2.0677369,105.0
46339,-1.4438772,-0.3220539,1.1771088,2.266333,-0.33984375,2.0677369,105.0
46340,-1.4438772,-0.3220539,1.1771088,2.7930908,-0.5979126,1.6068238,105.0
46341,-1.3967028,-0.46705437,1.3893127,2.7930908,-0.5979126,1.6068238,105.0
46342,-1.3967028,-0.46705437,1.3893127,3.3060424,-0.9154541,1.0991821,105.0
46343,-1.2298012,-0.6403427,1.7209625,3.3060424,-0.9154541,1.0991821,105.0
46344,-1.2298012,-0.6403427,1.7209625,3.7701416,-1.1862671,0.55968016,105.0
46345,-0.75792503,-0.59839535,1.9324188,3.7701416,-1.1862671,0.55968016,105.0
46346,-0.75792503,-0.59839535,1.9324188,3.7510254,-1.3689331,0.035046387,105.0
46347,-0.043302536,-0.25403404,1.7662048,3.7510254,-1.3689331,0.035046387,105.0
46348,-0.043302536,-0.25403404,1.7662048,3.1265626,-1.5547851,-0.42905274,105.0
46349,0.5603647,0.25666046,1.33638,3.1265626,-1.5547851,-0.42905274,105.0
46350,0.5603647,0.25666046,1.33638,1.9721558,-1.6365601,-0.7880127,105.0
46351,0.6183481,0.72700787,0.89027405,1.9721558,-1.6365601,-0.7880127,105.0
46352,0.6183481,0.72700787,0.89027405,0.4991455,-1.9158691,-1.1427246,105.0
46353,0.1478033,0.89081,0.6952057,0.4991455,-1.9158691,-1.1427246,105.0
46354,0.1478033,0.89081,0.6952057,-0.72641605,-2.2281005,-1.4560181,105.0
46355,-0.4752884,0.5800438,0.90859985,-0.72641605,-2.2281005,-1.4560181,105.0
46356,-0.4752884,0.5800438,0.90859985,-1.3455689,-2.4925416,-1.6981567,105.0
46357,-0.90718365,-0.052542686,1.4335327,-1.3455689,-2.4925416,-1.6981567,105.0
46358,-0.90718365,-0.052542686,1.4335327,-1.3668091,-2.6295412,-1.8372803,105.0
46359,-1.0434475,-0.72962,1.9098969,-1.3668091,-2.6295412,-1.8372803,105.0
46360,-1.0434475,-0.72962,1.9098969,-0.85385746,-2.631665,-1.9625977,105.0
46361,-0.96143055,-1.232378,1.9277649,-0.85385746,-2.631665,-1.9625977,105.0
46362,-0.96143055,-1.232378,1.9277649,-0.08496094,-2.5552003,-2.0528686,105.0
46363,-0.6484661,-1.2553358,1.2683258,-0.08496094,-2.5552003,-2.0528686,105.0
46364,-0.6484661,-1.2553358,1.2683258,0.4428589,-2.3927124,-2.1505737,105.0
46365,-0.086509705,-0.62304306,0.07575989,0.4428589,-2.3927124,-2.1505737,105.0
46366,-0.086509705,-0.62304306,0.07575989,0.33878174,-2.1526978,-2.2217286,105.0
46367,0.5235777,0.34116554,-1.1604462,0.33878174,-2.1526978,-2.2217286,105.0
46368,0.5235777,0.34116554,-1.1604462,-0.38551027,-1.7947998,-2.3247437,105.0
46369,0.89392376,1.0821724,-1.9226685,-0.38551027,-1.7947998,-2.3247437,105.0
46370,0.89392376,1.0821724,-1.9226685,-1.5484132,-1.3668091,-2.436255,105.0
46371,0.9916525,1.193119,-2.057251,-1.5484132,-1.3668091,-2.436255,105.0
46372,0.9916525,1.193119,-2.057251,-2.8663697,-0.95793456,-2.5137818,105.0
46373,1.003478,0.7814121,-1.7648773,-2.8663697,-0.95793456,-2.5137818,105.0
46374,1.003478,0.7814121,-1.7648773,-4.231055,-0.52888185,-2.4043946,105.0
46375,0.91365814,0.1876297,-1.3646698,-4.231055,-0.52888185,-2.4043946,105.0
46376,0.91365814,0.1876297,-1.3646698,-5.227222,-0.18903808,-2.1888063,105.0
46377,0.60542583,-0.45397377,-0.9200134,-5.227222,-0.18903808,-2.1888063,105.0
46378,0.60542583,-0.45397377,-0.9200134,-5.430066,0.011682129,-1.996582,105.0
46379,0.0736227,-0.9919014,-0.34251404,-5.430066,0.011682129,-1.996582,105.0
46380,0.0736227,-0.9919014,-0.34251404,-4.8672,0.04248047,-1.8054199,105.0
46381,-0.60988903,-1.2989168,0.2922821,-4.8672,0.04248047,-1.8054199,105.0
46382,-0.60988903,-1.2989168,0.2922821,-3.7489014,-0.08071289,-1.7034668,105.0
46383,-1.2225056,-1.401206,0.7240448,-3.7489014,-0.08071289,-1.7034668,105.0
46384,-1.2225056,-1.401206,0.7240448,-2.2196045,-0.2814331,-1.6015137,105.0
46385,-1.5074968,-1.2575245,0.72473145,-2.2196045,-0.2814331,-1.6015137,105.0
46386,-1.5074968,-1.2575245,0.72473145,-0.6064087,-0.4970215,-1.442212,105.0
46387,-1.4704504,-0.8171892,0.39974976,-0.6064087,-0.4970215,-1.442212,105.0
46388,-1.4704504,-0.8171892,0.39974976,0.65632325,-0.6467652,-1.2106934,105.0
46389,-1.3264942,-0.18334198,0.11013794,0.65632325,-0.6467652,-1.2106934,105.0
46390,-1.3264942,-0.18334198,0.11013794,1.363623,-0.8230591,-0.94625247,105.0
46391,-1.2057028,0.43137836,0.06439209,1.363623,-0.8230591,-0.94625247,105.0
46392,-1.2057028,0.43137836,0.06439209,1.5877075,-0.88359374,-0.6690674,105.0
46393,-1.0715199,0.93587494,0.20855713,1.5877075,-0.88359374,-0.6690674,105.0
46394,-1.0715199,0.93587494,0.20855713,1.355127,-0.7975708,-0.39400634,105.0
46395,-0.95287037,1.3159237,0.38476562,1.355127,-0.7975708,-0.39400634,105.0
46396,-0.95287037,1.3159237,0.38476562,0.7943848,-0.6403931,-0.118945315,105.0
46397,-0.8563757,1.4454031,0.44580078,0.7943848,-0.6403931,-0.118945315,105.0
46398,-0.8563757,1.4454031,0.44580078,0.19434814,-0.4970215,0.11044922,105.0
46399,-0.67015934,1.250145,0.34423828,0.19434814,-0.4970215,0.11044922,105.0
46400,-0.67015934,1.250145,0.34423828,-0.23258057,-0.35046387,0.2984253,105.0
46401,-0.33086586,0.8133602,0.15013123,-0.23258057,-0.35046387,0.2984253,105.0
46402,-0.33086586,0.8133602,0.15013123,-0.4088745,-0.23789063,0.41843262,105.0
46403,0.23818779,0.26086903,-0.10279846,-0.4088745,-0.23789063,0.41843262,105.0
46404,0.23818779,0.26086903,-0.10279846,-0.44816896,-0.20178223,0.43967286,105.0
46405,1.372118,-0.37160206,-0.28033447,-0.44816896,-0.20178223,0.43967286,105.0
46406,1.372118,-0.37160206,-0.28033447,-0.31116945,-0.36851808,0.31966552,105.0
46407,3.1578264,-1.0412998,-0.16127014,-0.31116945,-0.36851808,0.31966552,105.0
46408,3.1578264,-1.0412998,-0.16127014,0.10089111,-0.20284425,0.28780517,105.0
46409,4.1832924,-1.5386667,0.24812317,0.10089111,-0.20284425,0.28780517,105.0
46410,4.1832924,-1.5386667,0.24812317,0.58623046,0.08496094,0.45029297,105.0
46411,3.0618067,-1.670557,0.6719208,0.58623046,0.08496094,0.45029297,105.0
46412,3.0618067,-1.670557,0.6719208,1.0864381,0.15505372,0.7051758,105.0
46413,0.73101234,-1.391304,0.7475891,1.0864381,0.15505372,0.7051758,105.0
46414,0.73101234,-1.391304,0.7475891,1.7119629,0.18585205,1.0620117,105.0
46415,-1.1571455,-0.8080387,0.43484497,1.7119629,0.18585205,1.0620117,105.0
46416,-1.1571455,-0.8080387,0.43484497,2.4203248,0.24001466,1.4836304,105.0
46417,-1.8360682,-0.1954174,-0.10420227,2.4203248,0.24001466,1.4836304,105.0
46418,-1.8360682,-0.1954174,-0.10420227,2.9938111,0.4078125,1.8808228,105.0
46419,-1.4150705,0.22956657,-0.78297424,2.9938111,0.4078125,1.8808228,105.0
46420,-1.4150705,0.22956657,-0.78297424,3.165857,0.7497803,2.2036743,105.0
46421,-0.46328163,0.43218803,-1.4589233,3.165857,0.7497803,2.2036743,105.0
46422,-0.46328163,0.43218803,-1.4589233,3.0341675,1.0567017,2.3863404,105.0
46423,0.65058994,0.48135757,-1.8293304,3.0341675,1.0567017,2.3863404,105.0
46424,0.65058994,0.48135757,-1.8293304,2.7283082,1.364685,2.3884645,105.0
46425,1.7081184,0.49891663,-1.6240387,2.7283082,1.364685,2.3884645,105.0
46426,1.7081184,0.49891663,-1.6240387,2.3077514,1.8001099,2.353418,105.0
46427,2.148099,0.45015907,-0.83981323,2.3077514,1.8001099,2.353418,105.0
46428,2.148099,0.45015907,-0.83981323,1.7501954,2.168628,2.2992554,105.0
46429,1.6569071,0.1347847,0.08560181,1.7501954,2.168628,2.2992554,105.0
46430,1.6569071,0.1347847,0.08560181,1.0290893,2.3247437,2.2057984,105.0
46431,0.7963753,-0.3527069,0.57037354,1.0290893,2.3247437,2.2057984,105.0
46432,0.7963753,-0.3527069,0.57037354,0.1720459,2.2875733,2.1102173,105.0
46433,0.20709515,-0.73121357,0.41973877,0.1720459,2.2875733,2.1102173,105.0
46434,0.20709515,-0.73121357,0.41973877,0.1720459,2.2875733,2.1102173,105.0
46435,0.20709515,-0.73121357,0.41973877,-0.44498292,2.1866822,2.085791,105.0
46436,-0.1286726,-0.8544159,-0.12084961,-0.44498292,2.1866822,2.085791,105.0
46437,-0.1286726,-0.8544159,-0.12084961,-0.7051758,2.095349,2.0741088,105.0
46438,-0.5005827,-0.7595215,-0.71395874,-0.7051758,2.095349,2.0741088,105.0
46439,-0.5005827,-0.7595215,-0.71395874,-0.65844727,2.0348146,2.1059692,105.0
46440,-0.99020004,-0.57296085,-1.0230408,-0.65844727,2.0348146,2.1059692,105.0
46441,-0.99020004,-0.57296085,-1.0230408,-0.33028564,1.9424194,2.1282716,105.0
46442,-1.3871918,-0.32202816,-0.93904114,-0.33028564,1.9424194,2.1282716,105.0
46443,-1.3871918,-0.32202816,-0.93904114,-0.027612304,1.8648926,2.1165893,105.0
46444,-1.565649,-0.03829956,-0.66874695,-0.027612304,1.8648926,2.1165893,105.0
46445,-1.565649,-0.03829956,-0.66874695,0.2177124,1.7427613,2.0560548,105.0
46446,-1.6363573,0.17329025,-0.3753357,0.2177124,1.7427613,2.0560548,105.0
46447,-1.6363573,0.17329025,-0.3753357,0.5033936,1.5813354,1.9275513,105.0
46448,-1.6708298,0.27144432,-0.07266235,0.5033936,1.5813354,1.9275513,105.0
46449,-1.6708298,0.27144432,-0.07266235,0.7476563,1.4018555,1.7416992,105.0
46450,-1.6649351,0.29288864,0.2204895,0.7476563,1.4018555,1.7416992,105.0
46451,-1.6649351,0.29288864,0.2204895,0.97386473,1.1862671,1.5133667,105.0
46452,-1.6189728,0.2953825,0.45645142,0.97386473,1.1862671,1.5133667,105.0
46453,-1.6189728,0.2953825,0.45645142,1.1161743,0.9430664,1.2361816,105.0
46454,-1.549365,0.3144188,0.607605,1.1161743,0.9430664,1.2361816,105.0
46455,-1.549365,0.3144188,0.607605,1.1321045,0.65632325,0.91014403,105.0
46456,-1.445693,0.32806015,0.66763306,1.1321045,0.65632325,0.91014403,105.0
46457,-1.445693,0.32806015,0.66763306,1.0535157,0.35683593,0.5331299,105.0
46458,-1.2680407,0.31988144,0.66604614,1.0535157,0.35683593,0.5331299,105.0
46459,-1.2680407,0.31988144,0.66604614,0.8889038,0.029736329,0.1083252,105.0
46460,-0.9220743,0.3176613,0.65267944,0.8889038,0.029736329,0.1083252,105.0
46461,-0.9220743,0.3176613,0.65267944,0.63720703,-0.3345337,-0.3706421,105.0
46462,-0.3453865,0.28695393,0.642395,0.63720703,-0.3345337,-0.3706421,105.0
46463,-0.3453865,0.28695393,0.642395,0.32391357,-0.69136965,-0.8814697,105.0
46464,0.36913776,0.19845963,0.5265198,0.32391357,-0.69136965,-0.8814697,105.0
46465,0.36913776,0.19845963,0.5265198,-0.057348635,-0.98236084,-1.3678712,105.0
46466,1.0545511,0.11666584,0.21315002,-0.057348635,-0.98236084,-1.3678712,105.0
46467,1.0545511,0.11666584,0.21315002,-0.5129517,-1.3243287,-1.905249,105.0
46468,1.8151865,0.09152603,-0.1590271,-0.5129517,-1.3243287,-1.905249,105.0
46469,1.8151865,0.09152603,-0.1590271,-0.9197022,-1.6641724,-2.453247,105.0
46470,2.6629524,0.12265968,-0.39508057,-0.9197022,-1.6641724,-2.453247,105.0
46471,2.6629524,0.12265968,-0.39508057,-1.3126465,-1.9774659,-2.9492066,105.0
46472,3.3359528,0.106001854,-0.38090515,-1.3126465,-1.9774659,-2.9492066,105.0
46473,3.3359528,0.106001854,-0.38090515,-1.5855836,-2.3651001,-3.4600341,105.0
46474,3.4584103,-0.12205887,0.033447266,-1.5855836,-2.3651001,-3.4600341,105.0
46475,3.4584103,-0.12205887,0.033447266,-1.5335449,-2.7421143,-3.8179321,105.0
46476,2.6753464,-0.58313274,0.9205322,-1.5335449,-2.7421143,-3.8179321,105.0
46477,2.6753464,-0.58313274,0.9205322,-1.0290893,-3.1106324,-4.0175905,105.0
46478,1.27038,-1.0569963,2.043747,-1.0290893,-3.1106324,-4.0175905,105.0
46479,1.27038,-1.0569963,2.043747,-0.18903808,-3.42605,-4.0144043,105.0
46480,-0.0077810287,-1.2860146,2.8095856,-0.18903808,-3.42605,-4.0144043,105.0
46481,-0.0077810287,-1.2860146,2.8095856,0.69349366,-3.4812744,-3.7340333,105.0
46482,-0.78780365,-1.1033726,2.5632935,0.69349366,-3.4812744,-3.7340333,105.0
46483,-0.78780365,-1.1033726,2.5632935,1.3073364,-3.2157714,-3.3060424,105.0
46484,-1.0611143,-0.4414873,1.2003326,1.3073364,-3.2157714,-3.3060424,105.0
46485,-1.0611143,-0.4414873,1.2003326,1.2722901,-2.8674316,-2.9226563,105.0
46486,-0.756155,0.58971786,-0.5955963,1.2722901,-2.8674316,-2.9226563,105.0
46487,-0.756155,0.58971786,-0.5955963,0.4694092,-2.4182007,-2.531836,105.0
46488,0.013447762,1.5285978,-1.9304657,0.4694092,-2.4182007,-2.531836,105.0
46489,0.013447762,1.5285978,-1.9304657,-0.77314454,-1.716211,-2.170752,105.0
46490,0.6519575,1.722353,-2.3645782,-0.77314454,-1.716211,-2.170752,105.0
46491,0.6519575,1.722353,-2.3645782,-2.0337524,-0.9494385,-1.7958618,105.0
46492,0.6414509,1.0684223,-1.9609833,-2.0337524,-0.9494385,-1.7958618,105.0
46493,0.6414509,1.0684223,-1.9609833,-3.165857,-0.22089843,-1.2542359,105.0
46494,-0.06561184,0.07849312,-1.1451263,-3.165857,-0.22089843,-1.2542359,105.0
46495,-0.06561184,0.07849312,-1.1451263,-3.976172,0.30267334,-0.68074954,105.0
46496,-1.0744009,-0.65987396,-0.31420898,-3.976172,0.30267334,-0.68074954,105.0
46497,-1.0744009,-0.65987396,-0.31420898,-4.190698,0.52038574,-0.21134034,105.0
46498,-1.8515615,-0.8430481,0.2982483,-4.190698,0.52038574,-0.21134034,105.0
46499,-1.8515615,-0.8430481,0.2982483,-3.9071412,0.5586182,0.1529297,105.0
46500,-2.2605581,-0.60233116,0.56433105,-3.9071412,0.5586182,0.1529297,105.0
46501,-2.2605581,-0.60233116,0.56433105,-3.2168336,0.4439209,0.46409914,105.0
46502,-2.3921509,-0.30635262,0.5449524,-3.2168336,0.4439209,0.46409914,105.0
46503,-2.3921509,-0.30635262,0.5449524,-2.2185426,0.31010744,0.6403931,105.0
46504,-2.3000736,-0.10333347,0.36306763,-2.2185426,0.31010744,0.6403931,105.0
46505,-2.3000736,-0.10333347,0.36306763,-1.1108643,0.16673584,0.7126099,105.0
46506,-2.0210161,0.11487961,0.12887573,-1.1108643,0.16673584,0.7126099,105.0
46507,-2.0210161,0.11487961,0.12887573,-0.078588866,0.004248047,0.68499756,105.0
46508,-1.5431557,0.50166893,-0.01828003,-0.078588866,0.004248047,0.68499756,105.0
46509,-1.5431557,0.50166893,-0.01828003,0.59047854,-0.11151123,0.64570314,105.0
46510,-0.9704132,0.9936333,-0.0023040771,0.59047854,-0.11151123,0.64570314,105.0
46511,-0.9704132,0.9936333,-0.0023040771,0.96430665,-0.18054199,0.57454836,105.0
46512,-0.45488262,1.4219704,0.09777832,0.96430665,-0.18054199,0.57454836,105.0
46513,-0.45488262,1.4219704,0.09777832,1.0312134,-0.14655761,0.5894165,105.0
46514,-0.14171314,1.7426062,0.17803955,1.0312134,-0.14655761,0.5894165,105.0
46515,-0.14171314,1.7426062,0.17803955,0.7614624,-0.08283692,0.67225343,105.0
46516,-0.028665543,1.8412771,0.17053223,0.7614624,-0.08283692,0.67225343,105.0
46517,-0.028665543,1.8412771,0.17053223,0.33878174,-0.04885254,0.76464844,105.0
46518,0.12433338,1.6462765,0.06893921,0.33878174,-0.04885254,0.76464844,105.0
46519,0.12433338,1.6462765,0.06893921,-0.025488282,-0.039294433,0.8506714,105.0
46520,0.517045,1.2633953,-0.052978516,-0.025488282,-0.039294433,0.8506714,105.0
46521,0.517045,1.2633953,-0.052978516,-0.20603028,-0.023364259,0.90908206,105.0
46522,1.0375862,0.8337021,-0.1278534,-0.20603028,-0.023364259,0.90908206,105.0
46523,1.0375862,0.8337021,-0.1278534,-0.16673584,-0.011682129,0.9228882,105.0
46524,1.5410194,0.45252037,-0.1706543,-0.16673584,-0.011682129,0.9228882,105.0
46525,1.5410194,0.45252037,-0.1706543,-0.046728518,-0.07646485,0.84111327,105.0
46526,2.1998196,0.16008759,-0.15919495,-0.046728518,-0.07646485,0.84111327,105.0
46527,2.1998196,0.16008759,-0.15919495,0.10938721,-0.1720459,0.6775635,105.0
46528,2.8524218,-0.073675156,-0.02330017,0.10938721,-0.1720459,0.6775635,105.0
46529,2.8524218,-0.073675156,-0.02330017,0.30267334,-0.10089111,0.61065674,105.0
46530,2.809452,-0.28206062,0.24861145,0.30267334,-0.10089111,0.61065674,105.0
46531,2.809452,-0.28206062,0.24861145,0.5363159,-0.15186767,0.4959595,105.0
46532,1.9584017,-0.47867584,0.5392761,0.5363159,-0.15186767,0.4959595,105.0
46533,1.9584017,-0.47867584,0.5392761,0.84323734,-0.15186767,0.48215333,105.0
46534,0.7434311,-0.65631676,0.67840576,0.84323734,-0.15186767,0.48215333,105.0
46535,0.7434311,-0.65631676,0.67840576,1.2754761,-0.1274414,0.5798584,105.0
46536,-0.41691208,-0.75631523,0.5590515,1.2754761,-0.1274414,0.5798584,105.0
46537,-0.41691208,-0.75631523,0.5590515,1.814978,0.021240234,0.7699585,105.0
46538,-1.2601538,-0.63539886,0.14343262,1.814978,0.021240234,0.7699585,105.0
46539,-1.2601538,-0.63539886,0.14343262,2.1611938,0.18903808,0.9770508,105.0
46540,-1.4739552,-0.31953716,-0.48440552,2.1611938,0.18903808,0.9770508,105.0
46541,-1.4739552,-0.31953716,-0.48440552,2.2928834,0.31860352,1.1023682,105.0
46542,-1.4739552,-0.31953716,-0.48440552,2.2928834,0.31860352,1.1023682,105.0
46543,-0.85146713,0.041049957,-1.0972595,2.2928834,0.31860352,1.1023682,105.0
46544,-0.85146713,0.041049957,-1.0972595,2.2142944,0.5671143,1.1682129,105.0
46545,0.07092571,0.27768898,-1.3492279,2.2142944,0.5671143,1.1682129,105.0
46546,0.07092571,0.27768898,-1.3492279,2.0093262,0.7965088,1.1013062,105.0
46547,0.69925785,0.2503004,-1.0483246,2.0093262,0.7965088,1.1013062,105.0
46548,0.69925785,0.2503004,-1.0483246,1.7629395,1.0184692,0.9366943,105.0
46549,0.82676506,-0.047232628,-0.4585266,1.7629395,1.0184692,0.9366943,105.0
46550,0.82676506,-0.047232628,-0.4585266,1.3954834,1.270166,0.81243896,105.0
46551,0.414464,-0.4658985,-0.03440857,1.3954834,1.270166,0.81243896,105.0
46552,0.414464,-0.4658985,-0.03440857,0.9409424,1.3922974,0.6796875,105.0
46553,-0.21455956,-0.7244158,0.025619507,0.9409424,1.3922974,0.6796875,105.0
46554,-0.21455956,-0.7244158,0.025619507,0.40144044,1.4326538,0.6117188,105.0
46555,-0.69108105,-0.6998205,-0.20089722,0.40144044,1.4326538,0.6117188,105.0
46556,-0.69108105,-0.6998205,-0.20089722,-0.13487549,1.4199097,0.6287109,105.0
46557,-0.95429325,-0.5675831,-0.49565125,-0.13487549,1.4199097,0.6287109,105.0
46558,-0.95429325,-0.5675831,-0.49565125,-0.4959595,1.355127,0.65844727,105.0
46559,-1.040925,-0.51327133,-0.6517029,-0.4959595,1.355127,0.65844727,105.0
46560,-1.040925,-0.51327133,-0.6517029,-0.6244629,1.2914063,0.6977417,105.0
46561,-1.0347424,-0.5322237,-0.6503906,-0.6244629,1.2914063,0.6977417,105.0
46562,-1.0347424,-0.5322237,-0.6503906,-0.62340087,1.2170655,0.72004396,105.0
46563,-0.9917717,-0.5618391,-0.5666046,-0.62340087,1.2170655,0.72004396,105.0
46564,-0.9917717,-0.5618391,-0.5666046,-0.47578126,1.1193603,0.70092773,105.0
46565,-0.86111736,-0.5255089,-0.46725464,-0.47578126,1.1193603,0.70092773,105.0
46566,-0.86111736,-0.5255089,-0.46725464,-0.26868898,1.0280274,0.63826907,105.0
46567,-0.6732683,-0.37977028,-0.389328,-0.26868898,1.0280274,0.63826907,105.0
46568,-0.6732683,-0.37977028,-0.389328,-0.12213135,0.93138427,0.54587406,105.0
46569,-0.4930458,-0.18485928,-0.31011963,-0.12213135,0.93138427,0.54587406,105.0
46570,-0.4930458,-0.18485928,-0.31011963,-0.05522461,0.80181885,0.42268068,105.0
46571,-0.30469036,-0.007908821,-0.19755554,-0.05522461,0.80181885,0.42268068,105.0
46572,-0.30469036,-0.007908821,-0.19755554,-0.08283692,0.632959,0.271875,105.0
46573,-0.10459232,0.078645706,-0.045196533,-0.08283692,0.632959,0.271875,105.0
46574,-0.10459232,0.078645706,-0.045196533,-0.11151123,0.44816896,0.11682129,105.0
46575,0.0650568,0.0627327,0.14324951,-0.11151123,0.44816896,0.11682129,105.0
46576,0.0650568,0.0627327,0.14324951,-0.107263185,0.24744873,-0.059472658,105.0
46577,0.1941719,-0.014828682,0.33920288,-0.107263185,0.24744873,-0.059472658,105.0
46578,0.1941719,-0.014828682,0.33920288,-0.05522461,0.053100586,-0.22089843,105.0
46579,0.31878948,-0.06155777,0.42358398,-0.05522461,0.053100586,-0.22089843,105.0
46580,0.31878948,-0.06155777,0.42358398,0.014868164,-0.14230958,-0.3802002,105.0
46581,0.5708637,-0.009023666,0.4101715,0.014868164,-0.14230958,-0.3802002,105.0
46582,0.5708637,-0.009023666,0.4101715,0.060534667,-0.3536499,-0.541626,105.0
46583,1.0292616,0.0979805,0.39012146,0.060534667,-0.3536499,-0.541626,105.0
46584,1.0292616,0.0979805,0.39012146,0.0637207,-0.5129517,-0.6818115,105.0
46585,1.4526081,0.17106056,0.37617493,0.0637207,-0.5129517,-0.6818115,105.0
46586,1.4526081,0.17106056,0.37617493,0.04141846,-0.6180908,-0.79332274,105.0
46587,1.6881237,0.25968742,0.2693329,0.04141846,-0.6180908,-0.79332274,105.0
46588,1.6881237,0.25968742,0.2693329,-0.15505372,-0.75721437,-0.9420044,105.0
46589,1.9093246,0.3813095,0.11476135,-0.15505372,-0.75721437,-0.9420044,105.0
46590,1.9093246,0.3813095,0.11476135,-0.37701416,-0.9303223,-1.1087402,105.0
46591,2.0094786,0.42866898,0.1028595,-0.37701416,-0.9303223,-1.1087402,105.0
46592,2.0094786,0.42866898,0.1028595,-0.54906005,-1.0227174,-1.2053833,105.0
46593,1.6792631,0.33564758,0.3127594,-0.54906005,-1.0227174,-1.2053833,105.0
46594,1.6792631,0.33564758,0.3127594,-0.6202149,-1.26698,-1.3986695,105.0
46595,0.9850235,0.09145546,0.77259827,-0.6202149,-1.26698,-1.3986695,105.0
46596,0.9850235,0.09145546,0.77259827,-0.43011475,-1.4369019,-1.4921265,105.0
46597,-0.094244,-0.22117138,1.4024811,-0.43011475,-1.4369019,-1.4921265,105.0
46598,-0.094244,-0.22117138,1.4024811,0.009558106,-1.5675293,-1.4772583,105.0
46599,-1.3922901,-0.43603134,1.909195,0.009558106,-1.5675293,-1.4772583,105.0
46600,-1.3922901,-0.43603134,1.909195,0.4980835,-1.6110718,-1.3869873,105.0
46601,-2.3842545,-0.401474,1.9416351,0.4980835,-1.6110718,-1.3869873,105.0
46602,-2.3842545,-0.401474,1.9416351,0.7943848,-1.536731,-1.2128174,105.0
46603,-2.7018862,-0.024108887,1.3594055,0.7943848,-1.536731,-1.2128174,105.0
46604,-2.7018862,-0.024108887,1.3594055,0.76677245,-1.3933594,-1.0386475,105.0
46605,-2.2627907,0.5481806,0.35317993,0.76677245,-1.3933594,-1.0386475,105.0
46606,-2.2627907,0.5481806,0.35317993,0.45347902,-1.2064453,-0.90908206,105.0
46607,-1.2242222,1.0364447,-0.6766052,0.45347902,-1.2064453,-0.90908206,105.0
46608,-1.2242222,1.0364447,-0.6766052,-0.027612304,-0.9303223,-0.84536135,105.0
46609,0.031852722,1.2313166,-1.335144,-0.027612304,-0.9303223,-0.84536135,105.0
46610,0.031852722,1.2313166,-1.335144,-0.6552612,-0.51082766,-0.8092529,105.0
46611,0.87105083,1.0539494,-1.4600677,-0.6552612,-0.51082766,-0.8092529,105.0
46612,0.87105083,1.0539494,-1.4600677,-1.3137085,0.0180542,-0.72960204,105.0
46613,0.7725973,0.6372757,-1.2053833,-1.3137085,0.0180542,-0.72960204,105.0
46614,0.7725973,0.6372757,-1.2053833,-2.0220704,0.45029297,-0.5713623,105.0
46615,-0.026685715,0.25162983,-0.8684082,-2.0220704,0.45029297,-0.5713623,105.0
46616,-0.026685715,0.25162983,-0.8684082,-2.6762695,0.6573853,-0.3717041,105.0
46617,-0.7408562,0.021372795,-0.5966797,-2.6762695,0.6573853,-0.3717041,105.0
46618,-0.7408562,0.021372795,-0.5966797,-3.0161133,0.68712157,-0.124255374,105.0
46619,-0.9389744,-0.05926895,-0.3625183,-3.0161133,0.68712157,-0.124255374,105.0
46620,-0.9389744,-0.05926895,-0.3625183,-2.9630127,0.6053467,0.1083252,105.0
46621,-0.83668995,-0.108828545,-0.13101196,-2.9630127,0.6053467,0.1083252,105.0
46622,-0.83668995,-0.108828545,-0.13101196,-2.451123,0.41418457,0.29417726,105.0
46623,-0.8098793,-0.2138443,0.13795471,-2.451123,0.41418457,0.29417726,105.0
46624,-0.8098793,-0.2138443,0.13795471,-1.5898316,0.16779785,0.3440918,105.0
46625,-0.8971472,-0.317914,0.39187622,-1.5898316,0.16779785,0.3440918,105.0
46626,-0.8971472,-0.317914,0.39187622,-0.6531372,-0.10301514,0.31116945,105.0
46627,-0.97118473,-0.31775856,0.44612122,-0.6531372,-0.10301514,0.31116945,105.0
46628,-0.97118473,-0.31775856,0.44612122,0.23151855,-0.3706421,0.21452637,105.0
46629,-0.9358587,-0.07677841,0.31053162,0.23151855,-0.3706421,0.21452637,105.0
46630,-0.9358587,-0.07677841,0.31053162,0.86341554,-0.5894165,0.13806152,105.0
46631,-0.8377619,0.30132103,0.2082367,0.86341554,-0.5894165,0.13806152,105.0
46632,-0.8377619,0.30132103,0.2082367,1.2914063,-0.7763306,0.04248047,105.0
46633,-0.7214308,0.62617683,0.28134155,1.2914063,-0.7763306,0.04248047,105.0
46634,-0.7214308,0.62617683,0.28134155,1.4390259,-0.85598147,0.025488282,105.0
46635,-0.63047695,0.78996754,0.45950317,1.4390259,-0.85598147,0.025488282,105.0
46636,-0.63047695,0.78996754,0.45950317,1.3158325,-0.8878418,0.0361084,105.0
46637,-0.52379036,0.73689365,0.5730896,1.3158325,-0.8878418,0.0361084,105.0
46638,-0.52379036,0.73689365,0.5730896,1.080066,-0.92501223,0.014868164,105.0
46639,-0.20140553,0.49201775,0.5868988,1.080066,-0.92501223,0.014868164,105.0
46640,-0.20140553,0.49201775,0.5868988,0.8687256,-0.9526245,-0.033984374,105.0
46641,0.40542793,0.10233021,0.59729004,0.8687256,-0.9526245,-0.033984374,105.0
46642,0.40542793,0.10233021,0.59729004,0.8262451,-0.91864014,-0.09239502,105.0
46643,0.40542793,0.10233021,0.59729004,0.8262451,-0.91864014,-0.09239502,104.0
46644,1.0758076,-0.31628036,0.6009979,0.8262451,-0.91864014,-0.09239502,104.0
46645,1.0758076,-0.31628036,0.6009979,0.8750977,-0.81668705,-0.14761963,104.0
46646,1.7755146,-0.63400555,0.50424194,0.8750977,-0.81668705,-0.14761963,104.0
46647,1.7755146,-0.63400555,0.50424194,0.8952759,-0.7848267,-0.26125488,104.0
46648,2.5160542,-0.76970387,0.28215027,0.8952759,-0.7848267,-0.26125488,104.0
46649,2.5160542,-0.76970387,0.28215027,0.88040775,-0.48427734,-0.20921631,104.0
46650,2.687807,-0.73491573,0.041366577,0.88040775,-0.48427734,-0.20921631,104.0
46651,2.687807,-0.73491573,0.041366577,0.77526855,-0.22514649,-0.10513916,104.0
46652,2.1073742,-0.65751266,-0.06486511,0.77526855,-0.22514649,-0.10513916,104.0
46653,2.1073742,-0.65751266,-0.06486511,0.6202149,-0.032922365,0.015930176,104.0
46654,1.3413925,-0.7683935,-0.041549683,0.6202149,-0.032922365,0.015930176,104.0
46655,1.3413925,-0.7683935,-0.041549683,0.68287355,0.1985962,0.19647217,104.0
46656,0.63562584,-1.0427418,-0.015151978,0.68287355,0.1985962,0.19647217,104.0
46657,0.63562584,-1.0427418,-0.015151978,0.93350834,0.4991455,0.44498292,104.0
46658,-0.14023018,-1.1302137,-0.19413757,0.93350834,0.4991455,0.44498292,104.0
46659,-0.14023018,-1.1302137,-0.19413757,1.1629028,0.7975708,0.70942384,104.0
46660,-0.81065845,-0.8394251,-0.6377716,1.1629028,0.7975708,0.70942384,104.0
46661,-0.81065845,-0.8394251,-0.6377716,1.2021973,0.9791748,0.9345703,104.0
46662,-0.8443155,-0.37205315,-1.0988922,1.2021973,0.9791748,0.9345703,104.0
46663,-0.8443155,-0.37205315,-1.0988922,1.084314,1.1437867,1.0981201,104.0
46664,-0.1363411,-0.026536942,-1.3114014,1.084314,1.1437867,1.0981201,104.0
46665,-0.1363411,-0.026536942,-1.3114014,0.8644776,1.3200806,1.1820191,104.0
46666,0.8088598,0.067601204,-1.2248993,0.8644776,1.3200806,1.1820191,104.0
46667,0.8088598,0.067601204,-1.2248993,0.59260255,1.5123047,1.2096313,104.0
46668,1.3648129,-0.105220795,-0.99809265,0.59260255,1.5123047,1.2096313,104.0
46669,1.3648129,-0.105220795,-0.99809265,0.3451538,1.6535523,1.2202514,104.0
46670,1.2546673,-0.4020605,-0.7633209,0.3451538,1.6535523,1.2202514,104.0
46671,1.2546673,-0.4020605,-0.7633209,0.18903808,1.725769,1.2425537,104.0
46672,0.6951275,-0.5649586,-0.5765228,0.18903808,1.725769,1.2425537,104.0
46673,0.6951275,-0.5649586,-0.5765228,0.039294433,1.7002808,1.263794,104.0
46674,0.08708382,-0.50597,-0.4580536,0.039294433,1.7002808,1.263794,104.0
46675,0.08708382,-0.50597,-0.4580536,-0.09451904,1.5898316,1.3020264,104.0
46676,-0.27841568,-0.31653118,-0.43804932,-0.09451904,1.5898316,1.3020264,104.0
46677,-0.27841568,-0.31653118,-0.43804932,-0.15823975,1.4677002,1.3827393,104.0
46678,-0.46251583,-0.12937164,-0.51353455,-0.15823975,1.4677002,1.3827393,104.0
46679,-0.46251583,-0.12937164,-0.51353455,-0.14337158,1.3381348,1.4751343,104.0
46680,-0.6145325,-0.022845268,-0.61997986,-0.14337158,1.3381348,1.4751343,104.0
46681,-0.6145325,-0.022845268,-0.61997986,-0.035046387,1.2064453,1.5654052,104.0
46682,-0.77734375,0.009311676,-0.6761627,-0.035046387,1.2064453,1.5654052,104.0
46683,-0.77734375,0.009311676,-0.6761627,0.13062744,1.0875,1.62594,104.0
46684,-0.92026424,0.016677856,-0.63005066,0.13062744,1.0875,1.62594,104.0
46685,-0.92026424,0.016677856,-0.63005066,0.32072756,0.96218264,1.621692,104.0
46686,-1.0114431,0.055285454,-0.50242615,0.32072756,0.96218264,1.621692,104.0
46687,-1.0114431,0.055285454,-0.50242615,0.49277344,0.8336792,1.5611572,104.0
46688,-1.0561523,0.16174507,-0.31336975,0.49277344,0.8336792,1.5611572,104.0
46689,-1.0561523,0.16174507,-0.31336975,0.57454836,0.6977417,1.449646,104.0
46690,-1.1214228,0.30211258,-0.07397461,0.57454836,0.6977417,1.449646,104.0
46691,-1.1214228,0.30211258,-0.07397461,0.542688,0.52888185,1.2754761,104.0
46692,-1.245368,0.3923378,0.18978882,0.542688,0.52888185,1.2754761,104.0
46693,-1.245368,0.3923378,0.18978882,0.4630371,0.32816163,1.0301514,104.0
46694,-1.3840389,0.36898422,0.42926025,0.4630371,0.32816163,1.0301514,104.0
46695,-1.3840389,0.36898422,0.42926025,0.36851808,0.107263185,0.7338501,104.0
46696,-1.451994,0.23962116,0.6068573,0.36851808,0.107263185,0.7338501,104.0
46697,-1.451994,0.23962116,0.6068573,0.2803711,-0.1274414,0.39082032,104.0
46698,-1.3741808,0.102487564,0.7056122,0.2803711,-0.1274414,0.39082032,104.0
46699,-1.3741808,0.102487564,0.7056122,0.2166504,-0.35683593,0.04460449,104.0
46700,-1.1191692,0.061836243,0.6974335,0.2166504,-0.35683593,0.04460449,104.0
46701,-1.1191692,0.061836243,0.6974335,0.17947999,-0.57242435,-0.31329346,104.0
46702,-0.6346302,0.12864304,0.613327,0.17947999,-0.57242435,-0.31329346,104.0
46703,-0.6346302,0.12864304,0.613327,0.15930176,-0.7784546,-0.6956177,104.0
46704,0.12303257,0.22848797,0.5356598,0.15930176,-0.7784546,-0.6956177,104.0
46705,0.12303257,0.22848797,0.5356598,0.07965088,-0.9505005,-1.0938721,104.0
46706,1.0301523,0.30930424,0.4600067,0.07965088,-0.9505005,-1.0938721,104.0
46707,1.0301523,0.30930424,0.4600067,-0.13275146,-1.0768799,-1.4984986,104.0
46708,1.9299812,0.37512875,0.36247253,-0.13275146,-1.0768799,-1.4984986,104.0
46709,1.9299812,0.37512875,0.36247253,-0.48321533,-1.2776002,-2.0029542,104.0
46710,2.824295,0.3893366,0.27726746,-0.48321533,-1.2776002,-2.0029542,104.0
46711,2.824295,0.3893366,0.27726746,-0.91864014,-1.4103516,-2.436255,104.0
46712,3.52063,0.29666233,0.28718567,-0.91864014,-1.4103516,-2.436255,104.0
46713,3.52063,0.29666233,0.28718567,-1.2765381,-1.5770874,-2.822827,104.0
46714,3.7771854,0.114917755,0.5262604,-1.2765381,-1.5770874,-2.822827,104.0
46715,3.7771854,0.114917755,0.5262604,-1.5006226,-1.7342652,-3.0670898,104.0
46716,3.3991404,-0.0990448,1.0514832,-1.5006226,-1.7342652,-3.0670898,104.0
46717,3.3991404,-0.0990448,1.0514832,-1.4687623,-1.8468384,-3.1095703,104.0
46718,2.2892952,-0.25352764,1.6487579,-1.4687623,-1.8468384,-3.1095703,104.0
46719,2.2892952,-0.25352764,1.6487579,-1.2096313,-1.8383423,-2.9640749,104.0
46720,0.60798645,-0.2534685,1.8516388,-1.2096313,-1.8383423,-2.9640749,104.0
46721,0.60798645,-0.2534685,1.8516388,-0.87615967,-1.5877075,-2.6518433,104.0
46722,-1.3016481,-0.039726257,1.3384705,-0.87615967,-1.5877075,-2.6518433,104.0
46723,-1.3016481,-0.039726257,1.3384705,-0.6711914,-1.1873292,-2.2960694,104.0
46724,-2.884983,0.40916157,0.23182678,-0.6711914,-1.1873292,-2.2960694,104.0
46725,-2.884983,0.40916157,0.23182678,-0.8496094,-0.83686525,-1.9944581,104.0
46726,-3.437149,0.9251814,-0.98731995,-0.8496094,-0.83686525,-1.9944581,104.0
46727,-3.437149,0.9251814,-0.98731995,-1.2340577,-0.59260255,-1.7576294,104.0
46728,-2.6388912,1.2194176,-1.8096924,-1.2340577,-0.59260255,-1.7576294,104.0
46729,-2.6388912,1.2194176,-1.8096924,-1.6461182,-0.24320069,-1.5335449,104.0
46730,-0.9571581,1.188839,-2.0696716,-1.6461182,-0.24320069,-1.5335449,104.0
46731,-0.9571581,1.188839,-2.0696716,-2.2068603,0.20072022,-1.3115845,104.0
46732,0.78896046,0.864316,-2.0183258,-2.2068603,0.20072022,-1.3115845,104.0
46733,0.78896046,0.864316,-2.0183258,-2.913098,0.6977417,-1.0598878,104.0
46734,1.8831339,0.44848442,-1.8827362,-2.913098,0.6977417,-1.0598878,104.0
46735,1.8831339,0.44848442,-1.8827362,-3.6703126,1.2287476,-0.7317261,104.0
46736,1.8075447,0.20037651,-1.4880676,-3.6703126,1.2287476,-0.7317261,104.0
46737,1.8075447,0.20037651,-1.4880676,-4.348938,1.5877075,-0.33028564,104.0
46738,0.6985378,0.21003342,-0.8003998,-4.348938,1.5877075,-0.33028564,104.0
46739,0.6985378,0.21003342,-0.8003998,-4.626123,1.6493043,0.14974366,104.0
46740,-0.68911934,0.6045742,-0.08753967,-4.626123,1.6493043,0.14974366,104.0
46741,-0.68911934,0.6045742,-0.08753967,-4.5740848,1.454956,0.6064087,104.0
46742,-1.6570454,1.2229052,0.4720459,-4.5740848,1.454956,0.6064087,104.0
46743,-1.6570454,1.2229052,0.4720459,-4.145032,1.081128,0.95793456,104.0
46744,-1.9412975,1.5336838,0.7607727,-4.145032,1.081128,0.95793456,104.0
46745,-1.9412975,1.5336838,0.7607727,-3.2359498,0.6966797,1.1841431,104.0
46746,-1.6135597,1.5267887,0.7918701,-3.2359498,0.6966797,1.1841431,104.0
46747,-1.6135597,1.5267887,0.7918701,-2.617859,0.5129517,1.2393677,104.0
46748,-1.4477816,1.1654263,0.5514374,-2.617859,0.5129517,1.2393677,104.0
46749,-1.4477816,1.1654263,0.5514374,-0.57242435,-0.004248047,1.1990112,104.0
46750,-1.0813694,0.9974289,0.3952484,-0.57242435,-0.004248047,1.1990112,104.0
46751,-1.0813694,0.9974289,0.3952484,0.014868164,-0.12850343,1.1342286,104.0
46752,-0.5710039,1.3592472,0.3295288,0.014868164,-0.12850343,1.1342286,104.0
46753,-0.5710039,1.3592472,0.3295288,1.1161743,-0.452417,0.88996583,104.0
46754,-0.35666847,1.2082348,0.2697296,1.1161743,-0.452417,0.88996583,104.0
46755,-0.35666847,1.2082348,0.2697296,1.2574219,-0.5299439,0.81031495,104.0
46756,-0.01981926,1.830101,0.5408478,1.2574219,-0.5299439,0.81031495,104.0
46757,-0.01981926,1.830101,0.5408478,0.9897949,-0.6839356,0.6138428,104.0
46758,0.012598991,1.6508236,0.54371643,0.9897949,-0.6839356,0.6138428,104.0
46759,0.012598991,1.6508236,0.54371643,0.7168579,-0.7041138,0.5809204,104.0
46760,0.012598991,1.6508236,0.54371643,0.7168579,-0.7041138,0.5809204,103.0
46761,0.29023075,1.8032875,0.994339,0.7168579,-0.7041138,0.5809204,103.0
46762,0.29023075,1.8032875,0.994339,-0.38232422,-0.7072998,0.61065674,103.0
46763,0.3132267,1.5152016,1.0201721,-0.38232422,-0.7072998,0.61065674,103.0
46764,0.3132267,1.5152016,1.0201721,-0.71367186,-0.7083618,0.6446411,103.0
46765,0.7123251,0.75806046,1.2849884,-0.71367186,-0.7083618,0.6446411,103.0
46766,0.7123251,0.75806046,1.2849884,-1.1522827,-0.69349366,0.69986576,103.0
46767,0.71373177,0.4180565,1.1804352,-1.1522827,-0.69349366,0.69986576,103.0
46768,0.71373177,0.4180565,1.1804352,-1.1352905,-0.6818115,0.7126099,103.0
46769,1.0472555,-0.5803623,1.2351685,-1.1352905,-0.6818115,0.7126099,103.0
46770,1.0472555,-0.5803623,1.2351685,-0.67225343,-0.64570314,0.6425171,103.0
46771,0.9249134,-0.60191154,1.0894318,-0.67225343,-0.64570314,0.6425171,103.0
46772,0.9249134,-0.60191154,1.0894318,-0.4715332,-0.6287109,0.5979126,103.0
46773,1.1397114,-0.44372368,0.96461487,-0.4715332,-0.6287109,0.5979126,103.0
46774,1.1397114,-0.44372368,0.96461487,-0.19753419,-0.6552612,0.31860352,103.0
46775,1.0814838,-0.20777321,0.73983765,-0.19753419,-0.6552612,0.31860352,103.0
46776,1.0814838,-0.20777321,0.73983765,-0.2166504,-0.635083,0.2166504,103.0
46777,1.2314835,0.063713074,0.356781,-0.2166504,-0.635083,0.2166504,103.0
46778,1.2314835,0.063713074,0.356781,-0.32285157,-0.49489745,-0.009558106,103.0
46779,0.7992134,0.06818199,0.21287537,-0.32285157,-0.49489745,-0.009558106,103.0
46780,0.7992134,0.06818199,0.21287537,-0.3717041,-0.47471926,-0.070092775,103.0
46781,0.13137436,-0.08361435,0.024978638,-0.3717041,-0.47471926,-0.070092775,103.0
46782,0.13137436,-0.08361435,0.024978638,-0.41206056,-0.44604492,-0.1359375,103.0
46783,-0.27442932,-0.32492256,-0.07473755,-0.41206056,-0.44604492,-0.1359375,103.0
46784,-0.27442932,-0.32492256,-0.07473755,-0.2984253,-0.42905274,-0.14230958,103.0
46785,-0.2158699,-0.5648327,-0.24020386,-0.2984253,-0.42905274,-0.14230958,103.0
46786,-0.2158699,-0.5648327,-0.24020386,-0.04885254,-0.3971924,-0.095581055,103.0
46787,0.11569595,-0.67632866,-0.5998993,-0.04885254,-0.3971924,-0.095581055,103.0
46788,0.11569595,-0.67632866,-0.5998993,0.30479738,-0.32072756,-0.021240234,103.0
46789,0.43625736,-0.38331223,-1.1985474,0.30479738,-0.32072756,-0.021240234,103.0
46790,0.43625736,-0.38331223,-1.1985474,0.8485474,-0.17523193,0.13275146,103.0
46791,0.29810238,-0.18205261,-1.1738281,0.8485474,-0.17523193,0.13275146,103.0
46792,0.29810238,-0.18205261,-1.1738281,0.9451904,-0.13487549,0.20178223,103.0
46793,-0.37570286,0.81894493,-1.4487762,0.9451904,-0.13487549,0.20178223,103.0
46794,-0.37570286,0.81894493,-1.4487762,0.79013675,-0.046728518,0.35683593,103.0
46795,-0.53231335,0.8775444,-1.408371,0.79013675,-0.046728518,0.35683593,103.0
46796,-0.53231335,0.8775444,-1.408371,0.630835,-0.0180542,0.3727661,103.0
46797,-0.74032784,1.0354958,-1.54953,0.630835,-0.0180542,0.3727661,103.0
46798,-0.74032784,1.0354958,-1.54953,0.22833252,0.028674318,0.41206056,103.0
46799,-0.59815884,0.8712425,-1.4964142,0.22833252,0.028674318,0.41206056,103.0
46800,-0.59815884,0.8712425,-1.4964142,-0.26975098,0.059472658,0.44816896,103.0
46801,-0.33419132,0.25599098,-1.4115143,-0.26975098,0.059472658,0.44816896,103.0
46802,-0.33419132,0.25599098,-1.4115143,-0.38975832,0.059472658,0.2803711,103.0
46803,-0.0024356842,-0.5386772,-1.308609,-0.38975832,0.059472658,0.2803711,103.0
46804,-0.0024356842,-0.5386772,-1.308609,-0.08602295,0.13168946,0.0541626,103.0
46805,0.17788506,-0.9802704,-1.0517731,-0.08602295,0.13168946,0.0541626,103.0
46806,0.17788506,-0.9802704,-1.0517731,0.20390625,0.21558838,-0.08602295,103.0
46807,-0.02042389,-0.8750248,-0.82154846,0.20390625,0.21558838,-0.08602295,103.0
46808,-0.02042389,-0.8750248,-0.82154846,0.2984253,0.2623169,-0.17629395,103.0
46809,-0.26034546,-0.3377037,-0.76820374,0.2984253,0.2623169,-0.17629395,103.0
46810,-0.26034546,-0.3377037,-0.76820374,0.13062744,0.33028564,-0.16885987,103.0
46811,-0.28502178,0.26101303,-0.7989807,0.13062744,0.33028564,-0.16885987,103.0
46812,-0.28502178,0.26101303,-0.7989807,-0.18372802,0.41737062,-0.07965088,103.0
46813,-0.18833256,0.6887169,-0.73373413,-0.18372802,0.41737062,-0.07965088,103.0
46814,-0.18833256,0.6887169,-0.73373413,-0.63720703,0.4895874,0.0361084,103.0
46815,-0.06973362,0.8674164,-0.5219116,-0.63720703,0.4895874,0.0361084,103.0
46816,-0.06973362,0.8674164,-0.5219116,-1.0492676,0.5479981,0.12000733,103.0
46817,0.0017690659,0.69071007,-0.2425232,-1.0492676,0.5479981,0.12000733,103.0
46818,0.0017690659,0.69071007,-0.2425232,-1.2712281,0.6074707,0.15505372,103.0
46819,0.0018424988,0.37416267,-0.01927185,-1.2712281,0.6074707,0.15505372,103.0
46820,0.0018424988,0.37416267,-0.01927185,-1.3806152,0.63933104,0.124255374,103.0
46821,-0.041653633,0.18523026,0.15710449,-1.3806152,0.63933104,0.124255374,103.0
46822,-0.041653633,0.18523026,0.15710449,-1.3922974,0.62127686,0.0637207,103.0
46823,-0.062644005,0.13281631,0.4078064,-1.3922974,0.62127686,0.0637207,103.0
46824,-0.062644005,0.13281631,0.4078064,-1.3413209,0.5777344,-0.023364259,103.0
46825,-0.057341576,0.15088081,0.7673645,-1.3413209,0.5777344,-0.023364259,103.0
46826,-0.057341576,0.15088081,0.7673645,-1.3721192,0.51826173,-0.06265869,103.0
46827,-0.067492485,0.18314362,1.1228027,-1.3721192,0.51826173,-0.06265869,103.0
46828,-0.067492485,0.18314362,1.1228027,-1.448584,0.44498292,-0.098767094,103.0
46829,-0.09168911,0.16397095,1.3336792,-1.448584,0.44498292,-0.098767094,103.0
46830,-0.09168911,0.16397095,1.3336792,-1.4974365,0.41737062,-0.1083252,103.0
46831,-0.10342884,0.099876404,1.3257599,-1.4974365,0.41737062,-0.1083252,103.0
46832,-0.10342884,0.099876404,1.3257599,-1.5048707,0.4333008,-0.09770508,103.0
46833,-0.07991123,0.013263702,1.1878204,-1.5048707,0.4333008,-0.09770508,103.0
46834,-0.07991123,0.013263702,1.1878204,-1.4931885,0.4725952,-0.10195313,103.0
46835,-0.04857254,-0.10903168,1.0643921,-1.4931885,0.4725952,-0.10195313,103.0
46836,-0.04857254,-0.10903168,1.0643921,-1.4294678,0.55968016,-0.08496094,103.0
46837,-0.070547104,-0.16632843,1.0341797,-1.4294678,0.55968016,-0.08496094,103.0
46838,-0.070547104,-0.16632843,1.0341797,-1.4145997,0.63826907,-0.059472658,103.0
46839,-0.12644482,-0.05287552,1.0964203,-1.4145997,0.63826907,-0.059472658,103.0
46840,-0.12644482,-0.05287552,1.0964203,-1.5038086,0.67650145,-0.016992187,103.0
46841,-0.16796494,0.113838196,1.1885376,-1.5038086,0.67650145,-0.016992187,103.0
46842,-0.16796494,0.113838196,1.1885376,-1.6206299,0.6945557,0.007434082,103.0
46843,-0.18555641,0.13427162,1.2352448,-1.6206299,0.6945557,0.007434082,103.0
46844,-0.18555641,0.13427162,1.2352448,-1.6758546,0.67437744,0.0031860352,103.0
46845,-0.12780285,0.0050354004,1.1809692,-1.6758546,0.67437744,0.0031860352,103.0
46846,-0.12780285,0.0050354004,1.1809692,-1.538855,0.6637573,0.004248047,103.0
46847,0.032546997,-0.10458946,1.0571747,-1.538855,0.6637573,0.004248047,103.0
46848,0.032546997,-0.10458946,1.0571747,-1.2829102,0.6690674,-0.023364259,103.0
46849,0.2401123,-0.0449028,0.9315338,-1.2829102,0.6690674,-0.023364259,103.0
46850,0.2401123,-0.0449028,0.9315338,-1.0736939,0.6977417,-0.0637207,103.0
46851,0.44388485,0.24906349,0.8328247,-1.0736939,0.6977417,-0.0637207,103.0
46852,0.44388485,0.24906349,0.8328247,-1.0386475,0.7614624,-0.09664307,103.0
46853,0.58156013,0.6535721,0.7042084,-1.0386475,0.7614624,-0.09664307,103.0
46854,0.58156013,0.6535721,0.7042084,-1.2000732,0.8209351,-0.13912354,103.0
46855,0.58156013,0.6535721,0.7042084,-1.2000732,0.8209351,-0.13912354,103.0
46856,0.81892204,0.9687195,0.5456848,-1.2000732,0.8209351,-0.13912354,103.0
46857,0.81892204,0.9687195,0.5456848,-1.5133667,0.8358032,-0.23258057,103.0
46858,1.2794542,1.0112419,0.46395874,-1.5133667,0.8358032,-0.23258057,103.0
46859,1.2794542,1.0112419,0.46395874,-1.8266602,0.8878418,-0.3462158,103.0
46860,1.5381145,0.6896572,0.5171814,-1.8266602,0.8878418,-0.3462158,103.0
46861,1.5381145,0.6896572,0.5171814,-1.903125,0.9218262,-0.4333008,103.0
46862,1.2836285,0.35894012,0.7548981,-1.903125,0.9218262,-0.4333008,103.0
46863,1.2836285,0.35894012,0.7548981,-1.8192261,0.813501,-0.48533937,103.0
46864,0.78570366,0.36405563,1.0507812,-1.8192261,0.813501,-0.48533937,103.0
46865,0.78570366,0.36405563,1.0507812,-1.6078857,0.67650145,-0.47684327,103.0
46866,0.2894268,0.59573555,1.2085266,-1.6078857,0.67650145,-0.47684327,103.0
46867,0.2894268,0.59573555,1.2085266,-1.2945923,0.45029297,-0.4959595,103.0
46868,-0.07254791,0.7869396,1.2357788,-1.2945923,0.45029297,-0.4959595,103.0
46869,-0.07254791,0.7869396,1.2357788,-0.8973999,0.15823975,-0.5586182,103.0
46870,-0.24105835,0.79999924,1.2684784,-0.8973999,0.15823975,-0.5586182,103.0
46871,-0.24105835,0.79999924,1.2684784,-0.3525879,-0.11151123,-0.61065674,103.0
46872,-0.3351326,0.7601528,1.3227081,-0.3525879,-0.11151123,-0.61065674,103.0
46873,-0.3351326,0.7601528,1.3227081,0.22196046,-0.34940186,-0.6573853,103.0
46874,-0.3861723,0.8768234,1.2376251,0.22196046,-0.34940186,-0.6573853,103.0
46875,-0.3861723,0.8768234,1.2376251,0.6711914,-0.51932377,-0.6701294,103.0
46876,-0.28259563,1.1844044,0.9286804,0.6711914,-0.51932377,-0.6701294,103.0
46877,-0.28259563,1.1844044,0.9286804,0.8867798,-0.5936646,-0.6552612,103.0
46878,-0.043777466,1.530262,0.4903717,0.8867798,-0.5936646,-0.6552612,103.0
46879,-0.043777466,1.530262,0.4903717,0.7965088,-0.5479981,-0.634021,103.0
46880,0.17777061,1.7640896,0.0476532,0.7965088,-0.5479981,-0.634021,103.0
46881,0.17777061,1.7640896,0.0476532,0.44604492,-0.40993652,-0.632959,103.0
46882,0.2717085,1.8169613,-0.29855347,0.44604492,-0.40993652,-0.632959,103.0
46883,0.2717085,1.8169613,-0.29855347,-0.026550293,-0.20178223,-0.6223389,103.0
46884,0.21706104,1.6736622,-0.48023987,-0.026550293,-0.20178223,-0.6223389,103.0
46885,0.21706104,1.6736622,-0.48023987,-0.42055663,0.03186035,-0.57561034,103.0
46886,0.0568161,1.4129658,-0.45207214,-0.42055663,0.03186035,-0.57561034,103.0
46887,0.0568161,1.4129658,-0.45207214,-0.6637573,0.24320069,-0.47790527,103.0
46888,-0.17293167,1.1692886,-0.2679596,-0.6637573,0.24320069,-0.47790527,103.0
46889,-0.17293167,1.1692886,-0.2679596,-0.815625,0.4056885,-0.3419678,103.0
46890,-0.4348297,1.01054,-0.05593872,-0.815625,0.4056885,-0.3419678,103.0
46891,-0.4348297,1.01054,-0.05593872,-0.8846558,0.48640138,-0.2357666,103.0
46892,-0.5955448,0.9264736,0.07293701,-0.8846558,0.48640138,-0.2357666,103.0
46893,-0.5955448,0.9264736,0.07293701,-0.86553955,0.4991455,-0.17841797,103.0
46894,-0.5862131,0.87675095,0.114349365,-0.86553955,0.4991455,-0.17841797,103.0
46895,-0.5862131,0.87675095,0.114349365,-0.7954468,0.48215333,-0.17629395,103.0
46896,-0.51363564,0.8051224,0.12200928,-0.7954468,0.48215333,-0.17629395,103.0
46897,-0.51363564,0.8051224,0.12200928,-0.727478,0.45347902,-0.22302246,103.0
46898,-0.52290726,0.6946945,0.19706726,-0.727478,0.45347902,-0.22302246,103.0
46899,-0.52290726,0.6946945,0.19706726,-0.68712157,0.38551027,-0.29311523,103.0
46900,-0.61616516,0.56637573,0.356781,-0.68712157,0.38551027,-0.29311523,103.0
46901,-0.61616516,0.56637573,0.356781,-0.67225343,0.27718505,-0.36745605,103.0
46902,-0.6506233,0.45728683,0.5167999,-0.67225343,0.27718505,-0.36745605,103.0
46903,-0.6506233,0.45728683,0.5167999,-0.62552494,0.15505372,-0.4067505,103.0
46904,-0.5655308,0.3911705,0.5865936,-0.62552494,0.15505372,-0.4067505,103.0
46905,-0.5655308,0.3911705,0.5865936,-0.50870365,0.052038576,-0.40250245,103.0
46906,-0.4470291,0.32865906,0.5679016,-0.50870365,0.052038576,-0.40250245,103.0
46907,-0.4470291,0.32865906,0.5679016,-0.4088745,-0.015930176,-0.3727661,103.0
46908,-0.30480385,0.2715206,0.4711151,-0.4088745,-0.015930176,-0.3727661,103.0
46909,-0.30480385,0.2715206,0.4711151,-0.36533204,-0.06690674,-0.35046387,103.0
46910,-0.1508379,0.22095108,0.31314087,-0.36533204,-0.06690674,-0.35046387,103.0
46911,-0.1508379,0.22095108,0.31314087,-0.3802002,-0.06159668,-0.30054933,103.0
46912,-0.17743301,0.208107,0.1907196,-0.3802002,-0.06159668,-0.30054933,103.0
46913,-0.17743301,0.208107,0.1907196,-0.43861085,-0.07646485,-0.22302246,103.0
46914,-0.49283695,0.16423988,0.16603088,-0.43861085,-0.07646485,-0.22302246,103.0
46915,-0.49283695,0.16423988,0.16603088,-0.4800293,-0.13699952,-0.16142578,103.0
46916,-0.87721634,0.008405685,0.19480896,-0.4800293,-0.13699952,-0.16142578,103.0
46917,-0.87721634,0.008405685,0.19480896,-0.42374268,-0.21134034,-0.1083252,103.0
46918,-1.1038733,-0.18065262,0.23709106,-0.42374268,-0.21134034,-0.1083252,103.0
46919,-1.1038733,-0.18065262,0.23709106,-0.35152587,-0.29630128,-0.06796875,103.0
46920,-1.1961966,-0.354496,0.25990295,-0.35152587,-0.29630128,-0.06796875,103.0
46921,-1.1961966,-0.354496,0.25990295,-0.24107666,-0.41524658,-0.050976563,103.0
46922,-1.1159906,-0.5206089,0.26634216,-0.24107666,-0.41524658,-0.050976563,103.0
46923,-1.1159906,-0.5206089,0.26634216,-0.11682129,-0.57242435,-0.039294433,103.0
46924,-0.8382883,-0.65397453,0.3000946,-0.11682129,-0.57242435,-0.039294433,103.0
46925,-0.8382883,-0.65397453,0.3000946,0.028674318,-0.6956177,-0.011682129,103.0
46926,-0.54232216,-0.75390625,0.32302856,0.028674318,-0.6956177,-0.011682129,103.0
46927,-0.54232216,-0.75390625,0.32302856,0.18054199,-0.8092529,0.009558106,103.0
46928,-0.32799816,-0.8296509,0.29457092,0.18054199,-0.8092529,0.009558106,103.0
46929,-0.32799816,-0.8296509,0.29457092,0.25594482,-0.8931519,0.0,103.0
46930,-0.11592674,-0.87145996,0.26005554,0.25594482,-0.8931519,0.0,103.0
46931,-0.11592674,-0.87145996,0.26005554,0.24638672,-0.9876709,-0.07646485,103.0
46932,0.15550137,-0.8093262,0.22624207,0.24638672,-0.9876709,-0.07646485,103.0
46933,0.15550137,-0.8093262,0.22624207,0.25700685,-1.0959961,-0.121069334,103.0
46934,0.5815296,-0.6907463,0.14466858,0.25700685,-1.0959961,-0.121069334,103.0
46935,0.5815296,-0.6907463,0.14466858,0.2357666,-1.1660889,-0.16673584,103.0
46936,1.0219984,-0.641489,0.007598877,0.2357666,-1.1660889,-0.16673584,103.0
46937,1.0219984,-0.641489,0.007598877,0.19541016,-1.0397094,-0.1996582,103.0
46938,1.174984,-0.6142292,-0.20858765,0.19541016,-1.0397094,-0.1996582,103.0
46939,1.174984,-0.6142292,-0.20858765,0.11682129,-0.95368654,-0.16248779,103.0
46940,1.1264133,-0.52575874,-0.603302,0.11682129,-0.95368654,-0.16248779,103.0
46941,1.1264133,-0.52575874,-0.603302,0.22408448,-0.7975708,-0.050976563,103.0
46942,1.0987864,-0.25819206,-1.007721,0.22408448,-0.7975708,-0.050976563,103.0
46943,1.0987864,-0.25819206,-1.007721,0.4354248,-0.62764895,0.21240234,103.0
46944,1.2936659,0.46800613,-1.0400696,0.4354248,-0.62764895,0.21240234,103.0
46945,1.2936659,0.46800613,-1.0400696,0.40144044,-0.3355957,0.2793091,103.0
46946,1.5644617,1.2528114,-0.45896912,0.40144044,-0.3355957,0.2793091,103.0
46947,1.5644617,1.2528114,-0.45896912,-0.13487549,0.0998291,0.42055663,103.0
46948,1.6512156,1.0960484,0.3109436,-0.13487549,0.0998291,0.42055663,103.0
46949,1.6512156,1.0960484,0.3109436,-0.050976563,0.3058594,0.52675784,103.0
46950,1.3103275,0.63053703,0.5861969,-0.050976563,0.3058594,0.52675784,103.0
46951,1.3103275,0.63053703,0.5861969,-0.13275146,0.4056885,0.270813,103.0
46952,0.5043287,0.7660141,0.09240723,-0.13275146,0.4056885,0.270813,103.0
46953,0.5043287,0.7660141,0.09240723,-0.7104859,0.23151855,0.22833252,103.0
46954,-0.40187168,0.8869095,-0.86958313,-0.7104859,0.23151855,0.22833252,103.0
46955,-0.40187168,0.8869095,-0.86958313,-1.1629028,-0.011682129,0.38975832,103.0
46956,-0.9973879,0.5911789,-1.5173035,-1.1629028,-0.011682129,0.38975832,103.0
46957,-0.9973879,0.5911789,-1.5173035,-1.3190186,-0.29205322,0.51826173,103.0
46958,-0.9356537,0.030292511,-1.4038696,-1.3190186,-0.29205322,0.51826173,103.0
46959,-0.9356537,0.030292511,-1.4038696,-1.0142212,-0.35577393,0.43754885,103.0
46960,-0.42401123,-0.32506943,-0.72636414,-1.0142212,-0.35577393,0.43754885,103.0
46961,-0.42401123,-0.32506943,-0.72636414,-0.82730716,-0.28568116,0.40144044,103.0
46962,-0.42401123,-0.32506943,-0.72636414,-0.82730716,-0.28568116,0.40144044,103.0
46963,0.0234375,-0.01662445,0.1282196,-0.82730716,-0.28568116,0.40144044,103.0
46964,0.0234375,-0.01662445,0.1282196,-1.3190186,-0.2347046,0.544812,103.0
46965,0.22852802,0.72364044,0.78585815,-1.3190186,-0.2347046,0.544812,103.0
46966,0.22852802,0.72364044,0.78585815,-2.4755495,-0.32285157,0.8814697,103.0
46967,0.5593357,0.09617233,0.7632141,-2.4755495,-0.32285157,0.8814697,103.0
46968,0.5593357,0.09617233,0.7632141,-2.7198122,-0.39082032,1.1459106,103.0
46969,1.3469801,-1.8613815,0.11979675,-2.7198122,-0.39082032,1.1459106,103.0
46970,1.3469801,-1.8613815,0.11979675,-1.3253907,-0.13062744,1.3190186,103.0
46971,2.2008877,-3.2234554,-0.23699951,-1.3253907,-0.13062744,1.3190186,103.0
46972,2.2008877,-3.2234554,-0.23699951,-0.630835,-0.08814698,1.7321411,103.0
46973,2.5946941,-3.6429977,-0.3877411,-0.630835,-0.08814698,1.7321411,103.0
46974,2.5946941,-3.6429977,-0.3877411,-0.12850343,-0.14230958,1.8298463,103.0
46975,2.4595203,-3.03714,-0.67030334,-0.12850343,-0.14230958,1.8298463,103.0
46976,2.4595203,-3.03714,-0.67030334,0.1359375,-0.2442627,2.0592408,103.0
46977,2.036562,-1.8304329,-0.91947937,0.1359375,-0.2442627,2.0592408,103.0
46978,2.036562,-1.8304329,-0.91947937,0.058410645,-0.3717041,2.1813722,103.0
46979,1.4220476,-1.1277256,-1.2936096,0.058410645,-0.3717041,2.1813722,103.0
46980,1.4220476,-1.1277256,-1.2936096,0.09239502,-0.4704712,2.3204956,103.0
46981,0.28102207,-0.75862503,-1.6657562,0.09239502,-0.4704712,2.3204956,103.0
46982,0.28102207,-0.75862503,-1.6657562,0.24957275,-0.5129517,2.269519,103.0
46983,-1.2664795,0.21690369,-1.2333679,0.24957275,-0.5129517,2.269519,103.0
46984,-1.2664795,0.21690369,-1.2333679,0.33665773,-0.4895874,1.8192261,103.0
46985,-2.735693,1.6294689,0.07286072,0.33665773,-0.4895874,1.8192261,103.0
46986,-2.735693,1.6294689,0.07286072,0.2516968,-0.35577393,1.2521118,103.0
46987,-3.677947,2.5816765,1.5080719,0.2516968,-0.35577393,1.2521118,103.0
46988,-3.677947,2.5816765,1.5080719,0.038232423,-0.19116211,0.60216063,103.0
46989,-3.707775,2.259348,2.5347595,0.038232423,-0.19116211,0.60216063,103.0
46990,-3.707775,2.259348,2.5347595,0.115759276,0.33240968,0.040356446,103.0
46991,-3.148837,0.63244057,3.1270905,0.115759276,0.33240968,0.040356446,103.0
46992,-3.148837,0.63244057,3.1270905,-0.2081543,0.56605226,-0.23151855,103.0
46993,-2.4610376,-1.5468178,2.756195,-0.2081543,0.56605226,-0.23151855,103.0
46994,-2.4610376,-1.5468178,2.756195,-0.362146,0.4694092,-0.27399904,103.0
46995,-1.5761299,-2.7639313,1.5006714,-0.362146,0.4694092,-0.27399904,103.0
46996,-1.5761299,-2.7639313,1.5006714,-0.34833986,0.3175415,-0.36320803,103.0
46997,-0.45017433,-2.3663445,0.28910828,-0.34833986,0.3175415,-0.36320803,103.0
46998,-0.45017433,-2.3663445,0.28910828,-0.6085327,0.16673584,-0.36108398,103.0
46999,0.75498486,-1.558384,-0.41131592,-0.6085327,0.16673584,-0.36108398,103.0
47000,0.75498486,-1.558384,-0.41131592,-0.6074707,-0.07327881,-0.39294434,103.0
47001,1.9679642,-1.2975864,-0.33361816,-0.6074707,-0.07327881,-0.39294434,103.0
47002,1.9679642,-1.2975864,-0.33361816,-0.31966552,-0.20178223,-0.4970215,103.0
47003,2.8572454,-1.226326,0.16574097,-0.31966552,-0.20178223,-0.4970215,103.0
47004,2.8572454,-1.226326,0.16574097,0.24001466,-0.07965088,-0.67650145,103.0
47005,2.6618824,-0.40826988,0.13175964,0.24001466,-0.07965088,-0.67650145,103.0
47006,2.6618824,-0.40826988,0.13175964,0.5320679,0.18691407,-0.8230591,103.0
47007,1.2985363,0.6470299,-0.7192688,0.5320679,0.18691407,-0.8230591,103.0
47008,1.2985363,0.6470299,-0.7192688,0.6775635,0.16461182,-0.994043,103.0
47009,-0.21915436,0.48765564,-1.5370789,0.6775635,0.16461182,-0.994043,103.0
47010,-0.21915436,0.48765564,-1.5370789,1.4145997,0.039294433,-1.3137085,103.0
47011,-1.0463676,-0.37796593,-1.8482513,1.4145997,0.039294433,-1.3137085,103.0
47012,-1.0463676,-0.37796593,-1.8482513,2.151636,0.016992187,-1.4857544,103.0
47013,-1.3569908,-0.4797039,-1.8777161,2.151636,0.016992187,-1.4857544,103.0
47014,-1.3569908,-0.4797039,-1.8777161,2.5721924,-0.10301514,-1.5346069,103.0
47015,-1.4434414,0.4665184,-1.8551788,2.5721924,-0.10301514,-1.5346069,103.0
47016,-1.4434414,0.4665184,-1.8551788,2.4978516,-0.21452637,-1.4294678,103.0
47017,-1.1906662,1.9721775,-1.6271057,2.4978516,-0.21452637,-1.4294678,103.0
47018,-1.1906662,1.9721775,-1.6271057,1.5006226,-0.012744141,-0.9855469,103.0
47019,-0.83319664,2.8302078,-0.9437256,1.5006226,-0.012744141,-0.9855469,103.0
47020,-0.83319664,2.8302078,-0.9437256,0.29736328,0.43754885,-0.6860596,103.0
47021,-0.68083954,2.2669983,0.004470825,0.29736328,0.43754885,-0.6860596,103.0
47022,-0.68083954,2.2669983,0.004470825,-0.32391357,0.8750977,-0.46516114,103.0
47023,-0.5744324,1.2100716,1.217453,-0.32391357,0.8750977,-0.46516114,103.0
47024,-0.5744324,1.2100716,1.217453,-0.29523927,1.2563599,-0.21240234,103.0
47025,-0.51811504,0.5003319,2.200531,-0.29523927,1.2563599,-0.21240234,103.0
47026,-0.51811504,0.5003319,2.200531,0.20921631,1.0736939,-0.0031860352,103.0
47027,-0.616066,0.21755028,1.7815552,0.20921631,1.0736939,-0.0031860352,103.0
47028,-0.616066,0.21755028,1.7815552,0.87191164,0.90908206,-0.095581055,103.0
47029,-0.7241154,0.30568123,0.22436523,0.87191164,0.90908206,-0.095581055,103.0
47030,-0.7241154,0.30568123,0.22436523,1.0057251,0.73597413,-0.3355957,103.0
47031,-0.43328476,0.19525337,-0.6675415,1.0057251,0.73597413,-0.3355957,103.0
47032,-0.43328476,0.19525337,-0.6675415,1.0269654,0.58198243,-0.5957886,103.0
47033,0.48786926,-0.15058517,0.15675354,1.0269654,0.58198243,-0.5957886,103.0
47034,0.48786926,-0.15058517,0.15675354,0.31116945,0.3069214,-0.6966797,103.0
47035,1.5916748,-0.33366394,1.3137817,0.31116945,0.3069214,-0.6966797,103.0
47036,1.5916748,-0.33366394,1.3137817,-0.53950197,0.124255374,-0.6775635,103.0
47037,1.9619503,-0.5772095,1.0775757,-0.53950197,0.124255374,-0.6775635,103.0
47038,1.9619503,-0.5772095,1.0775757,-0.41418457,-0.07965088,-0.6680054,103.0
47039,1.6561565,-0.49663162,0.017745972,-0.41418457,-0.07965088,-0.6680054,103.0
47040,1.6561565,-0.49663162,0.017745972,-0.2548828,-0.06903076,-0.56605226,103.0
47041,1.1649275,0.033834457,-0.48188782,-0.2548828,-0.06903076,-0.56605226,103.0
47042,1.1649275,0.033834457,-0.48188782,-0.28355715,-0.23151855,-0.43011475,103.0
47043,0.6384363,0.4900055,-0.15768433,-0.28355715,-0.23151855,-0.43011475,103.0
47044,0.6384363,0.4900055,-0.15768433,-0.2357666,-0.23789063,-0.3419678,103.0
47045,0.28119564,0.6883545,0.03439331,-0.2357666,-0.23789063,-0.3419678,103.0
47046,0.28119564,0.6883545,0.03439331,-0.13912354,-0.4428589,-0.24320069,103.0
47047,0.24381638,0.82580566,0.018600464,-0.13912354,-0.4428589,-0.24320069,103.0
47048,0.24381638,0.82580566,0.018600464,-0.118945315,-0.25806886,-0.22408448,103.0
47049,0.34588242,0.97678185,0.39256287,-0.118945315,-0.25806886,-0.22408448,103.0
47050,0.34588242,0.97678185,0.39256287,-0.5968506,-0.059472658,-0.004248047,103.0
47051,0.019589424,0.8173752,0.895401,-0.5968506,-0.059472658,-0.004248047,103.0
47052,0.019589424,0.8173752,0.895401,-0.630835,0.014868164,0.045666505,103.0
47053,-0.36357594,0.47100067,1.0685272,-0.630835,0.014868164,0.045666505,103.0
47054,-0.36357594,0.47100067,1.0685272,-0.35577393,0.029736329,0.09133301,103.0
47055,-0.26830196,0.14701462,1.0356598,-0.35577393,0.029736329,0.09133301,103.0
47056,-0.26830196,0.14701462,1.0356598,-0.4333008,0.121069334,0.3079834,103.0
47057,0.46609592,-0.46915627,1.0716248,-0.4333008,0.121069334,0.3079834,103.0
47058,0.46609592,-0.46915627,1.0716248,-0.41206056,0.4619751,0.34833986,103.0
47059,1.0797253,-0.79989815,1.2515106,-0.41206056,0.4619751,0.34833986,103.0
47060,1.0797253,-0.79989815,1.2515106,0.028674318,0.73809814,0.36639404,103.0
47061,0.7690897,-0.33950424,1.0063477,0.028674318,0.73809814,0.36639404,103.0
47062,0.7690897,-0.33950424,1.0063477,0.18903808,0.6159668,0.29099122,103.0
47063,0.18452263,0.2401638,-3.6621094E-4,0.18903808,0.6159668,0.29099122,103.0
47064,0.18452263,0.2401638,-3.6621094E-4,0.42268068,0.64995116,0.3451538,103.0
47065,-0.1190815,0.52915573,-0.89727783,0.42268068,0.64995116,0.3451538,103.0
47066,-0.1190815,0.52915573,-0.89727783,0.20921631,0.6573853,0.34833986,103.0
47067,-0.15667915,0.3403778,-0.9915314,0.20921631,0.6573853,0.34833986,103.0
47068,-0.15667915,0.3403778,-0.9915314,0.20921631,0.6573853,0.34833986,103.0
47069,-0.15667915,0.3403778,-0.9915314,0.13487549,0.61278075,0.40993652,103.0
47070,0.0045394897,-0.20096588,-0.50149536,0.13487549,0.61278075,0.40993652,103.0
47071,0.0045394897,-0.20096588,-0.50149536,0.27293703,0.6818115,0.41206056,103.0
47072,0.12896061,-0.57079506,-0.13833618,0.27293703,0.6818115,0.41206056,103.0
47073,0.12896061,-0.57079506,-0.13833618,0.26125488,0.77739257,0.40993652,103.0
47074,0.14456272,-0.5633621,-0.0818634,0.26125488,0.77739257,0.40993652,103.0
47075,0.14456272,-0.5633621,-0.0818634,0.21346436,0.85704345,0.40993652,103.0
47076,0.17894363,-0.39843178,0.03036499,0.21346436,0.85704345,0.40993652,103.0
47077,0.17894363,-0.39843178,0.03036499,0.2824951,0.904834,0.41312256,103.0
47078,0.18533039,-0.31158066,0.24310303,0.2824951,0.904834,0.41312256,103.0
47079,0.18533039,-0.31158066,0.24310303,0.31010744,0.9611206,0.45772704,103.0
47080,0.066085815,-0.3541832,0.28347778,0.31010744,0.9611206,0.45772704,103.0
47081,0.066085815,-0.3541832,0.28347778,0.4056885,1.0014771,0.5246338,103.0
47082,-0.038074493,-0.4171238,0.26661682,0.4056885,1.0014771,0.5246338,103.0
47083,-0.038074493,-0.4171238,0.26661682,0.4428589,1.088562,0.5915405,103.0
47084,-0.03413391,-0.47605896,0.3572235,0.4428589,1.088562,0.5915405,103.0
47085,-0.03413391,-0.47605896,0.3572235,0.42161867,1.2266235,0.6881836,103.0
47086,0.06490517,-0.80628586,0.51223755,0.42161867,1.2266235,0.6881836,103.0
47087,0.06490517,-0.80628586,0.51223755,0.39613038,1.3168945,0.83474123,103.0
47088,0.31778145,-1.4919662,0.7509918,0.39613038,1.3168945,0.83474123,103.0
47089,0.31778145,-1.4919662,0.7509918,0.50870365,1.4655762,0.9759888,103.0
47090,0.670619,-2.0638237,1.0626221,0.50870365,1.4655762,0.9759888,103.0
47091,0.670619,-2.0638237,1.0626221,0.62127686,1.5547851,1.0556396,103.0
47092,0.82108974,-2.0606537,1.1433563,0.62127686,1.5547851,1.0556396,103.0
47093,0.82108974,-2.0606537,1.1433563,0.725354,1.5473511,1.0290893,103.0
47094,0.7593498,-1.591711,0.8605499,0.725354,1.5473511,1.0290893,103.0
47095,0.7593498,-1.591711,0.8605499,0.8028809,1.5218629,0.994043,103.0
47096,0.78487206,-1.2502861,0.672348,0.8028809,1.5218629,0.994043,103.0
47097,0.78487206,-1.2502861,0.672348,0.8050049,1.5537232,0.89102787,103.0
47098,0.8356247,-1.3820763,0.95692444,0.8050049,1.5537232,0.89102787,103.0
47099,0.8356247,-1.3820763,0.95692444,0.71367186,1.4772583,0.80181885,103.0
47100,0.58991146,-1.3482037,1.3494263,0.71367186,1.4772583,0.80181885,103.0
47101,0.58991146,-1.3482037,1.3494263,0.5883545,1.3275146,0.6605713,103.0
47102,0.02891159,-0.5389881,1.6154633,0.5883545,1.3275146,0.6605713,103.0
47103,0.02891159,-0.5389881,1.6154633,0.36745605,1.2011353,0.48427734,103.0
47104,-0.6951809,0.42506027,1.7500458,0.36745605,1.2011353,0.48427734,103.0
47105,-0.6951809,0.42506027,1.7500458,0.18797608,1.1416626,0.37701416,103.0
47106,-1.2820482,0.73636055,1.7037048,0.18797608,1.1416626,0.37701416,103.0
47107,-1.2820482,0.73636055,1.7037048,0.31435546,1.0099732,0.26762697,103.0
47108,-1.5030918,0.60632515,1.7174988,0.31435546,1.0099732,0.26762697,103.0
47109,-1.5030918,0.60632515,1.7174988,0.62340087,0.811377,0.22089843,103.0
47110,-1.4594316,0.54476357,1.7729645,0.62340087,0.811377,0.22089843,103.0
47111,-1.4594316,0.54476357,1.7729645,0.87615967,0.5384399,0.17416993,103.0
47112,-1.2362833,0.43057442,1.2646332,0.87615967,0.5384399,0.17416993,103.0
47113,-1.2362833,0.43057442,1.2646332,1.085376,0.4248047,0.118945315,103.0
47114,-0.94930553,-0.041381836,0.27664185,1.085376,0.4248047,0.118945315,103.0
47115,-0.94930553,-0.041381836,0.27664185,1.4995606,0.1529297,0.16036378,103.0
47116,-0.61511993,-0.6921005,-0.21412659,1.4995606,0.1529297,0.16036378,103.0
47117,-0.61511993,-0.6921005,-0.21412659,2.3587282,-0.19753419,0.22727051,103.0
47118,-0.097955704,-0.7783146,0.057876587,2.3587282,-0.19753419,0.22727051,103.0
47119,-0.097955704,-0.7783146,0.057876587,3.003369,-0.0637207,0.3430298,103.0
47120,0.42942333,-0.15612411,0.41018677,3.003369,-0.0637207,0.3430298,103.0
47121,0.42942333,-0.15612411,0.41018677,3.1998413,0.2177124,0.34833986,103.0
47122,0.7302084,0.38695335,0.40045166,3.1998413,0.2177124,0.34833986,103.0
47123,0.7302084,0.38695335,0.40045166,2.9460206,0.43754885,0.47896728,103.0
47124,0.7172718,0.03998375,0.080093384,2.9460206,0.43754885,0.47896728,103.0
47125,0.7172718,0.03998375,0.080093384,2.5562623,0.4991455,0.6446411,103.0
47126,0.45863152,-1.0761299,-0.3197174,2.5562623,0.4991455,0.6446411,103.0
47127,0.45863152,-1.0761299,-0.3197174,2.3693483,0.4970215,0.9526245,103.0
47128,0.11542797,-1.7154579,-0.46531677,2.3693483,0.4970215,0.9526245,103.0
47129,0.11542797,-1.7154579,-0.46531677,2.552014,0.34727785,0.6796875,103.0
47130,0.14956856,-1.238821,-0.22886658,2.552014,0.34727785,0.6796875,103.0
47131,0.14956856,-1.238821,-0.22886658,2.2302246,0.41524658,1.1108643,103.0
47132,0.32904243,-0.58992195,0.25134277,2.2302246,0.41524658,1.1108643,103.0
47133,0.32904243,-0.58992195,0.25134277,1.5898316,0.40462646,1.2924683,103.0
47134,0.24553299,-1.0758324,0.5838928,1.5898316,0.40462646,1.2924683,103.0
47135,0.24553299,-1.0758324,0.5838928,1.5622193,0.43011475,1.454956,103.0
47136,0.26092815,-1.9077473,0.6533966,1.5622193,0.43011475,1.454956,103.0
47137,0.26092815,-1.9077473,0.6533966,2.092163,0.58623046,1.6705445,103.0
47138,0.35375023,-1.5980606,0.853714,2.092163,0.58623046,1.6705445,103.0
47139,0.35375023,-1.5980606,0.853714,2.2249146,0.64782715,1.8840088,103.0
47140,0.30373955,-0.5933037,1.1065521,2.2249146,0.64782715,1.8840088,103.0
47141,0.30373955,-0.5933037,1.1065521,2.163318,0.65207523,2.1049073,103.0
47142,0.13532543,-0.01910019,1.122757,2.163318,0.65207523,2.1049073,103.0
47143,0.13532543,-0.01910019,1.122757,2.0560548,0.69349366,2.262085,103.0
47144,0.059957504,-0.09928894,0.6598816,2.0560548,0.69349366,2.262085,103.0
47145,0.059957504,-0.09928894,0.6598816,2.086853,0.7880127,2.3151855,103.0
47146,0.16957188,-0.35926628,-0.31982422,2.086853,0.7880127,2.3151855,103.0
47147,0.16957188,-0.35926628,-0.31982422,2.3204956,1.0078491,2.35448,103.0
47148,0.3034191,-0.41750336,-1.276474,2.3204956,1.0078491,2.35448,103.0
47149,0.3034191,-0.41750336,-1.276474,2.4298828,1.2213135,2.3353639,103.0
47150,0.3870592,-0.17529869,-1.6517334,2.4298828,1.2213135,2.3353639,103.0
47151,0.3870592,-0.17529869,-1.6517334,2.156946,1.3965454,2.2302246,103.0
47152,0.36432266,0.11868477,-1.4961243,2.156946,1.3965454,2.2302246,103.0
47153,0.36432266,0.11868477,-1.4961243,2.1282716,1.540979,1.903125,103.0
47154,0.19309425,-0.03321457,-1.1801605,2.1282716,1.540979,1.903125,103.0
47155,0.19309425,-0.03321457,-1.1801605,2.4936035,1.6503662,1.4156617,103.0
47156,0.026813507,-0.085422516,-0.94181824,2.4936035,1.6503662,1.4156617,103.0
47157,0.026813507,-0.085422516,-0.94181824,3.0670898,1.9116211,1.0981201,103.0
47158,-0.23462868,1.0141582,-0.662735,3.0670898,1.9116211,1.0981201,103.0
47159,-0.23462868,1.0141582,-0.662735,2.6497192,1.9116211,0.8442993,103.0
47160,-0.23462868,1.0141582,-0.662735,2.6497192,1.9116211,0.8442993,103.0
47161,-0.76514435,2.3291855,-0.2821808,2.6497192,1.9116211,0.8442993,103.0
47162,-0.76514435,2.3291855,-0.2821808,1.8903809,1.5717773,0.5256958,103.0
47163,-1.0936699,2.1758728,0.1615448,1.8903809,1.5717773,0.5256958,103.0
47164,-1.0936699,2.1758728,0.1615448,1.4698242,1.2446778,0.29630128,103.0
47165,-0.84928894,0.7120247,0.7223816,1.4698242,1.2446778,0.29630128,103.0
47166,-0.84928894,0.7120247,0.7223816,1.4326538,1.0726318,0.07752686,103.0
47167,-0.45965576,-0.44285583,1.1136475,1.4326538,1.0726318,0.07752686,103.0
47168,-0.45965576,-0.44285583,1.1136475,1.4793824,1.0036011,-0.09664307,103.0
47169,-0.49088192,-0.38282394,0.92811584,1.4793824,1.0036011,-0.09664307,103.0
47170,-0.49088192,-0.38282394,0.92811584,1.3158325,0.81987303,-0.25806886,103.0
47171,-0.87470055,0.17564964,0.37739563,1.3158325,0.81987303,-0.25806886,103.0
47172,-0.87470055,0.17564964,0.37739563,1.2563599,0.4609131,-0.42374268,103.0
47173,-0.99022675,0.34993172,0.19372559,1.2563599,0.4609131,-0.42374268,103.0
47174,-0.99022675,0.34993172,0.19372559,1.3689331,0.14018555,-0.43011475,103.0
47175,-0.61902523,0.22069359,0.6381073,1.3689331,0.14018555,-0.43011475,103.0
47176,-0.61902523,0.22069359,0.6381073,1.3211426,0.047790527,-0.38444826,103.0
47177,-0.29358387,0.048662186,1.0608215,1.3211426,0.047790527,-0.38444826,103.0
47178,-0.29358387,0.048662186,1.0608215,1.1905152,-0.043542482,-0.452417,103.0
47179,-0.22214794,-0.27189827,1.0852356,1.1905152,-0.043542482,-0.452417,103.0
47180,-0.22214794,-0.27189827,1.0852356,1.1650269,-0.15611573,-0.26337892,103.0
47181,-0.13059998,-0.33418083,1.055069,1.1650269,-0.15611573,-0.26337892,103.0
47182,-0.13059998,-0.33418083,1.055069,1.0290893,-0.13168946,-0.09664307,103.0
47183,-0.08967304,-0.10816574,1.1027985,1.0290893,-0.13168946,-0.09664307,103.0
47184,-0.08967304,-0.10816574,1.1027985,0.88253176,-0.10301514,-0.004248047,103.0
47185,-0.14400387,-0.0712986,1.1130829,0.88253176,-0.10301514,-0.004248047,103.0
47186,-0.14400387,-0.0712986,1.1130829,0.8358032,-0.020178223,0.070092775,103.0
47187,-0.22937584,-0.10142326,1.0453644,0.8358032,-0.020178223,0.070092775,103.0
47188,-0.22937584,-0.10142326,1.0453644,0.81031495,0.016992187,0.14868164,103.0
47189,-0.3111992,0.113147736,0.93655396,0.81031495,0.016992187,0.14868164,103.0
47190,-0.3111992,0.113147736,0.93655396,0.72960204,0.012744141,0.21134034,103.0
47191,-0.3254118,0.3800087,0.81936646,0.72960204,0.012744141,0.21134034,103.0
47192,-0.3254118,0.3800087,0.81936646,0.6754395,-0.012744141,0.2548828,103.0
47193,-0.25411606,0.50144386,0.5643158,0.6754395,-0.012744141,0.2548828,103.0
47194,-0.25411606,0.50144386,0.5643158,0.62977296,-0.0021240234,0.29205322,103.0
47195,-0.2172203,0.55589104,0.094818115,0.62977296,-0.0021240234,0.29205322,103.0
47196,-0.2172203,0.55589104,0.094818115,0.60322267,0.02442627,0.3345337,103.0
47197,-0.26615906,0.5925026,-0.29760742,0.60322267,0.02442627,0.3345337,103.0
47198,-0.26615906,0.5925026,-0.29760742,0.6446411,0.014868164,0.3812622,103.0
47199,-0.23956299,0.7026882,-0.3450775,0.6446411,0.014868164,0.3812622,103.0
47200,-0.23956299,0.7026882,-0.3450775,0.6425171,-0.0031860352,0.42799073,103.0
47201,-0.14416504,0.8937187,-0.21894836,0.6425171,-0.0031860352,0.42799073,103.0
47202,-0.14416504,0.8937187,-0.21894836,0.5076416,-0.029736329,0.44604492,103.0
47203,-0.10294151,0.85430527,-0.28022766,0.5076416,-0.029736329,0.44604492,103.0
47204,-0.10294151,0.85430527,-0.28022766,0.4800293,-0.07540283,0.38551027,103.0
47205,-0.109708786,0.51465607,-0.49012756,0.4800293,-0.07540283,0.38551027,103.0
47206,-0.109708786,0.51465607,-0.49012756,0.632959,-0.07434082,0.41524658,103.0
47207,-0.09799671,0.40820885,-0.47798157,0.632959,-0.07434082,0.41524658,103.0
47208,-0.09799671,0.40820885,-0.47798157,0.6287109,-0.11151123,0.41312256,103.0
47209,-0.04591465,0.60264206,-0.22499084,0.6287109,-0.11151123,0.41312256,103.0
47210,-0.04591465,0.60264206,-0.22499084,0.44179687,-0.20284425,0.4056885,103.0
47211,0.030150414,0.6230202,-0.01864624,0.44179687,-0.20284425,0.4056885,103.0
47212,0.030150414,0.6230202,-0.01864624,0.24851075,-0.26975098,0.41949463,103.0
47213,0.100914955,0.2760048,-0.09979248,0.24851075,-0.26975098,0.41949463,103.0
47214,0.100914955,0.2760048,-0.09979248,0.23045655,-0.32285157,0.35152587,103.0
47215,0.15062904,-0.26317978,-0.42634583,0.23045655,-0.32285157,0.35152587,103.0
47216,0.15062904,-0.26317978,-0.42634583,0.32603762,-0.32922363,0.33878174,103.0
47217,0.17561817,-0.5300369,-0.6480255,0.32603762,-0.32922363,0.33878174,103.0
47218,0.17561817,-0.5300369,-0.6480255,0.3355957,-0.31010744,0.32178956,103.0
47219,0.21666622,-0.35767174,-0.5877075,0.3355957,-0.31010744,0.32178956,103.0
47220,0.21666622,-0.35767174,-0.5877075,0.21346436,-0.3090454,0.2623169,103.0
47221,0.32500553,-0.21465302,-0.35339355,0.21346436,-0.3090454,0.2623169,103.0
47222,0.32500553,-0.21465302,-0.35339355,0.06159668,-0.33028564,0.18691407,103.0
47223,0.4809513,-0.40558434,-0.1582489,0.06159668,-0.33028564,0.18691407,103.0
47224,0.4809513,-0.40558434,-0.1582489,0.118945315,-0.3154175,0.1083252,103.0
47225,0.58174515,-0.53007126,-0.08232117,0.118945315,-0.3154175,0.1083252,103.0
47226,0.58174515,-0.53007126,-0.08232117,0.059472658,-0.2899292,0.0722168,103.0
47227,0.58512306,-0.39738464,-0.06161499,0.059472658,-0.2899292,0.0722168,103.0
47228,0.58512306,-0.39738464,-0.06161499,-0.047790527,-0.29099122,0.008496094,103.0
47229,0.5442829,-0.29019737,-0.039123535,-0.047790527,-0.29099122,0.008496094,103.0
47230,0.5442829,-0.29019737,-0.039123535,-0.06690674,-0.2899292,-0.045666505,103.0
47231,0.5067396,-0.26086998,0.0473938,-0.06690674,-0.2899292,-0.045666505,103.0
47232,0.5067396,-0.26086998,0.0473938,-0.08814698,-0.2814331,-0.093457036,103.0
47233,0.4633999,-0.24029922,0.16043091,-0.08814698,-0.2814331,-0.093457036,103.0
47234,0.4633999,-0.24029922,0.16043091,-0.08814698,-0.271875,-0.124255374,103.0
47235,0.3808031,-0.1852932,0.14950562,-0.08814698,-0.271875,-0.124255374,103.0
47236,0.3808031,-0.1852932,0.14950562,-0.08814698,-0.25913087,-0.14337158,103.0
47237,0.3085003,-0.12607956,0.19171143,-0.08814698,-0.25913087,-0.14337158,103.0
47238,0.3085003,-0.12607956,0.19171143,-0.1274414,-0.2347046,-0.16354981,103.0
47239,0.23636246,-0.07928276,0.14553833,-0.1274414,-0.2347046,-0.16354981,103.0
47240,0.23636246,-0.07928276,0.14553833,-0.14018555,-0.22939454,-0.17416993,103.0
47241,0.14053059,-0.11081314,0.23649597,-0.14018555,-0.22939454,-0.17416993,103.0
47242,0.14053059,-0.11081314,0.23649597,-0.12531738,-0.22408448,-0.17735596,103.0
47243,0.11331558,-0.074588776,0.22857666,-0.12531738,-0.22408448,-0.17735596,103.0
47244,0.11331558,-0.074588776,0.22857666,-0.13062744,-0.22514649,-0.17735596,103.0
47245,0.18163109,-0.088344574,0.32870483,-0.13062744,-0.22514649,-0.17735596,103.0
47246,0.18163109,-0.088344574,0.32870483,-0.07646485,-0.18266602,-0.18054199,103.0
47247,0.17909336,-0.07259178,0.2682953,-0.07646485,-0.18266602,-0.18054199,103.0
47248,0.17909336,-0.07259178,0.2682953,-0.0637207,-0.16461182,-0.16885987,103.0
47249,0.21367264,0.013521194,0.26350403,-0.0637207,-0.16461182,-0.16885987,103.0
47250,0.21367264,0.013521194,0.26350403,-0.058410645,-0.09239502,-0.13912354,103.0
47251,0.18072891,0.09568024,0.20237732,-0.058410645,-0.09239502,-0.13912354,103.0
47252,0.18072891,0.09568024,0.20237732,-0.078588866,-0.06690674,-0.1263794,103.0
47253,0.06235695,0.25778198,0.021469116,-0.078588866,-0.06690674,-0.1263794,103.0
47254,0.06235695,0.25778198,0.021469116,-0.058410645,0.014868164,-0.13806152,103.0
47255,-0.0023241043,0.2619629,-0.0730896,-0.058410645,0.014868164,-0.13806152,103.0
47256,-0.0023241043,0.2619629,-0.0730896,-0.029736329,0.04248047,-0.15505372,103.0
47257,-0.15720654,0.3424549,-0.27145386,-0.029736329,0.04248047,-0.15505372,103.0
47258,-0.15720654,0.3424549,-0.27145386,-0.015930176,0.08920898,-0.19328614,103.0
47259,-0.33206463,0.51579857,-0.37269592,-0.015930176,0.08920898,-0.19328614,103.0
47260,-0.33206463,0.51579857,-0.37269592,-0.11469727,0.095581055,-0.24744873,103.0
47261,-0.46191597,0.6609173,-0.396698,-0.11469727,0.095581055,-0.24744873,103.0
47262,-0.46191597,0.6609173,-0.396698,-0.28568116,0.09133301,-0.31116945,103.0
47263,-0.49849987,0.58267593,-0.43354797,-0.28568116,0.09133301,-0.31116945,103.0
47264,-0.49849987,0.58267593,-0.43354797,-0.39188233,0.07752686,-0.38657227,103.0
47265,-0.44991112,0.25801086,-0.47366333,-0.39188233,0.07752686,-0.38657227,103.0
47266,-0.44991112,0.25801086,-0.47366333,-0.29205322,0.04991455,-0.46409914,103.0
47267,-0.36835194,-0.017906189,-0.4061432,-0.29205322,0.04991455,-0.46409914,103.0
47268,-0.36835194,-0.017906189,-0.4061432,-0.17735596,0.06796875,-0.4715332,103.0
47269,-0.33489132,-0.052740097,-0.24331665,-0.17735596,0.06796875,-0.4715332,103.0
47270,-0.33489132,-0.052740097,-0.24331665,-0.20390625,0.057348635,-0.47471926,103.0
47271,-0.3408985,0.029035568,-0.12591553,-0.20390625,0.057348635,-0.47471926,103.0
47272,-0.3408985,0.029035568,-0.12591553,-0.31116945,0.046728518,-0.45135498,103.0
47273,-0.32495213,0.10406494,-0.059890747,-0.31116945,0.046728518,-0.45135498,103.0
47274,-0.32495213,0.10406494,-0.059890747,-0.4800293,0.038232423,-0.4067505,103.0
47275,-0.32495213,0.10406494,-0.059890747,-0.4800293,0.038232423,-0.4067505,103.0
47276,-0.30249023,0.06984711,-0.03337097,-0.4800293,0.038232423,-0.4067505,103.0
47277,-0.30249023,0.06984711,-0.03337097,-0.51082766,0.029736329,-0.40037844,103.0
47278,-0.26615047,-0.020843506,-0.07847595,-0.51082766,0.029736329,-0.40037844,103.0
47279,-0.26615047,-0.020843506,-0.07847595,-0.39506838,0.050976563,-0.34727785,103.0
47280,-0.223773,-0.0785656,-0.1541748,-0.39506838,0.050976563,-0.34727785,103.0
47281,-0.223773,-0.0785656,-0.1541748,-0.25594482,0.10620117,-0.34090576,103.0
47282,-0.2521019,-0.042564392,-0.13365173,-0.25594482,0.10620117,-0.34090576,103.0
47283,-0.2521019,-0.042564392,-0.13365173,-0.24638672,0.13487549,-0.2623169,103.0
47284,-0.35785866,0.13192749,0.03691101,-0.24638672,0.13487549,-0.2623169,103.0
47285,-0.35785866,0.13192749,0.03691101,-0.4630371,0.10089111,-0.2527588,103.0
47286,-0.43965626,0.11663818,0.15525818,-0.4630371,0.10089111,-0.2527588,103.0
47287,-0.43965626,0.11663818,0.15525818,-0.62977296,0.07752686,-0.26444092,103.0
47288,-0.40782928,-0.20000076,0.13050842,-0.62977296,0.07752686,-0.26444092,103.0
47289,-0.40782928,-0.20000076,0.13050842,-0.44816896,0.09239502,-0.31223145,103.0
47290,-0.23882389,-0.40576553,0.21800232,-0.44816896,0.09239502,-0.31223145,103.0
47291,-0.23882389,-0.40576553,0.21800232,-0.26019287,0.15186767,-0.2814331,103.0
47292,-0.05764866,-0.26600647,0.5755768,-0.26019287,0.15186767,-0.2814331,103.0
47293,-0.05764866,-0.26600647,0.5755768,-0.29630128,0.16673584,-0.25806886,103.0
47294,0.040429115,-0.06160927,0.89497375,-0.29630128,0.16673584,-0.25806886,103.0
47295,0.040429115,-0.06160927,0.89497375,-0.44179687,0.1444336,-0.28674316,103.0
47296,0.13727474,-0.10818672,0.8944855,-0.44179687,0.1444336,-0.28674316,103.0
47297,0.13727474,-0.10818672,0.8944855,-0.3993164,0.14761963,-0.25700685,103.0
47298,0.2850151,-0.13247299,0.763855,-0.3993164,0.14761963,-0.25700685,103.0
47299,0.2850151,-0.13247299,0.763855,-0.25913087,0.19541016,-0.24957275,103.0
47300,0.39639664,0.20122528,0.7094269,-0.25913087,0.19541016,-0.24957275,103.0
47301,0.39639664,0.20122528,0.7094269,-0.25594482,0.22833252,-0.19222413,103.0
47302,0.3696804,0.6643238,0.6500397,-0.25594482,0.22833252,-0.19222413,103.0
47303,0.3696804,0.6643238,0.6500397,-0.34940186,0.23045655,-0.1359375,103.0
47304,0.23502636,0.78195953,0.5216522,-0.34940186,0.23045655,-0.1359375,103.0
47305,0.23502636,0.78195953,0.5216522,-0.3791382,0.19541016,-0.10301514,103.0
47306,0.102498055,0.47412682,0.33732605,-0.3791382,0.19541016,-0.10301514,103.0
47307,0.102498055,0.47412682,0.33732605,-0.26762697,0.1539917,-0.13699952,103.0
47308,0.042716026,0.15869522,0.17112732,-0.26762697,0.1539917,-0.13699952,103.0
47309,0.042716026,0.15869522,0.17112732,0.016992187,0.16461182,-0.16992188,103.0
47310,0.016631126,0.20127106,0.11273193,0.016992187,0.16461182,-0.16992188,103.0
47311,0.016631126,0.20127106,0.11273193,0.09664307,0.118945315,-0.1901001,103.0
47312,-0.014295578,0.37656975,0.111343384,0.09664307,0.118945315,-0.1901001,103.0
47313,-0.014295578,0.37656975,0.111343384,0.07327881,0.06159668,-0.20178223,103.0
47314,-0.033848763,0.35428238,0.059890747,0.07327881,0.06159668,-0.20178223,103.0
47315,-0.033848763,0.35428238,0.059890747,0.07646485,0.013806152,-0.21346436,103.0
47316,-0.03938389,0.14225006,-0.06498718,0.07646485,0.013806152,-0.21346436,103.0
47317,-0.03938389,0.14225006,-0.06498718,0.15186767,-0.0021240234,-0.2166504,103.0
47318,-0.03584099,0.014251709,-0.16499329,0.15186767,-0.0021240234,-0.2166504,103.0
47319,-0.03584099,0.014251709,-0.16499329,0.22196046,0.019116212,-0.1720459,103.0
47320,-0.07570648,0.09439659,-0.18493652,0.22196046,0.019116212,-0.1720459,103.0
47321,-0.07570648,0.09439659,-0.18493652,0.16142578,0.0063720704,-0.16779785,103.0
47322,-0.14653969,0.14842987,-0.18029785,0.16142578,0.0063720704,-0.16779785,103.0
47323,-0.14653969,0.14842987,-0.18029785,0.13487549,-0.0053100586,-0.15080567,103.0
47324,-0.18523693,0.060174942,-0.17111206,0.13487549,-0.0053100586,-0.15080567,103.0
47325,-0.18523693,0.060174942,-0.17111206,0.13275146,-0.029736329,-0.12213135,103.0
47326,-0.1637907,-0.04380417,-0.1821289,0.13275146,-0.029736329,-0.12213135,103.0
47327,-0.1637907,-0.04380417,-0.1821289,0.18691407,-0.040356446,-0.11469727,103.0
47328,-0.11191654,-0.08697128,-0.2459259,0.18691407,-0.040356446,-0.11469727,103.0
47329,-0.11191654,-0.08697128,-0.2459259,0.24107666,-0.02442627,-0.09451904,103.0
47330,-0.13916779,-0.005794525,-0.3030548,0.24107666,-0.02442627,-0.09451904,103.0
47331,-0.13916779,-0.005794525,-0.3030548,0.22089843,-0.019116212,-0.07327881,103.0
47332,-0.2079897,0.1414833,-0.29525757,0.22089843,-0.019116212,-0.07327881,103.0
47333,-0.2079897,0.1414833,-0.29525757,0.1263794,-0.043542482,-0.0637207,103.0
47334,-0.25269508,0.17560196,-0.23532104,0.1263794,-0.043542482,-0.0637207,103.0
47335,-0.25269508,0.17560196,-0.23532104,0.10089111,-0.06584473,-0.052038576,103.0
47336,-0.24658966,0.079935074,-0.19958496,0.10089111,-0.06584473,-0.052038576,103.0
47337,-0.24658966,0.079935074,-0.19958496,0.16885987,-0.06584473,-0.06903076,103.0
47338,-0.1834898,0.011482239,-0.19444275,0.16885987,-0.06584473,-0.06903076,103.0
47339,-0.1834898,0.011482239,-0.19444275,0.22833252,-0.047790527,-0.06584473,103.0
47340,-0.13251019,0.08552742,-0.17408752,0.22833252,-0.047790527,-0.06584473,103.0
47341,-0.13251019,0.08552742,-0.17408752,0.17629395,-0.045666505,-0.0722168,103.0
47342,-0.11145306,0.22978783,-0.118759155,0.17629395,-0.045666505,-0.0722168,103.0
47343,-0.11145306,0.22978783,-0.118759155,0.035046387,-0.05522461,-0.06478272,103.0
47344,-0.06455326,0.21864319,-0.069747925,0.035046387,-0.05522461,-0.06478272,103.0
47345,-0.06455326,0.21864319,-0.069747925,0.010620117,-0.06584473,-0.07434082,103.0
47346,0.027751923,0.029663086,-0.068984985,0.010620117,-0.06584473,-0.07434082,103.0
47347,0.027751923,0.029663086,-0.068984985,0.07115479,-0.03717041,-0.087084964,103.0
47348,0.07947731,-0.04361534,-0.07258606,0.07115479,-0.03717041,-0.087084964,103.0
47349,0.07947731,-0.04361534,-0.07258606,0.1083252,-0.02442627,-0.08814698,103.0
47350,0.0679512,0.08872795,-0.06919861,0.1083252,-0.02442627,-0.08814698,103.0
47351,0.0679512,0.08872795,-0.06919861,0.070092775,-0.0063720704,-0.06265869,103.0
47352,0.01628685,0.23881531,-0.06312561,0.070092775,-0.0063720704,-0.06265869,103.0
47353,0.01628685,0.23881531,-0.06312561,-0.045666505,0.0053100586,-0.023364259,103.0
47354,-0.055830956,0.21004677,-0.062698364,-0.045666505,0.0053100586,-0.023364259,103.0
47355,-0.055830956,0.21004677,-0.062698364,-0.06159668,-0.0021240234,-0.025488282,103.0
47356,-0.10183048,0.072797775,-0.06575012,-0.06159668,-0.0021240234,-0.025488282,103.0
47357,-0.10183048,0.072797775,-0.06575012,-0.020178223,0.0,-0.033984374,103.0
47358,-0.09267044,0.011253357,-0.071624756,-0.020178223,0.0,-0.033984374,103.0
47359,-0.09267044,0.011253357,-0.071624756,0.011682129,0.0053100586,-0.0361084,103.0
47360,-0.07455158,0.079423904,-0.05897522,0.011682129,0.0053100586,-0.0361084,103.0
47361,-0.07455158,0.079423904,-0.05897522,-0.02442627,-0.02442627,-0.019116212,103.0
47362,-0.042344093,0.122047424,0.004211426,-0.02442627,-0.02442627,-0.019116212,103.0
47363,-0.042344093,0.122047424,0.004211426,-0.026550293,-0.046728518,-0.012744141,103.0
47364,0.009996414,0.014362335,0.078063965,-0.026550293,-0.046728518,-0.012744141,103.0
47365,0.009996414,0.014362335,0.078063965,0.07965088,-0.039294433,-0.020178223,103.0
47366,0.04879284,-0.025510788,0.1250763,0.07965088,-0.039294433,-0.020178223,103.0
47367,0.04879284,-0.025510788,0.1250763,0.081774905,-0.028674318,0.007434082,103.0
47368,0.029476166,0.10429764,0.13015747,0.081774905,-0.028674318,0.007434082,103.0
47369,0.029476166,0.10429764,0.13015747,-0.011682129,-0.0361084,0.022302246,103.0
47370,0.013753891,0.18545151,0.09118652,-0.011682129,-0.0361084,0.022302246,103.0
47371,0.013753891,0.18545151,0.09118652,-0.060534667,-0.032922365,0.04248047,103.0
47372,0.024894714,0.085300446,0.008773804,-0.060534667,-0.032922365,0.04248047,103.0
47373,0.024894714,0.085300446,0.008773804,-0.0053100586,-0.014868164,0.023364259,103.0
47374,0.039531708,-0.06110382,-0.077819824,-0.0053100586,-0.014868164,0.023364259,103.0
47375,0.039531708,-0.06110382,-0.077819824,0.0998291,0.02442627,0.0053100586,103.0
47376,0.04123211,-0.0055599213,-0.023773193,0.0998291,0.02442627,0.0053100586,103.0
47377,0.04123211,-0.0055599213,-0.023773193,0.03186035,0.045666505,0.009558106,103.0
47378,0.04666996,0.16145706,0.10620117,0.03186035,0.045666505,0.009558106,103.0
47379,0.04666996,0.16145706,0.10620117,-0.11151123,0.045666505,0.0010620117,103.0
47380,0.05883217,0.14349556,0.10189819,-0.11151123,0.045666505,0.0010620117,103.0
47381,0.05883217,0.14349556,0.10189819,-0.1444336,0.047790527,-0.019116212,103.0
47382,0.081147194,-0.032751083,-0.024276733,-0.1444336,0.047790527,-0.019116212,103.0
47383,0.081147194,-0.032751083,-0.024276733,-0.059472658,0.07115479,-0.026550293,103.0
47384,0.099915504,-0.051994324,-0.076034546,-0.059472658,0.07115479,-0.026550293,103.0
47385,0.099915504,-0.051994324,-0.076034546,-0.098767094,0.087084964,-0.022302246,103.0
47386,0.08758545,0.08291626,-0.044784546,-0.098767094,0.087084964,-0.022302246,103.0
47387,0.08758545,0.08291626,-0.044784546,-0.098767094,0.087084964,-0.022302246,103.0
47388,0.08758545,0.08291626,-0.044784546,-0.19222413,0.059472658,-0.060534667,103.0
47389,0.065686226,0.08128548,-0.053466797,-0.19222413,0.059472658,-0.060534667,103.0
47390,0.065686226,0.08128548,-0.053466797,-0.17523193,0.04460449,-0.08814698,103.0
47391,0.04850769,-0.011413574,-0.09375,-0.17523193,0.04460449,-0.08814698,103.0
47392,0.04850769,-0.011413574,-0.09375,-0.09770508,0.047790527,-0.11044922,103.0
47393,0.022827148,0.06679535,-0.09732056,-0.09770508,0.047790527,-0.11044922,103.0
47394,0.022827148,0.06679535,-0.09732056,-0.17629395,0.033984374,-0.121069334,103.0
47395,0.008666992,0.19916534,-0.10601807,-0.17629395,0.033984374,-0.121069334,103.0
47396,0.008666992,0.19916534,-0.10601807,-0.2442627,0.0053100586,-0.15717773,103.0
47397,-0.01447773,0.13489342,-0.11029053,-0.2442627,0.0053100586,-0.15717773,103.0
47398,-0.01447773,0.13489342,-0.11029053,-0.2347046,-0.004248047,-0.16248779,103.0
47399,-0.07175064,-0.024957657,-0.022476196,-0.2347046,-0.004248047,-0.16248779,103.0
47400,-0.07175064,-0.024957657,-0.022476196,-0.16885987,-0.022302246,-0.16673584,103.0
47401,-0.12232971,-0.061203003,0.10281372,-0.16885987,-0.022302246,-0.16673584,103.0
47402,-0.12232971,-0.061203003,0.10281372,-0.17841797,-0.033984374,-0.1731079,103.0
47403,-0.113220215,0.023046494,0.16020203,-0.17841797,-0.033984374,-0.1731079,103.0
47404,-0.113220215,0.023046494,0.16020203,-0.2548828,-0.028674318,-0.16567384,103.0
47405,-0.08258057,0.028202057,0.1421814,-0.2548828,-0.028674318,-0.16567384,103.0
47406,-0.08258057,0.028202057,0.1421814,-0.29736328,-0.021240234,-0.16567384,103.0
47407,-0.06530762,-0.08695984,0.12211609,-0.29736328,-0.021240234,-0.16567384,103.0
47408,-0.06530762,-0.08695984,0.12211609,-0.26762697,-0.010620117,-0.16779785,103.0
47409,-0.03175068,-0.16352463,0.15437317,-0.26762697,-0.010620117,-0.16779785,103.0
47410,-0.03175068,-0.16352463,0.15437317,-0.25913087,0.008496094,-0.17841797,103.0
47411,-0.0116558075,-0.12260437,0.19909668,-0.25913087,0.008496094,-0.17841797,103.0
47412,-0.0116558075,-0.12260437,0.19909668,-0.25063476,0.029736329,-0.16248779,103.0
47413,-0.021593094,0.0017318726,0.19581604,-0.25063476,0.029736329,-0.16248779,103.0
47414,-0.021593094,0.0017318726,0.19581604,-0.33028564,0.050976563,-0.1444336,103.0
47415,-0.06412506,0.12542152,0.1434784,-0.33028564,0.050976563,-0.1444336,103.0
47416,-0.06412506,0.12542152,0.1434784,-0.4248047,0.04248047,-0.12531738,103.0
47417,-0.1109314,0.07695007,0.09410095,-0.4248047,0.04248047,-0.12531738,103.0
47418,-0.1109314,0.07695007,0.09410095,-0.4056885,0.014868164,-0.13487549,103.0
47419,-0.0904665,-0.08835411,0.12580872,-0.4056885,0.014868164,-0.13487549,103.0
47420,-0.0904665,-0.08835411,0.12580872,-0.26656494,0.039294433,-0.14549561,103.0
47421,-0.027988434,-0.13699341,0.18664551,-0.26656494,0.039294433,-0.14549561,103.0
47422,-0.027988434,-0.13699341,0.18664551,-0.22089843,0.03717041,-0.17416993,103.0
47423,-0.00921917,-0.033302307,0.21095276,-0.22089843,0.03717041,-0.17416993,103.0
47424,-0.00921917,-0.033302307,0.21095276,-0.25913087,0.021240234,-0.16354981,103.0
47425,-0.018727303,0.048200607,0.17233276,-0.25913087,0.021240234,-0.16354981,103.0
47426,-0.018727303,0.048200607,0.17233276,-0.2888672,0.0021240234,-0.16779785,103.0
47427,-0.02994728,0.00800705,0.13117981,-0.2888672,0.0021240234,-0.16779785,103.0
47428,-0.02994728,0.00800705,0.13117981,-0.24320069,0.010620117,-0.13062744,103.0
47429,-0.084944725,-0.05538559,0.1252594,-0.24320069,0.010620117,-0.13062744,103.0
47430,-0.084944725,-0.05538559,0.1252594,-0.18266602,0.0010620117,-0.1263794,103.0
47431,-0.16765022,-0.07846451,0.17311096,-0.18266602,0.0010620117,-0.1263794,103.0
47432,-0.16765022,-0.07846451,0.17311096,-0.14230958,-0.011682129,-0.12319336,103.0
47433,-0.21972847,-0.078933716,0.22673035,-0.14230958,-0.011682129,-0.12319336,103.0
47434,-0.21972847,-0.078933716,0.22673035,-0.12213135,-0.03186035,-0.12319336,103.0
47435,-0.21986294,-0.073719025,0.22187805,-0.12213135,-0.03186035,-0.12319336,103.0
47436,-0.21986294,-0.073719025,0.22187805,-0.11682129,-0.045666505,-0.1083252,103.0
47437,-0.15891075,-0.06983948,0.16763306,-0.11682129,-0.045666505,-0.1083252,103.0
47438,-0.15891075,-0.06983948,0.16763306,-0.13912354,-0.04248047,-0.10195313,103.0
47439,-0.071647644,-0.12040901,0.09442139,-0.13912354,-0.04248047,-0.10195313,103.0
47440,-0.071647644,-0.12040901,0.09442139,-0.115759276,-0.038232423,-0.11044922,103.0
47441,-0.024921417,-0.2161026,0.04321289,-0.115759276,-0.038232423,-0.11044922,103.0
47442,-0.024921417,-0.2161026,0.04321289,-0.040356446,-0.040356446,-0.118945315,103.0
47443,0.020724297,-0.2510929,0.019332886,-0.040356446,-0.040356446,-0.118945315,103.0
47444,0.020724297,-0.2510929,0.019332886,0.03079834,-0.022302246,-0.1083252,103.0
47445,0.04629135,-0.13269806,0.0132751465,0.03079834,-0.022302246,-0.1083252,103.0
47446,0.04629135,-0.13269806,0.0132751465,-0.026550293,-0.019116212,-0.07646485,103.0
47447,0.016208649,0.028448105,-0.005203247,-0.026550293,-0.019116212,-0.07646485,103.0
47448,0.016208649,0.028448105,-0.005203247,-0.13275146,-0.04248047,-0.057348635,103.0
47449,-0.008872032,0.007255554,-0.04232788,-0.13275146,-0.04248047,-0.057348635,103.0
47450,-0.008872032,0.007255554,-0.04232788,-0.10089111,-0.058410645,-0.050976563,103.0
47451,0.017437935,-0.11448479,-0.021316528,-0.10089111,-0.058410645,-0.050976563,103.0
47452,0.017437935,-0.11448479,-0.021316528,-0.0063720704,-0.045666505,-0.046728518,103.0
47453,0.09648228,-0.058177948,0.027862549,-0.0063720704,-0.045666505,-0.046728518,103.0
47454,0.09648228,-0.058177948,0.027862549,-0.0361084,-0.032922365,-0.053100586,103.0
47455,0.19515419,0.11483383,-0.025009155,-0.0361084,-0.032922365,-0.053100586,103.0
47456,0.19515419,0.11483383,-0.025009155,-0.0998291,-0.012744141,-0.07115479,103.0
47457,0.23653126,0.16727066,-0.12983704,-0.0998291,-0.012744141,-0.07115479,103.0
47458,0.23653126,0.16727066,-0.12983704,-0.07965088,0.008496094,-0.08602295,103.0
47459,0.1937046,0.12434387,-0.12345886,-0.07965088,0.008496094,-0.08602295,103.0
47460,0.1937046,0.12434387,-0.12345886,-0.033984374,0.020178223,-0.09133301,103.0
47461,0.098018646,0.15018272,-0.05706787,-0.033984374,0.020178223,-0.09133301,103.0
47462,0.098018646,0.15018272,-0.05706787,-0.057348635,0.015930176,-0.11469727,103.0
47463,-0.0061559677,0.20007706,-0.055877686,-0.057348635,0.015930176,-0.11469727,103.0
47464,-0.0061559677,0.20007706,-0.055877686,-0.083898924,0.0,-0.11151123,103.0
47465,-0.07476139,0.16968155,-0.07980347,-0.083898924,0.0,-0.11151123,103.0
47466,-0.07476139,0.16968155,-0.07980347,-0.08920898,-0.0180542,-0.09770508,103.0
47467,-0.088825226,0.046756744,-0.080322266,-0.08920898,-0.0180542,-0.09770508,103.0
47468,-0.088825226,0.046756744,-0.080322266,-0.010620117,-0.04248047,-0.10407715,103.0
47469,-0.07341671,-0.056098938,-0.09706116,-0.010620117,-0.04248047,-0.10407715,103.0
47470,-0.07341671,-0.056098938,-0.09706116,0.06903076,-0.038232423,-0.095581055,103.0
47471,-0.08816528,-0.018230438,-0.10391235,0.06903076,-0.038232423,-0.095581055,103.0
47472,-0.08816528,-0.018230438,-0.10391235,0.045666505,-0.053100586,-0.07752686,103.0
47473,-0.12005615,0.052505493,-0.055007935,0.045666505,-0.053100586,-0.07752686,103.0
47474,-0.12005615,0.052505493,-0.055007935,-0.013806152,-0.07646485,-0.047790527,103.0
47475,-0.11955547,0.016576767,-0.014556885,-0.013806152,-0.07646485,-0.047790527,103.0
47476,-0.11955547,0.016576767,-0.014556885,0.004248047,-0.087084964,-0.04885254,103.0
47477,-0.09568119,-0.111091614,-0.04232788,0.004248047,-0.087084964,-0.04885254,103.0
47478,-0.09568119,-0.111091614,-0.04232788,0.087084964,-0.07327881,-0.0541626,103.0
47479,-0.090973854,-0.15443611,-0.050567627,0.087084964,-0.07327881,-0.0541626,103.0
47480,-0.090973854,-0.15443611,-0.050567627,0.13062744,-0.05522461,-0.047790527,103.0
47481,-0.083351135,-0.009742737,0.034820557,0.13062744,-0.05522461,-0.047790527,103.0
47482,-0.083351135,-0.009742737,0.034820557,0.04460449,-0.06265869,-0.025488282,103.0
47483,-0.081890106,0.119306564,0.112472534,0.04460449,-0.06265869,-0.025488282,103.0
47484,-0.081890106,0.119306564,0.112472534,0.04460449,-0.06265869,-0.025488282,103.0
47485,-0.081890106,0.119306564,0.112472534,-0.03717041,-0.08496094,-0.011682129,103.0
47486,-0.081380844,0.0021343231,0.10343933,-0.03717041,-0.08496094,-0.011682129,103.0
47487,-0.081380844,0.0021343231,0.10343933,0.045666505,-0.090270996,-0.021240234,103.0
47488,-0.04556179,-0.15537262,0.05607605,0.045666505,-0.090270996,-0.021240234,103.0
47489,-0.04556179,-0.15537262,0.05607605,0.16567384,-0.06478272,-0.012744141,103.0
47490,0.022205353,-0.042352676,0.047698975,0.16567384,-0.06478272,-0.012744141,103.0
47491,0.022205353,-0.042352676,0.047698975,0.07965088,-0.05522461,-0.010620117,103.0
47492,0.08022785,0.15190887,-0.011627197,0.07965088,-0.05522461,-0.010620117,103.0
47493,0.08022785,0.15190887,-0.011627197,-0.022302246,-0.04991455,-0.03079834,103.0
47494,0.11595249,0.13912964,-0.121780396,-0.022302246,-0.04991455,-0.03079834,103.0
47495,0.11595249,0.13912964,-0.121780396,-0.019116212,-0.035046387,-0.023364259,103.0
47496,0.121777534,0.036779404,-0.20152283,-0.019116212,-0.035046387,-0.023364259,103.0
47497,0.121777534,0.036779404,-0.20152283,0.0180542,-0.03186035,-0.0361084,103.0
47498,0.12610817,0.04203224,-0.2506256,0.0180542,-0.03186035,-0.0361084,103.0
47499,0.12610817,0.04203224,-0.2506256,-0.012744141,-0.038232423,-0.05628662,103.0
47500,0.16002941,0.17656898,-0.31614685,-0.012744141,-0.038232423,-0.05628662,103.0
47501,0.16002941,0.17656898,-0.31614685,-0.11151123,-0.0361084,-0.07965088,103.0
47502,0.16747665,0.34160805,-0.43345642,-0.11151123,-0.0361084,-0.07965088,103.0
47503,0.16747665,0.34160805,-0.43345642,-0.22408448,-0.047790527,-0.12000733,103.0
47504,0.14074421,0.3740673,-0.5618439,-0.22408448,-0.047790527,-0.12000733,103.0
47505,0.14074421,0.3740673,-0.5618439,-0.2516968,-0.083898924,-0.18372802,103.0
47506,0.14716625,0.28086853,-0.5744629,-0.2516968,-0.083898924,-0.18372802,103.0
47507,0.14716625,0.28086853,-0.5744629,-0.2516968,-0.11469727,-0.2623169,103.0
47508,0.19247627,0.29045296,-0.5095978,-0.2516968,-0.11469727,-0.2623169,103.0
47509,0.19247627,0.29045296,-0.5095978,-0.36533204,-0.13487549,-0.3430298,103.0
47510,0.23773384,0.4850731,-0.59503174,-0.36533204,-0.13487549,-0.3430298,103.0
47511,0.23773384,0.4850731,-0.59503174,-0.63933104,-0.14974366,-0.4343628,103.0
47512,0.32231617,0.7711258,-0.7926483,-0.63933104,-0.14974366,-0.4343628,103.0
47513,0.32231617,0.7711258,-0.7926483,-1.0673218,-0.118945315,-0.53737795,103.0
47514,0.43584347,1.121172,-0.82510376,-1.0673218,-0.118945315,-0.53737795,103.0
47515,0.43584347,1.121172,-0.82510376,-1.7268311,-0.0541626,-0.66481936,103.0
47516,0.47368717,1.2276859,-0.52363586,-1.7268311,-0.0541626,-0.66481936,103.0
47517,0.47368717,1.2276859,-0.52363586,-2.3353639,0.013806152,-0.8750977,103.0
47518,0.37604427,0.8157177,0.032608032,-2.3353639,0.013806152,-0.8750977,103.0
47519,0.37604427,0.8157177,0.032608032,-2.6667116,0.12000733,-1.1108643,103.0
47520,0.18528366,0.17593765,0.59809875,-2.6667116,0.12000733,-1.1108643,103.0
47521,0.18528366,0.17593765,0.59809875,-2.800525,0.21346436,-1.3434448,103.0
47522,-0.013723373,-0.20259857,0.967926,-2.800525,0.21346436,-1.3434448,103.0
47523,-0.013723373,-0.20259857,0.967926,-2.8716798,0.4088745,-1.4783204,103.0
47524,-0.21776581,-0.25860023,1.2327118,-2.8716798,0.4088745,-1.4783204,103.0
47525,-0.21776581,-0.25860023,1.2327118,-3.3092287,0.6287109,-1.4804443,103.0
47526,-0.48889732,-0.5399742,1.5833435,-3.3092287,0.6287109,-1.4804443,103.0
47527,-0.48889732,-0.5399742,1.5833435,-3.6639404,0.7508423,-1.4751343,103.0
47528,-0.6822071,-1.1876316,1.9878845,-3.6639404,0.7508423,-1.4751343,103.0
47529,-0.6822071,-1.1876316,1.9878845,-3.8561647,0.9281983,-1.4241577,103.0
47530,-0.81172085,-1.2255211,2.544098,-3.8561647,0.9281983,-1.4241577,103.0
47531,-0.81172085,-1.2255211,2.544098,-5.132703,0.7412842,-1.173523,103.0
47532,-1.1081295,-1.9376678,2.6210022,-5.132703,0.7412842,-1.173523,103.0
47533,-1.1081295,-1.9376678,2.6210022,-5.7550416,0.7306641,-1.2160034,103.0
47534,-1.3758955,-4.048523,2.0547485,-5.7550416,0.7306641,-1.2160034,103.0
47535,-1.3758955,-4.048523,2.0547485,-4.3181396,1.3349488,-0.6000366,103.0
47536,-1.8714933,-5.5262947,1.6784668,-4.3181396,1.3349488,-0.6000366,103.0
47537,-1.8714933,-5.5262947,1.6784668,-3.1870973,1.1490967,-0.6223389,103.0
47538,-2.3261251,-5.422842,1.1529236,-3.1870973,1.1490967,-0.6223389,103.0
47539,-2.3261251,-5.422842,1.1529236,-1.6694825,0.98873293,-0.49064943,103.0
47540,-2.105322,-3.704216,0.13145447,-1.6694825,0.98873293,-0.49064943,103.0
47541,-2.105322,-3.704216,0.13145447,-0.83474123,0.46516114,-0.4439209,103.0
47542,-1.4518356,-1.7824402,-0.9364166,-0.83474123,0.46516114,-0.4439209,103.0
47543,-1.4518356,-1.7824402,-0.9364166,-0.66481936,0.10195313,0.06265869,103.0
47544,-0.9339051,-0.85175705,-1.4823914,-0.66481936,0.10195313,0.06265869,103.0
47545,-0.9339051,-0.85175705,-1.4823914,-0.4258667,-0.2357666,0.18585205,103.0
47546,-0.63143826,-0.57582664,-1.3982697,-0.4258667,-0.2357666,0.18585205,103.0
47547,-0.63143826,-0.57582664,-1.3982697,-0.31860352,-0.52675784,0.16992188,103.0
47548,-0.24156427,-0.34980965,-1.0909882,-0.31860352,-0.52675784,0.16992188,103.0
47549,-0.24156427,-0.34980965,-1.0909882,-0.14549561,-0.77739257,0.25700685,103.0
47550,0.12579155,-0.10063553,-0.8286743,-0.14549561,-0.77739257,0.25700685,103.0
47551,0.12579155,-0.10063553,-0.8286743,0.14230958,-1.0142212,0.29205322,103.0
47552,0.41762543,0.057260513,-0.6161041,0.14230958,-1.0142212,0.29205322,103.0
47553,0.41762543,0.057260513,-0.6161041,0.5246338,-1.1841431,0.2516968,103.0
47554,0.7481384,0.037813187,-0.5011902,0.5246338,-1.1841431,0.2516968,103.0
47555,0.7481384,0.037813187,-0.5011902,1.0620117,-1.2340577,0.21983643,103.0
47556,1.0356197,-1.6975403E-4,-0.35002136,1.0620117,-1.2340577,0.21983643,103.0
47557,1.0356197,-1.6975403E-4,-0.35002136,1.5877075,-1.2744141,0.19328614,103.0
47558,1.2671556,-7.343292E-4,0.04347229,1.5877075,-1.2744141,0.19328614,103.0
47559,1.2671556,-7.343292E-4,0.04347229,2.0911012,-1.175647,0.115759276,103.0
47560,1.4824009,0.30556488,0.49601746,2.0911012,-1.175647,0.115759276,103.0
47561,1.4824009,0.30556488,0.49601746,2.3130615,-1.0397094,0.18372802,103.0
47562,1.4572716,0.90613365,0.6162567,2.3130615,-1.0397094,0.18372802,103.0
47563,1.4572716,0.90613365,0.6162567,2.356604,-1.0120972,0.1444336,103.0
47564,1.3318081,1.3520794,0.35173035,2.356604,-1.0120972,0.1444336,103.0
47565,1.3318081,1.3520794,0.35173035,2.272705,-0.79969484,0.19753419,103.0
47566,1.2138596,1.6370716,0.051345825,2.272705,-0.79969484,0.19753419,103.0
47567,1.2138596,1.6370716,0.051345825,1.910559,-0.6680054,0.30479738,103.0
47568,0.95302105,1.8082542,-0.06643677,1.910559,-0.6680054,0.30479738,103.0
47569,0.95302105,1.8082542,-0.06643677,1.5537232,-0.65632325,0.27399904,103.0
47570,0.7998314,1.7605801,-0.023468018,1.5537232,-0.65632325,0.27399904,103.0
47571,0.7998314,1.7605801,-0.023468018,1.4825684,-0.5809204,0.25913087,103.0
47572,0.7859707,1.5482597,0.13816833,1.4825684,-0.5809204,0.25913087,103.0
47573,0.7859707,1.5482597,0.13816833,1.622754,-0.42799073,0.20178223,103.0
47574,0.6385174,1.5360451,0.4633789,1.622754,-0.42799073,0.20178223,103.0
47575,0.6385174,1.5360451,0.4633789,1.3721192,-0.32816163,0.098767094,103.0
47576,0.37015247,1.7604027,0.7453766,1.3721192,-0.32816163,0.098767094,103.0
47577,0.37015247,1.7604027,0.7453766,0.86341554,-0.26550293,0.06584473,103.0
47578,0.09784317,1.6350555,0.39930725,0.86341554,-0.26550293,0.06584473,103.0
47579,0.09784317,1.6350555,0.39930725,0.54906005,-0.18160401,0.10407715,103.0
47580,-0.12770748,1.0398197,-0.41246033,0.54906005,-0.18160401,0.10407715,103.0
47581,-0.12770748,1.0398197,-0.41246033,0.21558838,-0.07327881,0.14868164,103.0
47582,-0.34070396,0.35601234,-0.8991699,0.21558838,-0.07327881,0.14868164,103.0
47583,-0.34070396,0.35601234,-0.8991699,-0.038232423,-0.08071289,0.14868164,103.0
47584,-0.35760975,-0.20576668,-0.8533783,-0.038232423,-0.08071289,0.14868164,103.0
47585,-0.35760975,-0.20576668,-0.8533783,-0.028674318,-0.14337158,0.13806152,103.0
47586,-0.35760975,-0.20576668,-0.8533783,-0.028674318,-0.14337158,0.13806152,103.0
47587,-0.13232803,-0.5450821,-0.6082916,-0.028674318,-0.14337158,0.13806152,103.0
47588,-0.13232803,-0.5450821,-0.6082916,0.10938721,-0.17523193,0.12531738,103.0
47589,0.16018963,-0.54694176,-0.46437073,0.10938721,-0.17523193,0.12531738,103.0
47590,0.16018963,-0.54694176,-0.46437073,0.14337158,-0.12213135,0.13699952,103.0
47591,0.3692646,-0.34431648,-0.47184753,0.14337158,-0.12213135,0.13699952,103.0
47592,0.3692646,-0.34431648,-0.47184753,0.13275146,-0.09239502,0.1178833,103.0
47593,0.48596287,-0.092250824,-0.442276,0.13275146,-0.09239502,0.1178833,103.0
47594,0.48596287,-0.092250824,-0.442276,0.14761963,-0.026550293,0.06265869,103.0
47595,0.5635624,0.35504532,-0.2190857,0.14761963,-0.026550293,0.06265869,103.0
47596,0.5635624,0.35504532,-0.2190857,-0.04248047,0.020178223,0.09239502,103.0
47597,0.5230541,0.86379623,0.059402466,-0.04248047,0.020178223,0.09239502,103.0
47598,0.5230541,0.86379623,0.059402466,-0.42799073,0.090270996,0.05628662,103.0
47599,0.4088974,1.1375942,0.2059784,-0.42799073,0.090270996,0.05628662,103.0
47600,0.4088974,1.1375942,0.2059784,-0.99935305,0.21877442,-0.0053100586,103.0
47601,0.44641685,1.2312317,0.3635559,-0.99935305,0.21877442,-0.0053100586,103.0
47602,0.44641685,1.2312317,0.3635559,-1.9551636,0.6488892,0.032922365,103.0
47603,0.6640911,1.049963,0.82699585,-1.9551636,0.6488892,0.032922365,103.0
47604,0.6640911,1.049963,0.82699585,-2.987439,1.2053833,0.04248047,103.0
47605,0.64092827,0.50138474,1.4310303,-2.987439,1.2053833,0.04248047,103.0
47606,0.64092827,0.50138474,1.4310303,-4.2045045,1.6078857,-0.07434082,103.0
47607,0.19730091,-0.61611557,1.5865326,-4.2045045,1.6078857,-0.07434082,103.0
47608,0.19730091,-0.61611557,1.5865326,-4.782239,2.0135744,-0.10301514,103.0
47609,-0.48573875,-2.0889626,1.2844086,-4.782239,2.0135744,-0.10301514,103.0
47610,-0.48573875,-2.0889626,1.2844086,-4.8204713,2.1728761,-0.13381349,103.0
47611,-1.2695112,-3.2920933,0.8476105,-4.8204713,2.1728761,-0.13381349,103.0
47612,-1.2695112,-3.2920933,0.8476105,-4.3754883,2.0337524,-0.12531738,103.0
47613,-1.8910971,-3.8406086,0.10435486,-4.3754883,2.0337524,-0.12531738,103.0
47614,-1.8910971,-3.8406086,0.10435486,-3.5545533,1.8043579,-0.12319336,103.0
47615,-2.1781845,-3.5206928,-0.82766724,-3.5545533,1.8043579,-0.12319336,103.0
47616,-2.1781845,-3.5206928,-0.82766724,-2.8387573,1.4326538,-0.039294433,103.0
47617,-2.1231022,-2.6935444,-1.5105133,-2.8387573,1.4326538,-0.039294433,103.0
47618,-2.1231022,-2.6935444,-1.5105133,-2.3714721,1.0205933,-0.0180542,103.0
47619,-1.8105783,-2.0833988,-1.7410583,-2.3714721,1.0205933,-0.0180542,103.0
47620,-1.8105783,-2.0833988,-1.7410583,-2.1526978,0.58410645,0.02442627,103.0
47621,-1.513917,-2.0739708,-1.6503448,-2.1526978,0.58410645,0.02442627,103.0
47622,-1.513917,-2.0739708,-1.6503448,-1.6131958,0.17416993,-0.039294433,103.0
47623,-1.2911386,-2.4118738,-1.3126831,-1.6131958,0.17416993,-0.039294433,103.0
47624,-1.2911386,-2.4118738,-1.3126831,-0.66481936,-0.14761963,-0.05628662,103.0
47625,-0.9786749,-2.261567,-0.6907959,-0.66481936,-0.14761963,-0.05628662,103.0
47626,-0.9786749,-2.261567,-0.6907959,-0.13062744,-0.36639404,-0.0180542,103.0
47627,-0.6247978,-1.5659676,-0.018722534,-0.13062744,-0.36639404,-0.0180542,103.0
47628,-0.6247978,-1.5659676,-0.018722534,0.11044922,-0.5140137,-0.0010620117,103.0
47629,-0.31379128,-1.0375881,0.4660797,0.11044922,-0.5140137,-0.0010620117,103.0
47630,-0.31379128,-1.0375881,0.4660797,0.42268068,-0.59897465,0.029736329,103.0
47631,-0.034650803,-0.8718796,0.7698517,0.42268068,-0.59897465,0.029736329,103.0
47632,-0.034650803,-0.8718796,0.7698517,0.94412845,-0.6435791,0.008496094,103.0
47633,0.15392017,-0.60964966,0.88427734,0.94412845,-0.6435791,0.008496094,103.0
47634,0.15392017,-0.60964966,0.88427734,1.3742431,-0.70198977,0.0010620117,103.0
47635,0.27439404,-0.008666992,0.7286835,1.3742431,-0.70198977,0.0010620117,103.0
47636,0.27439404,-0.008666992,0.7286835,1.5515991,-0.74022216,-0.040356446,103.0
47637,0.3455286,0.5576782,0.30178833,1.5515991,-0.74022216,-0.040356446,103.0
47638,0.3455286,0.5576782,0.30178833,1.7278931,-0.8251831,-0.058410645,103.0
47639,0.38541985,0.8006344,-0.086868286,1.7278931,-0.8251831,-0.058410645,103.0
47640,0.38541985,0.8006344,-0.086868286,1.9594116,-0.9526245,-0.06478272,103.0
47641,0.523119,0.6538372,-0.14511108,1.9594116,-0.9526245,-0.06478272,103.0
47642,0.523119,0.6538372,-0.14511108,2.4288208,-1.084314,-0.11682129,103.0
47643,0.744277,0.56784534,-0.017501831,2.4288208,-1.084314,-0.11682129,103.0
47644,0.744277,0.56784534,-0.017501831,2.7835329,-1.0630738,-0.1274414,103.0
47645,0.7971182,0.9414215,-0.022537231,2.7835329,-1.0630738,-0.1274414,103.0
47646,0.7971182,0.9414215,-0.022537231,2.8132691,-1.1129884,-0.17629395,103.0
47647,0.75849533,1.3346071,-0.22853088,2.8132691,-1.1129884,-0.17629395,103.0
47648,0.75849533,1.3346071,-0.22853088,2.980005,-1.0343994,-0.24320069,103.0
47649,0.8576145,1.6163063,-0.29789734,2.980005,-1.0343994,-0.24320069,103.0
47650,0.8576145,1.6163063,-0.29789734,3.0554078,-0.8931519,-0.1720459,103.0
47651,0.88426113,2.1084385,-0.025146484,3.0554078,-0.8931519,-0.1720459,103.0
47652,0.88426113,2.1084385,-0.025146484,2.2217286,-1.0099732,-0.15717773,103.0
47653,0.8780756,2.2186852,0.19755554,2.2217286,-1.0099732,-0.15717773,103.0
47654,0.8780756,2.2186852,0.19755554,2.0167603,-0.90695804,-0.06159668,103.0
47655,1.0545235,1.7529755,0.18370056,2.0167603,-0.90695804,-0.06159668,103.0
47656,1.0545235,1.7529755,0.18370056,1.7395753,-0.83474123,-0.15823975,103.0
47657,1.2619057,1.3831291,0.18435669,1.7395753,-0.83474123,-0.15823975,103.0
47658,1.2619057,1.3831291,0.18435669,1.5186768,-0.57454836,-0.087084964,103.0
47659,1.2697296,1.2728729,0.20707703,1.5186768,-0.57454836,-0.087084964,103.0
47660,1.2697296,1.2728729,0.20707703,1.3052124,-0.36427003,-0.019116212,103.0
47661,0.9848995,1.3873405,0.116256714,1.3052124,-0.36427003,-0.019116212,103.0
47662,0.9848995,1.3873405,0.116256714,1.0407715,-0.16567384,0.04460449,103.0
47663,0.48248672,1.5498142,-0.09617615,1.0407715,-0.16567384,0.04460449,103.0
47664,0.48248672,1.5498142,-0.09617615,0.66269535,-0.07646485,-0.0021240234,103.0
47665,0.03990841,1.3820763,-0.27645874,0.66269535,-0.07646485,-0.0021240234,103.0
47666,0.03990841,1.3820763,-0.27645874,0.35577393,-0.008496094,-0.038232423,103.0
47667,-0.20053196,0.9891205,-0.3440094,0.35577393,-0.008496094,-0.038232423,103.0
47668,-0.20053196,0.9891205,-0.3440094,0.13381349,-0.0010620117,-0.059472658,103.0
