,accx,accy,accz,gyrox,gyroy,gyroz,heart rate
27595,type,type,type,type,type,type,type
27596,-0.39156818,-0.03412819,1.0885162,-0.25700685,0.05628662,0.03079834,106
27597,-0.39156818,-0.03412819,1.0885162,-0.2347046,0.040356446,-0.020178223,106
27598,-0.52249527,-0.18264961,0.44332886,-0.2347046,0.040356446,-0.020178223,106
27599,-0.52249527,-0.18264961,0.44332886,-0.029736329,0.045666505,-0.1274414,106
27600,-0.39728165,-0.1523571,-0.24560547,-0.029736329,0.045666505,-0.1274414,106
27601,-0.39728165,-0.1523571,-0.24560547,0.08814698,-0.011682129,-0.08283692,106
27602,-0.21330929,-0.066991806,-0.46110535,0.08814698,-0.011682129,-0.08283692,106
27603,-0.21330929,-0.066991806,-0.46110535,0.046728518,-0.010620117,-0.08920898,106
27604,-0.15029812,-0.12228203,0.044036865,0.046728518,-0.010620117,-0.08920898,106
27605,-0.15029812,-0.12228203,0.044036865,0.00637207,-0.015930176,-0.10089111,106
27606,-0.10949612,-0.15589523,0.22441101,0.00637207,-0.015930176,-0.10089111,106
27607,-0.10949612,-0.15589523,0.22441101,-0.002124023,0.008496094,-0.115759276,106
27608,-0.10949612,-0.15589523,0.22441101,0.035046387,0.035046387,-0.09664307,106
27609,-0.01953125,-0.23571396,0.3391571,0.035046387,0.035046387,-0.09664307,106
27610,0.08543682,-0.24163437,0.10044861,0.035046387,0.035046387,-0.09664307,106
27611,0.08543682,-0.24163437,0.10044861,0.107263185,0.039294433,-0.0722168,106
27612,0.13720894,-0.15486717,-0.20414734,0.107263185,0.039294433,-0.0722168,106
27613,0.13720894,-0.15486717,-0.20414734,0.13699952,0.0361084,-0.039294433,106
27614,0.10636139,0.004512787,-0.28982544,0.13699952,0.0361084,-0.039294433,106
27615,0.10636139,0.004512787,-0.28982544,0.14868164,0.009558106,-0.005310059,106
27616,0.014764786,0.17812157,-0.1098938,0.14868164,0.009558106,-0.005310059,106
27617,0.014764786,0.17812157,-0.1098938,0.13275146,0.022302246,0.025488282,106
27618,-0.08544159,0.28352547,0.06932068,0.13275146,0.022302246,0.025488282,106
27619,-0.08544159,0.28352547,0.06932068,0.09133301,0.0637207,0.050976563,106
27620,-0.16954994,0.30418777,0.07118225,0.09133301,0.0637207,0.050976563,106
27621,-0.16954994,0.30418777,0.07118225,0.07965088,0.10301514,0.07540283,106
27622,-0.21730518,0.28552628,0.003067017,0.07965088,0.10301514,0.07540283,106
27623,-0.21730518,0.28552628,0.003067017,0.05522461,0.13699952,0.081774905,106
27624,-0.22361279,0.25741196,0.011505127,0.05522461,0.13699952,0.081774905,106
27625,-0.22361279,0.25741196,0.011505127,0.04248047,0.14761963,0.06478272,106
27626,-0.22361279,0.25741196,0.011505127,0.07752686,0.12850343,0.04460449,106
27627,-0.17798615,0.195261,0.07897949,0.07752686,0.12850343,0.04460449,106
27628,-0.0531559,0.13445473,0.102890015,0.07752686,0.12850343,0.04460449,106
27629,-0.0531559,0.13445473,0.102890015,0.06796875,0.13806152,0.04248047,106
27630,0.0782032,0.09877396,0.0466156,0.06796875,0.13806152,0.04248047,106
27631,0.0782032,0.09877396,0.0466156,0.027612304,0.16248779,0.040356446,106
27632,0.12595367,0.036758423,-0.072128296,0.027612304,0.16248779,0.040356446,106
27633,0.12595367,0.036758423,-0.072128296,0.010620117,0.16248779,0.040356446,106
27634,0.10298538,-0.020360947,-0.11288452,0.010620117,0.16248779,0.040356446,106
27635,0.10298538,-0.020360947,-0.11288452,0.014868164,0.16673584,0.035046387,106
27636,0.07722473,-0.022600174,-0.031600952,0.014868164,0.16673584,0.035046387,106
27637,0.07722473,-0.022600174,-0.031600952,-0.002124023,0.16885987,0.033984374,106
27638,0.036536217,0.01585579,0.04508972,-0.002124023,0.16885987,0.033984374,106
27639,0.036536217,0.01585579,0.04508972,-0.0180542,0.1720459,0.04991455,106
27640,-0.003522873,0.08187485,0.059951782,-0.0180542,0.1720459,0.04991455,106
27641,-0.003522873,0.08187485,0.059951782,-0.033984374,0.17841797,0.046728518,106
27642,-0.012413025,0.12027359,0.036621094,-0.033984374,0.17841797,0.046728518,106
27643,-0.012413025,0.12027359,0.036621094,-0.060534667,0.18266602,0.04248047,106
27644,-0.018939018,0.09220314,0.004135132,-0.060534667,0.18266602,0.04248047,106
27645,-0.018939018,0.09220314,0.004135132,-0.05522461,0.16036378,0.021240234,106
27646,-2.67E-05,0.04663849,-0.005050659,-0.05522461,0.16036378,0.021240234,106
27647,-2.67E-05,0.04663849,-0.005050659,-0.083898924,0.16354981,0.003186035,106
27648,0.058449745,-0.033283234,0.007247925,-0.083898924,0.16354981,0.003186035,106
27649,0.058449745,-0.033283234,0.007247925,-0.083898924,0.16567384,-0.014868164,106
27650,0.05652523,-0.14990616,0.004257202,-0.083898924,0.16567384,-0.014868164,106
27651,0.05652523,-0.14990616,0.004257202,-0.115759276,0.13487549,-0.04991455,106
27652,0.05652523,-0.14990616,0.004257202,-0.15823975,0.15611573,-0.081774905,106
27653,0.023052216,-0.19872093,0.05052185,-0.15823975,0.15611573,-0.081774905,106
27654,-0.089627266,-0.105472565,0.30381775,-0.15823975,0.15611573,-0.081774905,106
27655,-0.089627266,-0.105472565,0.30381775,-0.22089843,0.15930176,-0.11363526,106
27656,-0.34002495,0.02301979,0.6348114,-0.22089843,0.15930176,-0.11363526,106
27657,-0.34002495,0.02301979,0.6348114,-0.25063476,0.1263794,-0.13381349,106
27658,-0.4066267,0.08477402,0.6107178,-0.25063476,0.1263794,-0.13381349,106
27659,-0.4066267,0.08477402,0.6107178,-0.23258057,0.1274414,-0.20496826,106
27660,-0.18191719,0.1298542,0.24369812,-0.23258057,0.1274414,-0.20496826,106
27661,-0.18191719,0.1298542,0.24369812,-0.2527588,0.1720459,-0.21027832,106
27662,-0.14142036,0.14430046,0.12689209,-0.2527588,0.1720459,-0.21027832,106
27663,-0.14142036,0.14430046,0.12689209,-0.10195313,0.16779785,-0.17841797,106
27664,-0.30714226,0.16530609,0.39439392,-0.10195313,0.16779785,-0.17841797,106
27665,-0.30714226,0.16530609,0.39439392,0.05522461,0.15823975,-0.14337158,106
27666,-0.30714226,0.16530609,0.39439392,0.05522461,0.15823975,-0.14337158,106
27667,-0.1699686,0.2005806,0.46328735,0.05522461,0.15823975,-0.14337158,106
27668,-0.1699686,0.2005806,0.46328735,0.0722168,0.20284425,-0.093457036,106
27669,0.2061634,0.18292618,0.08137512,0.0722168,0.20284425,-0.093457036,106
27670,0.2061634,0.18292618,0.08137512,0.095581055,0.21240234,-0.14655761,106
27671,0.40609264,0.10625267,-0.33145142,0.095581055,0.21240234,-0.14655761,106
27672,0.40609264,0.10625267,-0.33145142,0.052038576,0.2623169,-0.25063476,106
27673,0.33024502,0.030984879,-0.33647156,0.052038576,0.2623169,-0.25063476,106
27674,0.33024502,0.030984879,-0.33647156,-0.0180542,0.26656494,-0.2538208,106
27675,0.19216251,-0.003543854,0.06877136,-0.0180542,0.26656494,-0.2538208,106
27676,0.19216251,-0.003543854,0.06877136,-0.17735596,0.29736328,-0.3079834,106
27677,0.12444496,-0.12815285,0.5675812,-0.17735596,0.29736328,-0.3079834,106
27678,0.12444496,-0.12815285,0.5675812,-0.27506104,0.26550293,-0.32922363,106
27679,0.12444496,-0.12815285,0.5675812,-0.2527588,0.20603028,-0.33878174,106
27680,-0.0722456,-0.30202293,0.8475952,-0.2527588,0.20603028,-0.33878174,106
27681,-0.35182762,-0.33531952,0.76242065,-0.2527588,0.20603028,-0.33878174,106
27682,-0.35182762,-0.33531952,0.76242065,-0.2516968,0.15823975,-0.29311523,106
27683,-0.52410126,-0.33835983,0.40248108,-0.2516968,0.15823975,-0.29311523,106
27684,-0.52410126,-0.33835983,0.40248108,-0.20496826,0.11469727,-0.2888672,106
27685,-0.5427551,-0.46463203,0.055725098,-0.20496826,0.11469727,-0.2888672,106
27686,-0.5427551,-0.46463203,0.055725098,-0.07327881,0.060534667,-0.32922363,106
27687,-0.2479248,-0.50982857,-0.03678894,-0.07327881,0.060534667,-0.32922363,106
27688,-0.2479248,-0.50982857,-0.03678894,-0.11363526,0.08920898,-0.42374268,106
27689,0.23925781,-0.36549187,0.06349182,-0.11363526,0.08920898,-0.42374268,106
27690,0.23925781,-0.36549187,0.06349182,-0.09239502,0.14761963,-0.38232422,106
27691,0.5315428,-0.13306808,0.13859558,-0.09239502,0.14761963,-0.38232422,106
27692,0.5315428,-0.13306808,0.13859558,-0.09133301,0.19647217,-0.28674316,106
27693,0.4800434,0.145401,0.09794617,-0.09133301,0.19647217,-0.28674316,106
27694,0.4800434,0.145401,0.09794617,-0.18160401,0.25806886,-0.22302246,106
27695,0.19900036,0.39948654,-0.008926392,-0.18160401,0.25806886,-0.22302246,106
27696,0.19900036,0.39948654,-0.008926392,-0.24107666,0.29205322,-0.17735596,106
27697,-0.12486935,0.54665184,-0.06896973,-0.24107666,0.29205322,-0.17735596,106
27698,-0.12486935,0.54665184,-0.06896973,-0.26125488,0.3079834,-0.08920898,106
27699,-0.42003727,0.60229874,-0.08250427,-0.26125488,0.3079834,-0.08920898,106
27700,-0.42003727,0.60229874,-0.08250427,-0.27399904,0.31329346,0.016992187,106
27701,-0.4746771,0.62840843,-0.17356873,-0.27399904,0.31329346,0.016992187,106
27702,-0.4746771,0.62840843,-0.17356873,-0.3090454,0.32816163,0.04141846,106
27703,-0.05737877,0.5922165,-0.3630371,-0.3090454,0.32816163,0.04141846,106
27704,-0.05737877,0.5922165,-0.3630371,-0.48215333,0.3993164,-0.08814698,106
27705,0.44688225,0.39214516,-0.41679382,-0.48215333,0.3993164,-0.08814698,106
27706,0.44688225,0.39214516,-0.41679382,-0.43011475,0.41843262,-0.1720459,106
27707,0.5222397,0.11436272,-0.21594238,-0.43011475,0.41843262,-0.1720459,106
27708,0.5222397,0.11436272,-0.21594238,-0.3525879,0.41524658,-0.21346436,106
27709,0.09694195,-0.051296234,0.011276245,-0.3525879,0.41524658,-0.21346436,106
27710,0.09694195,-0.051296234,0.011276245,-0.29417726,0.42268068,-0.23789063,106
27711,-0.4884615,-0.009592056,0.013015747,-0.29417726,0.42268068,-0.23789063,106
27712,-0.4884615,-0.009592056,0.013015747,-0.3345337,0.42268068,-0.24532472,106
27713,-0.7970438,0.11056328,-0.1413269,-0.3345337,0.42268068,-0.24532472,106
27714,-0.7970438,0.11056328,-0.1413269,-0.4609131,0.44710693,-0.2177124,106
27715,-1.0203009,-0.023426056,-0.2050476,-0.4609131,0.44710693,-0.2177124,106
27716,-1.0203009,-0.023426056,-0.2050476,-0.48746338,0.39613038,-0.15930176,106
27717,-1.2680721,-0.3550682,-0.1455841,-0.48746338,0.39613038,-0.15930176,106
27718,-1.2680721,-0.3550682,-0.1455841,-0.38338622,0.2888672,-0.09239502,106
27719,-1.2175465,-0.5611057,-0.04496765,-0.38338622,0.2888672,-0.09239502,106
27720,-1.2175465,-0.5611057,-0.04496765,-0.3791382,0.29948732,-0.008496094,106
27721,-0.9846821,-0.6159382,0.06491089,-0.3791382,0.29948732,-0.008496094,106
27722,-0.9846821,-0.6159382,0.06491089,-0.34090576,0.24320069,0.04248047,106
27723,-0.87298775,-0.623415,0.13999939,-0.34090576,0.24320069,0.04248047,106
27724,-0.87298775,-0.623415,0.13999939,-0.37595215,0.25594482,0.058410645,106
27725,-0.83230114,-0.57813835,0.1522522,-0.37595215,0.25594482,0.058410645,106
27726,-0.83230114,-0.57813835,0.1522522,-0.32497558,0.19541016,0.016992187,106
27727,-0.6885462,-0.42637825,0.14987183,-0.32497558,0.19541016,0.016992187,106
27728,-0.6885462,-0.42637825,0.14987183,-0.24532472,0.1731079,0.019116212,106
27729,-0.5438423,-0.25029373,0.09259033,-0.24532472,0.1731079,0.019116212,106
27730,-0.5438423,-0.25029373,0.09259033,-0.19434814,0.14655761,0.03717041,106
27731,-0.4671545,-0.16532326,0.010635376,-0.19434814,0.14655761,0.03717041,106
27732,-0.4671545,-0.16532326,0.010635376,-0.15717773,0.12213135,0.04248047,106
27733,-0.38959312,-0.032367706,-0.004470825,-0.15717773,0.12213135,0.04248047,106
27734,-0.38959312,-0.032367706,-0.004470825,-0.24213867,0.12850343,0.0180542,106
27735,-0.3384323,0.15313339,0.01524353,-0.24213867,0.12850343,0.0180542,106
27736,-0.3384323,0.15313339,0.01524353,-0.35471192,0.13912354,0.009558106,106
27737,-0.36365318,0.17277527,-0.037231445,-0.35471192,0.13912354,0.009558106,106
27738,-0.36365318,0.17277527,-0.037231445,-0.4704712,0.115759276,0.04141846,106
27739,-0.43863964,-0.012537003,-0.2116394,-0.4704712,0.115759276,0.04141846,106
27740,-0.43863964,-0.012537003,-0.2116394,-0.57561034,0.04885254,0.052038576,106
27741,-0.49540663,-0.26749992,-0.3387146,-0.57561034,0.04885254,0.052038576,106
27742,-0.49540663,-0.26749992,-0.3387146,-0.540564,-0.04885254,0.04248047,106
27743,-0.4043579,-0.4396839,-0.20481873,-0.540564,-0.04885254,0.04248047,106
27744,-0.4043579,-0.4396839,-0.20481873,-0.4248047,-0.1359375,0.08071289,106
27745,-0.105419636,-0.56479645,0.16674805,-0.4248047,-0.1359375,0.08071289,106
27746,-0.105419636,-0.56479645,0.16674805,-0.3355957,-0.20496826,0.12213135,106
27747,0.31056166,-0.62308884,0.55422974,-0.3355957,-0.20496826,0.12213135,106
27748,0.31056166,-0.62308884,0.55422974,-0.20284425,-0.25806886,0.10089111,106
27749,0.7348628,-0.47486305,0.8726349,-0.20284425,-0.25806886,0.10089111,106
27750,0.7348628,-0.47486305,0.8726349,0,-0.3058594,0.08283692,106
27751,1.1476555,-0.18966866,1.1810303,0,-0.3058594,0.08283692,106
27752,1.1476555,-0.18966866,1.1810303,0.013806152,-0.27399904,0.070092775,106
27753,1.3669405,0.086839676,1.3760986,0.013806152,-0.27399904,0.070092775,106
27754,1.3669405,0.086839676,1.3760986,-0.07434082,-0.18691407,0.09239502,106
27755,1.1577129,0.27829742,1.2103424,-0.07434082,-0.18691407,0.09239502,106
27756,1.1577129,0.27829742,1.2103424,-0.15611573,-0.107263185,0.16036378,106
27757,0.62232494,0.28742027,0.5839081,-0.15611573,-0.107263185,0.16036378,106
27758,0.62232494,0.28742027,0.5839081,-0.23682861,-0.070092775,0.26762697,106
27759,0.080013275,0.12912941,-0.20407104,-0.23682861,-0.070092775,0.26762697,106
27760,0.080013275,0.12912941,-0.20407104,-0.24107666,-0.06159668,0.30054933,106
27761,-0.19410706,-0.022844315,-0.6770172,-0.24107666,-0.06159668,0.30054933,106
27762,-0.19410706,-0.022844315,-0.6770172,-0.2793091,-0.039294433,0.22196046,106
27763,-0.1671505,-0.2025528,-0.67303467,-0.2793091,-0.039294433,0.22196046,106
27764,-0.1671505,-0.2025528,-0.67303467,-0.32497558,-0.005310059,0.1274414,106
27765,-0.058024406,-0.45576668,-0.41020203,-0.32497558,-0.005310059,0.1274414,106
27766,-0.058024406,-0.45576668,-0.41020203,-0.29099122,0.005310059,0.078588866,106
27767,-0.030855179,-0.64720535,-0.22631836,-0.29099122,0.005310059,0.078588866,106
27768,-0.030855179,-0.64720535,-0.22631836,-0.29099122,0.005310059,0.078588866,105
27769,-0.030855179,-0.64720535,-0.22631836,-0.21558838,-0.03079834,0.04991455,105
27770,-8.69E-04,-0.6788349,-0.18162537,-0.21558838,-0.03079834,0.04991455,105
27771,-8.69E-04,-0.6788349,-0.18162537,-0.15080567,-0.06478272,0.028674318,105
27772,0.115820885,-0.55569077,-0.13200378,-0.15080567,-0.06478272,0.028674318,105
27773,0.115820885,-0.55569077,-0.13200378,-0.13275146,-0.078588866,0.005310059,105
27774,0.2207079,-0.39275742,-0.00126648,-0.13275146,-0.078588866,0.005310059,105
27775,0.2207079,-0.39275742,-0.00126648,-0.10089111,-0.06159668,0.020178223,105
27776,0.2572918,-0.29789734,0.14033508,-0.10089111,-0.06159668,0.020178223,105
27777,0.2572918,-0.29789734,0.14033508,-0.070092775,-0.06159668,0.04885254,105
27778,0.27740288,-0.25411415,0.23710632,-0.070092775,-0.06159668,0.04885254,105
27779,0.27740288,-0.25411415,0.23710632,-0.039294433,-0.04460449,0.08283692,105
27780,0.35337925,-0.21366692,0.3242798,-0.039294433,-0.04460449,0.08283692,105
27781,0.35337925,-0.21366692,0.3242798,0.028674318,-0.032922365,0.11682129,105
27782,0.3178234,-0.09925461,0.34257507,0.028674318,-0.032922365,0.11682129,105
27783,0.3178234,-0.09925461,0.34257507,-0.021240234,0.001062012,0.1263794,105
27784,0.09749603,-0.002365112,0.20072937,-0.021240234,0.001062012,0.1263794,105
27785,0.09749603,-0.002365112,0.20072937,-0.0361084,0.04248047,0.15186767,105
27786,-0.09282875,-0.027599335,-0.002655029,-0.0361084,0.04248047,0.15186767,105
27787,-0.09282875,-0.027599335,-0.002655029,0.015930176,0.095581055,0.124255374,105
27788,-0.21847725,-0.0914402,-0.0859375,0.015930176,0.095581055,0.124255374,105
27789,-0.21847725,-0.0914402,-0.0859375,0.11257324,0.16885987,0.07115479,105
27790,-0.2878065,-0.16143417,-0.013275147,0.11257324,0.16885987,0.07115479,105
27791,-0.2878065,-0.16143417,-0.013275147,0.2623169,0.23045655,0.001062012,105
27792,-0.088448524,-0.20312119,0.10028076,0.2623169,0.23045655,0.001062012,105
27793,-0.088448524,-0.20312119,0.10028076,0.33771974,0.26975098,-0.015930176,105
27794,0.21875572,-0.16089821,0.0970459,0.33771974,0.26975098,-0.015930176,105
27795,0.21875572,-0.16089821,0.0970459,0.3058594,0.3345337,0.03717041,105
27796,0.14126396,-0.06676674,0.07765198,0.3058594,0.3345337,0.03717041,105
27797,0.14126396,-0.06676674,0.07765198,0.4598511,0.3355957,0.059472658,105
27798,-0.07860279,0.09139824,0.16082764,0.4598511,0.3355957,0.059472658,105
27799,-0.07860279,0.09139824,0.16082764,0.48321533,0.36320803,0.06584473,105
27800,-0.10266495,0.29725266,0.23304749,0.48321533,0.36320803,0.06584473,105
27801,-0.10266495,0.29725266,0.23304749,0.3090454,0.40037844,0.087084964,105
27802,-0.06440735,0.42697525,0.20361328,0.3090454,0.40037844,0.087084964,105
27803,-0.06440735,0.42697525,0.20361328,0.11151123,0.41737062,0.0637207,105
27804,-0.062841415,0.3536167,0.16082764,0.11151123,0.41737062,0.0637207,105
27805,-0.062841415,0.3536167,0.16082764,-0.045666505,0.46728516,0.035046387,105
27806,-0.083976746,0.1027298,0.18296814,-0.045666505,0.46728516,0.035046387,105
27807,-0.083976746,0.1027298,0.18296814,-0.10089111,0.5065796,0.008496094,105
27808,-0.107525826,-0.12810707,0.19108582,-0.10089111,0.5065796,0.008496094,105
27809,-0.107525826,-0.12810707,0.19108582,-0.13699952,0.56605226,-0.007434082,105
27810,-0.21496391,-0.24705315,0.121414185,-0.13699952,0.56605226,-0.007434082,105
27811,-0.21496391,-0.24705315,0.121414185,-0.13168946,0.61915284,-0.021240234,105
27812,-0.3778677,-0.28293228,0.053009033,-0.13168946,0.61915284,-0.021240234,105
27813,-0.3778677,-0.28293228,0.053009033,-0.09239502,0.6435791,-0.029736329,105
27814,-0.4823599,-0.24228859,0.05418396,-0.09239502,0.6435791,-0.029736329,105
27815,-0.4823599,-0.24228859,0.05418396,-0.10089111,0.65419924,-0.035046387,105
27816,-0.5592766,-0.16355705,0.09423828,-0.10089111,0.65419924,-0.035046387,105
27817,-0.5592766,-0.16355705,0.09423828,-0.121069334,0.630835,-0.038232423,105
27818,-0.6408539,-0.10856819,0.12684631,-0.121069334,0.630835,-0.038232423,105
27819,-0.6408539,-0.10856819,0.12684631,-0.1709839,0.59897465,-0.033984374,105
27820,-0.68916035,-0.09185982,0.15174866,-0.1709839,0.59897465,-0.033984374,105
27821,-0.68916035,-0.09185982,0.15174866,-0.1720459,0.5692383,-0.010620117,105
27822,-0.6980324,-0.10229683,0.19459534,-0.1720459,0.5692383,-0.010620117,105
27823,-0.6980324,-0.10229683,0.19459534,-0.14337158,0.53950197,0,105
27824,-0.6639681,-0.11939812,0.28430176,-0.14337158,0.53950197,0,105
27825,-0.6639681,-0.11939812,0.28430176,-0.10620117,0.5097656,0.003186035,105
27826,-0.5531101,-0.13381195,0.34114075,-0.10620117,0.5097656,0.003186035,105
27827,-0.5531101,-0.13381195,0.34114075,-0.093457036,0.48109132,0.011682129,105
27828,-0.34998322,-0.09566116,0.31159973,-0.093457036,0.48109132,0.011682129,105
27829,-0.34998322,-0.09566116,0.31159973,-0.08496094,0.46728516,0.009558106,105
27830,-0.20752573,0.006404877,0.2864685,-0.08496094,0.46728516,0.009558106,105
27831,-0.20752573,0.006404877,0.2864685,-0.107263185,0.46516114,0.016992187,105
27832,-0.22443104,0.049459457,0.31188965,-0.107263185,0.46516114,0.016992187,105
27833,-0.22443104,0.049459457,0.31188965,-0.10938721,0.46834716,0.015930176,105
27834,-0.2423501,0.05000496,0.33010864,-0.10938721,0.46834716,0.015930176,105
27835,-0.2423501,0.05000496,0.33010864,-0.124255374,0.48533937,0.00637207,105
27836,-0.2532673,0.11728668,0.31375122,-0.124255374,0.48533937,0.00637207,105
27837,-0.2532673,0.11728668,0.31375122,-0.2081543,0.5501221,-0.019116212,105
27838,-0.39013863,0.13586998,0.24891663,-0.2081543,0.5501221,-0.019116212,105
27839,-0.39013863,0.13586998,0.24891663,-0.20284425,0.5872925,-0.009558106,105
27840,-0.5628681,0.049650192,0.13215637,-0.20284425,0.5872925,-0.009558106,105
27841,-0.5628681,0.049650192,0.13215637,-0.16885987,0.5979126,0.005310059,105
27842,-0.6459851,0.018932343,0.004760742,-0.16885987,0.5979126,0.005310059,105
27843,-0.6459851,0.018932343,0.004760742,-0.14337158,0.5894165,0.04248047,105
27844,-0.69930744,0.07442284,-0.06852722,-0.14337158,0.5894165,0.04248047,105
27845,-0.69930744,0.07442284,-0.06852722,-0.15186767,0.5734863,0.06478272,105
27846,-0.72094536,0.11431122,-0.11148071,-0.15186767,0.5734863,0.06478272,105
27847,-0.72094536,0.11431122,-0.11148071,-0.18479005,0.56605226,0.08814698,105
27848,-0.6398668,0.039203644,-0.17028809,-0.18479005,0.56605226,0.08814698,105
27849,-0.6398668,0.039203644,-0.17028809,-0.17629395,0.52038574,0.115759276,105
27850,-0.48813868,-0.12547302,-0.22851562,-0.17629395,0.52038574,0.115759276,105
27851,-0.48813868,-0.12547302,-0.22851562,-0.11682129,0.45135498,0.16036378,105
27852,-0.41722012,-0.21502686,-0.22485352,-0.11682129,0.45135498,0.16036378,105
27853,-0.41722012,-0.21502686,-0.22485352,-0.0998291,0.39082032,0.18903808,105
27854,-0.49118614,-0.1989994,-0.19215393,-0.0998291,0.39082032,0.18903808,105
27855,-0.49118614,-0.1989994,-0.19215393,-0.11469727,0.33771974,0.2166504,105
27856,-0.52618885,-0.1506424,-0.24015808,-0.11469727,0.33771974,0.2166504,105
27857,-0.52618885,-0.1506424,-0.24015808,-0.13275146,0.24744873,0.22514649,105
27858,-0.36623955,-0.045488358,-0.31904602,-0.13275146,0.24744873,0.22514649,105
27859,-0.36623955,-0.045488358,-0.31904602,-0.16992188,0.13487549,0.1996582,105
27860,-0.25899506,0.14373589,-0.2776184,-0.16992188,0.13487549,0.1996582,105
27861,-0.25899506,0.14373589,-0.2776184,-0.24957275,0.04141846,0.14018555,105
27862,-0.39945698,0.3551979,-0.16668701,-0.24957275,0.04141846,0.14018555,105
27863,-0.39945698,0.3551979,-0.16668701,-0.3982544,-0.060534667,0.057348635,105
27864,-0.5628395,0.48617172,-0.20716858,-0.3982544,-0.060534667,0.057348635,105
27865,-0.5628395,0.48617172,-0.20716858,-0.5384399,-0.18160401,-0.060534667,105
27866,-0.49950266,0.5298195,-0.37034607,-0.5384399,-0.18160401,-0.060534667,105
27867,-0.49950266,0.5298195,-0.37034607,-0.57454836,-0.2793091,-0.17629395,105
27868,-0.26289558,0.50829124,-0.4468689,-0.57454836,-0.2793091,-0.17629395,105
27869,-0.26289558,0.50829124,-0.4468689,-0.5703003,-0.3175415,-0.24320069,105
27870,-0.26289558,0.50829124,-0.4468689,-0.5703003,-0.3175415,-0.24320069,105
27871,-0.07183981,0.45448494,-0.39163208,-0.5703003,-0.3175415,-0.24320069,105
27872,-0.07183981,0.45448494,-0.39163208,-0.6064087,-0.3154175,-0.271875,105
27873,-0.002479076,0.4006729,-0.37016296,-0.6064087,-0.3154175,-0.271875,105
27874,-0.002479076,0.4006729,-0.37016296,-0.6202149,-0.3058594,-0.30054933,105
27875,0.012396812,0.37582397,-0.4671631,-0.6202149,-0.3058594,-0.30054933,105
27876,0.012396812,0.37582397,-0.4671631,-0.6202149,-0.30267334,-0.3451538,105
27877,0.005986691,0.33421516,-0.59025574,-0.6202149,-0.30267334,-0.3451538,105
27878,0.005986691,0.33421516,-0.59025574,-0.68287355,-0.27612305,-0.3706421,105
27879,-0.014802933,0.18400955,-0.63568115,-0.68287355,-0.27612305,-0.3706421,105
27880,-0.014802933,0.18400955,-0.63568115,-0.8071289,-0.23682861,-0.39188233,105
27881,-0.065834045,-0.051595688,-0.59155273,-0.8071289,-0.23682861,-0.39188233,105
27882,-0.065834045,-0.051595688,-0.59155273,-0.9420044,-0.18479005,-0.42799073,105
27883,-0.12809467,-0.32456398,-0.49450684,-0.9420044,-0.18479005,-0.42799073,105
27884,-0.12809467,-0.32456398,-0.49450684,-1.083252,-0.13275146,-0.48746338,105
27885,-0.16811323,-0.6167927,-0.42456055,-1.083252,-0.13275146,-0.48746338,105
27886,-0.16811323,-0.6167927,-0.42456055,-1.2287476,-0.059472658,-0.56392825,105
27887,-0.10628033,-0.9170799,-0.4458313,-1.2287476,-0.059472658,-0.56392825,105
27888,-0.10628033,-0.9170799,-0.4458313,-1.355127,-0.004248047,-0.62977296,105
27889,0.033188343,-1.1391811,-0.5067749,-1.355127,-0.004248047,-0.62977296,105
27890,0.033188343,-1.1391811,-0.5067749,-1.4326538,0.016992187,-0.68924564,105
27891,0.2291627,-1.295805,-0.5199585,-1.4326538,0.016992187,-0.68924564,105
27892,0.2291627,-1.295805,-0.5199585,-1.44646,0.016992187,-0.69986576,105
27893,0.40624285,-1.5042953,-0.37690735,-1.44646,0.016992187,-0.69986576,105
27894,0.40624285,-1.5042953,-0.37690735,-1.3838013,-0.022302246,-0.6488892,105
27895,0.45398617,-1.6720762,-0.105529785,-1.3838013,-0.022302246,-0.6488892,105
27896,0.45398617,-1.6720762,-0.105529785,-1.2999023,-0.057348635,-0.63614506,105
27897,0.44856453,-1.7862692,0.1595459,-1.2999023,-0.057348635,-0.63614506,105
27898,0.44856453,-1.7862692,0.1595459,-1.175647,-0.10195313,-0.6149048,105
27899,0.53717184,-1.8779411,0.33876038,-1.175647,-0.10195313,-0.6149048,105
27900,0.53717184,-1.8779411,0.33876038,-1.0694458,-0.124255374,-0.5671143,105
27901,0.7170057,-1.8384247,0.45272827,-1.0694458,-0.124255374,-0.5671143,105
27902,0.7170057,-1.8384247,0.45272827,-1.1002442,-0.090270996,-0.5479981,105
27903,0.81711054,-1.730896,0.51130676,-1.1002442,-0.090270996,-0.5479981,105
27904,0.81711054,-1.730896,0.51130676,-1.1437867,-0.058410645,-0.540564,105
27905,0.74732876,-1.5537348,0.5274048,-1.1437867,-0.058410645,-0.540564,105
27906,0.74732876,-1.5537348,0.5274048,-1.2436157,-0.047790527,-0.5607422,105
27907,0.5870962,-1.3492622,0.5359802,-1.2436157,-0.047790527,-0.5607422,105
27908,0.5870962,-1.3492622,0.5359802,-1.363623,0.022302246,-0.54693604,105
27909,0.42276573,-1.2797146,0.50476074,-1.363623,0.022302246,-0.54693604,105
27910,0.42276573,-1.2797146,0.50476074,-1.4390259,0.012744141,-0.52675784,105
27911,0.31373787,-1.2635059,0.48260498,-1.4390259,0.012744141,-0.52675784,105
27912,0.31373787,-1.2635059,0.48260498,-1.4358399,0.03079834,-0.53950197,105
27913,0.27446413,-1.1584978,0.5046692,-1.4358399,0.03079834,-0.53950197,105
27914,0.27446413,-1.1584978,0.5046692,-1.4241577,0.04460449,-0.49064943,105
27915,0.24045753,-0.9604292,0.45285034,-1.4241577,0.04460449,-0.49064943,105
27916,0.24045753,-0.9604292,0.45285034,-1.4135376,0.047790527,-0.42799073,105
27917,0.21875763,-0.7869835,0.21087646,-1.4135376,0.047790527,-0.42799073,105
27918,0.21875763,-0.7869835,0.21087646,-1.3009644,0.060534667,-0.3695801,105
27919,0.24869967,-0.682333,-0.07922363,-1.3009644,0.060534667,-0.3695801,105
27920,0.24869967,-0.682333,-0.07922363,-1.1267945,0.03186035,-0.29205322,105
27921,0.22846413,-0.451396,-0.21328735,-1.1267945,0.03186035,-0.29205322,105
27922,0.22846413,-0.451396,-0.21328735,-0.9866089,0.022302246,-0.23895264,105
27923,0.122908115,-0.11656189,-0.19154358,-0.9866089,0.022302246,-0.23895264,105
27924,0.122908115,-0.11656189,-0.19154358,-0.8973999,0.04885254,-0.19328614,105
27925,0.01834631,0.019908905,-0.22627258,-0.8973999,0.04885254,-0.19328614,105
27926,0.01834631,0.019908905,-0.22627258,-0.8230591,0.029736329,-0.16354981,105
27927,-0.004719734,-0.10041809,-0.431015,-0.8230591,0.029736329,-0.16354981,105
27928,-0.004719734,-0.10041809,-0.431015,-0.72216797,0.005310059,-0.14549561,105
27929,0.048262596,-0.23099327,-0.61131287,-0.72216797,0.005310059,-0.14549561,105
27930,0.048262596,-0.23099327,-0.61131287,-0.56605226,-0.027612304,-0.093457036,105
27931,0.07403469,-0.11372566,-0.5398102,-0.56605226,-0.027612304,-0.093457036,105
27932,0.07403469,-0.11372566,-0.5398102,-0.38975832,-0.043542482,-0.053100586,105
27933,0.048009396,0.14775181,-0.3496399,-0.38975832,-0.043542482,-0.053100586,105
27934,0.048009396,0.14775181,-0.3496399,-0.26125488,-0.04248047,-0.025488282,105
27935,0.038529396,0.25572586,-0.28248596,-0.26125488,-0.04248047,-0.025488282,105
27936,0.038529396,0.25572586,-0.28248596,-0.15717773,-0.043542482,-0.027612304,105
27937,0.076478004,0.14005375,-0.3890686,-0.15717773,-0.043542482,-0.027612304,105
27938,0.076478004,0.14005375,-0.3890686,-0.08602295,-0.050976563,-0.012744141,105
27939,0.16794491,-0.041277885,-0.54881287,-0.08602295,-0.050976563,-0.012744141,105
27940,0.16794491,-0.041277885,-0.54881287,0.04248047,-0.090270996,-0.001062012,105
27941,0.28995895,-0.08047104,-0.610672,0.04248047,-0.090270996,-0.001062012,105
27942,0.28995895,-0.08047104,-0.610672,0.16354981,-0.12956543,0.022302246,105
27943,0.32552195,0.08017826,-0.541687,0.16354981,-0.12956543,0.022302246,105
27944,0.32552195,0.08017826,-0.541687,0.20284425,-0.16354981,0.038232423,105
27945,0.23505116,0.25414467,-0.40678406,0.20284425,-0.16354981,0.038232423,105
27946,0.23505116,0.25414467,-0.40678406,0.16142578,-0.14974366,0.038232423,105
27947,0.13191319,0.24739552,-0.30262756,0.16142578,-0.14974366,0.038232423,105
27948,0.13191319,0.24739552,-0.30262756,0.14337158,-0.1539917,0.04885254,105
27949,0.12896824,0.0730505,-0.29829407,0.14337158,-0.1539917,0.04885254,105
27950,0.12896824,0.0730505,-0.29829407,0.15611573,-0.1731079,0.08071289,105
27951,0.19834042,-0.045380592,-0.33763123,0.15611573,-0.1731079,0.08071289,105
27952,0.19834042,-0.045380592,-0.33763123,0.1731079,-0.17629395,0.11363526,105
27953,0.17684841,0.07281399,-0.31523132,0.1731079,-0.17629395,0.11363526,105
27954,0.17684841,0.07281399,-0.31523132,0.12956543,-0.16354981,0.1083252,105
27955,0.038305283,0.28048038,-0.23805237,0.12956543,-0.16354981,0.1083252,105
27956,0.038305283,0.28048038,-0.23805237,0.023364259,-0.10513916,0.078588866,105
27957,-0.071492195,0.28673744,-0.21400452,0.023364259,-0.10513916,0.078588866,105
27958,-0.071492195,0.28673744,-0.21400452,0,-0.07752686,0.04885254,105
27959,-0.06697178,0.07858372,-0.24888611,0,-0.07752686,0.04885254,105
27960,-0.06697178,0.07858372,-0.24888611,0.026550293,-0.057348635,0.04885254,105
27961,0.009325028,-0.12434006,-0.24229431,0.026550293,-0.057348635,0.04885254,105
27962,0.009325028,-0.12434006,-0.24229431,0.07115479,-0.04141846,0.05628662,105
27963,0.051282883,-0.15346336,-0.13020325,0.07115479,-0.04141846,0.05628662,105
27964,0.051282883,-0.15346336,-0.13020325,0.09133301,-0.02442627,0.06265869,105
27965,0.034873962,-0.0631876,-0.012237549,0.09133301,-0.02442627,0.06265869,105
27966,0.034873962,-0.0631876,-0.012237549,0.07115479,-0.013806152,0.06478272,105
27967,0.034873962,-0.0631876,-0.012237549,0.07115479,-0.013806152,0.06478272,104
27968,0.003216744,-0.027295113,0.028915405,0.07115479,-0.013806152,0.06478272,104
27969,0.003216744,-0.027295113,0.028915405,0.052038576,0.020178223,0.059472658,104
27970,0.01554966,-0.13638687,0.016647339,0.052038576,0.020178223,0.059472658,104
27971,0.01554966,-0.13638687,0.016647339,0.07327881,0.016992187,0.09133301,104
27972,0.055115223,-0.25188255,-0.004318237,0.07327881,0.016992187,0.09133301,104
27973,0.055115223,-0.25188255,-0.004318237,0.09451904,0.012744141,0.12319336,104
27974,0.06274462,-0.2344532,-0.032928467,0.09451904,0.012744141,0.12319336,104
27975,0.06274462,-0.2344532,-0.032928467,0.08602295,0.014868164,0.15186767,104
27976,0.026135445,-0.10799694,-0.08708191,0.08602295,0.014868164,0.15186767,104
27977,0.026135445,-0.10799694,-0.08708191,0.043542482,0.012744141,0.16779785,104
27978,-0.03058052,-0.01280117,-0.14720154,0.043542482,0.012744141,0.16779785,104
27979,-0.03058052,-0.01280117,-0.14720154,0.002124023,0.010620117,0.18479005,104
27980,-0.08419323,-0.072155,-0.17495728,0.002124023,0.010620117,0.18479005,104
27981,-0.08419323,-0.072155,-0.17495728,0.007434082,-0.004248047,0.19328614,104
27982,-0.07062626,-0.2532692,-0.16189575,0.007434082,-0.004248047,0.19328614,104
27983,-0.07062626,-0.2532692,-0.16189575,0.058410645,-0.040356446,0.21983643,104
27984,0.038054466,-0.374197,-0.13172913,0.058410645,-0.040356446,0.21983643,104
27985,0.038054466,-0.374197,-0.13172913,0.098767094,-0.06690674,0.25806886,104
27986,0.119969845,-0.35950184,-0.09190369,0.098767094,-0.06690674,0.25806886,104
27987,0.119969845,-0.35950184,-0.09190369,0.115759276,-0.10301514,0.2782471,104
27988,0.11164951,-0.23446465,-0.043289185,0.115759276,-0.10301514,0.2782471,104
27989,0.11164951,-0.23446465,-0.043289185,0.10407715,-0.13912354,0.28674316,104
27990,0.08524227,-0.04948616,-0.029464722,0.10407715,-0.13912354,0.28674316,104
27991,0.08524227,-0.04948616,-0.029464722,0.03717041,-0.16354981,0.28461915,104
27992,0.075457096,0.08881664,-0.036575317,0.03717041,-0.16354981,0.28461915,104
27993,0.075457096,0.08881664,-0.036575317,-0.047790527,-0.15717773,0.27506104,104
27994,0.056227684,0.07249451,-0.04284668,-0.047790527,-0.15717773,0.27506104,104
27995,0.056227684,0.07249451,-0.04284668,-0.10938721,-0.17416993,0.25700685,104
27996,0.021971703,-0.07100868,-0.06625366,-0.10938721,-0.17416993,0.25700685,104
27997,0.021971703,-0.07100868,-0.06625366,-0.12000733,-0.19222413,0.23895264,104
27998,0.013036728,-0.17425156,-0.13150024,-0.12000733,-0.19222413,0.23895264,104
27999,0.013036728,-0.17425156,-0.13150024,-0.13275146,-0.21877442,0.2442627,104
28000,0.027995586,-0.1426115,-0.20617676,-0.13275146,-0.21877442,0.2442627,104
28001,0.027995586,-0.1426115,-0.20617676,-0.10938721,-0.24107666,0.24744873,104
28002,0.023275375,-0.03182602,-0.21894836,-0.10938721,-0.24107666,0.24744873,104
28003,0.023275375,-0.03182602,-0.21894836,-0.095581055,-0.26444092,0.26762697,104
28004,-0.03478527,0.07234192,-0.1929779,-0.095581055,-0.26444092,0.26762697,104
28005,-0.03478527,0.07234192,-0.1929779,-0.12000733,-0.270813,0.26656494,104
28006,-0.10867548,0.08616924,-0.17184448,-0.12000733,-0.270813,0.26656494,104
28007,-0.10867548,0.08616924,-0.17184448,-0.14868164,-0.2516968,0.27506104,104
28008,-0.1762104,-0.043064117,-0.128479,-0.14868164,-0.2516968,0.27506104,104
28009,-0.1762104,-0.043064117,-0.128479,-0.11151123,-0.23789063,0.29205322,104
28010,-0.2117691,-0.23826027,-0.05583191,-0.11151123,-0.23789063,0.29205322,104
28011,-0.2117691,-0.23826027,-0.05583191,-0.040356446,-0.1996582,0.3090454,104
28012,-0.19052124,-0.38931465,0.02268982,-0.040356446,-0.1996582,0.3090454,104
28013,-0.19052124,-0.38931465,0.02268982,0.03717041,-0.16142578,0.31435546,104
28014,-0.133533,-0.45023346,0.08105469,0.03717041,-0.16142578,0.31435546,104
28015,-0.133533,-0.45023346,0.08105469,0.098767094,-0.11044922,0.2803711,104
28016,-0.08878422,-0.43500328,0.103775024,0.098767094,-0.11044922,0.2803711,104
28017,-0.08878422,-0.43500328,0.103775024,0.09664307,-0.038232423,0.23045655,104
28018,-0.08878422,-0.43500328,0.103775024,0.1083252,0.011682129,0.1720459,104
28019,-0.06463051,-0.41022205,0.12374878,0.1083252,0.011682129,0.1720459,104
28020,-0.068611145,-0.38530636,0.1655426,0.1083252,0.011682129,0.1720459,104
28021,-0.068611145,-0.38530636,0.1655426,0.13381349,0.053100586,0.1083252,104
28022,-0.052764893,-0.294487,0.19013977,0.13381349,0.053100586,0.1083252,104
28023,-0.052764893,-0.294487,0.19013977,0.10938721,0.09664307,0.046728518,104
28024,-0.032812595,-0.12782574,0.13296509,0.10938721,0.09664307,0.046728518,104
28025,-0.032812595,-0.12782574,0.13296509,0.06478272,0.13381349,-0.0180542,104
28026,-0.036113262,0.04732418,-0.002441406,0.06478272,0.13381349,-0.0180542,104
28027,-0.036113262,0.04732418,-0.002441406,0.011682129,0.16142578,-0.081774905,104
28028,-0.066634655,0.17283249,-0.14674377,0.011682129,0.16142578,-0.081774905,104
28029,-0.066634655,0.17283249,-0.14674377,-0.023364259,0.19116211,-0.12850343,104
28030,-0.13930607,0.22924519,-0.24015808,-0.023364259,0.19116211,-0.12850343,104
28031,-0.13930607,0.22924519,-0.24015808,-0.03079834,0.17947999,-0.16354981,104
28032,-0.24594212,0.24105072,-0.23483276,-0.03079834,0.17947999,-0.16354981,104
28033,-0.24594212,0.24105072,-0.23483276,-0.019116212,0.1720459,-0.1985962,104
28034,-0.32668495,0.2508726,-0.17250061,-0.019116212,0.1720459,-0.1985962,104
28035,-0.32668495,0.2508726,-0.17250061,-0.001062012,0.1444336,-0.2262085,104
28036,-0.2991042,0.295681,-0.117630005,-0.001062012,0.1444336,-0.2262085,104
28037,-0.2991042,0.295681,-0.117630005,0.009558106,0.118945315,-0.23895264,104
28038,-0.21213484,0.39833736,-0.09799194,0.009558106,0.118945315,-0.23895264,104
28039,-0.21213484,0.39833736,-0.09799194,-0.013806152,0.095581055,-0.24851075,104
28040,-0.17679977,0.52932644,-0.07467651,-0.013806152,0.095581055,-0.24851075,104
28041,-0.17679977,0.52932644,-0.07467651,-0.04991455,0.07646485,-0.26656494,104
28042,-0.217062,0.6035757,-0.022354126,-0.04991455,0.07646485,-0.26656494,104
28043,-0.217062,0.6035757,-0.022354126,-0.090270996,0.059472658,-0.2899292,104
28044,-0.2759199,0.5853634,0.004302979,-0.090270996,0.059472658,-0.2899292,104
28045,-0.2759199,0.5853634,0.004302979,-0.1274414,0.04141846,-0.30054933,104
28046,-0.31537724,0.5073166,-0.01461792,-0.1274414,0.04141846,-0.30054933,104
28047,-0.31537724,0.5073166,-0.01461792,-0.12000733,0.0361084,-0.3090454,104
28048,-0.33245325,0.392828,-0.032913208,-0.12000733,0.0361084,-0.3090454,104
28049,-0.33245325,0.392828,-0.032913208,-0.07115479,0.02442627,-0.29099122,104
28050,-0.3475175,0.27036572,-0.029434204,-0.07115479,0.02442627,-0.29099122,104
28051,-0.3475175,0.27036572,-0.029434204,-0.012744141,0.004248047,-0.26975098,104
28052,-0.34158802,0.1999836,0.00958252,-0.012744141,0.004248047,-0.26975098,104
28053,-0.34158802,0.1999836,0.00958252,0.04141846,-0.027612304,-0.25594482,104
28054,-0.2498455,0.17522144,0.08065796,0.04141846,-0.027612304,-0.25594482,104
28055,-0.2498455,0.17522144,0.08065796,0.06584473,-0.052038576,-0.23789063,104
28056,-0.097203255,0.16802216,0.17576599,0.06584473,-0.052038576,-0.23789063,104
28057,-0.097203255,0.16802216,0.17576599,0.06796875,-0.07434082,-0.22089843,104
28058,0.008626461,0.17130756,0.29896545,0.06796875,-0.07434082,-0.22089843,104
28059,0.008626461,0.17130756,0.29896545,0.046728518,-0.087084964,-0.20390625,104
28060,0.050626755,0.1574564,0.4038086,0.046728518,-0.087084964,-0.20390625,104
28061,0.050626755,0.1574564,0.4038086,0.020178223,-0.08496094,-0.19647217,104
28062,0.08358002,0.10579872,0.41490173,0.020178223,-0.08496094,-0.19647217,104
28063,0.08358002,0.10579872,0.41490173,-0.001062012,-0.078588866,-0.17523193,104
28064,0.14744234,0.06442356,0.34495544,-0.001062012,-0.078588866,-0.17523193,104
28065,0.14744234,0.06442356,0.34495544,-0.021240234,-0.06159668,-0.14549561,104
28066,0.21674538,0.09221268,0.2591095,-0.021240234,-0.06159668,-0.14549561,104
28067,0.21674538,0.09221268,0.2591095,-0.021240234,-0.06159668,-0.14549561,102
28068,0.21674538,0.09221268,0.2591095,-0.046728518,-0.052038576,-0.11682129,102
28069,0.22582531,0.1390295,0.18814087,-0.046728518,-0.052038576,-0.11682129,102
28070,0.22582531,0.1390295,0.18814087,-0.06584473,-0.03717041,-0.10407715,102
28071,0.18677616,0.0899353,0.13310242,-0.06584473,-0.03717041,-0.10407715,102
28072,0.18677616,0.0899353,0.13310242,-0.05628662,-0.029736329,-0.08920898,102
28073,0.17788792,-0.00611496,0.082214355,-0.05628662,-0.029736329,-0.08920898,102
28074,0.17788792,-0.00611496,0.082214355,-0.04248047,-0.028674318,-0.06584473,102
28075,0.21590614,-0.037240982,0.026733398,-0.04248047,-0.028674318,-0.06584473,102
28076,0.21590614,-0.037240982,0.026733398,-0.03079834,-0.02442627,-0.04141846,102
28077,0.26103067,-0.0116539,-0.013259888,-0.03079834,-0.02442627,-0.04141846,102
28078,0.26103067,-0.0116539,-0.013259888,0.005310059,-0.03079834,-0.028674318,102
28079,0.2819934,0.013345718,-0.04484558,0.005310059,-0.03079834,-0.028674318,102
28080,0.2819934,0.013345718,-0.04484558,0.013806152,-0.029736329,-0.040356446,102
28081,0.28069687,0.010554314,-0.11381531,0.013806152,-0.029736329,-0.040356446,102
28082,0.28069687,0.010554314,-0.11381531,-0.014868164,-0.011682129,-0.06690674,102
28083,0.272995,-0.006229401,-0.20700073,-0.014868164,-0.011682129,-0.06690674,102
28084,0.272995,-0.006229401,-0.20700073,-0.04885254,0.00637207,-0.093457036,102
28085,0.23693848,-3.69E-04,-0.21705627,-0.04885254,0.00637207,-0.093457036,102
28086,0.23693848,-3.69E-04,-0.21705627,-0.060534667,0.001062012,-0.11044922,102
28087,0.17871094,0.01871109,-0.24909973,-0.060534667,0.001062012,-0.11044922,102
28088,0.17871094,0.01871109,-0.24909973,-0.093457036,-0.004248047,-0.15080567,102
28089,0.010949612,0.07718849,-0.28503418,-0.093457036,-0.004248047,-0.15080567,102
28090,0.010949612,0.07718849,-0.28503418,-0.1996582,-0.002124023,-0.20496826,102
28091,-0.042473316,0.09278107,-0.27334595,-0.1996582,-0.002124023,-0.20496826,102
28092,-0.042473316,0.09278107,-0.27334595,-0.23789063,-0.001062012,-0.21346436,102
28093,-0.14680815,0.05578041,-0.32710266,-0.23789063,-0.001062012,-0.21346436,102
28094,-0.14680815,0.05578041,-0.32710266,-0.30373535,0.002124023,-0.2081543,102
28095,-0.21246624,-0.03273201,-0.35636902,-0.30373535,0.002124023,-0.2081543,102
28096,-0.21246624,-0.03273201,-0.35636902,-0.36427003,0.001062012,-0.16673584,102
28097,-0.2554102,-0.14227486,-0.30960083,-0.36427003,0.001062012,-0.16673584,102
28098,-0.2554102,-0.14227486,-0.30960083,-0.4609131,0.007434082,-0.10301514,102
28099,-0.31067562,-0.23866081,-0.25350952,-0.4609131,0.007434082,-0.10301514,102
28100,-0.31067562,-0.23866081,-0.25350952,-0.5522461,0.010620117,-0.035046387,102
28101,-0.3801322,-0.32303333,-0.26382446,-0.5522461,0.010620117,-0.035046387,102
28102,-0.3801322,-0.32303333,-0.26382446,-0.61065674,0.010620117,0.04460449,102
28103,-0.40786552,-0.44299698,-0.28126526,-0.61065674,0.010620117,0.04460449,102
28104,-0.40786552,-0.44299698,-0.28126526,-0.59260255,-0.010620117,0.1359375,102
28105,-0.35442972,-0.6490755,-0.2335968,-0.59260255,-0.010620117,0.1359375,102
28106,-0.35442972,-0.6490755,-0.2335968,-0.5299439,-0.08496094,0.24851075,102
28107,-0.2590809,-0.7937355,-0.1375122,-0.5299439,-0.08496094,0.24851075,102
28108,-0.2590809,-0.7937355,-0.1375122,-0.48427734,-0.18797608,0.33878174,102
28109,-0.08300924,-0.84099483,0.03996277,-0.48427734,-0.18797608,0.33878174,102
28110,-0.08300924,-0.84099483,0.03996277,-0.4322388,-0.3727661,0.4970215,102
28111,0.005187035,-0.75927067,0.027328491,-0.4322388,-0.3727661,0.4970215,102
28112,0.005187035,-0.75927067,0.027328491,-0.41524658,-0.44923097,0.5628662,102
28113,0.24232101,-0.6332092,0.030807495,-0.41524658,-0.44923097,0.5628662,102
28114,0.24232101,-0.6332092,0.030807495,-0.37701416,-0.59260255,0.6945557,102
28115,0.4568329,-0.42453575,-0.06716919,-0.37701416,-0.59260255,0.6945557,102
28116,0.4568329,-0.42453575,-0.06716919,-0.35471192,-0.6796875,0.8230591,102
28117,0.56119347,-0.2623577,-0.22640991,-0.35471192,-0.6796875,0.8230591,102
28118,0.56119347,-0.2623577,-0.22640991,-0.29948732,-0.74659425,0.9324463,102
28119,0.55989265,-0.30126762,-0.39944458,-0.29948732,-0.74659425,0.9324463,102
28120,0.55989265,-0.30126762,-0.39944458,-0.16779785,-0.78164065,0.996167,102
28121,0.5185809,-0.44244194,-0.541687,-0.16779785,-0.78164065,0.996167,102
28122,0.5185809,-0.44244194,-0.541687,-0.06478272,-0.76464844,1.0301514,102
28123,0.4411831,-0.5134144,-0.6234436,-0.06478272,-0.76464844,1.0301514,102
28124,0.4411831,-0.5134144,-0.6234436,-0.00637207,-0.7083618,0.991919,102
28125,0.41821766,-0.37662506,-0.6559448,-0.00637207,-0.7083618,0.991919,102
28126,0.41821766,-0.37662506,-0.6559448,-0.06478272,-0.59260255,0.85385746,102
28127,0.41929054,-0.25182533,-0.6524811,-0.06478272,-0.59260255,0.85385746,102
28128,0.41929054,-0.25182533,-0.6524811,-0.21027832,-0.4088745,0.5065796,102
28129,0.20877218,-0.7513504,-0.5316162,-0.21027832,-0.4088745,0.5065796,102
28130,0.20877218,-0.7513504,-0.5316162,0.16567384,-0.3345337,0.3345337,102
28131,0.07638073,-0.83075523,-0.38633728,0.16567384,-0.3345337,0.3345337,102
28132,0.07638073,-0.83075523,-0.38633728,0.21558838,-0.24638672,0.27506104,102
28133,-0.07401466,-0.8788376,-0.1822815,0.21558838,-0.24638672,0.27506104,102
28134,-0.07401466,-0.8788376,-0.1822815,0.3993164,-0.16036378,0.16779785,102
28135,-0.045796394,-0.6580868,-0.06462097,0.3993164,-0.16036378,0.16779785,102
28136,-0.045796394,-0.6580868,-0.06462097,0.4322388,-0.028674318,0.09664307,102
28137,0.10729599,-0.32013416,0.016067505,0.4322388,-0.028674318,0.09664307,102
28138,0.10729599,-0.32013416,0.016067505,0.45666504,0.06796875,0.040356446,102
28139,0.23144245,-0.06936455,0.12530518,0.45666504,0.06796875,0.040356446,102
28140,0.23144245,-0.06936455,0.12530518,0.44073486,0.14018555,-0.001062012,102
28141,0.25838423,0.10393238,0.22259521,0.44073486,0.14018555,-0.001062012,102
28142,0.25838423,0.10393238,0.22259521,0.34090576,0.20496826,-0.033984374,102
28143,0.2112608,0.23429298,0.23538208,0.34090576,0.20496826,-0.033984374,102
28144,0.2112608,0.23429298,0.23538208,0.18691407,0.26762697,-0.06584473,102
28145,0.11902046,0.31701183,0.19030762,0.18691407,0.26762697,-0.06584473,102
28146,0.11902046,0.31701183,0.19030762,0.08496094,0.29736328,-0.09451904,102
28147,-0.015208244,0.30341434,0.144104,0.08496094,0.29736328,-0.09451904,102
28148,-0.015208244,0.30341434,0.144104,0.033984374,0.29417726,-0.107263185,102
28149,-0.15407324,0.1783638,0.10380554,0.033984374,0.29417726,-0.107263185,102
28150,-0.15407324,0.1783638,0.10380554,0.045666505,0.26656494,-0.1083252,102
28151,-0.2477827,0.022720337,0.08010864,0.045666505,0.26656494,-0.1083252,102
28152,-0.2477827,0.022720337,0.08010864,0.090270996,0.23258057,-0.10620117,102
28153,-0.27857304,-0.030774117,0.076660156,0.090270996,0.23258057,-0.10620117,102
28154,-0.27857304,-0.030774117,0.076660156,0.12000733,0.18372802,-0.09770508,102
28155,-0.28158665,0.072218895,0.07984924,0.12000733,0.18372802,-0.09770508,102
28156,-0.28158665,0.072218895,0.07984924,0.13168946,0.14230958,-0.1083252,102
28157,-0.29179764,0.24172306,0.088775635,0.13168946,0.14230958,-0.1083252,102
28158,-0.29179764,0.24172306,0.088775635,0.13062744,0.11044922,-0.1263794,102
28159,-0.28452492,0.32604504,0.10040283,0.13062744,0.11044922,-0.1263794,102
28160,-0.28452492,0.32604504,0.10040283,0.12956543,0.08814698,-0.14124756,102
28161,-0.25526905,0.32373905,0.09915161,0.12956543,0.08814698,-0.14124756,102
28162,-0.25526905,0.32373905,0.09915161,0.10620117,0.07965088,-0.16036378,102
28163,-0.24923468,0.36311722,0.05644226,0.10620117,0.07965088,-0.16036378,102
28164,-0.24923468,0.36311722,0.05644226,0.02442627,0.087084964,-0.19753419,102
28165,-0.29885054,0.43026447,-0.017074585,0.02442627,0.087084964,-0.19753419,102
28166,-0.29885054,0.43026447,-0.017074585,-0.026550293,0.10195313,-0.24532472,102
28167,-0.3520441,0.43653297,-0.07345581,-0.026550293,0.10195313,-0.24532472,102
28168,-0.3520441,0.43653297,-0.07345581,-0.04460449,0.10195313,-0.2793091,102
28169,-0.3520441,0.43653297,-0.07345581,-0.04460449,0.10195313,-0.2793091,101
28170,-0.331892,0.39983654,-0.09501648,-0.04460449,0.10195313,-0.2793091,101
28171,-0.331892,0.39983654,-0.09501648,-0.050976563,0.10620117,-0.30373535,101
28172,-0.2498889,0.38163662,-0.10157776,-0.050976563,0.10620117,-0.30373535,101
28173,-0.2498889,0.38163662,-0.10157776,-0.08071289,0.107263185,-0.32178956,101
28174,-0.19914198,0.39361477,-0.10121155,-0.08071289,0.107263185,-0.32178956,101
28175,-0.19914198,0.39361477,-0.10121155,-0.10407715,0.0998291,-0.33984375,101
28176,-0.20870304,0.38194466,-0.07307434,-0.10407715,0.0998291,-0.33984375,101
28177,-0.20870304,0.38194466,-0.07307434,-0.09451904,0.078588866,-0.34833986,101
28178,-0.24055862,0.29926872,-0.015335083,-0.09451904,0.078588866,-0.34833986,101
28179,-0.24055862,0.29926872,-0.015335083,-0.05522461,0.038232423,-0.34727785,101
28180,-0.22573566,0.20076752,0.04940796,-0.05522461,0.038232423,-0.34727785,101
28181,-0.22573566,0.20076752,0.04940796,-0.028674318,0.001062012,-0.3419678,101
28182,-0.15046167,0.14747906,0.10411072,-0.028674318,0.001062012,-0.3419678,101
28183,-0.15046167,0.14747906,0.10411072,-0.022302246,-0.0361084,-0.33240968,101
28184,-0.061531544,0.102493286,0.17810059,-0.022302246,-0.0361084,-0.33240968,101
28185,-0.061531544,0.102493286,0.17810059,-0.002124023,-0.06690674,-0.3164795,101
28186,0.010894299,0.038476944,0.27981567,-0.002124023,-0.06690674,-0.3164795,101
28187,0.010894299,0.038476944,0.27981567,0.016992187,-0.098767094,-0.2803711,101
28188,0.06617403,0.008173943,0.34661865,0.016992187,-0.098767094,-0.2803711,101
28189,0.06617403,0.008173943,0.34661865,0.009558106,-0.11363526,-0.24001466,101
28190,0.08510494,0.05536747,0.33221436,0.009558106,-0.11363526,-0.24001466,101
28191,0.08510494,0.05536747,0.33221436,-0.00637207,-0.1274414,-0.20390625,101
28192,0.08282995,0.12254143,0.24963379,-0.00637207,-0.1274414,-0.20390625,101
28193,0.08282995,0.12254143,0.24963379,-0.013806152,-0.14337158,-0.16885987,101
28194,0.09087324,0.15341568,0.143219,-0.013806152,-0.14337158,-0.16885987,101
28195,0.09087324,0.15341568,0.143219,-0.028674318,-0.14230958,-0.14018555,101
28196,0.11893892,0.119241714,0.078689575,-0.028674318,-0.14230958,-0.14018555,101
28197,0.11893892,0.119241714,0.078689575,-0.019116212,-0.13806152,-0.10513916,101
28198,0.13991451,0.036201477,0.06690979,-0.019116212,-0.13806152,-0.10513916,101
28199,0.13991451,0.036201477,0.06690979,-0.012744141,-0.12850343,-0.06903076,101
28200,0.12930202,0.009112358,0.03579712,-0.012744141,-0.12850343,-0.06903076,101
28201,0.12930202,0.009112358,0.03579712,-0.022302246,-0.115759276,-0.0541626,101
28202,0.10931349,0.008254051,-0.0320282,-0.022302246,-0.115759276,-0.0541626,101
28203,0.10931349,0.008254051,-0.0320282,0,-0.09770508,-0.03717041,101
28204,0.12677002,-0.020300865,-0.09967041,0,-0.09770508,-0.03717041,101
28205,0.12677002,-0.020300865,-0.09967041,0.022302246,-0.095581055,-0.009558106,101
28206,0.16727257,-0.037968636,-0.1287384,0.022302246,-0.095581055,-0.009558106,101
28207,0.16727257,-0.037968636,-0.1287384,0.040356446,-0.08814698,0.003186035,101
28208,0.19928408,-0.014725685,-0.114151,0.040356446,-0.08814698,0.003186035,101
28209,0.19928408,-0.014725685,-0.114151,0.026550293,-0.08920898,0.003186035,101
28210,0.2252965,0.008495331,-0.08631897,0.026550293,-0.08920898,0.003186035,101
28211,0.2252965,0.008495331,-0.08631897,0.014868164,-0.07434082,0.005310059,101
28212,0.2380495,-0.035452843,-0.052597046,0.014868164,-0.07434082,0.005310059,101
28213,0.2380495,-0.035452843,-0.052597046,0.009558106,-0.081774905,0.013806152,101
28214,0.22847652,-0.08325672,-0.038345337,0.009558106,-0.081774905,0.013806152,101
28215,0.22847652,-0.08325672,-0.038345337,0.001062012,-0.081774905,0.022302246,101
28216,0.21283484,-0.08016777,-0.054000854,0.001062012,-0.081774905,0.022302246,101
28217,0.21283484,-0.08016777,-0.054000854,-0.007434082,-0.087084964,0.029736329,101
28218,0.1996746,-0.04311371,-0.088531494,-0.007434082,-0.087084964,0.029736329,101
28219,0.1996746,-0.04311371,-0.088531494,-0.0361084,-0.09664307,0.033984374,101
28220,0.19665384,-0.03290367,-0.10862732,-0.0361084,-0.09664307,0.033984374,101
28221,0.19665384,-0.03290367,-0.10862732,-0.03717041,-0.098767094,0.03717041,101
28222,0.17437601,-0.047502518,-0.11244202,-0.03717041,-0.098767094,0.03717041,101
28223,0.17437601,-0.047502518,-0.11244202,-0.0541626,-0.11363526,0.03717041,101
28224,0.15323353,-0.07387924,-0.094818115,-0.0541626,-0.11363526,0.03717041,101
28225,0.15323353,-0.07387924,-0.094818115,-0.04141846,-0.10089111,0.033984374,101
28226,0.15498447,-0.13073444,-0.061843872,-0.04141846,-0.10089111,0.033984374,101
28227,0.15498447,-0.13073444,-0.061843872,-0.043542482,-0.107263185,0.04248047,101
28228,0.16077948,-0.15248775,-0.026153564,-0.043542482,-0.107263185,0.04248047,101
28229,0.16077948,-0.15248775,-0.026153564,-0.035046387,-0.09133301,0.033984374,101
28230,0.15804243,-0.13146305,-0.004119873,-0.035046387,-0.09133301,0.033984374,101
28231,0.15804243,-0.13146305,-0.004119873,-0.03717041,-0.08920898,0.033984374,101
28232,0.14141178,-0.08192825,-0.015899658,-0.03717041,-0.08920898,0.033984374,101
28233,0.14141178,-0.08192825,-0.015899658,-0.035046387,-0.07434082,0.015930176,101
28234,0.13246536,-0.04496193,-0.028335571,-0.035046387,-0.07434082,0.015930176,101
28235,0.13246536,-0.04496193,-0.028335571,-0.0541626,-0.070092775,0.011682129,101
28236,0.12278128,-0.019197464,-0.03765869,-0.0541626,-0.070092775,0.011682129,101
28237,0.12278128,-0.019197464,-0.03765869,-0.08496094,-0.053100586,-0.001062012,101
28238,0.09228039,0.010679245,-0.0728302,-0.08496094,-0.053100586,-0.001062012,101
28239,0.09228039,0.010679245,-0.0728302,-0.09451904,-0.06159668,-0.008496094,101
28240,0.048763275,0.011705399,-0.097076416,-0.09451904,-0.06159668,-0.008496094,101
28241,0.048763275,0.011705399,-0.097076416,-0.09133301,-0.0541626,-0.014868164,101
28242,0.010055542,-0.022337914,-0.085494995,-0.09133301,-0.0541626,-0.014868164,101
28243,0.010055542,-0.022337914,-0.085494995,-0.083898924,-0.06159668,-0.0180542,101
28244,-9.77E-04,-0.051452637,-0.06391907,-0.083898924,-0.06159668,-0.0180542,101
28245,-9.77E-04,-0.051452637,-0.06391907,-0.07752686,-0.052038576,-0.027612304,101
28246,0.01364708,-0.023486137,-0.08087158,-0.07752686,-0.052038576,-0.027612304,101
28247,0.01364708,-0.023486137,-0.08087158,-0.08602295,-0.0541626,-0.03717041,101
28248,0.030412674,0.020762444,-0.10043335,-0.08602295,-0.0541626,-0.03717041,101
28249,0.030412674,0.020762444,-0.10043335,-0.08071289,-0.038232423,-0.059472658,101
28250,0.025892258,0.04479599,-0.10429382,-0.08071289,-0.038232423,-0.059472658,101
28251,0.025892258,0.04479599,-0.10429382,-0.098767094,-0.033984374,-0.081774905,101
28252,0.008995056,0.002389908,-0.0803833,-0.098767094,-0.033984374,-0.081774905,101
28253,0.008995056,0.002389908,-0.0803833,-0.08496094,-0.010620117,-0.10620117,101
28254,0.003473282,-0.078056335,-0.05532837,-0.08496094,-0.010620117,-0.10620117,101
28255,0.003473282,-0.078056335,-0.05532837,-0.06159668,-0.009558106,-0.10195313,101
28256,0.00288868,-0.0932436,-0.053634644,-0.06159668,-0.009558106,-0.10195313,101
28257,0.00288868,-0.0932436,-0.053634644,-0.04991455,-0.008496094,-0.10301514,101
28258,-0.012923241,-0.03626442,-0.07543945,-0.04991455,-0.008496094,-0.10301514,101
28259,-0.012923241,-0.03626442,-0.07543945,-0.0541626,-0.005310059,-0.10301514,101
28260,-0.018126965,0.016263962,-0.08508301,-0.0541626,-0.005310059,-0.10301514,101
28261,-0.018126965,0.016263962,-0.08508301,-0.052038576,-0.008496094,-0.09664307,101
28262,-0.018859386,0.02249527,-0.05831909,-0.052038576,-0.008496094,-0.09664307,101
28263,-0.018859386,0.02249527,-0.05831909,-0.047790527,-0.011682129,-0.08920898,101
28264,-0.024120808,0.00720501,-0.027389526,-0.047790527,-0.011682129,-0.08920898,101
28265,-0.024120808,0.00720501,-0.027389526,-0.046728518,-0.019116212,-0.081774905,101
28266,-0.017209053,-0.0176363,-0.006546021,-0.046728518,-0.019116212,-0.081774905,101
28267,-0.017209053,-0.0176363,-0.006546021,-0.032922365,-0.021240234,-0.07752686,101
28268,0.006972313,-0.019235611,-0.002304077,-0.032922365,-0.021240234,-0.07752686,101
28269,0.006972313,-0.019235611,-0.002304077,-0.043542482,-0.02442627,-0.070092775,101
28270,0.033800602,-0.009444237,-0.002929688,-0.043542482,-0.02442627,-0.070092775,101
28271,0.033800602,-0.009444237,-0.002929688,-0.043542482,-0.026550293,-0.06690674,101
28272,0.036147118,-0.010277748,0.009307861,-0.043542482,-0.026550293,-0.06690674,101
28273,0.036147118,-0.010277748,0.009307861,-0.038232423,-0.016992187,-0.059472658,101
28274,0.022362709,-0.028059006,0.027404785,-0.038232423,-0.016992187,-0.059472658,101
28275,0.022362709,-0.028059006,0.027404785,-0.039294433,-0.012744141,-0.046728518,101
28276,0.026679039,-0.025230408,0.028808594,-0.039294433,-0.012744141,-0.046728518,101
28277,0.026679039,-0.025230408,0.028808594,-0.026550293,-0.004248047,-0.0361084,101
28278,0.026679039,-0.025230408,0.028808594,-0.026550293,-0.004248047,-0.0361084,101
28279,0.0414114,0.00199604,0.01953125,-0.026550293,-0.004248047,-0.0361084,101
28280,0.0414114,0.00199604,0.01953125,-0.020178223,0.009558106,-0.026550293,101
28281,0.05336857,0.050388336,-0.013793945,-0.020178223,0.009558106,-0.026550293,101
28282,0.05336857,0.050388336,-0.013793945,-0.029736329,0.012744141,-0.026550293,101
28283,0.02515316,0.082315445,-0.058517456,-0.029736329,0.012744141,-0.026550293,101
28284,0.02515316,0.082315445,-0.058517456,-0.0180542,0.014868164,-0.035046387,101
28285,-0.008930206,0.060762405,-0.070236206,-0.0180542,0.014868164,-0.035046387,101
28286,-0.008930206,0.060762405,-0.070236206,0.003186035,0.021240234,-0.028674318,101
28287,0.005636692,0.014881134,-0.036743164,0.003186035,0.021240234,-0.028674318,101
28288,0.005636692,0.014881134,-0.036743164,0.0180542,0.015930176,-0.021240234,101
28289,0.040483475,0.02049923,0.005966187,0.0180542,0.015930176,-0.021240234,101
28290,0.040483475,0.02049923,0.005966187,0.014868164,0.025488282,-0.025488282,101
28291,0.04912281,0.07947254,0.008331299,0.014868164,0.025488282,-0.025488282,101
28292,0.04912281,0.07947254,0.008331299,0.007434082,0.014868164,-0.028674318,101
28293,0.033316612,0.09706211,-0.012786865,0.007434082,0.014868164,-0.028674318,101
28294,0.033316612,0.09706211,-0.012786865,0.004248047,0.0180542,-0.0361084,101
28295,-0.002570629,0.0495739,-0.030426025,0.004248047,0.0180542,-0.0361084,101
28296,-0.002570629,0.0495739,-0.030426025,0.012744141,0.011682129,-0.03186035,101
28297,-0.027569294,-0.008570671,-0.032440186,0.012744141,0.011682129,-0.03186035,101
28298,-0.027569294,-0.008570671,-0.032440186,0.028674318,0.011682129,-0.028674318,101
28299,-0.0362401,-0.029354095,-0.0105896,0.028674318,0.011682129,-0.028674318,101
28300,-0.0362401,-0.029354095,-0.0105896,0.03186035,0.012744141,-0.02442627,101
28301,-0.031604767,-0.019479752,0.011352539,0.03186035,0.012744141,-0.02442627,101
28302,-0.031604767,-0.019479752,0.011352539,0.035046387,0.0180542,-0.022302246,101
28303,-0.02847004,-0.001753807,0.016983032,0.035046387,0.0180542,-0.022302246,101
28304,-0.02847004,-0.001753807,0.016983032,0.027612304,0.013806152,-0.014868164,101
28305,-0.029868126,0.005371094,0.005218506,0.027612304,0.013806152,-0.014868164,101
28306,-0.029868126,0.005371094,0.005218506,0.008496094,0.011682129,-0.009558106,101
28307,-0.042693138,-0.0047369,-0.004516602,0.008496094,0.011682129,-0.009558106,101
28308,-0.042693138,-0.0047369,-0.004516602,0.007434082,0.012744141,0,101
28309,-0.038341522,-0.026823997,0.010528564,0.007434082,0.012744141,0,101
28310,-0.038341522,-0.026823997,0.010528564,0.011682129,0.010620117,0.014868164,101
28311,-0.01635456,-0.026500702,0.017486572,0.011682129,0.010620117,0.014868164,101
28312,-0.01635456,-0.026500702,0.017486572,0.002124023,0.007434082,0.021240234,101
28313,6.25E-04,0.018814087,0.002487183,0.002124023,0.007434082,0.021240234,101
28314,6.25E-04,0.018814087,0.002487183,-0.010620117,0.002124023,0.03186035,101
28315,0.013609886,0.06171894,-0.02607727,-0.010620117,0.002124023,0.03186035,101
28316,0.013609886,0.06171894,-0.02607727,-0.003186035,-0.019116212,0.039294433,101
28317,0.019786835,0.07713318,-0.039108276,-0.003186035,-0.019116212,0.039294433,101
28318,0.019786835,0.07713318,-0.039108276,-0.026550293,-0.015930176,0.0361084,101
28319,0.01282692,0.05095291,-0.020248413,-0.026550293,-0.015930176,0.0361084,101
28320,0.01282692,0.05095291,-0.020248413,-0.022302246,-0.032922365,0.040356446,101
28321,-0.004484177,0.018716812,-0.002471924,-0.022302246,-0.032922365,0.040356446,101
28322,-0.004484177,0.018716812,-0.002471924,-0.02442627,-0.033984374,0.0361084,101
28323,-0.025645256,-0.005277634,-2.75E-04,-0.02442627,-0.033984374,0.0361084,101
28324,-0.025645256,-0.005277634,-2.75E-04,-0.019116212,-0.040356446,0.023364259,101
28325,-0.004207611,-0.05088997,0.009017944,-0.019116212,-0.040356446,0.023364259,101
28326,-0.004207611,-0.05088997,0.009017944,-0.003186035,-0.04460449,0.020178223,101
28327,0.031778336,-0.07657623,0.023635864,-0.003186035,-0.04460449,0.020178223,101
28328,0.031778336,-0.07657623,0.023635864,0.009558106,-0.053100586,0.023364259,101
28329,0.029951572,-0.054864883,0.039215088,0.009558106,-0.053100586,0.023364259,101
28330,0.029951572,-0.054864883,0.039215088,0.004248047,-0.046728518,0.02442627,101
28331,0.0016222,-0.042341232,0.056381226,0.004248047,-0.046728518,0.02442627,101
28332,0.0016222,-0.042341232,0.056381226,0.010620117,-0.04460449,0.026550293,101
28333,-0.017561913,-0.038022995,0.07467651,0.010620117,-0.04460449,0.026550293,101
28334,-0.017561913,-0.038022995,0.07467651,0.016992187,-0.04141846,0.04141846,101
28335,-0.025511742,-0.009544373,0.0634613,0.016992187,-0.04141846,0.04141846,101
28336,-0.025511742,-0.009544373,0.0634613,0.016992187,-0.035046387,0.047790527,101
28337,-0.019896507,0.0330019,0.021224976,0.016992187,-0.035046387,0.047790527,101
28338,-0.019896507,0.0330019,0.021224976,0.007434082,-0.022302246,0.046728518,101
28339,-0.015221596,0.06377888,-0.031585693,0.007434082,-0.022302246,0.046728518,101
28340,-0.015221596,0.06377888,-0.031585693,0,-0.021240234,0.045666505,101
28341,-0.026093483,0.050559044,-0.060134888,0,-0.021240234,0.045666505,101
28342,-0.026093483,0.050559044,-0.060134888,0.014868164,-0.010620117,0.038232423,101
28343,-0.031067848,-0.002778053,-0.03288269,0.014868164,-0.010620117,0.038232423,101
28344,-0.031067848,-0.002778053,-0.03288269,0.028674318,-0.013806152,0.040356446,101
28345,-0.022889137,-0.010084152,-0.001800537,0.028674318,-0.013806152,0.040356446,101
28346,-0.022889137,-0.010084152,-0.001800537,0.026550293,-0.008496094,0.03079834,101
28347,-0.016187191,0.016126633,-0.004699707,0.026550293,-0.008496094,0.03079834,101
28348,-0.016187191,0.016126633,-0.004699707,0.026550293,-0.014868164,0.021240234,101
28349,-0.006761074,0.018527985,-0.018203735,0.026550293,-0.014868164,0.021240234,101
28350,-0.006761074,0.018527985,-0.018203735,0.03186035,-0.013806152,0.0180542,101
28351,-0.007300854,0.009732246,-0.023788452,0.03186035,-0.013806152,0.0180542,101
28352,-0.007300854,0.009732246,-0.023788452,0.016992187,-0.02442627,0.012744141,101
28353,-0.019146442,0.006979942,-0.013092041,0.016992187,-0.02442627,0.012744141,101
28354,-0.019146442,0.006979942,-0.013092041,0.019116212,-0.021240234,0.014868164,101
28355,-0.029098988,-0.015485764,0.006378174,0.019116212,-0.021240234,0.014868164,101
28356,-0.029098988,-0.015485764,0.006378174,0.021240234,-0.029736329,0.021240234,101
28357,-0.021826744,-0.037792206,0.0184021,0.021240234,-0.029736329,0.021240234,101
28358,-0.021826744,-0.037792206,0.0184021,0.026550293,-0.023364259,0.023364259,101
28359,-0.008708954,-0.048336983,0.015579224,0.026550293,-0.023364259,0.023364259,101
28360,-0.008708954,-0.048336983,0.015579224,0.020178223,-0.032922365,0.026550293,101
28361,-0.001889229,-0.033542633,0.006042481,0.020178223,-0.032922365,0.026550293,101
28362,-0.001889229,-0.033542633,0.006042481,0.020178223,-0.026550293,0.023364259,101
28363,-0.015769482,-0.002713203,0.00553894,0.020178223,-0.026550293,0.023364259,101
28364,-0.015769482,-0.002713203,0.00553894,0.019116212,-0.033984374,0.02442627,101
28365,-0.030352592,0.011281014,0.017105103,0.019116212,-0.033984374,0.02442627,101
28366,-0.030352592,0.011281014,0.017105103,0.016992187,-0.029736329,0.022302246,101
28367,-0.030788422,0.02213478,0.033432007,0.016992187,-0.029736329,0.022302246,101
28368,-0.030788422,0.02213478,0.033432007,0.010620117,-0.028674318,0.026550293,101
28369,-0.019564629,0.030817986,0.03919983,0.010620117,-0.028674318,0.026550293,101
28370,-0.019564629,0.030817986,0.03919983,0.005310059,-0.027612304,0.027612304,101
28371,-0.018251896,0.034236908,0.02041626,0.005310059,-0.027612304,0.027612304,101
28372,-0.018251896,0.034236908,0.02041626,0.001062012,-0.027612304,0.022302246,101
28373,-0.016664505,0.01540184,-0.001785278,0.001062012,-0.027612304,0.022302246,101
28374,-0.016664505,0.01540184,-0.001785278,-0.001062012,-0.019116212,0.020178223,101
28375,-0.007716179,-0.027900696,0.00126648,-0.001062012,-0.019116212,0.020178223,101
28376,-0.007716179,-0.027900696,0.00126648,0.014868164,-0.015930176,0.02442627,101
28377,-7.41E-04,-0.03624916,0.018936157,0.014868164,-0.015930176,0.02442627,101
28378,-7.41E-04,-0.03624916,0.018936157,0.004248047,-0.015930176,0.027612304,101
28379,-7.41E-04,-0.03624916,0.018936157,0.004248047,-0.015930176,0.027612304,102
28380,-0.021430492,-1.91E-05,0.022735596,0.004248047,-0.015930176,0.027612304,102
28381,-0.021430492,-1.91E-05,0.022735596,0.007434082,-0.010620117,0.020178223,102
28382,-0.03369713,-0.001151085,0.042236328,0.007434082,-0.010620117,0.020178223,102
28383,-0.03369713,-0.001151085,0.042236328,0.0180542,-0.009558106,0.016992187,102
28384,-0.013237,-0.013934135,0.05303955,0.0180542,-0.009558106,0.016992187,102
28385,-0.013237,-0.013934135,0.05303955,0.007434082,-0.010620117,0.021240234,102
28386,0.026324272,0.014304161,0.035476685,0.007434082,-0.010620117,0.021240234,102
28387,0.026324272,0.014304161,0.035476685,0.005310059,-0.00637207,0.019116212,102
28388,0.042482376,0.032464027,0.013839722,0.005310059,-0.00637207,0.019116212,102
28389,0.042482376,0.032464027,0.013839722,0.009558106,0.004248047,0.025488282,102
28390,0.03682995,0.00850296,0.010391235,0.009558106,0.004248047,0.025488282,102
28391,0.03682995,0.00850296,0.010391235,0.009558106,0.015930176,0.02442627,102
28392,0.02550888,-0.005831718,0.009643555,0.009558106,0.015930176,0.02442627,102
28393,0.02550888,-0.005831718,0.009643555,0.012744141,0.03079834,0.016992187,102
28394,0.020956516,-0.00110054,-0.016220093,0.012744141,0.03079834,0.016992187,102
28395,0.020956516,-0.00110054,-0.016220093,0.015930176,0.038232423,0.007434082,102
28396,0.014506817,9.51E-04,-0.05847168,0.015930176,0.038232423,0.007434082,102
28397,0.014506817,9.51E-04,-0.05847168,0.02442627,0.043542482,-0.009558106,102
28398,0.002230644,-0.019515038,-0.056777954,0.02442627,0.043542482,-0.009558106,102
28399,0.002230644,-0.019515038,-0.056777954,0.047790527,0.045666505,-0.022302246,102
28400,4.17E-04,-0.053832054,-0.013320923,0.047790527,0.045666505,-0.022302246,102
28401,4.17E-04,-0.053832054,-0.013320923,0.053100586,0.040356446,-0.028674318,102
28402,0.002897263,-0.045898438,0.00932312,0.053100586,0.040356446,-0.028674318,102
28403,0.002897263,-0.045898438,0.00932312,0.04460449,0.0361084,-0.032922365,102
28404,-0.006996155,-0.01640606,0.002807617,0.04460449,0.0361084,-0.032922365,102
28405,-0.006996155,-0.01640606,0.002807617,0.04460449,0.026550293,-0.03079834,102
28406,-0.019561768,-0.009279251,-2.59E-04,0.04460449,0.026550293,-0.03079834,102
28407,-0.019561768,-0.009279251,-2.59E-04,0.04460449,0.012744141,-0.02442627,102
28408,-0.025976658,-0.026600838,0.02722168,0.04460449,0.012744141,-0.02442627,102
28409,-0.025976658,-0.026600838,0.02722168,0.038232423,0.013806152,-0.022302246,102
28410,-0.023979664,-0.04607296,0.072280884,0.038232423,0.013806152,-0.022302246,102
28411,-0.023979664,-0.04607296,0.072280884,0.039294433,0.014868164,-0.0180542,102
28412,-0.02593422,-0.01533699,0.09751892,0.039294433,0.014868164,-0.0180542,102
28413,-0.02593422,-0.01533699,0.09751892,0.02442627,0.02442627,-0.016992187,102
28414,-0.04245138,0.059910774,0.064453125,0.02442627,0.02442627,-0.016992187,102
28415,-0.04245138,0.059910774,0.064453125,0.002124023,0.035046387,-0.020178223,102
28416,-0.05485964,0.10297012,0.0234375,0.002124023,0.035046387,-0.020178223,102
28417,-0.05485964,0.10297012,0.0234375,0.00637207,0.03717041,-0.02442627,102
28418,-0.053092003,0.07585716,0.022384644,0.00637207,0.03717041,-0.02442627,102
28419,-0.053092003,0.07585716,0.022384644,0.025488282,0.040356446,-0.028674318,102
28420,-0.043364525,0.04000759,0.053375244,0.025488282,0.040356446,-0.028674318,102
28421,-0.043364525,0.04000759,0.053375244,0.026550293,0.04991455,-0.040356446,102
28422,-0.026830196,0.040343285,0.0874939,0.026550293,0.04991455,-0.040356446,102
28423,-0.026830196,0.040343285,0.0874939,0.022302246,0.059472658,-0.053100586,102
28424,-0.005351067,0.069164276,0.09207153,0.022302246,0.059472658,-0.053100586,102
28425,-0.005351067,0.069164276,0.09207153,0.021240234,0.06159668,-0.0637207,102
28426,0.015824318,0.096847534,0.06871033,0.021240234,0.06159668,-0.0637207,102
28427,0.015824318,0.096847534,0.06871033,0.019116212,0.058410645,-0.06690674,102
28428,0.01368475,0.10428429,0.053512573,0.019116212,0.058410645,-0.06690674,102
28429,0.01368475,0.10428429,0.053512573,0.027612304,0.0541626,-0.07434082,102
28430,-0.002785206,0.07302761,0.07307434,0.027612304,0.0541626,-0.07434082,102
28431,-0.002785206,0.07302761,0.07307434,0.038232423,0.0637207,-0.08283692,102
28432,-0.015546322,0.021763802,0.101257324,0.038232423,0.0637207,-0.08283692,102
28433,-0.015546322,0.021763802,0.101257324,0.046728518,0.0637207,-0.08920898,102
28434,-0.02888012,0.024734497,0.10548401,0.046728518,0.0637207,-0.08920898,102
28435,-0.02888012,0.024734497,0.10548401,0.039294433,0.07327881,-0.10195313,102
28436,-0.038534164,0.059936523,0.11817932,0.039294433,0.07327881,-0.10195313,102
28437,-0.038534164,0.059936523,0.11817932,0.032922365,0.087084964,-0.11682129,102
28438,-0.014359951,0.047826767,0.17752075,0.032922365,0.087084964,-0.11682129,102
28439,-0.014359951,0.047826767,0.17752075,0.021240234,0.12000733,-0.124255374,102
28440,0.014427662,-0.045955658,0.29776,0.021240234,0.12000733,-0.124255374,102
28441,0.014427662,-0.045955658,0.29776,0.047790527,0.1709839,-0.12531738,102
28442,-0.014556408,-0.17105484,0.48321533,0.047790527,0.1709839,-0.12531738,102
28443,-0.014556408,-0.17105484,0.48321533,0.1274414,0.24213867,-0.107263185,102
28444,-0.063610554,-0.15505695,0.725708,0.1274414,0.24213867,-0.107263185,102
28445,-0.063610554,-0.15505695,0.725708,0.22302246,0.30161133,-0.08602295,102
28446,-0.029111385,0.033143997,0.89764404,0.22302246,0.30161133,-0.08602295,102
28447,-0.029111385,0.033143997,0.89764404,0.2899292,0.36745605,-0.07434082,102
28448,0.092116356,0.22633266,0.85414124,0.2899292,0.36745605,-0.07434082,102
28449,0.092116356,0.22633266,0.85414124,0.30161133,0.4248047,-0.08496094,102
28450,0.18828058,0.37729454,0.5858917,0.30161133,0.4248047,-0.08496094,102
28451,0.18828058,0.37729454,0.5858917,0.26762697,0.4895874,-0.14018555,102
28452,0.17652798,0.5158129,0.2602234,0.26762697,0.4895874,-0.14018555,102
28453,0.17652798,0.5158129,0.2602234,0.23151855,0.54693604,-0.19328614,102
28454,0.020384789,0.58889484,0.043624878,0.23151855,0.54693604,-0.19328614,102
28455,0.020384789,0.58889484,0.043624878,0.20496826,0.62127686,-0.24001466,102
28456,-0.26751804,0.53567886,-0.044433594,0.20496826,0.62127686,-0.24001466,102
28457,-0.26751804,0.53567886,-0.044433594,0.19647217,0.6754395,-0.27718505,102
28458,-0.605299,0.37361145,-0.024734497,0.19647217,0.6754395,-0.27718505,102
28459,-0.605299,0.37361145,-0.024734497,0.20284425,0.70305175,-0.2824951,102
28460,-0.81661224,0.16999435,0.08703613,0.20284425,0.70305175,-0.2824951,102
28461,-0.81661224,0.16999435,0.08703613,0.2814331,0.7508423,-0.24320069,102
28462,-0.8897524,0.06379032,0.14839172,0.2814331,0.7508423,-0.24320069,102
28463,-0.8897524,0.06379032,0.14839172,0.39188233,0.74447024,-0.20178223,102
28464,-0.96226597,0.14680862,0.07029724,0.39188233,0.74447024,-0.20178223,102
28465,-0.96226597,0.14680862,0.07029724,0.38338622,0.73703617,-0.19647217,102
28466,-1.0799937,0.29172707,-0.037216187,0.38338622,0.73703617,-0.19647217,102
28467,-1.0799937,0.29172707,-0.037216187,0.2793091,0.71154785,-0.1996582,102
28468,-1.10711,0.23434639,-0.039230347,0.2793091,0.71154785,-0.1996582,102
28469,-1.10711,0.23434639,-0.039230347,0.35471192,0.7688965,-0.18372802,102
28470,-0.95083714,-0.034238815,0.021896362,0.35471192,0.7688965,-0.18372802,102
28471,-0.95083714,-0.034238815,0.021896362,0.59260255,0.7625244,-0.18585205,102
28472,-0.62929773,-0.13492298,0.048690796,0.59260255,0.7625244,-0.18585205,102
28473,-0.62929773,-0.13492298,0.048690796,0.6988037,0.7614624,-0.17523193,102
28474,-0.25819874,0.14029121,0.022369385,0.6988037,0.7614624,-0.17523193,102
28475,-0.25819874,0.14029121,0.022369385,0.6000366,0.80181885,-0.20921631,102
28476,-0.03299904,0.37275505,0.01550293,0.6000366,0.80181885,-0.20921631,102
28477,-0.03299904,0.37275505,0.01550293,0.6117188,0.8209351,-0.20178223,102
28478,0.03280449,0.3389635,0.2112732,0.6117188,0.8209351,-0.20178223,102
28479,0.03280449,0.3389635,0.2112732,0.5798584,0.6117188,-0.12850343,102
28480,0.282835,0.24230099,0.42645264,0.5798584,0.6117188,-0.12850343,102
28481,0.282835,0.24230099,0.42645264,0.10938721,0.49489745,-0.10089111,102
28482,0.706151,0.09027672,0.2474823,0.10938721,0.49489745,-0.10089111,102
28483,0.706151,0.09027672,0.2474823,-0.16673584,0.55968016,-0.0541626,102
28484,0.72161007,-0.4386301,0.08683777,-0.16673584,0.55968016,-0.0541626,102
28485,0.72161007,-0.4386301,0.08683777,0.3334717,0.51082766,0.11044922,102
28486,0.28630877,-0.7886114,0.4799347,0.3334717,0.51082766,0.11044922,102
28487,0.28630877,-0.7886114,0.4799347,0.9781128,0.26656494,0.18585205,102
28488,0.28630877,-0.7886114,0.4799347,0.9781128,0.26656494,0.18585205,103
28489,-0.077093124,0.034309387,1.1383057,0.9781128,0.26656494,0.18585205,103
28490,-0.077093124,0.034309387,1.1383057,1.0174073,0.2347046,0.093457036,103
28491,-0.009757996,1.2634583,1.5351715,1.0174073,0.2347046,0.093457036,103
28492,-0.009757996,1.2634583,1.5351715,0.68287355,0.13487549,0.05628662,103
28493,0.2633481,1.7678108,1.4128113,0.68287355,0.13487549,0.05628662,103
28494,0.2633481,1.7678108,1.4128113,0.28674316,0.2538208,-0.13168946,103
28495,0.38334656,1.2897243,1.0791016,0.28674316,0.2538208,-0.13168946,103
28496,0.38334656,1.2897243,1.0791016,0.16673584,0.26656494,-0.14655761,103
28497,0.28726768,0.38523483,0.7691498,0.16673584,0.26656494,-0.14655761,103
28498,0.28726768,0.38523483,0.7691498,0.3451538,0.23789063,-0.1274414,103
28499,-0.031831264,-0.093813896,0.45167542,0.3451538,0.23789063,-0.1274414,103
28500,-0.031831264,-0.093813896,0.45167542,0.5522461,0.20709229,-0.08920898,103
28501,-0.42121696,0.10406208,0.18136597,0.5522461,0.20709229,-0.08920898,103
28502,-0.42121696,0.10406208,0.18136597,0.5501221,0.16992188,-0.078588866,103
28503,-0.6799302,0.59675026,-0.018447876,0.5501221,0.16992188,-0.078588866,103
28504,-0.6799302,0.59675026,-0.018447876,0.44179687,0.14124756,-0.03079834,103
28505,-0.8150625,0.8396797,-0.18548584,0.44179687,0.14124756,-0.03079834,103
28506,-0.8150625,0.8396797,-0.18548584,0.39188233,0.046728518,0.050976563,103
28507,-0.8920646,0.78453636,-0.30064392,0.39188233,0.046728518,0.050976563,103
28508,-0.8920646,0.78453636,-0.30064392,0.362146,-0.050976563,0.08496094,103
28509,-0.7762127,0.59119034,-0.2959137,0.362146,-0.050976563,0.08496094,103
28510,-0.7762127,0.59119034,-0.2959137,0.30267334,-0.12319336,0.1083252,103
28511,-0.43655872,0.1899929,-0.127182,0.30267334,-0.12319336,0.1083252,103
28512,-0.43655872,0.1899929,-0.127182,0.33240968,-0.11257324,0.17735596,103
28513,-0.104361534,-0.32437325,0.0940094,0.33240968,-0.11257324,0.17735596,103
28514,-0.104361534,-0.32437325,0.0940094,0.4258667,-0.22089843,0.24638672,103
28515,-0.013213158,-0.49983025,0.1485138,0.4258667,-0.22089843,0.24638672,103
28516,-0.013213158,-0.49983025,0.1485138,0.38338622,-0.3154175,0.23682861,103
28517,-0.061864853,-0.27549934,0.003860474,0.38338622,-0.3154175,0.23682861,103
28518,-0.061864853,-0.27549934,0.003860474,0.23789063,-0.31329346,0.21027832,103
28519,-0.006816387,-0.14395905,-0.064819336,0.23789063,-0.31329346,0.21027832,103
28520,-0.006816387,-0.14395905,-0.064819336,0.23364258,-0.30161133,0.26019287,103
28521,0.17800617,-0.35607338,0.05899048,0.23364258,-0.30161133,0.26019287,103
28522,0.17800617,-0.35607338,0.05899048,0.3727661,-0.35046387,0.2793091,103
28523,0.35075426,-0.47229767,0.16934204,0.3727661,-0.35046387,0.2793091,103
28524,0.35075426,-0.47229767,0.16934204,0.4322388,-0.40144044,0.22514649,103
28525,0.49548388,-0.13306236,0.13542175,0.4322388,-0.40144044,0.22514649,103
28526,0.49548388,-0.13306236,0.13542175,0.26975098,-0.37701416,0.14018555,103
28527,0.6332035,0.22040558,0.060058594,0.26975098,-0.37701416,0.14018555,103
28528,0.6332035,0.22040558,0.060058594,0.0998291,-0.29948732,0.14868164,103
28529,0.6612258,0.040154457,0.16845703,0.0998291,-0.29948732,0.14868164,103
28530,0.6612258,0.040154457,0.16845703,0.271875,-0.23895264,0.15080567,103
28531,0.6301527,-0.37098885,0.46443176,0.271875,-0.23895264,0.15080567,103
28532,0.6301527,-0.37098885,0.46443176,0.50233155,-0.26125488,0.14124756,103
28533,0.6526089,-0.24864674,0.5372467,0.50233155,-0.26125488,0.14124756,103
28534,0.6526089,-0.24864674,0.5372467,0.3812622,-0.2803711,0.10513916,103
28535,0.65608406,0.33255196,0.25701904,0.3812622,-0.2803711,0.10513916,103
28536,0.65608406,0.33255196,0.25701904,0.15717773,-0.18903808,0.060534667,103
28537,0.5311537,0.6306648,0.002136231,0.15717773,-0.18903808,0.060534667,103
28538,0.5311537,0.6306648,0.002136231,0.121069334,-0.12850343,0.078588866,103
28539,0.27765703,0.47837162,-0.014923096,0.121069334,-0.12850343,0.078588866,103
28540,0.27765703,0.47837162,-0.014923096,0.23151855,-0.14974366,0.07540283,103
28541,0.022686958,0.25906467,0.0526886,0.23151855,-0.14974366,0.07540283,103
28542,0.022686958,0.25906467,0.0526886,0.29099122,-0.15505372,0.033984374,103
28543,-0.09511948,0.20281982,0.07835388,0.29099122,-0.15505372,0.033984374,103
28544,-0.09511948,0.20281982,0.07835388,0.22939454,-0.12531738,-0.022302246,103
28545,-0.034371853,0.21109581,0.054626465,0.22939454,-0.12531738,-0.022302246,103
28546,-0.034371853,0.21109581,0.054626465,0.1539917,-0.095581055,-0.078588866,103
28547,0.08586931,0.24529266,-0.09779358,0.1539917,-0.095581055,-0.078588866,103
28548,0.08586931,0.24529266,-0.09779358,0.08602295,-0.14761963,-0.14655761,103
28549,0.17477465,0.44325542,-0.41073608,0.08602295,-0.14761963,-0.14655761,103
28550,0.17477465,0.44325542,-0.41073608,-0.04460449,-0.18160401,-0.25063476,103
28551,0.1813116,0.72323227,-0.7371979,-0.04460449,-0.18160401,-0.25063476,103
28552,0.1813116,0.72323227,-0.7371979,-0.2516968,-0.24213867,-0.36108398,103
28553,0.05637741,0.851511,-0.93800354,-0.2516968,-0.24213867,-0.36108398,103
28554,0.05637741,0.851511,-0.93800354,-0.38232422,-0.27506104,-0.46409914,103
28555,-0.2097807,0.6815624,-0.95176697,-0.38232422,-0.27506104,-0.46409914,103
28556,-0.2097807,0.6815624,-0.95176697,-0.37382814,-0.39294434,-0.5278198,103
28557,-0.41749525,0.36606312,-0.785202,-0.37382814,-0.39294434,-0.5278198,103
28558,-0.41749525,0.36606312,-0.785202,-0.2442627,-0.5564942,-0.55755615,103
28559,-0.26610088,0.18083858,-0.5144043,-0.2442627,-0.5564942,-0.55755615,103
28560,-0.26610088,0.18083858,-0.5144043,-0.17947999,-0.63614506,-0.58304447,103
28561,0.079538345,0.059123993,-0.2228241,-0.17947999,-0.63614506,-0.58304447,103
28562,0.079538345,0.059123993,-0.2228241,-0.08283692,-0.7582764,-0.6053467,103
28563,0.3272171,-0.09891701,0.014755249,-0.08283692,-0.7582764,-0.6053467,103
28564,0.3272171,-0.09891701,0.014755249,-0.021240234,-0.84111327,-0.63826907,103
28565,0.5647645,-0.22150421,0.20780945,-0.021240234,-0.84111327,-0.63826907,103
28566,0.5647645,-0.22150421,0.20780945,0.095581055,-0.84748536,-0.6467652,103
28567,0.85394764,-0.19144917,0.42199707,0.095581055,-0.84748536,-0.6467652,103
28568,0.85394764,-0.19144917,0.42199707,0.20603028,-0.85385746,-0.6053467,103
28569,1.0206094,0.049209595,0.57933044,0.20603028,-0.85385746,-0.6053467,103
28570,1.0206094,0.049209595,0.57933044,0.19222413,-0.8326172,-0.6085327,103
28571,0.94865274,0.19212627,0.49212646,0.19222413,-0.8326172,-0.6085327,103
28572,0.94865274,0.19212627,0.49212646,0.1901001,-0.75509036,-0.60959476,103
28573,1.2445912,0.030189514,0.6334686,0.1901001,-0.75509036,-0.60959476,103
28574,1.2445912,0.030189514,0.6334686,0.43011475,-0.60216063,-0.5065796,103
28575,1.1844549,-0.0395813,0.5493927,0.43011475,-0.60216063,-0.5065796,103
28576,1.1844549,-0.0395813,0.5493927,0.4991455,-0.5734863,-0.47896728,103
28577,1.329339,0.03190899,0.571579,0.4991455,-0.5734863,-0.47896728,103
28578,1.329339,0.03190899,0.571579,0.2262085,-0.49277344,-0.35152587,103
28579,1.329339,0.03190899,0.571579,0.2262085,-0.49277344,-0.35152587,104
28580,1.1113834,0.2074852,0.36386108,0.2262085,-0.49277344,-0.35152587,104
28581,1.1113834,0.2074852,0.36386108,0.0722168,-0.41312256,-0.30161133,104
28582,0.868062,0.2764616,0.023391724,0.0722168,-0.41312256,-0.30161133,104
28583,0.868062,0.2764616,0.023391724,0.07752686,-0.24851075,-0.13168946,104
28584,0.6256876,0.15217495,-0.12739563,0.07752686,-0.24851075,-0.13168946,104
28585,0.6256876,0.15217495,-0.12739563,0.16036378,-0.26762697,-0.078588866,104
28586,0.28576756,0.32305813,-0.5913849,0.16036378,-0.26762697,-0.078588866,104
28587,0.28576756,0.32305813,-0.5913849,0.17523193,-0.2262085,-0.009558106,104
28588,0.18968582,0.4582882,-0.6192322,0.17523193,-0.2262085,-0.009558106,104
28589,0.18968582,0.4582882,-0.6192322,0.16992188,-0.21983643,0.012744141,104
28590,0.09701252,0.8380537,-0.6143341,0.16992188,-0.21983643,0.012744141,104
28591,0.09701252,0.8380537,-0.6143341,0.18797608,-0.22302246,0.039294433,104
28592,0.07240963,0.7113981,-0.5067291,0.18797608,-0.22302246,0.039294433,104
28593,0.07240963,0.7113981,-0.5067291,0.19434814,-0.21877442,0.04460449,104
28594,0.14910221,0.38642788,-0.2464447,0.19434814,-0.21877442,0.04460449,104
28595,0.14910221,0.38642788,-0.2464447,0.31010744,-0.16567384,0.06478272,104
28596,0.14553928,0.21627045,-0.098602295,0.31010744,-0.16567384,0.06478272,104
28597,0.14553928,0.21627045,-0.098602295,0.34833986,-0.16885987,0.045666505,104
28598,0.1054697,0.19005775,0.12672424,0.34833986,-0.16885987,0.045666505,104
28599,0.1054697,0.19005775,0.12672424,0.33240968,-0.1444336,0.005310059,104
28600,-0.014147759,0.34641933,0.22135925,0.33240968,-0.1444336,0.005310059,104
28601,-0.014147759,0.34641933,0.22135925,0.20921631,-0.09133301,0.039294433,104
28602,-0.10505581,0.37257004,0.21154785,0.20921631,-0.09133301,0.039294433,104
28603,-0.10505581,0.37257004,0.21154785,0.18585205,-0.047790527,0.038232423,104
28604,-0.13539982,0.2398529,0.08720398,0.18585205,-0.047790527,0.038232423,104
28605,-0.13539982,0.2398529,0.08720398,0.121069334,-0.026550293,0.04991455,104
28606,-0.23609066,0.115270615,-0.06504822,0.121069334,-0.026550293,0.04991455,104
28607,-0.23609066,0.115270615,-0.06504822,0.16992188,-0.026550293,0.038232423,104
28608,-0.37100124,0.100871086,-0.12745667,0.16992188,-0.026550293,0.038232423,104
28609,-0.37100124,0.100871086,-0.12745667,0.16885987,-0.0637207,0.03186035,104
28610,-0.3643055,0.16741562,-0.22259521,0.16885987,-0.0637207,0.03186035,104
28611,-0.3643055,0.16741562,-0.22259521,0.06478272,-0.0722168,0.03717041,104
28612,-0.29137135,0.09992409,-0.3378296,0.06478272,-0.0722168,0.03717041,104
28613,-0.29137135,0.09992409,-0.3378296,-0.021240234,-0.09239502,0.087084964,104
28614,-0.2729168,-0.07897186,-0.33132935,-0.021240234,-0.09239502,0.087084964,104
28615,-0.2729168,-0.07897186,-0.33132935,-0.0180542,-0.17416993,0.10407715,104
28616,-0.28649712,-0.07746029,-0.29641724,-0.0180542,-0.17416993,0.10407715,104
28617,-0.28649712,-0.07746029,-0.29641724,0.035046387,-0.21027832,0.0998291,104
28618,-0.2289896,-0.01517868,-0.26411438,0.035046387,-0.21027832,0.0998291,104
28619,-0.2289896,-0.01517868,-0.26411438,0.11363526,-0.21877442,0.121069334,104
28620,-0.06904411,-0.06619549,-0.19619751,0.11363526,-0.21877442,0.121069334,104
28621,-0.06904411,-0.06619549,-0.19619751,0.22302246,-0.25594482,0.10407715,104
28622,0.11668873,-0.14305687,-0.13723755,0.22302246,-0.25594482,0.10407715,104
28623,0.11668873,-0.14305687,-0.13723755,0.31435546,-0.22302246,0.10513916,104
28624,0.23132706,-0.21461678,-0.04937744,0.31435546,-0.22302246,0.10513916,104
28625,0.23132706,-0.21461678,-0.04937744,0.48321533,-0.22196046,0.08496094,104
28626,0.23132706,-0.21461678,-0.04937744,0.4428589,-0.21983643,0.04460449,104
28627,0.26992512,-0.051856995,0.039733887,0.4428589,-0.21983643,0.04460449,104
28628,0.30265903,0.3579769,0.11642456,0.4428589,-0.21983643,0.04460449,104
28629,0.30265903,0.3579769,0.11642456,0.18266602,-0.15080567,0.04885254,104
28630,0.27990818,0.4696207,0.16221619,0.18266602,-0.15080567,0.04885254,104
28631,0.27990818,0.4696207,0.16221619,0.009558106,-0.107263185,0.05628662,104
28632,0.19061375,0.202528,0.08621216,0.009558106,-0.107263185,0.05628662,104
28633,0.19061375,0.202528,0.08621216,0.004248047,-0.038232423,0.06690674,104
28634,0.08924675,-0.052955627,-0.0856781,0.004248047,-0.038232423,0.06690674,104
28635,0.08924675,-0.052955627,-0.0856781,0.07327881,-0.022302246,0.04885254,104
28636,-0.018616676,-0.06646156,-0.12966919,0.07327881,-0.022302246,0.04885254,104
28637,-0.018616676,-0.06646156,-0.12966919,0.14868164,-0.058410645,0.011682129,104
28638,-0.042871475,0.14099598,-0.005813599,0.14868164,-0.058410645,0.011682129,104
28639,-0.042871475,0.14099598,-0.005813599,0.07327881,-0.04248047,-0.0361084,104
28640,0.05099392,0.23501396,0.0978241,0.07327881,-0.04248047,-0.0361084,104
28641,0.05099392,0.23501396,0.0978241,-0.026550293,0.033984374,-0.03186035,104
28642,0.10425949,0.108701706,0.032791138,-0.026550293,0.033984374,-0.03186035,104
28643,0.10425949,0.108701706,0.032791138,-0.040356446,0.0541626,-0.04141846,104
28644,0.031796455,-0.039125443,-0.10670471,-0.040356446,0.0541626,-0.04141846,104
28645,0.031796455,-0.039125443,-0.10670471,-0.015930176,0.0180542,-0.0722168,104
28646,-0.0378685,-0.035182953,-0.15318298,-0.015930176,0.0180542,-0.0722168,104
28647,-0.0378685,-0.035182953,-0.15318298,-0.019116212,0.014868164,-0.08602295,104
28648,-0.012557983,0.009878159,-0.060287476,-0.019116212,0.014868164,-0.08602295,104
28649,-0.012557983,0.009878159,-0.060287476,-0.04991455,0.035046387,-0.0722168,104
28650,0.030529976,0.0356369,0.008529663,-0.04991455,0.035046387,-0.0722168,104
28651,0.030529976,0.0356369,0.008529663,-0.09664307,0.028674318,-0.08071289,104
28652,0.03848648,0.02617836,0.011367798,-0.09664307,0.028674318,-0.08071289,104
28653,0.03848648,0.02617836,0.011367798,-0.1263794,0.04460449,-0.06796875,104
28654,0.013882637,-0.07038975,0.007904053,-0.1263794,0.04460449,-0.06796875,104
28655,0.013882637,-0.07038975,0.007904053,-0.11363526,0.06159668,-0.03717041,104
28656,-0.028469086,-0.13260555,0.006393433,-0.11363526,0.06159668,-0.03717041,104
28657,-0.028469086,-0.13260555,0.006393433,-0.06478272,0.08496094,-0.023364259,104
28658,-0.05492878,-0.035015106,0.01701355,-0.06478272,0.08496094,-0.023364259,104
28659,-0.05492878,-0.035015106,0.01701355,-0.10513916,0.08920898,-0.016992187,104
28660,-0.060593605,0.08735657,0.032608032,-0.10513916,0.08920898,-0.016992187,104
28661,-0.060593605,0.08735657,0.032608032,-0.1901001,0.093457036,-0.011682129,104
28662,-0.072852135,0.032312393,0.006286621,-0.1901001,0.093457036,-0.011682129,104
28663,-0.072852135,0.032312393,0.006286621,-0.17523193,0.09133301,-0.016992187,104
28664,-0.09850407,-0.17253876,-0.07147217,-0.17523193,0.09133301,-0.016992187,104
28665,-0.09850407,-0.17253876,-0.07147217,-0.06690674,0.04248047,-0.029736329,104
28666,-0.10524368,-0.27555466,-0.115753174,-0.06690674,0.04248047,-0.029736329,104
28667,-0.10524368,-0.27555466,-0.115753174,0.019116212,-0.020178223,-0.043542482,104
28668,-0.046242714,-0.15553856,-0.05152893,0.019116212,-0.020178223,-0.043542482,104
28669,-0.046242714,-0.15553856,-0.05152893,-0.001062012,-0.038232423,-0.03079834,104
28670,0.031279564,-0.016105652,0.03048706,-0.001062012,-0.038232423,-0.03079834,104
28671,0.031279564,-0.016105652,0.03048706,-0.007434082,-0.028674318,-0.011682129,104
28672,0.050780296,-0.04517269,0.110443115,-0.007434082,-0.028674318,-0.011682129,104
28673,0.050780296,-0.04517269,0.110443115,-0.013806152,-0.013806152,0.038232423,104
28674,0.05101204,-0.18210983,0.1869812,-0.013806152,-0.013806152,0.038232423,104
28675,0.05101204,-0.18210983,0.1869812,0.070092775,0.021240234,0.0637207,104
28676,0.052210808,-0.11167908,0.08959961,0.070092775,0.021240234,0.0637207,104
28677,0.052210808,-0.11167908,0.08959961,0.10089111,0.045666505,0.03717041,104
28678,0.036348343,0.15436935,-0.06755066,0.10089111,0.045666505,0.03717041,104
28679,0.036348343,0.15436935,-0.06755066,0.0722168,0.11363526,0,104
28680,0.036183357,0.25683308,-0.04862976,0.0722168,0.11363526,0,104
28681,0.036183357,0.25683308,-0.04862976,0.004248047,0.13912354,-0.012744141,104
28682,0.036183357,0.25683308,-0.04862976,0.004248047,0.13912354,-0.012744141,104
28683,0.028409958,0.15649223,0.054229736,0.004248047,0.13912354,-0.012744141,104
28684,0.028409958,0.15649223,0.054229736,0.023364259,0.07965088,-0.06159668,104
28685,-0.016993523,0.072740555,0.0320282,0.023364259,0.07965088,-0.06159668,104
28686,-0.016993523,0.072740555,0.0320282,-0.005310059,0.046728518,-0.06159668,104
28687,-0.06496143,-0.018968582,-0.070114136,-0.005310059,0.046728518,-0.06159668,104
28688,-0.06496143,-0.018968582,-0.070114136,-0.0180542,0.078588866,-0.023364259,104
28689,-0.11962032,-0.19779205,-0.12983704,-0.0180542,0.078588866,-0.023364259,104
28690,-0.11962032,-0.19779205,-0.12983704,0.12850343,0.039294433,-0.004248047,104
28691,-0.17324734,-0.18532085,-0.103012085,0.12850343,0.039294433,-0.004248047,104
28692,-0.17324734,-0.18532085,-0.103012085,0.08283692,-0.021240234,0.038232423,104
28693,-0.17123985,-0.013014793,0.009490967,0.08283692,-0.021240234,0.038232423,104
28694,-0.17123985,-0.013014793,0.009490967,0.04885254,-0.04460449,0.04991455,104
28695,-0.09348583,0.10396767,0.23599243,0.04885254,-0.04460449,0.04991455,104
28696,-0.09348583,0.10396767,0.23599243,0.13381349,-0.053100586,0.038232423,104
28697,0.031449318,0.32084465,0.3919525,0.13381349,-0.053100586,0.038232423,104
28698,0.031449318,0.32084465,0.3919525,-0.09239502,0.023364259,0.043542482,104
28699,0.075354576,0.46762562,0.16307068,-0.09239502,0.023364259,0.043542482,104
28700,0.075354576,0.46762562,0.16307068,-0.15823975,0.003186035,-0.04248047,104
28701,0.07347965,0.257658,-0.18104553,-0.15823975,0.003186035,-0.04248047,104
28702,0.07347965,0.257658,-0.18104553,-0.20072022,0.033984374,-0.07434082,104
28703,0.10032463,-0.09493542,-0.23066711,-0.20072022,0.033984374,-0.07434082,104
28704,0.10032463,-0.09493542,-0.23066711,-0.07752686,0.04885254,-0.11682129,104
28705,0.08024788,-0.26216698,-0.07858276,-0.07752686,0.04885254,-0.11682129,104
28706,0.08024788,-0.26216698,-0.07858276,-0.07115479,0.07646485,-0.10513916,104
28707,-0.028282166,-0.18309784,-0.035202026,-0.07115479,0.07646485,-0.10513916,104
28708,-0.028282166,-0.18309784,-0.035202026,-0.07434082,0.057348635,-0.093457036,104
28709,-0.15879536,-0.09242535,-0.10343933,-0.07434082,0.057348635,-0.093457036,104
28710,-0.15879536,-0.09242535,-0.10343933,-0.06690674,0.002124023,-0.0722168,104
28711,-0.16862583,-0.12417221,-0.096710205,-0.06690674,0.002124023,-0.0722168,104
28712,-0.16862583,-0.12417221,-0.096710205,-0.005310059,-0.013806152,-0.04885254,104
28713,-0.054139137,-0.13678837,0.047302246,-0.005310059,-0.013806152,-0.04885254,104
28714,-0.054139137,-0.13678837,0.047302246,0.0361084,-0.0180542,-0.046728518,104
28715,0.060753822,-0.037469864,0.18502808,0.0361084,-0.0180542,-0.046728518,104
28716,0.060753822,-0.037469864,0.18502808,0.012744141,0.010620117,-0.03079834,104
28717,0.09160805,0.07045174,0.19897461,0.012744141,0.010620117,-0.03079834,104
28718,0.09160805,0.07045174,0.19897461,-0.019116212,0.033984374,-0.015930176,104
28719,0.028022766,0.11185455,0.093322754,-0.019116212,0.033984374,-0.015930176,104
28720,0.028022766,0.11185455,0.093322754,-0.0361084,0.015930176,-0.027612304,104
28721,-0.026848793,0.114105225,-0.01826477,-0.0361084,0.015930176,-0.027612304,104
28722,-0.026848793,0.114105225,-0.01826477,-0.0722168,0.003186035,-0.039294433,104
28723,-0.024835587,0.07076454,-0.03199768,-0.0722168,0.003186035,-0.039294433,104
28724,-0.024835587,0.07076454,-0.03199768,-0.13381349,-0.010620117,-0.033984374,104
28725,0.023320198,-0.062235832,0.017288208,-0.13381349,-0.010620117,-0.033984374,104
28726,0.023320198,-0.062235832,0.017288208,-0.08071289,0.03186035,-0.0541626,104
28727,0.0687294,-0.03499317,0.079559326,-0.08071289,0.03186035,-0.0541626,104
28728,0.0687294,-0.03499317,0.079559326,0.058410645,0.07646485,-0.17841797,104
28729,0.09930706,0.35220528,0.16549683,0.058410645,0.07646485,-0.17841797,104
28730,0.09930706,0.35220528,0.16549683,0.0637207,0.2166504,-0.3706421,104
28731,0.13363266,0.7277727,0.31085205,0.0637207,0.2166504,-0.3706421,104
28732,0.13363266,0.7277727,0.31085205,0.078588866,0.33665773,-0.6117188,104
28733,0.16919899,0.76571465,0.45005798,0.078588866,0.33665773,-0.6117188,104
28734,0.16919899,0.76571465,0.45005798,0.17416993,0.4428589,-0.81668705,104
28735,0.13733673,0.7343006,0.39137268,0.17416993,0.4428589,-0.81668705,104
28736,0.13733673,0.7343006,0.39137268,0.33665773,0.4959595,-0.9759888,104
28737,0.08602905,1.0716686,0.21827698,0.33665773,0.4959595,-0.9759888,104
28738,0.08602905,1.0716686,0.21827698,0.15186767,0.4619751,-1.0875,104
28739,0.1453247,1.1390972,0.14845276,0.15186767,0.4619751,-1.0875,104
28740,0.1453247,1.1390972,0.14845276,-0.3440918,0.57561034,-0.98129886,104
28741,0.1272831,0.2502308,0.082458496,-0.3440918,0.57561034,-0.98129886,104
28742,0.1272831,0.2502308,0.082458496,-0.30479738,0.54906005,-0.8952759,104
28743,-0.071489334,-0.6840801,-0.002456665,-0.30479738,0.54906005,-0.8952759,104
28744,-0.071489334,-0.6840801,-0.002456665,-0.009558106,0.4619751,-0.7890747,104
28745,-0.30228424,-0.7854347,0.03742981,-0.009558106,0.4619751,-0.7890747,104
28746,-0.30228424,-0.7854347,0.03742981,-0.004248047,0.452417,-0.62552494,104
28747,-0.48456478,-0.280056,0.1541748,-0.004248047,0.452417,-0.62552494,104
28748,-0.48456478,-0.280056,0.1541748,-0.13912354,0.44604492,-0.5564942,104
28749,-0.6395197,0.17425728,0.07676697,-0.13912354,0.44604492,-0.5564942,104
28750,-0.6395197,0.17425728,0.07676697,-0.11469727,0.36851808,-0.4598511,104
28751,-0.71161556,0.25167465,-0.19778442,-0.11469727,0.36851808,-0.4598511,104
28752,-0.71161556,0.25167465,-0.19778442,-0.28674316,0.27399904,-0.46516114,104
28753,-0.6672783,-0.07657814,-0.3947296,-0.28674316,0.27399904,-0.46516114,104
28754,-0.6672783,-0.07657814,-0.3947296,-0.44710693,0.16992188,-0.41949463,104
28755,-0.5217867,-0.35714912,-0.32756042,-0.44710693,0.16992188,-0.41949463,104
28756,-0.5217867,-0.35714912,-0.32756042,-0.34090576,0.016992187,-0.3802002,104
28757,-0.19502926,-0.1504898,0.037200928,-0.34090576,0.016992187,-0.3802002,104
28758,-0.19502926,-0.1504898,0.037200928,-0.30267334,0.081774905,-0.35895997,104
28759,0.13158607,0.16550827,0.44093323,-0.30267334,0.081774905,-0.35895997,104
28760,0.13158607,0.16550827,0.44093323,-0.2538208,0.04460449,-0.3355957,104
28761,0.2741413,0.18660545,0.5175781,-0.2538208,0.04460449,-0.3355957,104
28762,0.2741413,0.18660545,0.5175781,-0.31966552,0.11151123,-0.30161133,104
28763,0.2862196,-0.19700432,0.4249115,-0.31966552,0.11151123,-0.30161133,104
28764,0.2862196,-0.19700432,0.4249115,-0.22408448,0.15823975,-0.18266602,104
28765,0.21662235,-0.45175743,0.54034424,-0.22408448,0.15823975,-0.18266602,104
28766,0.21662235,-0.45175743,0.54034424,-0.06584473,0.10089111,-0.10195313,104
28767,0.054182053,-0.17334366,0.45402527,-0.06584473,0.10089111,-0.10195313,104
28768,0.054182053,-0.17334366,0.45402527,-0.020178223,0.08920898,-0.026550293,104
28769,-0.11568737,-7.97E-04,-0.041793823,-0.020178223,0.08920898,-0.026550293,104
28770,-0.11568737,-7.97E-04,-0.041793823,0.038232423,0.087084964,0.124255374,104
28771,-0.13518906,-0.25374985,-0.35072327,0.038232423,0.087084964,0.124255374,104
28772,-0.13518906,-0.25374985,-0.35072327,0.17416993,0.06690674,0.22302246,104
28773,-0.06520653,-0.59820175,-0.4076538,0.17416993,0.06690674,0.22302246,104
28774,-0.06520653,-0.59820175,-0.4076538,0.3525879,0.021240234,0.37489015,104
28775,-0.11924267,-0.70745564,-0.570755,0.3525879,0.021240234,0.37489015,104
28776,-0.11924267,-0.70745564,-0.570755,0.5278198,-0.1529297,0.544812,104
28777,-0.25888252,-0.3110695,-0.6904297,0.5278198,-0.1529297,0.544812,104
28778,-0.25888252,-0.3110695,-0.6904297,0.62977296,-0.27612305,0.63720703,104
28779,-0.23456001,0.42465496,-0.35655212,0.62977296,-0.27612305,0.63720703,104
28780,-0.23456001,0.42465496,-0.35655212,0.3993164,-0.37489015,0.6531372,104
28781,-0.043824196,0.80809593,0.17042542,0.3993164,-0.37489015,0.6531372,104
28782,-0.043824196,0.80809593,0.17042542,0.20603028,-0.2888672,0.74447024,104
28783,-0.03923416,0.6682663,0.234375,0.20603028,-0.2888672,0.74447024,104
28784,-0.03923416,0.6682663,0.234375,0.14124756,-0.38657227,0.79013675,104
28785,-0.2110014,0.4655819,-0.07180786,0.14124756,-0.38657227,0.79013675,104
28786,-0.2110014,0.4655819,-0.07180786,-0.107263185,-0.45454103,0.80606693,104
28787,-0.24867153,0.37911797,-0.27191162,-0.107263185,-0.45454103,0.80606693,104
28788,-0.24867153,0.37911797,-0.27191162,-0.31966552,-0.5522461,0.74659425,104
28789,-0.08137131,0.22237396,-0.17375183,-0.31966552,-0.5522461,0.74659425,104
28790,-0.08137131,0.22237396,-0.17375183,-0.3536499,-0.4725952,0.6595093,104
28791,-0.08137131,0.22237396,-0.17375183,-0.3536499,-0.4725952,0.6595093,105
28792,0.17380714,-0.07260132,0.05731201,-0.3536499,-0.4725952,0.6595093,105
28793,0.17380714,-0.07260132,0.05731201,-0.19222413,-0.48215333,0.54906005,105
28794,0.36560822,-0.18589973,0.21632385,-0.19222413,-0.48215333,0.54906005,105
28795,0.36560822,-0.18589973,0.21632385,-0.098767094,-0.4715332,0.44604492,105
28796,0.5380802,-0.21418571,0.2545929,-0.098767094,-0.4715332,0.44604492,105
28797,0.5380802,-0.21418571,0.2545929,-0.1444336,-0.40356445,0.43117675,105
28798,0.6381664,-0.5421982,0.25022888,-0.1444336,-0.40356445,0.43117675,105
28799,0.6381664,-0.5421982,0.25022888,0.014868164,-0.33665773,0.4333008,105
28800,0.5767689,-0.7958927,0.1257019,0.014868164,-0.33665773,0.4333008,105
28801,0.5767689,-0.7958927,0.1257019,0.16354981,-0.271875,0.38551027,105
28802,0.43005562,-0.5427933,0.05821228,0.16354981,-0.271875,0.38551027,105
28803,0.43005562,-0.5427933,0.05821228,0.26444092,-0.18160401,0.31223145,105
28804,0.36115837,-0.06893921,0.20310974,0.26444092,-0.18160401,0.31223145,105
28805,0.36115837,-0.06893921,0.20310974,0.107263185,-0.11257324,0.18691407,105
28806,0.32404613,0.08729172,0.17201233,0.107263185,-0.11257324,0.18691407,105
28807,0.32404613,0.08729172,0.17201233,0.04885254,0.03079834,0.26444092,105
28808,0.2529621,0.18903542,0.004943848,0.04885254,0.03079834,0.26444092,105
28809,0.2529621,0.18903542,0.004943848,0.10407715,0.014868164,0.10195313,105
28810,0.24603367,0.4629593,0.004592896,0.10407715,0.014868164,0.10195313,105
28811,0.24603367,0.4629593,0.004592896,-0.13487549,0.16354981,0.058410645,105
28812,0.20017147,0.34782028,-0.1539154,-0.13487549,0.16354981,0.058410645,105
28813,0.20017147,0.34782028,-0.1539154,-0.2548828,0.19434814,0,105
28814,-0.05902767,-0.285635,-0.649353,-0.2548828,0.19434814,0,105
28815,-0.05902767,-0.285635,-0.649353,-0.090270996,0.1539917,0.022302246,105
28816,-0.3606863,-0.87817764,-1.0417328,-0.090270996,0.1539917,0.022302246,105
28817,-0.3606863,-0.87817764,-1.0417328,0.21452637,0.06584473,0.043542482,105
28818,-0.519763,-0.658535,-0.82159424,0.21452637,0.06584473,0.043542482,105
28819,-0.519763,-0.658535,-0.82159424,0.55968016,-0.0998291,-0.002124023,105
28820,-0.47445297,0.076747894,-0.16888428,0.55968016,-0.0998291,-0.002124023,105
28821,-0.47445297,0.076747894,-0.16888428,0.46409914,-0.007434082,0.03186035,105
28822,-0.29723835,0.2226286,0.4893036,0.46409914,-0.007434082,0.03186035,105
28823,-0.29723835,0.2226286,0.4893036,0.45135498,0.02442627,0.16248779,105
28824,-0.1183691,-0.04319763,0.86813354,0.45135498,0.02442627,0.16248779,105
28825,-0.1183691,-0.04319763,0.86813354,0.51932377,0.028674318,0.2166504,105
28826,0.003693581,-0.18268967,0.7630615,0.51932377,0.028674318,0.2166504,105
28827,0.003693581,-0.18268967,0.7630615,0.3812622,0.035046387,0.32072756,105
28828,0.010950089,-0.13136864,0.32440186,0.3812622,0.035046387,0.32072756,105
28829,0.010950089,-0.13136864,0.32440186,0.33665773,-0.03079834,0.33240968,105
28830,0.03233242,0.20830917,-0.14572144,0.33665773,-0.03079834,0.33240968,105
28831,0.03233242,0.20830917,-0.14572144,0.13275146,-0.09664307,0.24744873,105
28832,0.09892559,0.5643406,-0.48103333,0.13275146,-0.09664307,0.24744873,105
28833,0.09892559,0.5643406,-0.48103333,-0.1901001,-0.25063476,0.118945315,105
28834,0.107375145,0.54120636,-0.59825134,-0.1901001,-0.25063476,0.118945315,105
28835,0.107375145,0.54120636,-0.59825134,-0.4715332,-0.24001466,0.040356446,105
28836,0.017492294,0.13488197,-0.3946991,-0.4715332,-0.24001466,0.040356446,105
28837,0.017492294,0.13488197,-0.3946991,-0.36320803,-0.1359375,-0.020178223,105
28838,-0.049458504,0.003925324,-0.024551392,-0.36320803,-0.1359375,-0.020178223,105
28839,-0.049458504,0.003925324,-0.024551392,-0.28780517,-0.04141846,-0.17629395,105
28840,0.019198418,0.17263412,0.109191895,-0.28780517,-0.04141846,-0.17629395,105
28841,0.019198418,0.17263412,0.109191895,-0.50445557,0.050976563,-0.2357666,105
28842,0.14748764,-0.17783546,0.022232056,-0.50445557,0.050976563,-0.2357666,105
28843,0.14748764,-0.17783546,0.022232056,-0.5766724,0.09133301,-0.18372802,105
28844,0.251853,-0.83856964,0.023330688,-0.5766724,0.09133301,-0.18372802,105
28845,0.251853,-0.83856964,0.023330688,-0.44816896,-0.002124023,-0.18797608,105
28846,0.2790947,-0.9073067,0.1758728,-0.44816896,-0.002124023,-0.18797608,105
28847,0.2790947,-0.9073067,0.1758728,-0.17523193,0.115759276,-0.16354981,105
28848,0.12592506,-0.46617794,0.19897461,-0.17523193,0.115759276,-0.16354981,105
28849,0.12592506,-0.46617794,0.19897461,-0.2548828,0.001062012,-0.10407715,105
28850,-0.10126209,0.10719681,0.060577393,-0.2548828,0.001062012,-0.10407715,105
28851,-0.10126209,0.10719681,0.060577393,-0.44604492,0.00637207,-0.043542482,105
28852,-0.18000889,0.26087952,-0.021575928,-0.44604492,0.00637207,-0.043542482,105
28853,-0.18000889,0.26087952,-0.021575928,-0.5012695,0.0637207,0.0361084,105
28854,-0.20998573,-0.12946796,-0.031082153,-0.5012695,0.0637207,0.0361084,105
28855,-0.20998573,-0.12946796,-0.031082153,-0.36533204,-0.002124023,0.0722168,105
28856,-0.29226875,-0.25251293,-0.11909485,-0.36533204,-0.002124023,0.0722168,105
28857,-0.29226875,-0.25251293,-0.11909485,-0.4322388,-0.016992187,0.06796875,105
28858,-0.38979626,-0.09751797,-0.14576721,-0.4322388,-0.016992187,0.06796875,105
28859,-0.38979626,-0.09751797,-0.14576721,-0.58304447,-0.004248047,0.1720459,105
28860,-0.3806963,-0.091368675,-0.06813049,-0.58304447,-0.004248047,0.1720459,105
28861,-0.3806963,-0.091368675,-0.06813049,-0.62764895,0.001062012,0.18797608,105
28862,-0.29996777,-0.20795822,-0.101760864,-0.62764895,0.001062012,0.18797608,105
28863,-0.29996777,-0.20795822,-0.101760864,-0.3525879,0.020178223,0.16885987,105
28864,-0.1189785,-0.32885456,-0.17756653,-0.3525879,0.020178223,0.16885987,105
28865,-0.1189785,-0.32885456,-0.17756653,-0.058410645,0.035046387,0.09664307,105
28866,0.052851677,-0.368577,-0.24702454,-0.058410645,0.035046387,0.09664307,105
28867,0.052851677,-0.368577,-0.24702454,0,-0.001062012,0.078588866,105
28868,0.12714481,-0.5361824,-0.31904602,0,-0.001062012,0.078588866,105
28869,0.12714481,-0.5361824,-0.31904602,0.07965088,-0.016992187,0.14974366,105
28870,0.20987034,-0.60934067,-0.120773315,0.07965088,-0.016992187,0.14974366,105
28871,0.20987034,-0.60934067,-0.120773315,0.30373535,-0.010620117,0.10089111,105
28872,0.29895115,-0.2761078,0.34513855,0.30373535,-0.010620117,0.10089111,105
28873,0.29895115,-0.2761078,0.34513855,0.24851075,0.16354981,0.07327881,105
28874,0.24697304,0.0489254,0.4971466,0.24851075,0.16354981,0.07327881,105
28875,0.24697304,0.0489254,0.4971466,0.27293703,0.27506104,0.032922365,105
28876,0.049715042,0.1306076,0.12461853,0.27293703,0.27506104,0.032922365,105
28877,0.049715042,0.1306076,0.12461853,0.44498292,0.2623169,-0.027612304,105
28878,-0.08215141,0.37516403,-0.34391785,0.44498292,0.2623169,-0.027612304,105
28879,-0.08215141,0.37516403,-0.34391785,0.26550293,0.15823975,-0.07646485,105
28880,-0.08215141,0.37516403,-0.34391785,0.26550293,0.15823975,-0.07646485,105
28881,-0.034751892,0.5417328,-0.56214905,0.26550293,0.15823975,-0.07646485,105
28882,-0.034751892,0.5417328,-0.56214905,-0.007434082,0.17735596,-0.060534667,105
28883,0.07951069,0.14346886,-0.4184265,-0.007434082,0.17735596,-0.060534667,105
28884,0.07951069,0.14346886,-0.4184265,0.050976563,0.11151123,-0.12000733,105
28885,0.06652641,-0.34729767,-0.045913696,0.050976563,0.11151123,-0.12000733,105
28886,0.06652641,-0.34729767,-0.045913696,0.1731079,0.11044922,-0.021240234,105
28887,-0.10949898,-0.2957096,0.35606384,0.1731079,0.11044922,-0.021240234,105
28888,-0.10949898,-0.2957096,0.35606384,0.12000733,0.06796875,-0.06159668,105
28889,-0.22623444,0.19680595,0.5650482,0.12000733,0.06796875,-0.06159668,105
28890,-0.22623444,0.19680595,0.5650482,-0.022302246,0.14549561,-0.052038576,105
28891,-0.31342125,0.46931076,0.37820435,-0.022302246,0.14549561,-0.052038576,105
28892,-0.31342125,0.46931076,0.37820435,-0.1985962,0.087084964,0,105
28893,-0.47760487,0.27161598,-0.11643982,-0.1985962,0.087084964,0,105
28894,-0.47760487,0.27161598,-0.11643982,-0.33134767,-0.093457036,0.003186035,105
28895,-0.4496498,-0.16727829,-0.45111084,-0.33134767,-0.093457036,0.003186035,105
28896,-0.4496498,-0.16727829,-0.45111084,-0.1359375,-0.0637207,0.052038576,105
28897,-0.2391386,-0.45914078,-0.1333313,-0.1359375,-0.0637207,0.052038576,105
28898,-0.2391386,-0.45914078,-0.1333313,0.28674316,-0.11363526,0.004248047,105
28899,-0.027431488,-0.19066429,0.5091858,0.28674316,-0.11363526,0.004248047,105
28900,-0.027431488,-0.19066429,0.5091858,0.31860352,-0.09451904,-0.06584473,105
28901,0.15069866,0.3419876,0.7532654,0.31860352,-0.09451904,-0.06584473,105
28902,0.15069866,0.3419876,0.7532654,0.05522461,-0.015930176,-0.040356446,105
28903,0.21296597,0.41475296,0.5608978,0.05522461,-0.015930176,-0.040356446,105
28904,0.21296597,0.41475296,0.5608978,-0.05628662,0.011682129,-0.025488282,105
28905,0.19775295,0.05692482,0.24980164,-0.05628662,0.011682129,-0.025488282,105
28906,0.19775295,0.05692482,0.24980164,-0.0722168,0.038232423,-0.002124023,105
28907,0.13572884,-0.14814949,-0.07310486,-0.0722168,0.038232423,-0.002124023,105
28908,0.13572884,-0.14814949,-0.07310486,-0.13168946,0.02442627,-0.004248047,105
28909,0.039515495,-0.2074604,-0.29988098,-0.13168946,0.02442627,-0.004248047,105
28910,0.039515495,-0.2074604,-0.29988098,-0.14337158,0.011682129,0.020178223,105
28911,0.007796288,-0.30809498,-0.23013306,-0.14337158,0.011682129,0.020178223,105
28912,0.007796288,-0.30809498,-0.23013306,-0.028674318,0.02442627,0.05628662,105
28913,0.01274395,-0.25682735,-0.016281128,-0.028674318,0.02442627,0.05628662,105
28914,0.01274395,-0.25682735,-0.016281128,-0.004248047,0.047790527,0.08920898,105
28915,-0.07215309,-0.03853035,-0.005569458,-0.004248047,0.047790527,0.08920898,105
28916,-0.07215309,-0.03853035,-0.005569458,-0.032922365,0.015930176,0.10089111,105
28917,-0.19817638,0.087864876,-0.11859131,-0.032922365,0.015930176,0.10089111,105
28918,-0.19817638,0.087864876,-0.11859131,-0.008496094,0,0.121069334,105
28919,-0.24654198,0.014724731,-0.14318848,-0.008496094,0,0.121069334,105
28920,-0.24654198,0.014724731,-0.14318848,0.06159668,-0.035046387,0.1529297,105
28921,-0.20205498,-0.047657013,-0.10964966,0.06159668,-0.035046387,0.1529297,105
28922,-0.20205498,-0.047657013,-0.10964966,0.070092775,-0.06265869,0.16885987,105
28923,-0.12481594,0.00718689,-0.11506653,0.070092775,-0.06265869,0.16885987,105
28924,-0.12481594,0.00718689,-0.11506653,0,-0.08602295,0.15823975,105
28925,-0.070409775,0.011242867,-0.084503174,0,-0.08602295,0.15823975,105
28926,-0.070409775,0.011242867,-0.084503174,-0.003186035,-0.07115479,0.1529297,105
28927,0.010676384,-0.14489937,0.015670776,-0.003186035,-0.07115479,0.1529297,105
28928,0.010676384,-0.14489937,0.015670776,0.11682129,-0.07965088,0.18691407,105
28929,0.12834072,-0.25730133,0.016998291,0.11682129,-0.07965088,0.18691407,105
28930,0.12834072,-0.25730133,0.016998291,0.18585205,-0.10513916,0.1901001,105
28931,0.1726675,-0.18656635,-0.08140564,0.18585205,-0.10513916,0.1901001,105
28932,0.1726675,-0.18656635,-0.08140564,0.15611573,-0.13275146,0.15930176,105
28933,0.123765945,-0.046909332,-0.13285828,0.15611573,-0.13275146,0.15930176,105
28934,0.123765945,-0.046909332,-0.13285828,0.16673584,-0.1444336,0.14974366,105
28935,0.081617355,0.030306816,0.07165527,0.16673584,-0.1444336,0.14974366,105
28936,0.081617355,0.030306816,0.07165527,0.26337892,-0.09451904,0.14230958,105
28937,0.047862053,-0.066636086,0.53149414,0.26337892,-0.09451904,0.14230958,105
28938,0.047862053,-0.066636086,0.53149414,0.41524658,-0.07965088,0.17735596,105
28939,-0.14842892,-0.26591873,0.82684326,0.41524658,-0.07965088,0.17735596,105
28940,-0.14842892,-0.26591873,0.82684326,0.5384399,0.012744141,0.20709229,105
28941,-0.4532528,-0.25726604,0.7510376,0.5384399,0.012744141,0.20709229,105
28942,-0.4532528,-0.25726604,0.7510376,0.6435791,0.053100586,0.21240234,105
28943,-0.5877857,0.2762184,0.35891724,0.6435791,0.053100586,0.21240234,105
28944,-0.5877857,0.2762184,0.35891724,0.35471192,0.17947999,0.16885987,105
28945,-0.5717907,0.67793274,-0.18635559,0.35471192,0.17947999,0.16885987,105
28946,-0.5717907,0.67793274,-0.18635559,0.118945315,0.24107666,0.18903808,105
28947,-0.5759139,0.40351582,-0.7076721,0.118945315,0.24107666,0.18903808,105
28948,-0.5759139,0.40351582,-0.7076721,0.08602295,0.12956543,0.1720459,105
28949,-0.37658787,0.28515434,-0.99679565,0.08602295,0.12956543,0.1720459,105
28950,-0.37658787,0.28515434,-0.99679565,-0.039294433,0.003186035,0.1263794,105
28951,0.045592785,0.65021896,-0.88378906,-0.039294433,0.003186035,0.1263794,105
28952,0.045592785,0.65021896,-0.88378906,-0.35046387,-0.015930176,0.18903808,105
28953,0.2781124,0.7988491,-0.67671204,-0.35046387,-0.015930176,0.18903808,105
28954,0.2781124,0.7988491,-0.67671204,-0.57561034,-0.12213135,0.14549561,105
28955,0.3477831,0.48412323,-0.5770569,-0.57561034,-0.12213135,0.14549561,105
28956,0.3477831,0.48412323,-0.5770569,-0.6711914,-0.15717773,0.058410645,105
28957,0.50631523,-0.13232994,-0.40664673,-0.6711914,-0.15717773,0.058410645,105
28958,0.50631523,-0.13232994,-0.40664673,-0.67437744,-0.21877442,0.06159668,105
28959,0.6918926,-0.90218925,-0.15493774,-0.67437744,-0.21877442,0.06159668,105
28960,0.6918926,-0.90218925,-0.15493774,-0.5628662,-0.3993164,0.020178223,105
28961,0.8661728,-1.499608,0.18951416,-0.5628662,-0.3993164,0.020178223,105
28962,0.8661728,-1.499608,0.18951416,-0.16992188,-0.38975832,0.0361084,105
28963,0.99956703,-1.4739914,0.6008606,-0.16992188,-0.38975832,0.0361084,105
28964,0.99956703,-1.4739914,0.6008606,0.5586182,-0.42799073,0.08071289,105
28965,1.3035355,-0.37048912,0.917984,0.5586182,-0.42799073,0.08071289,105
28966,1.3035355,-0.37048912,0.917984,0.43967286,-0.28355715,-0.124255374,105
28967,1.6332588,0.8893385,1.395752,0.43967286,-0.28355715,-0.124255374,105
28968,1.6332588,0.8893385,1.395752,-0.20709229,0.07115479,-0.17523193,105
28969,1.2555695,1.1562462,1.607132,-0.20709229,0.07115479,-0.17523193,105
28970,1.2555695,1.1562462,1.607132,-0.67437744,0.30161133,-0.29311523,105
28971,0.40629864,0.7347746,0.6873932,-0.67437744,0.30161133,-0.29311523,105
28972,0.40629864,0.7347746,0.6873932,-0.93563235,0.45560303,-0.3462158,105
28973,-0.18754673,0.1285057,-0.6387024,-0.93563235,0.45560303,-0.3462158,105
28974,-0.18754673,0.1285057,-0.6387024,-0.6064087,0.5511841,-0.44179687,105
28975,-0.4420414,-0.07406235,-1.2064362,-0.6064087,0.5511841,-0.44179687,105
28976,-0.4420414,-0.07406235,-1.2064362,-0.3982544,0.5533081,-0.6446411,105
28977,-0.5372877,0.071097374,-0.98838806,-0.3982544,0.5533081,-0.6446411,105
28978,-0.5372877,0.071097374,-0.98838806,-0.25594482,0.60216063,-0.65632325,105
28979,-0.6757288,0.059087753,-0.59991455,-0.25594482,0.60216063,-0.65632325,105
28980,-0.6757288,0.059087753,-0.59991455,-0.25594482,0.60216063,-0.65632325,105
28981,-0.6757288,0.059087753,-0.59991455,-0.047790527,0.53737795,-0.79119873,105
28982,-0.6757288,0.059087753,-0.59991455,-0.007434082,0.42692873,-0.77526855,105
28983,-0.8781681,0.08607674,-0.2939148,-0.007434082,0.42692873,-0.77526855,105
28984,-0.90439034,0.19067574,0.0460968,-0.007434082,0.42692873,-0.77526855,105
28985,-0.90439034,0.19067574,0.0460968,-0.1274414,0.44498292,-0.81668705,105
28986,-0.69885445,0.04528904,0.32769775,-0.1274414,0.44498292,-0.81668705,105
28987,-0.69885445,0.04528904,0.32769775,-0.270813,0.40037844,-0.76464844,105
28988,-0.5077162,-0.3439808,0.3303833,-0.270813,0.40037844,-0.76464844,105
28989,-0.5077162,-0.3439808,0.3303833,-0.25913087,0.33984375,-0.6690674,105
28990,-0.4729824,-0.5591936,0.115112305,-0.25913087,0.33984375,-0.6690674,105
28991,-0.4729824,-0.5591936,0.115112305,-0.18903808,0.26550293,-0.6149048,105
28992,-0.48600292,-0.40819454,-0.061691284,-0.18903808,0.26550293,-0.6149048,105
28993,-0.48600292,-0.40819454,-0.061691284,-0.16567384,0.21346436,-0.56180423,105
28994,-0.4444542,-0.1814022,-0.090148926,-0.16567384,0.21346436,-0.56180423,105
28995,-0.4444542,-0.1814022,-0.090148926,-0.1901001,0.20921631,-0.48427734,105
28996,-0.34748268,-0.2025795,0.003677368,-0.1901001,0.20921631,-0.48427734,105
28997,-0.34748268,-0.2025795,0.003677368,-0.15505372,0.22089843,-0.39506838,105
28998,-0.25965118,-0.34634018,0.115982056,-0.15505372,0.22089843,-0.39506838,105
28999,-0.25965118,-0.34634018,0.115982056,-0.07965088,0.16673584,-0.3355957,105
29000,-0.19805336,-0.26896667,0.12593079,-0.07965088,0.16673584,-0.3355957,105
29001,-0.19805336,-0.26896667,0.12593079,-0.0637207,0.13487549,-0.26550293,105
29002,-0.1607008,0.026123047,0.0552063,-0.0637207,0.13487549,-0.26550293,105
29003,-0.1607008,0.026123047,0.0552063,-0.07327881,0.11363526,-0.24001466,105
29004,-0.13903427,0.29276085,-0.007339478,-0.07327881,0.11363526,-0.24001466,105
29005,-0.13903427,0.29276085,-0.007339478,-0.0998291,0.087084964,-0.19541016,105
29006,-0.0912323,0.3261757,-0.009628296,-0.0998291,0.087084964,-0.19541016,105
29007,-0.0912323,0.3261757,-0.009628296,-0.11363526,0.10089111,-0.13699952,105
29008,-0.06097412,0.116825104,0.034576416,-0.11363526,0.10089111,-0.13699952,105
29009,-0.06097412,0.116825104,0.034576416,-0.07540283,0.059472658,-0.07646485,105
29010,-0.07541466,-0.072628975,0.10284424,-0.07540283,0.059472658,-0.07646485,105
29011,-0.07541466,-0.072628975,0.10284424,0.00637207,0.00637207,-0.07327881,105
29012,-0.0411911,-0.083480835,0.17228699,0.00637207,0.00637207,-0.07327881,105
29013,-0.0411911,-0.083480835,0.17228699,0.04885254,-0.027612304,-0.029736329,105
29014,0.024225235,0.066967964,0.14039612,0.04885254,-0.027612304,-0.029736329,105
29015,0.024225235,0.066967964,0.14039612,0.06265869,-0.0637207,-0.011682129,105
29016,0.09191418,0.26385307,0.04736328,0.06265869,-0.0637207,-0.011682129,105
29017,0.09191418,0.26385307,0.04736328,0.07115479,-0.04460449,-0.004248047,105
29018,0.14604092,0.3178692,0.03765869,0.07115479,-0.04460449,-0.004248047,105
29019,0.14604092,0.3178692,0.03765869,0.087084964,-0.05522461,-0.015930176,105
29020,0.17781925,0.24048996,0.112976074,0.087084964,-0.05522461,-0.015930176,105
29021,0.17781925,0.24048996,0.112976074,0.115759276,-0.0637207,-0.027612304,105
29022,0.1917429,0.23459148,0.16493225,0.115759276,-0.0637207,-0.027612304,105
29023,0.1917429,0.23459148,0.16493225,0.06796875,-0.06265869,-0.04141846,105
29024,0.21064568,0.2987566,0.14076233,0.06796875,-0.06265869,-0.04141846,105
29025,0.21064568,0.2987566,0.14076233,-0.027612304,-0.032922365,-0.03186035,105
29026,0.21064281,0.23369503,0.10406494,-0.027612304,-0.032922365,-0.03186035,105
29027,0.21064281,0.23369503,0.10406494,-0.057348635,0.002124023,-0.022302246,105
29028,0.13398075,0.048369408,0.078125,-0.057348635,0.002124023,-0.022302246,105
29029,0.13398075,0.048369408,0.078125,-0.045666505,-0.0180542,0.001062012,105
29030,0.045698166,-0.051880836,0.019729614,-0.045666505,-0.0180542,0.001062012,105
29031,0.045698166,-0.051880836,0.019729614,-0.025488282,-0.035046387,0.008496094,105
29032,0.009519577,0.00643158,-0.028152466,-0.025488282,-0.035046387,0.008496094,105
29033,0.009519577,0.00643158,-0.028152466,-0.0361084,-0.032922365,0.003186035,105
29034,0.053611755,0.047418594,0.009780884,-0.0361084,-0.032922365,0.003186035,105
29035,0.053611755,0.047418594,0.009780884,-0.009558106,0.019116212,0.013806152,105
29036,0.09661293,-0.001285553,0.06881714,-0.009558106,0.019116212,0.013806152,105
29037,0.09661293,-0.001285553,0.06881714,0.020178223,0.019116212,0.0180542,105
29038,0.062067986,-0.002713203,0.05885315,0.020178223,0.019116212,0.0180542,105
29039,0.062067986,-0.002713203,0.05885315,0.016992187,0.022302246,0.025488282,105
29040,-0.011551857,0.101052284,-0.010803223,0.016992187,0.022302246,0.025488282,105
29041,-0.011551857,0.101052284,-0.010803223,-0.027612304,0.0180542,0.009558106,105
29042,-0.0742197,0.18450356,-0.08139038,-0.027612304,0.0180542,0.009558106,105
29043,-0.0742197,0.18450356,-0.08139038,-0.0541626,0.020178223,-0.007434082,105
29044,-0.06695652,0.11337376,-0.13180542,-0.0541626,0.020178223,-0.007434082,105
29045,-0.06695652,0.11337376,-0.13180542,-0.047790527,0.010620117,-0.011682129,105
29046,-0.04594803,-0.053783417,-0.12615967,-0.047790527,0.010620117,-0.011682129,105
29047,-0.04594803,-0.053783417,-0.12615967,-0.0361084,-0.021240234,-0.022302246,105
29048,-0.03689289,-0.16560936,-0.0738678,-0.0361084,-0.021240234,-0.022302246,105
29049,-0.03689289,-0.16560936,-0.0738678,-0.004248047,-0.026550293,-0.013806152,105
29050,-0.029733658,-0.12865448,-0.018966675,-0.004248047,-0.026550293,-0.013806152,105
29051,-0.029733658,-0.12865448,-0.018966675,-0.008496094,-0.04248047,-0.011682129,105
29052,-0.001032829,-0.026275635,0.009353638,-0.008496094,-0.04248047,-0.011682129,105
29053,-0.001032829,-0.026275635,0.009353638,-0.020178223,-0.040356446,-0.020178223,105
29054,0.021879196,0.005785942,0.015792847,-0.020178223,-0.040356446,-0.020178223,105
29055,0.021879196,0.005785942,0.015792847,0,-0.0541626,-0.00637207,105
29056,0.024803162,-0.010825157,0.003646851,0,-0.0541626,-0.00637207,105
29057,0.024803162,-0.010825157,0.003646851,0.016992187,-0.0541626,-0.0180542,105
29058,0.04254818,-0.035759926,-0.015182495,0.016992187,-0.0541626,-0.0180542,105
29059,0.04254818,-0.035759926,-0.015182495,0.038232423,-0.047790527,-0.001062012,105
29060,0.06041813,-0.078474045,-0.025405884,0.038232423,-0.047790527,-0.001062012,105
29061,0.06041813,-0.078474045,-0.025405884,0.053100586,-0.06584473,0.013806152,105
29062,0.06696224,-0.060801506,-0.003967285,0.053100586,-0.06584473,0.013806152,105
29063,0.06696224,-0.060801506,-0.003967285,0.06584473,-0.07327881,0.023364259,105
29064,0.07991314,0.040603638,0.053024292,0.06584473,-0.07327881,0.023364259,105
29065,0.07991314,0.040603638,0.053024292,0.04248047,-0.052038576,0.028674318,105
29066,0.075099945,0.12812424,0.06820679,0.04248047,-0.052038576,0.028674318,105
29067,0.075099945,0.12812424,0.06820679,0.028674318,-0.026550293,0.0361084,105
29068,0.029147148,0.114780426,0.008270264,0.028674318,-0.026550293,0.0361084,105
29069,0.029147148,0.114780426,0.008270264,0.045666505,-0.027612304,0.025488282,105
29070,-0.038315773,0.06368637,-0.04121399,0.045666505,-0.027612304,0.025488282,105
29071,-0.038315773,0.06368637,-0.04121399,0.052038576,-0.04460449,0.016992187,105
29072,-0.06557751,0.019711494,-0.052368164,0.052038576,-0.04460449,0.016992187,105
29073,-0.06557751,0.019711494,-0.052368164,0.033984374,-0.05628662,0.016992187,105
29074,-0.049215317,-0.06080532,-0.04373169,0.033984374,-0.05628662,0.016992187,105
29075,-0.049215317,-0.06080532,-0.04373169,0.07115479,-0.06478272,0.039294433,105
29076,-0.001615524,-0.1438837,-0.011566162,0.07115479,-0.06478272,0.039294433,105
29077,-0.001615524,-0.1438837,-0.011566162,0.15505372,-0.043542482,0.057348635,105
29078,0.036512375,-0.11212921,0.0158844,0.15505372,-0.043542482,0.057348635,105
29079,0.036512375,-0.11212921,0.0158844,0.24001466,-0.043542482,0.0541626,105
29080,0.059275627,0.004888535,0.060150146,0.24001466,-0.043542482,0.0541626,105
29081,0.059275627,0.004888535,0.060150146,0.24001466,-0.046728518,0.060534667,105
29082,0.08520126,-0.015535355,0.057861328,0.24001466,-0.046728518,0.060534667,105
29083,0.08520126,-0.015535355,0.057861328,0.26868898,-0.015930176,0.115759276,105
29084,0.067209244,-0.06113434,-0.001647949,0.26868898,-0.015930176,0.115759276,105
29085,0.067209244,-0.06113434,-0.001647949,0.29736328,-0.046728518,0.13699952,105
29086,-0.03190136,0.1067934,-0.12944031,0.29736328,-0.046728518,0.13699952,105
29087,-0.03190136,0.1067934,-0.12944031,0.24001466,-0.10407715,0.1274414,105
29088,-0.05786991,0.19626236,-0.11317444,0.24001466,-0.10407715,0.1274414,105
29089,-0.05786991,0.19626236,-0.11317444,0.16885987,-0.1178833,0.1274414,105
29090,-0.04772377,0.34999084,0.008529663,0.16885987,-0.1178833,0.1274414,105
29091,-0.04772377,0.34999084,0.008529663,0.15080567,-0.08496094,0.11044922,105
29092,-0.02036953,0.27932167,0.020751953,0.15080567,-0.08496094,0.11044922,105
29093,-0.02036953,0.27932167,0.020751953,0.18691407,-0.09133301,0.07965088,105
29094,-0.02036953,0.27932167,0.020751953,0.18691407,-0.09133301,0.07965088,105
29095,-0.01811409,0.16422844,-0.016082764,0.18691407,-0.09133301,0.07965088,105
29096,-0.01811409,0.16422844,-0.016082764,0.11151123,-0.15611573,0.07327881,105
29097,-0.016736984,0.038609505,-0.060546875,0.11151123,-0.15611573,0.07327881,105
29098,-0.016736984,0.038609505,-0.060546875,0.08920898,-0.16354981,0.08602295,105
29099,0.068629265,-0.18874168,0.08798218,0.08920898,-0.16354981,0.08602295,105
29100,0.068629265,-0.18874168,0.08798218,0.19647217,-0.14337158,0.10089111,105
29101,0.1029377,-0.08141327,0.1388855,0.19647217,-0.14337158,0.10089111,105
29102,0.1029377,-0.08141327,0.1388855,0.20709229,-0.11257324,0.06796875,105
29103,0.20001316,0.37437057,0.06314087,0.20709229,-0.11257324,0.06796875,105
