,accx,accy,accz,gyrox,gyroy,gyroz,heart rate
37195,type,type,type,type,type,type,type
37196,0.036661148,0.2467804,0.062335968,-0.29417726,-0.10938721,0.04141846,94.0
37197,0.036661148,0.2467804,0.062335968,-0.09133301,0.0,0.06159668,94.0
37198,0.104243755,-0.05407715,0.029644012,-0.09133301,0.0,0.06159668,94.0
37199,0.104243755,-0.05407715,0.029644012,-0.1083252,-0.045666505,0.0541626,94.0
37200,0.10285282,-0.21927643,0.20329285,-0.1083252,-0.045666505,0.0541626,94.0
37201,0.10285282,-0.21927643,0.20329285,-0.058410645,-0.07965088,0.013806152,94.0
37202,0.12053871,-0.24198914,0.3851471,-0.058410645,-0.07965088,0.013806152,94.0
37203,0.12053871,-0.24198914,0.3851471,-0.09451904,-0.087084964,-0.014868164,94.0
37204,0.12053871,-0.24198914,0.3851471,-0.08920898,-0.1083252,-0.0053100586,94.0
37205,0.12886524,-0.17409515,0.3781891,-0.08920898,-0.1083252,-0.0053100586,94.0
37206,0.12159777,-0.042461395,0.20046234,-0.08920898,-0.1083252,-0.0053100586,94.0
37207,0.12159777,-0.042461395,0.20046234,-0.10620117,-0.1274414,0.0053100586,94.0
37208,0.13984394,0.10298157,0.011711121,-0.10620117,-0.1274414,0.0053100586,94.0
37209,0.13984394,0.10298157,0.011711121,-0.07327881,-0.08071289,0.022302246,94.0
37210,0.096982956,0.1503067,-0.042800903,-0.07327881,-0.08071289,0.022302246,94.0
37211,0.096982956,0.1503067,-0.042800903,-0.021240234,-0.010620117,0.029736329,94.0
37212,-0.035499573,0.12094116,0.03763199,-0.021240234,-0.010620117,0.029736329,94.0
37213,-0.035499573,0.12094116,0.03763199,0.025488282,0.046728518,0.06796875,94.0
37214,-0.19729614,0.11230469,0.104335785,0.025488282,0.046728518,0.06796875,94.0
37215,-0.19729614,0.11230469,0.104335785,0.029736329,0.07752686,0.10938721,94.0
37216,-0.31417227,0.11405182,0.053035736,0.029736329,0.07752686,0.10938721,94.0
37217,-0.31417227,0.11405182,0.053035736,-0.0063720704,0.07752686,0.09664307,94.0
37218,-0.27948713,0.04473114,-0.09461975,-0.0063720704,0.07752686,0.09664307,94.0
37219,-0.27948713,0.04473114,-0.09461975,-0.004248047,0.07434082,0.014868164,94.0
37220,-0.11221266,-0.030792236,-0.25909424,-0.004248047,0.07434082,0.014868164,94.0
37221,-0.11221266,-0.030792236,-0.25909424,0.07965088,0.1178833,-0.0021240234,94.0
37222,-0.11221266,-0.030792236,-0.25909424,0.16248779,0.13806152,-0.0010620117,94.0
37223,-0.03918457,-0.049865723,-0.3581543,0.16248779,0.13806152,-0.0010620117,94.0
37224,-0.14647198,-0.1083374,-0.35743332,0.16248779,0.13806152,-0.0010620117,94.0
37225,-0.14647198,-0.1083374,-0.35743332,0.21452637,0.10620117,0.02442627,94.0
37226,-0.27824926,-0.25833893,-0.2917328,0.21452637,0.10620117,0.02442627,94.0
37227,-0.27824926,-0.25833893,-0.2917328,0.26337892,0.06265869,0.07115479,94.0
37228,-0.348979,-0.37248993,-0.23591614,0.26337892,0.06265869,0.07115479,94.0
37229,-0.348979,-0.37248993,-0.23591614,0.24532472,0.033984374,0.13275146,94.0
37230,-0.348979,-0.37248993,-0.23591614,0.124255374,0.02442627,0.1539917,94.0
37231,-0.37112665,-0.3356247,-0.18843079,0.124255374,0.02442627,0.1539917,94.0
37232,-0.29342222,-0.2519226,-0.14126968,0.124255374,0.02442627,0.1539917,94.0
37233,-0.29342222,-0.2519226,-0.14126968,-0.0063720704,-0.0053100586,0.14974366,94.0
37234,-0.096224785,-0.21044922,-0.09328842,-0.0063720704,-0.0053100586,0.14974366,94.0
37235,-0.096224785,-0.21044922,-0.09328842,-0.015930176,0.0031860352,0.17416993,94.0
37236,0.052158356,-0.13464355,-0.019577026,-0.015930176,0.0031860352,0.17416993,94.0
37237,0.052158356,-0.13464355,-0.019577026,-0.0361084,0.04248047,0.17735596,94.0
37238,-0.011410236,0.031677246,0.06352234,-0.0361084,0.04248047,0.17735596,94.0
37239,-0.011410236,0.031677246,0.06352234,-0.11257324,0.04141846,0.17841797,94.0
37240,-0.011410236,0.031677246,0.06352234,-0.11257324,0.04141846,0.17841797,93.0
37241,-0.14953327,0.18650818,0.092601776,-0.11257324,0.04141846,0.17841797,93.0
37242,-0.14953327,0.18650818,0.092601776,-0.17629395,0.038232423,0.13912354,93.0
37243,-0.1553936,0.17449951,0.09564972,-0.17629395,0.038232423,0.13912354,93.0
37244,-0.1553936,0.17449951,0.09564972,-0.13062744,0.04141846,0.09133301,93.0
37245,-0.04910755,0.07397461,0.08536911,-0.13062744,0.04141846,0.09133301,93.0
37246,-0.04910755,0.07397461,0.08536911,-0.046728518,0.05522461,0.07752686,93.0
37247,0.0038170815,0.09748459,0.035202026,-0.046728518,0.05522461,0.07752686,93.0
37248,0.0038170815,0.09748459,0.035202026,-0.023364259,0.04991455,0.03717041,93.0
37249,0.02418375,0.28754425,-0.04083252,-0.023364259,0.04991455,0.03717041,93.0
37250,0.02418375,0.28754425,-0.04083252,-0.14230958,0.03079834,-0.013806152,93.0
37251,0.10080433,0.41657257,-0.08839035,-0.14230958,0.03079834,-0.013806152,93.0
37252,0.10080433,0.41657257,-0.08839035,-0.20178223,0.032922365,-0.010620117,93.0
37253,0.17242813,0.3434143,-0.11651611,-0.20178223,0.032922365,-0.010620117,93.0
37254,0.17242813,0.3434143,-0.11651611,-0.14124756,0.050976563,0.007434082,93.0
37255,0.13526917,0.16910553,-0.1751976,-0.14124756,0.050976563,0.007434082,93.0
37256,0.13526917,0.16910553,-0.1751976,0.009558106,0.06478272,0.047790527,93.0
37257,0.13526917,0.16910553,-0.1751976,-0.010620117,0.033984374,0.03717041,93.0
37258,0.026648045,0.10490036,-0.1981926,-0.010620117,0.033984374,0.03717041,93.0
37259,0.017302513,0.20298767,-0.15174103,-0.010620117,0.033984374,0.03717041,93.0
37260,0.017302513,0.20298767,-0.15174103,-0.12531738,0.040356446,0.014868164,93.0
37261,0.082164764,0.32378006,-0.10095596,-0.12531738,0.040356446,0.014868164,93.0
37262,0.082164764,0.32378006,-0.10095596,-0.26762697,0.050976563,-0.028674318,93.0
37263,0.10380554,0.33969116,-0.074417114,-0.26762697,0.050976563,-0.028674318,93.0
37264,0.10380554,0.33969116,-0.074417114,-0.31010744,0.011682129,-0.07327881,93.0
37265,0.17352295,0.29558182,-0.07429123,-0.31010744,0.011682129,-0.07327881,93.0
37266,0.17352295,0.29558182,-0.07429123,-0.26125488,0.010620117,-0.12000733,93.0
37267,0.31000996,0.23330307,-0.057296753,-0.26125488,0.010620117,-0.12000733,93.0
37268,0.31000996,0.23330307,-0.057296753,-0.08602295,0.045666505,-0.17841797,93.0
37269,0.3807354,0.2589798,-0.008850098,-0.08602295,0.045666505,-0.17841797,93.0
37270,0.3807354,0.2589798,-0.008850098,0.046728518,0.039294433,-0.2347046,93.0
37271,0.32408333,0.4515915,0.03426361,0.046728518,0.039294433,-0.2347046,93.0
37272,0.32408333,0.4515915,0.03426361,0.04991455,-0.014868164,-0.28780517,93.0
37273,0.22337818,0.6305847,0.06651306,0.04991455,-0.014868164,-0.28780517,93.0
37274,0.22337818,0.6305847,0.06651306,0.0063720704,-0.090270996,-0.3355957,93.0
37275,0.22337818,0.6305847,0.06651306,-0.007434082,-0.15611573,-0.38975832,93.0
37276,0.163383,0.61719894,0.08559418,-0.007434082,-0.15611573,-0.38975832,93.0
37277,0.12774038,0.47223663,0.08307648,-0.007434082,-0.15611573,-0.38975832,93.0
37278,0.12774038,0.47223663,0.08307648,0.029736329,-0.17947999,-0.41312256,93.0
37279,0.031940937,0.28166962,0.0951004,0.029736329,-0.17947999,-0.41312256,93.0
37280,0.031940937,0.28166962,0.0951004,0.11044922,-0.22089843,-0.43117675,93.0
37281,-0.09629774,0.10197449,0.17136765,0.11044922,-0.22089843,-0.43117675,93.0
37282,-0.09629774,0.10197449,0.17136765,0.18054199,-0.2516968,-0.4248047,93.0
37283,-0.22484064,0.034801483,0.25993347,0.18054199,-0.2516968,-0.4248047,93.0
37284,-0.22484064,0.034801483,0.25993347,0.15080567,-0.2623169,-0.39400634,93.0
37285,-0.40256548,0.08916855,0.31827164,0.15080567,-0.2623169,-0.39400634,93.0
37286,-0.40256548,0.08916855,0.31827164,0.03186035,-0.31860352,-0.4056885,93.0
37287,-0.47634935,0.13592148,0.31531143,0.03186035,-0.31860352,-0.4056885,93.0
37288,-0.47634935,0.13592148,0.31531143,-0.1263794,-0.37489015,-0.44710693,93.0
37289,-0.36460018,0.07563019,0.26734924,-0.1263794,-0.37489015,-0.44710693,93.0
37290,-0.36460018,0.07563019,0.26734924,-0.13699952,-0.30161133,-0.42692873,93.0
37291,-0.32133102,-0.017074585,0.2826538,-0.13699952,-0.30161133,-0.42692873,93.0
37292,-0.32133102,-0.017074585,0.2826538,-0.19753419,-0.25913087,-0.45135498,93.0
37293,-0.40071726,-0.15665054,0.46618652,-0.19753419,-0.25913087,-0.45135498,93.0
37294,-0.40071726,-0.15665054,0.46618652,-0.21134034,-0.20178223,-0.46622315,93.0
37295,-0.41166306,-0.30793762,0.77049255,-0.21134034,-0.20178223,-0.46622315,93.0
37296,-0.41166306,-0.30793762,0.77049255,-0.2803711,-0.13912354,-0.43117675,93.0
37297,-0.30796814,-0.46699142,0.9729347,-0.2803711,-0.13912354,-0.43117675,93.0
37298,-0.30796814,-0.46699142,0.9729347,-0.32816163,-0.093457036,-0.47578126,93.0
37299,-0.17819786,-0.67118835,0.9302139,-0.32816163,-0.093457036,-0.47578126,93.0
37300,-0.17819786,-0.67118835,0.9302139,-0.28355715,0.06478272,-0.44498292,93.0
37301,-0.24244833,-0.772789,0.7796097,-0.28355715,0.06478272,-0.44498292,93.0
37302,-0.24244833,-0.772789,0.7796097,-0.27506104,0.13381349,-0.4056885,93.0
37303,-0.47534323,-0.6840668,0.4867859,-0.27506104,0.13381349,-0.4056885,93.0
37304,-0.47534323,-0.6840668,0.4867859,-0.41524658,0.019116212,-0.52250975,93.0
37305,-0.41333103,-0.4954605,-0.14303207,-0.41524658,0.019116212,-0.52250975,93.0
37306,-0.41333103,-0.4954605,-0.14303207,-0.6510132,-0.09451904,-0.6977417,93.0
37307,0.030345917,-0.4958954,-0.92798615,-0.6510132,-0.09451904,-0.6977417,93.0
37308,0.030345917,-0.4958954,-0.92798615,-0.69136965,-0.022302246,-0.78164065,93.0
37309,0.35811472,-0.74948883,-1.376545,-0.69136965,-0.022302246,-0.78164065,93.0
37310,0.35811472,-0.74948883,-1.376545,-0.35895997,0.118945315,-0.7455322,93.0
37311,0.3394823,-0.9078903,-1.2681808,-0.35895997,0.118945315,-0.7455322,93.0
37312,0.3394823,-0.9078903,-1.2681808,-0.07965088,0.2177124,-0.634021,93.0
37313,0.16871738,-0.874176,-0.8536186,-0.07965088,0.2177124,-0.634021,93.0
37314,0.16871738,-0.874176,-0.8536186,0.04460449,0.3355957,-0.45878908,93.0
37315,-0.09377384,-0.8054085,-0.4857025,0.04460449,0.3355957,-0.45878908,93.0
37316,-0.09377384,-0.8054085,-0.4857025,0.0998291,0.4248047,-0.29736328,93.0
37317,-0.4297309,-0.6644287,-0.26573563,0.0998291,0.4248047,-0.29736328,93.0
37318,-0.4297309,-0.6644287,-0.26573563,0.08283692,0.4428589,-0.19647217,93.0
37319,-0.67907524,-0.29412842,-0.16643524,0.08283692,0.4428589,-0.19647217,93.0
37320,-0.67907524,-0.29412842,-0.16643524,-0.34833986,0.36639404,-0.22302246,93.0
37321,-0.6108751,0.2062378,-0.21121216,-0.34833986,0.36639404,-0.22302246,93.0
37322,-0.6108751,0.2062378,-0.21121216,-0.96643066,0.24957275,-0.26337892,93.0
37323,-0.25421524,0.35968018,-0.37072754,-0.96643066,0.24957275,-0.26337892,93.0
37324,-0.25421524,0.35968018,-0.37072754,-1.1575928,0.26125488,-0.25806886,93.0
37325,0.016207695,-0.06732178,-0.43979645,-1.1575928,0.26125488,-0.25806886,93.0
37326,0.016207695,-0.06732178,-0.43979645,-0.7827026,0.3525879,-0.20284425,93.0
37327,-0.10147476,-0.5009613,-0.3394966,-0.7827026,0.3525879,-0.20284425,93.0
37328,-0.10147476,-0.5009613,-0.3394966,-0.31116945,0.4163086,-0.1529297,93.0
37329,-0.35294533,-0.2423706,-0.2643242,-0.31116945,0.4163086,-0.1529297,93.0
37330,-0.35294533,-0.2423706,-0.2643242,-0.27612305,0.44923097,-0.11151123,93.0
37331,-0.42371368,0.4993019,-0.2578087,-0.27612305,0.44923097,-0.11151123,93.0
37332,-0.42371368,0.4993019,-0.2578087,-0.53950197,0.5692383,0.02442627,93.0
37333,-0.46481323,0.9513588,-0.22742462,-0.53950197,0.5692383,0.02442627,93.0
37334,-0.46481323,0.9513588,-0.22742462,-0.74659425,0.58623046,0.115759276,93.0
37335,-0.5122433,0.75128555,-0.08168411,-0.74659425,0.58623046,0.115759276,93.0
37336,-0.5122433,0.75128555,-0.08168411,-0.7784546,0.61065674,0.14549561,93.0
37337,-0.27966785,0.25245667,0.20468521,-0.7784546,0.61065674,0.14549561,93.0
37338,-0.27966785,0.25245667,0.20468521,-0.4970215,0.69136965,0.28568116,93.0
37339,0.050667763,-0.07254791,0.52985,-0.4970215,0.69136965,0.28568116,93.0
37340,0.050667763,-0.07254791,0.52985,-0.16673584,0.79119873,0.49489745,93.0
37341,0.051301003,0.00957489,0.72268295,-0.16673584,0.79119873,0.49489745,93.0
37342,0.051301003,0.00957489,0.72268295,-0.059472658,0.79226077,0.4354248,93.0
37343,-0.10170841,0.4071617,0.7555008,-0.059472658,0.79226077,0.4354248,93.0
37344,-0.10170841,0.4071617,0.7555008,-0.25063476,0.74447024,0.6488892,93.0
37345,-0.17955971,0.6856384,0.7380791,-0.25063476,0.74447024,0.6488892,93.0
37346,-0.17955971,0.6856384,0.7380791,-0.42374268,0.815625,0.76358646,93.0
37347,-0.1921711,0.5393524,0.87511826,-0.42374268,0.815625,0.76358646,93.0
37348,-0.1921711,0.5393524,0.87511826,-0.6839356,0.8666016,0.78164065,93.0
37349,-0.1921711,0.5393524,0.87511826,-0.6839356,0.8666016,0.78164065,91.0
37350,-0.0656147,0.01700592,1.1454926,-0.6839356,0.8666016,0.78164065,91.0
37351,-0.0656147,0.01700592,1.1454926,-0.4163086,0.96430665,0.90058595,91.0
37352,0.09396839,-0.4535675,1.4301376,-0.4163086,0.96430665,0.90058595,91.0
37353,0.09396839,-0.4535675,1.4301376,0.020178223,1.1161743,1.0991821,91.0
37354,6.9999695E-4,-0.33159256,1.6679001,0.020178223,1.1161743,1.0991821,91.0
37355,6.9999695E-4,-0.33159256,1.6679001,0.029736329,1.2319336,1.1873292,91.0
37356,-0.33872223,0.13617706,1.8244591,0.029736329,1.2319336,1.1873292,91.0
37357,-0.33872223,0.13617706,1.8244591,-0.36533204,1.3062744,1.2489258,91.0
37358,-0.6782656,0.22909546,1.9052811,-0.36533204,1.3062744,1.2489258,91.0
37359,-0.6782656,0.22909546,1.9052811,-0.68074954,1.3466309,1.3190186,91.0
37360,-0.7527437,-0.32965088,1.9717216,-0.68074954,1.3466309,1.3190186,91.0
37361,-0.7527437,-0.32965088,1.9717216,-0.7072998,1.3816773,1.4082276,91.0
37362,-0.56590366,-1.0079117,2.020176,-0.7072998,1.3816773,1.4082276,91.0
37363,-0.56590366,-1.0079117,2.020176,-0.67331547,1.2860962,1.4517701,91.0
37364,-0.16475868,-1.0792198,1.6922646,-0.67331547,1.2860962,1.4517701,91.0
37365,-0.16475868,-1.0792198,1.6922646,-1.0535157,0.93563235,1.26698,91.0
37366,0.5986738,-0.5293312,0.65841293,-1.0535157,0.93563235,1.26698,91.0
37367,0.5986738,-0.5293312,0.65841293,-1.532483,0.58410645,1.0386475,91.0
37368,1.5580645,-0.029090881,-0.66228485,-1.532483,0.58410645,1.0386475,91.0
37369,1.5580645,-0.029090881,-0.66228485,-1.7363892,0.41099855,0.8729736,91.0
37370,2.2384562,-0.21477509,-1.5146065,-1.7363892,0.41099855,0.8729736,91.0
37371,2.2384562,-0.21477509,-1.5146065,-1.1820191,0.41843262,0.87403566,91.0
37372,2.3716369,-0.83999634,-1.6239777,-1.1820191,0.41843262,0.87403566,91.0
37373,2.3716369,-0.83999634,-1.6239777,-0.15186767,0.51932377,0.91014403,91.0
37374,2.0575757,-0.92852783,-1.2305412,-0.15186767,0.51932377,0.91014403,91.0
37375,2.0575757,-0.92852783,-1.2305412,0.3355957,0.62127686,0.89421386,91.0
37376,1.5282626,-0.44431305,-0.8194046,0.3355957,0.62127686,0.89421386,91.0
37377,1.5282626,-0.44431305,-0.8194046,0.35046387,0.6701294,0.77739257,91.0
37378,0.9382715,-3.6239624E-4,-0.57878876,0.35046387,0.6701294,0.77739257,91.0
37379,0.9382715,-3.6239624E-4,-0.57878876,0.10513916,0.68287355,0.64570314,91.0
37380,0.39776087,0.16732788,-0.38783646,0.10513916,0.68287355,0.64570314,91.0
37381,0.39776087,0.16732788,-0.38783646,-0.24320069,0.5883545,0.5851685,91.0
37382,0.030366898,0.023338318,-0.11590958,-0.24320069,0.5883545,0.5851685,91.0
37383,0.030366898,0.023338318,-0.11590958,-0.4322388,0.48533937,0.59047854,91.0
37384,-0.044603348,-0.26066208,0.19787598,-0.4322388,0.48533937,0.59047854,91.0
37385,-0.044603348,-0.26066208,0.19787598,-0.45772704,0.3802002,0.56180423,91.0
37386,0.20992279,-0.3406372,0.30823898,-0.45772704,0.3802002,0.56180423,91.0
37387,0.20992279,-0.3406372,0.30823898,-0.42799073,0.33134767,0.4694092,91.0
37388,0.5965395,-0.07359314,0.16532898,-0.42799073,0.33134767,0.4694092,91.0
37389,0.5965395,-0.07359314,0.16532898,-0.39400634,0.3334717,0.38232422,91.0
37390,0.8055153,0.270401,0.06437683,-0.39400634,0.3334717,0.38232422,91.0
37391,0.8055153,0.270401,0.06437683,-0.41312256,0.3175415,0.27718505,91.0
37392,0.74984455,0.34858704,0.13149261,-0.41312256,0.3175415,0.27718505,91.0
37393,0.74984455,0.34858704,0.13149261,-0.35789797,0.30161133,0.20921631,91.0
37394,0.523716,0.14810944,0.27182007,-0.35789797,0.30161133,0.20921631,91.0
37395,0.523716,0.14810944,0.27182007,-0.2081543,0.28461915,0.081774905,91.0
37396,0.21927786,-0.064445496,0.5043602,-0.2081543,0.28461915,0.081774905,91.0
37397,0.21927786,-0.064445496,0.5043602,-0.07434082,0.2538208,-0.078588866,91.0
37398,-0.08938503,0.08808136,0.75606155,-0.07434082,0.2538208,-0.078588866,91.0
37399,-0.08938503,0.08808136,0.75606155,-0.18903808,0.14018555,-0.22833252,91.0
37400,-0.2839961,0.48518372,0.73489,-0.18903808,0.14018555,-0.22833252,91.0
37401,-0.2839961,0.48518372,0.73489,-0.35471192,0.008496094,-0.37382814,91.0
37402,-0.28384972,0.64801025,0.4907341,-0.35471192,0.008496094,-0.37382814,91.0
37403,-0.28384972,0.64801025,0.4907341,-0.3982544,-0.078588866,-0.48533937,91.0
37404,-0.21603203,0.49044418,0.36281586,-0.3982544,-0.078588866,-0.48533937,91.0
37405,-0.21603203,0.49044418,0.36281586,-0.29205322,-0.09239502,-0.57561034,91.0
37406,-0.28687572,0.20832062,0.4284134,-0.29205322,-0.09239502,-0.57561034,91.0
37407,-0.28687572,0.20832062,0.4284134,-0.05522461,-0.07327881,-0.6414551,91.0
37408,-0.5173788,-0.03407669,0.4174118,-0.05522461,-0.07327881,-0.6414551,91.0
37409,-0.5173788,-0.03407669,0.4174118,0.13806152,-0.07327881,-0.727478,91.0
37410,-0.7791133,-0.19384766,0.16481018,0.13806152,-0.07327881,-0.727478,91.0
37411,-0.7791133,-0.19384766,0.16481018,0.3440918,-0.04141846,-0.8793457,91.0
37412,-1.008532,-0.14286804,0.04163742,0.3440918,-0.04141846,-0.8793457,91.0
37413,-1.008532,-0.14286804,0.04163742,0.20603028,-0.038232423,-0.8846558,91.0
37414,-1.1822286,-0.20119476,0.16706467,0.20603028,-0.038232423,-0.8846558,91.0
37415,-1.1822286,-0.20119476,0.16706467,0.25594482,0.07752686,-1.0089111,91.0
37416,-1.3749452,-0.67780304,0.3391571,0.25594482,0.07752686,-1.0089111,91.0
37417,-1.3749452,-0.67780304,0.3391571,0.5872925,0.29311523,-1.0450195,91.0
37418,-1.6716113,-1.0179863,0.55114746,0.5872925,0.29311523,-1.0450195,91.0
37419,-1.6716113,-1.0179863,0.55114746,0.80181885,0.51082766,-1.0407715,91.0
37420,-1.9351039,-0.90019226,0.51729965,0.80181885,0.51082766,-1.0407715,91.0
37421,-1.9351039,-0.90019226,0.51729965,0.6690674,0.6180908,-1.1151123,91.0
37422,-1.8792114,-0.6601181,0.011154175,0.6690674,0.6180908,-1.1151123,91.0
37423,-1.8792114,-0.6601181,0.011154175,0.4959595,0.5734863,-1.2977784,91.0
37424,-1.3863277,-0.5310898,-0.6563606,0.4959595,0.5734863,-1.2977784,91.0
37425,-1.3863277,-0.5310898,-0.6563606,0.4439209,0.4428589,-1.4581422,91.0
37426,-0.5991497,-0.36280823,-1.2352562,0.4439209,0.4428589,-1.4581422,91.0
37427,-0.5991497,-0.36280823,-1.2352562,0.55755615,0.40356445,-1.5802735,91.0
37428,0.15302849,-0.17687988,-1.6601906,0.55755615,0.40356445,-1.5802735,91.0
37429,0.15302849,-0.17687988,-1.6601906,0.99298096,0.4991455,-1.62594,91.0
37430,0.5584707,0.08846283,-1.7895775,0.99298096,0.4991455,-1.62594,91.0
37431,0.5584707,0.08846283,-1.7895775,1.4103516,0.6042847,-1.5823975,91.0
37432,0.57171535,0.39346313,-1.646141,1.4103516,0.6042847,-1.5823975,91.0
37433,0.57171535,0.39346313,-1.646141,1.5123047,0.72641605,-1.536731,91.0
37434,0.28923225,0.32739258,-1.399643,1.5123047,0.72641605,-1.536731,91.0
37435,0.28923225,0.32739258,-1.399643,1.7098389,0.8230591,-1.4889405,91.0
37436,-0.1743393,-0.03807068,-1.1439705,1.7098389,0.8230591,-1.4889405,91.0
37437,-0.1743393,-0.03807068,-1.1439705,1.9360474,0.8219971,-1.447522,91.0
37438,-0.575531,-0.19319153,-0.9475136,1.9360474,0.8219971,-1.447522,91.0
37439,-0.575531,-0.19319153,-0.9475136,1.8266602,0.72004396,-1.3434448,91.0
37440,-0.74118614,-0.0840683,-1.0194473,1.8266602,0.72004396,-1.3434448,91.0
37441,-0.74118614,-0.0840683,-1.0194473,1.5908936,0.61915284,-1.2404298,91.0
37442,-0.6863327,-0.017852783,-1.2745819,1.5908936,0.61915284,-1.2404298,91.0
37443,-0.6863327,-0.017852783,-1.2745819,1.3423828,0.53525394,-1.2191895,91.0
37444,-0.6570616,0.022895813,-0.9683609,1.3423828,0.53525394,-1.2191895,91.0
37445,-0.6570616,0.022895813,-0.9683609,1.1395386,0.4959595,-1.1172364,91.0
37446,-0.608511,-0.03881073,-0.24528122,1.1395386,0.4959595,-1.1172364,91.0
37447,-0.608511,-0.03881073,-0.24528122,0.9451904,0.33984375,-0.72323,91.0
37448,-0.44114208,-0.1879425,-0.002620697,0.9451904,0.33984375,-0.72323,91.0
37449,-0.44114208,-0.1879425,-0.002620697,0.87615967,0.31966552,-0.6616333,91.0
37450,-0.21985722,0.044311523,-0.19768906,0.87615967,0.31966552,-0.6616333,91.0
37451,-0.21985722,0.044311523,-0.19768906,0.4959595,0.20921631,-0.5214478,91.0
37452,-0.21985722,0.044311523,-0.19768906,0.4959595,0.20921631,-0.5214478,89.0
37453,-0.018390656,0.3293686,-0.44253922,0.4959595,0.20921631,-0.5214478,89.0
37454,-0.018390656,0.3293686,-0.44253922,0.070092775,0.16354981,-0.39613038,89.0
37455,-0.026626587,0.12993622,-0.41965485,0.070092775,0.16354981,-0.39613038,89.0
37456,-0.026626587,0.12993622,-0.41965485,-0.081774905,0.083898924,-0.33665773,89.0
37457,-0.17821026,-0.1966095,-0.052448273,-0.081774905,0.083898924,-0.33665773,89.0
37458,-0.17821026,-0.1966095,-0.052448273,-0.04248047,0.029736329,-0.20390625,89.0
37459,-0.34776783,-0.21183014,0.44638443,-0.04248047,0.029736329,-0.20390625,89.0
37460,-0.34776783,-0.21183014,0.44638443,0.0063720704,-0.047790527,-0.04885254,89.0
37461,-0.4942913,0.052238464,0.78887177,0.0063720704,-0.047790527,-0.04885254,89.0
37462,-0.4942913,0.052238464,0.78887177,-0.039294433,-0.15505372,0.053100586,89.0
37463,-0.57686615,0.31884003,0.83872986,-0.039294433,-0.15505372,0.053100586,89.0
37464,-0.57686615,0.31884003,0.83872986,-0.050976563,-0.2347046,0.1444336,89.0
37465,-0.6517029,0.46562195,0.7312012,-0.050976563,-0.2347046,0.1444336,89.0
37466,-0.6517029,0.46562195,0.7312012,-0.08602295,-0.3175415,0.2081543,89.0
37467,-0.7807007,0.6070709,0.6403198,-0.08602295,-0.3175415,0.2081543,89.0
37468,-0.7807007,0.6070709,0.6403198,-0.17523193,-0.4258667,0.27718505,89.0
37469,-0.8885622,0.82421875,0.5079956,-0.17523193,-0.4258667,0.27718505,89.0
37470,-0.8885622,0.82421875,0.5079956,-0.38338622,-0.5278198,0.3462158,89.0
37471,-0.865428,0.9762192,0.268116,-0.38338622,-0.5278198,0.3462158,89.0
37472,-0.865428,0.9762192,0.268116,-0.5140137,-0.53950197,0.44710693,89.0
37473,-0.7342491,0.8984413,0.11118317,-0.5140137,-0.53950197,0.44710693,89.0
37474,-0.7342491,0.8984413,0.11118317,-0.54375,-0.46834716,0.5501221,89.0
37475,-0.60693073,0.67016983,0.18505478,-0.54375,-0.46834716,0.5501221,89.0
37476,-0.60693073,0.67016983,0.18505478,-0.61065674,-0.32709962,0.67225343,89.0
37477,-0.55995846,0.513958,0.41242218,-0.61065674,-0.32709962,0.67225343,89.0
37478,-0.55995846,0.513958,0.41242218,-0.74022216,-0.20496826,0.811377,89.0
37479,-0.52103806,0.6127281,0.5265312,-0.74022216,-0.20496826,0.811377,89.0
37480,-0.52103806,0.6127281,0.5265312,-1.0343994,-0.2081543,0.91864014,89.0
37481,-0.23940182,0.93377304,0.24624634,-1.0343994,-0.2081543,0.91864014,89.0
37482,-0.23940182,0.93377304,0.24624634,-1.4836304,-0.29630128,0.9696167,89.0
37483,0.4521551,1.144001,-0.4666977,-1.4836304,-0.29630128,0.9696167,89.0
37484,0.4521551,1.144001,-0.4666977,-1.8330323,-0.3971924,0.93563235,89.0
37485,1.3633108,0.9192772,-1.2874947,-1.8330323,-0.3971924,0.93563235,89.0
37486,1.3633108,0.9192772,-1.2874947,-1.7788696,-0.45454103,0.8708496,89.0
37487,2.135522,0.3380928,-1.8048515,-1.7788696,-0.45454103,0.8708496,89.0
37488,2.135522,0.3380928,-1.8048515,-1.4103516,-0.37489015,0.77951664,89.0
37489,2.484065,-0.22269058,-1.8466644,-1.4103516,-0.37489015,0.77951664,89.0
37490,2.484065,-0.22269058,-1.8466644,-0.9165161,-0.1529297,0.71791995,89.0
37491,2.2910242,-0.416008,-1.3838997,-0.9165161,-0.1529297,0.71791995,89.0
37492,2.2910242,-0.416008,-1.3838997,-0.39613038,0.12319336,0.72323,89.0
37493,1.6307564,-0.10360718,-0.4996643,-0.39613038,0.12319336,0.72323,89.0
37494,1.6307564,-0.10360718,-0.4996643,-0.20390625,0.36533204,0.8666016,89.0
37495,0.7063389,0.15557861,0.42671967,-0.20390625,0.36533204,0.8666016,89.0
37496,0.7063389,0.15557861,0.42671967,-0.18054199,0.5734863,0.99298096,89.0
37497,-0.15171337,-0.14626312,0.8810005,-0.18054199,0.5734863,0.99298096,89.0
37498,-0.15171337,-0.14626312,0.8810005,-0.1263794,0.7784546,1.1395386,89.0
37499,-0.68688583,-0.51792526,0.7697296,-0.1263794,0.7784546,1.1395386,89.0
37500,-0.68688583,-0.51792526,0.7697296,-0.28780517,0.9239502,1.2924683,89.0
37501,-0.85155964,-0.5608864,0.5423088,-0.28780517,0.9239502,1.2924683,89.0
37502,-0.85155964,-0.5608864,0.5423088,-0.5341919,1.0237793,1.3530029,89.0
37503,-0.7419653,-0.42817688,0.6192589,-0.5341919,1.0237793,1.3530029,89.0
37504,-0.7419653,-0.42817688,0.6192589,-0.7965088,1.0386475,1.2574219,89.0
37505,-0.39882088,-0.3994751,0.8300514,-0.7965088,1.0386475,1.2574219,89.0
37506,-0.39882088,-0.3994751,0.8300514,-0.9133301,0.9430664,1.0736939,89.0
37507,0.2203598,-0.53787994,0.7633362,-0.9133301,0.9430664,1.0736939,89.0
37508,0.2203598,-0.53787994,0.7633362,-0.79969484,0.901648,0.8729736,89.0
37509,0.9594059,-0.6083832,0.38764954,-0.79969484,0.901648,0.8729736,89.0
37510,0.9594059,-0.6083832,0.38764954,-0.5543701,0.9866089,0.68074954,89.0
37511,1.3591137,-0.48929596,0.20175552,-0.5543701,0.9866089,0.68074954,89.0
37512,1.3591137,-0.48929596,0.20175552,-0.0361084,1.1246704,0.54375,89.0
37513,1.0593004,-0.30550003,0.5086212,-0.0361084,1.1246704,0.54375,89.0
37514,1.0593004,-0.30550003,0.5086212,0.32816163,1.1852051,0.4067505,89.0
37515,0.40096807,-0.020889282,0.8771248,0.32816163,1.1852051,0.4067505,89.0
37516,0.40096807,-0.020889282,0.8771248,0.18797608,1.085376,0.31116945,89.0
37517,0.17929506,0.1204834,0.8685303,0.18797608,1.085376,0.31116945,89.0
37518,0.17929506,0.1204834,0.8685303,0.07115479,1.0620117,0.32072756,89.0
37519,-0.0054655075,0.36320496,0.5760231,0.07115479,1.0620117,0.32072756,89.0
37520,-0.0054655075,0.36320496,0.5760231,-0.22833252,1.0588257,0.30267334,89.0
37521,0.071835995,0.20668793,0.517643,-0.22833252,1.0588257,0.30267334,89.0
37522,0.071835995,0.20668793,0.517643,-0.2803711,1.0556396,0.26125488,89.0
37523,-0.011354446,-0.69075394,0.73067856,-0.2803711,1.0556396,0.26125488,89.0
37524,-0.011354446,-0.69075394,0.73067856,0.16248779,1.0343994,0.08071289,89.0
37525,-0.084742546,-0.91230774,0.8507805,0.16248779,1.0343994,0.08071289,89.0
37526,-0.084742546,-0.91230774,0.8507805,0.32285157,0.9876709,-0.022302246,89.0
37527,-0.39086533,-0.8778076,1.0917816,0.32285157,0.9876709,-0.022302246,89.0
37528,-0.39086533,-0.8778076,1.0917816,0.4088745,0.7604004,-0.32603762,89.0
37529,-0.3377285,-0.43103027,0.84729004,0.4088745,0.7604004,-0.32603762,89.0
37530,-0.3377285,-0.43103027,0.84729004,0.33028564,0.70092773,-0.4258667,89.0
37531,-0.1549244,0.5291977,0.10245514,0.33028564,0.70092773,-0.4258667,89.0
37532,-0.1549244,0.5291977,0.10245514,0.10301514,0.5628662,-0.6701294,89.0
37533,-0.12072945,0.6321602,-0.07631302,0.10301514,0.5628662,-0.6701294,89.0
37534,-0.12072945,0.6321602,-0.07631302,0.059472658,0.544812,-0.72641605,89.0
37535,-0.27630806,0.19789124,-0.30433655,0.059472658,0.544812,-0.72641605,89.0
37536,-0.27630806,0.19789124,-0.30433655,0.2803711,0.5076416,-0.8963379,89.0
37537,-0.46049976,-0.061561584,-0.21652985,0.2803711,0.5076416,-0.8963379,89.0
37538,-0.46049976,-0.061561584,-0.21652985,0.45454103,0.5055176,-0.94412845,89.0
37539,-0.92927647,-0.3818779,-0.120285034,0.45454103,0.5055176,-0.94412845,89.0
37540,-0.92927647,-0.3818779,-0.120285034,0.7784546,0.5214478,-1.0057251,89.0
37541,-1.4022961,-0.2822113,-0.14772797,0.7784546,0.5214478,-1.0057251,89.0
37542,-1.4022961,-0.2822113,-0.14772797,1.0131592,0.52250975,-1.0535157,89.0
37543,-1.7633038,0.059005737,-0.20657349,1.0131592,0.52250975,-1.0535157,89.0
37544,-1.7633038,0.059005737,-0.20657349,1.3922974,0.51826173,-0.92926025,89.0
37545,-2.0276356,1.0025253,0.15404129,1.3922974,0.51826173,-0.92926025,89.0
37546,-2.0276356,1.0025253,0.15404129,1.2160034,0.46409914,-0.69349366,89.0
37547,-2.2804947,2.3383484,0.943058,1.2160034,0.46409914,-0.69349366,89.0
37548,-2.2804947,2.3383484,0.943058,1.2160034,0.46409914,-0.69349366,88.0
37549,-2.2804947,2.3383484,0.943058,1.0259033,0.3175415,-0.45772704,88.0
37550,-2.3950014,3.216198,1.5829391,1.0259033,0.3175415,-0.45772704,88.0
37551,-2.3950014,3.216198,1.5829391,0.6138428,0.13275146,-0.3462158,88.0
37552,-1.9230814,2.9754868,1.4935837,0.6138428,0.13275146,-0.3462158,88.0
37553,-1.9230814,2.9754868,1.4935837,-0.14761963,-0.03186035,-0.3345337,88.0
37554,-0.6849251,1.3524246,0.44299698,-0.14761963,-0.03186035,-0.3345337,88.0
37555,-0.6849251,1.3524246,0.44299698,-0.6775635,-0.16461182,-0.51932377,88.0
37556,0.8250208,-0.7664261,-1.0918922,-0.6775635,-0.16461182,-0.51932377,88.0
37557,0.8250208,-0.7664261,-1.0918922,-0.74022216,-0.22727051,-0.6988037,88.0
37558,1.8648748,-2.1705399,-2.2588806,-0.74022216,-0.22727051,-0.6988037,88.0
37559,1.8648748,-2.1705399,-2.2588806,-0.52888185,-0.19116211,-0.83049315,88.0
37560,2.4414482,-2.5596619,-3.0664291,-0.52888185,-0.19116211,-0.83049315,88.0
37561,2.4414482,-2.5596619,-3.0664291,0.36108398,0.047790527,-0.77314454,88.0
37562,1.9692478,-2.0204964,-2.672699,0.36108398,0.047790527,-0.77314454,88.0
37563,1.9692478,-2.0204964,-2.672699,0.75721437,0.15505372,-0.7412842,88.0
37564,1.3947706,-1.6031189,-2.1845589,0.75721437,0.15505372,-0.7412842,88.0
37565,1.3947706,-1.6031189,-2.1845589,1.5229248,0.41737062,-0.6000366,88.0
37566,0.66989326,-1.3296623,-1.4828644,1.5229248,0.41737062,-0.6000366,88.0
37567,0.66989326,-1.3296623,-1.4828644,2.071985,0.55755615,-0.25063476,88.0
37568,0.0015516281,-0.9098816,-0.71554184,2.071985,0.55755615,-0.25063476,88.0
37569,0.0015516281,-0.9098816,-0.71554184,2.083667,0.53950197,0.010620117,88.0
37570,-0.34224033,-0.45588303,-0.1532898,2.083667,0.53950197,0.010620117,88.0
37571,-0.34224033,-0.45588303,-0.1532898,1.6949707,0.3993164,0.21558838,88.0
37572,-0.27118015,-0.18170166,-0.08462143,1.6949707,0.3993164,0.21558838,88.0
37573,-0.27118015,-0.18170166,-0.08462143,1.1055542,0.270813,0.33984375,88.0
37574,0.0062856674,-0.14194489,-0.36705017,1.1055542,0.270813,0.33984375,88.0
37575,0.0062856674,-0.14194489,-0.36705017,0.52675784,0.13487549,0.40144044,88.0
37576,0.2684927,-0.25313187,-0.7507591,0.52675784,0.13487549,0.40144044,88.0
37577,0.2684927,-0.25313187,-0.7507591,0.06584473,0.011682129,0.41418457,88.0
37578,0.48923302,-0.3236847,-1.0191383,0.06584473,0.011682129,0.41418457,88.0
37579,0.48923302,-0.3236847,-1.0191383,-0.24851075,0.0,0.4364868,88.0
37580,0.5747118,-0.37449646,-1.0408249,-0.24851075,0.0,0.4364868,88.0
37581,0.5747118,-0.37449646,-1.0408249,-0.4056885,0.04991455,0.45878908,88.0
37582,0.4743204,-0.44004822,-0.7590523,-0.4056885,0.04991455,0.45878908,88.0
37583,0.4743204,-0.44004822,-0.7590523,-0.5798584,0.046728518,0.45029297,88.0
37584,0.3174572,-0.6259308,-0.338089,-0.5798584,0.046728518,0.45029297,88.0
37585,0.3174572,-0.6259308,-0.338089,-0.49064943,0.06796875,0.4970215,88.0
37586,0.11064339,-0.8647461,0.036842346,-0.49064943,0.06796875,0.4970215,88.0
37587,0.11064339,-0.8647461,0.036842346,-0.2888672,0.093457036,0.52675784,88.0
37588,-0.21205902,-0.95871735,0.2968216,-0.2888672,0.093457036,0.52675784,88.0
37589,-0.21205902,-0.95871735,0.2968216,-0.13275146,0.1444336,0.55543214,88.0
37590,-0.6622381,-0.893486,0.47566605,-0.13275146,0.1444336,0.55543214,88.0
37591,-0.6622381,-0.893486,0.47566605,0.0021240234,0.16992188,0.5586182,88.0
37592,-1.043438,-0.6838455,0.55155563,0.0021240234,0.16992188,0.5586182,88.0
37593,-1.043438,-0.6838455,0.55155563,-0.033984374,0.06478272,0.4991455,88.0
37594,-1.01124,-0.3531189,0.41872406,-0.033984374,0.06478272,0.4991455,88.0
37595,-1.01124,-0.3531189,0.41872406,-0.26444092,-0.08071289,0.38763428,88.0
37596,-0.6369095,-0.023803711,0.02658081,-0.26444092,-0.08071289,0.38763428,88.0
37597,-0.6369095,-0.023803711,0.02658081,-0.4630371,-0.13806152,0.2538208,88.0
37598,-0.40040874,0.22159576,-0.46736908,-0.4630371,-0.13806152,0.2538208,88.0
37599,-0.40040874,0.22159576,-0.46736908,-0.5915405,-0.07327881,0.15080567,88.0
37600,-0.6678734,0.34085846,-0.71038055,-0.5915405,-0.07327881,0.15080567,88.0
37601,-0.6678734,0.34085846,-0.71038055,-0.7072998,0.09451904,0.11363526,88.0
37602,-1.3876438,0.24884796,-0.39533234,-0.7072998,0.09451904,0.11363526,88.0
37603,-1.3876438,0.24884796,-0.39533234,-0.8262451,0.22727051,0.15080567,88.0
37604,-1.9956493,0.057746887,0.43920517,-0.8262451,0.22727051,0.15080567,88.0
37605,-1.9956493,0.057746887,0.43920517,-1.0216553,0.0031860352,0.09451904,88.0
37606,-1.4897327,0.13091278,1.2281113,-1.0216553,0.0031860352,0.09451904,88.0
37607,-1.4897327,0.13091278,1.2281113,-1.3232666,-0.38763428,-0.10089111,88.0
37608,0.3183937,0.6738205,1.3155327,-1.3232666,-0.38763428,-0.10089111,88.0
37609,0.3183937,0.6738205,1.3155327,-1.6248779,-0.4980835,-0.34090576,88.0
37610,2.2091465,1.3610916,0.66236115,-1.6248779,-0.4980835,-0.34090576,88.0
37611,2.2091465,1.3610916,0.66236115,-1.814978,-0.40037844,-0.6616333,88.0
37612,3.0428658,1.6230392,-0.060955048,-1.814978,-0.40037844,-0.6616333,88.0
37613,3.0428658,1.6230392,-0.060955048,-1.4995606,-0.1985962,-0.8729736,88.0
37614,2.6973667,1.4361877,-0.25906372,-1.4995606,-0.1985962,-0.8729736,88.0
37615,2.6973667,1.4361877,-0.25906372,-0.8517334,0.0063720704,-0.8952759,88.0
37616,1.675911,1.0550423,0.037376404,-0.8517334,0.0063720704,-0.8952759,88.0
37617,1.675911,1.0550423,0.037376404,-0.1529297,0.21240234,-0.77314454,88.0
37618,0.49585533,0.6302147,0.45045853,-0.1529297,0.21240234,-0.77314454,88.0
37619,0.49585533,0.6302147,0.45045853,0.4694092,0.4078125,-0.53737795,88.0
37620,-0.5660353,0.41819763,0.77705383,0.4694092,0.4078125,-0.53737795,88.0
37621,-0.5660353,0.41819763,0.77705383,0.7954468,0.51932377,-0.24638672,88.0
37622,-1.3341637,0.5203018,1.0057373,0.7954468,0.51932377,-0.24638672,88.0
37623,-1.3341637,0.5203018,1.0057373,0.6202149,0.48640138,-0.0031860352,88.0
37624,-1.649826,0.6685486,1.137085,0.6202149,0.48640138,-0.0031860352,88.0
37625,-1.649826,0.6685486,1.137085,0.17629395,0.4598511,0.1274414,88.0
37626,-1.5182619,0.31058502,1.1346779,0.17629395,0.4598511,0.1274414,88.0
37627,-1.5182619,0.31058502,1.1346779,0.26019287,0.24213867,0.0998291,88.0
37628,-0.9084568,-0.22166443,0.96894836,0.26019287,0.24213867,0.0998291,88.0
37629,-0.9084568,-0.22166443,0.96894836,0.24213867,0.12213135,-0.12319336,88.0
37630,0.027996063,-0.3655777,0.73806,0.24213867,0.12213135,-0.12319336,88.0
37631,0.027996063,-0.3655777,0.73806,0.14549561,0.08283692,-0.27612305,88.0
37632,0.7754116,-0.30895233,0.4573784,0.14549561,0.08283692,-0.27612305,88.0
37633,0.7754116,-0.30895233,0.4573784,0.40993652,0.17523193,-0.48533937,88.0
37634,1.0129318,-0.16286087,0.05634308,0.40993652,0.17523193,-0.48533937,88.0
37635,1.0129318,-0.16286087,0.05634308,0.7890747,0.3154175,-0.6085327,88.0
37636,0.8073673,-0.039714813,-0.42214966,0.7890747,0.3154175,-0.6085327,88.0
37637,0.8073673,-0.039714813,-0.42214966,1.264856,0.43117675,-0.6435791,88.0
37638,0.4178295,0.07279205,-0.8087387,1.264856,0.43117675,-0.6435791,88.0
37639,0.4178295,0.07279205,-0.8087387,1.5802735,0.5055176,-0.5936646,88.0
37640,0.05971527,0.299469,-0.9761925,1.5802735,0.5055176,-0.5936646,88.0
37641,0.05971527,0.299469,-0.9761925,1.6036377,0.5671143,-0.50870365,88.0
37642,-0.23500347,0.52296066,-0.942749,1.6036377,0.5671143,-0.50870365,88.0
37643,-0.23500347,0.52296066,-0.942749,1.4188477,0.5692383,-0.4428589,88.0
37644,-0.4616604,0.5699539,-0.79452896,1.4188477,0.5692383,-0.4428589,88.0
37645,-0.4616604,0.5699539,-0.79452896,1.1119263,0.5479981,-0.36851808,88.0
37646,-0.4616604,0.5699539,-0.79452896,1.1119263,0.5479981,-0.36851808,88.0
37647,-0.6016407,0.35548782,-0.63746643,1.1119263,0.5479981,-0.36851808,88.0
37648,-0.6016407,0.35548782,-0.63746643,0.92926025,0.5065796,-0.30373535,88.0
37649,-0.665761,0.029567719,-0.5476799,0.92926025,0.5065796,-0.30373535,88.0
37650,-0.665761,0.029567719,-0.5476799,0.8007569,0.4343628,-0.27506104,88.0
37651,-0.64228916,-0.21300125,-0.5582504,0.8007569,0.4343628,-0.27506104,88.0
37652,-0.64228916,-0.21300125,-0.5582504,0.7062378,0.35577393,-0.2984253,88.0
37653,-0.5265999,-0.3180542,-0.6505585,0.7062378,0.35577393,-0.2984253,88.0
37654,-0.5265999,-0.3180542,-0.6505585,0.6818115,0.31860352,-0.33665773,88.0
37655,-0.4210596,-0.31990814,-0.70601654,0.6818115,0.31860352,-0.33665773,88.0
37656,-0.4210596,-0.31990814,-0.70601654,0.71791995,0.29736328,-0.38657227,88.0
37657,-0.38471127,-0.22472763,-0.6278229,0.71791995,0.29736328,-0.38657227,88.0
37658,-0.38471127,-0.22472763,-0.6278229,0.71579593,0.26656494,-0.46516114,88.0
37659,-0.3629446,-0.05656433,-0.4769554,0.71579593,0.26656494,-0.46516114,88.0
37660,-0.3629446,-0.05656433,-0.4769554,0.67650145,0.22727051,-0.5479981,88.0
37661,-0.30454063,0.08300781,-0.42459488,0.67650145,0.22727051,-0.5479981,88.0
37662,-0.30454063,0.08300781,-0.42459488,0.632959,0.17523193,-0.62977296,88.0
37663,-0.21923065,0.19392395,-0.52085114,0.632959,0.17523193,-0.62977296,88.0
37664,-0.21923065,0.19392395,-0.52085114,0.5809204,0.11257324,-0.68499756,88.0
37665,-0.16587543,0.3039322,-0.67450714,0.5809204,0.11257324,-0.68499756,88.0
37666,-0.16587543,0.3039322,-0.67450714,0.5097656,0.070092775,-0.7126099,88.0
37667,-0.24717712,0.25706482,-0.6778755,0.5097656,0.070092775,-0.7126099,88.0
37668,-0.24717712,0.25706482,-0.6778755,0.59472656,0.04991455,-0.6966797,88.0
37669,-0.50860596,0.05842209,-0.4991989,0.59472656,0.04991455,-0.6966797,88.0
37670,-0.50860596,0.05842209,-0.4991989,0.7104859,0.0031860352,-0.68499756,88.0
37671,-0.8011837,-0.07077789,-0.36758423,0.7104859,0.0031860352,-0.68499756,88.0
37672,-0.8011837,-0.07077789,-0.36758423,0.70305175,-0.05522461,-0.67331547,88.0
37673,-0.9609909,-0.08142853,-0.43959808,0.70305175,-0.05522461,-0.67331547,88.0
37674,-0.9609909,-0.08142853,-0.43959808,0.62340087,-0.043542482,-0.65419924,88.0
37675,-1.052557,-0.031196594,-0.5853691,0.62340087,-0.043542482,-0.65419924,88.0
37676,-1.052557,-0.031196594,-0.5853691,0.4078125,0.047790527,-0.60959476,88.0
37677,-1.2163372,-0.11416626,-0.54065704,0.4078125,0.047790527,-0.60959476,88.0
37678,-1.2163372,-0.11416626,-0.54065704,0.31860352,0.18266602,-0.4970215,88.0
37679,-1.3384628,-0.49349213,-0.14614868,0.31860352,0.18266602,-0.4970215,88.0
37680,-1.3384628,-0.49349213,-0.14614868,0.5320679,0.14974366,-0.36745605,88.0
37681,-1.0675354,-0.92505646,0.32718658,0.5320679,0.14974366,-0.36745605,88.0
37682,-1.0675354,-0.92505646,0.32718658,0.7890747,0.045666505,-0.270813,88.0
37683,-0.38065147,-1.1268272,0.38469696,0.7890747,0.045666505,-0.270813,88.0
37684,-0.38065147,-1.1268272,0.38469696,1.0460815,0.039294433,-0.15823975,88.0
37685,0.26831818,-1.0213966,0.026874542,1.0460815,0.039294433,-0.15823975,88.0
37686,0.26831818,-1.0213966,0.026874542,1.1469727,-0.039294433,-0.118945315,88.0
37687,0.6559019,-0.71469116,-0.3077469,1.1469727,-0.039294433,-0.118945315,88.0
37688,0.6559019,-0.71469116,-0.3077469,0.9483765,-0.20496826,-0.12531738,88.0
37689,0.90262604,-0.43243408,-0.40447235,0.9483765,-0.20496826,-0.12531738,88.0
37690,0.90262604,-0.43243408,-0.40447235,0.5713623,-0.3334717,-0.09133301,88.0
37691,1.0001774,-0.3818512,-0.3664627,0.5713623,-0.3334717,-0.09133301,88.0
37692,1.0001774,-0.3818512,-0.3664627,0.26762697,-0.4428589,-0.08071289,88.0
37693,0.93647003,-0.55522156,-0.34003448,0.26762697,-0.4428589,-0.08071289,88.0
37694,0.93647003,-0.55522156,-0.34003448,0.17416993,-0.53950197,-0.10301514,88.0
37695,0.89192486,-0.6923218,-0.329216,0.17416993,-0.53950197,-0.10301514,88.0
37696,0.89192486,-0.6923218,-0.329216,0.0541626,-0.58198243,-0.083898924,88.0
37697,0.94739056,-0.7174301,-0.31593704,0.0541626,-0.58198243,-0.083898924,88.0
37698,0.94739056,-0.7174301,-0.31593704,0.025488282,-0.5479981,-0.06903076,88.0
37699,0.9802265,-0.77272034,-0.25128555,0.025488282,-0.5479981,-0.06903076,88.0
37700,0.9802265,-0.77272034,-0.25128555,0.14549561,-0.45454103,-0.06478272,88.0
37701,0.83386326,-0.83148193,-0.05580139,0.14549561,-0.45454103,-0.06478272,88.0
37702,0.83386326,-0.83148193,-0.05580139,0.40037844,-0.35152587,-0.039294433,88.0
37703,0.49198055,-0.86226654,0.25466156,0.40037844,-0.35152587,-0.039294433,88.0
37704,0.49198055,-0.86226654,0.25466156,0.6138428,-0.32603762,0.007434082,88.0
37705,0.12012291,-0.96369934,0.45079803,0.6138428,-0.32603762,0.007434082,88.0
37706,0.12012291,-0.96369934,0.45079803,0.7306641,-0.33878174,0.03079834,88.0
37707,-0.05534172,-1.073349,0.4651184,0.7306641,-0.33878174,0.03079834,88.0
37708,-0.05534172,-1.073349,0.4651184,0.76464844,-0.33240968,0.06690674,88.0
37709,-0.049863815,-0.99263763,0.4433365,0.76464844,-0.33240968,0.06690674,88.0
37710,-0.049863815,-0.99263763,0.4433365,0.70305175,-0.3419678,0.016992187,88.0
37711,0.015443802,-0.7797394,0.47959518,0.70305175,-0.3419678,0.016992187,88.0
37712,0.015443802,-0.7797394,0.47959518,0.5851685,-0.35683593,-0.13699952,88.0
37713,0.08830643,-0.60520935,0.55420685,0.5851685,-0.35683593,-0.13699952,88.0
37714,0.08830643,-0.60520935,0.55420685,0.5331299,-0.36851808,-0.28780517,88.0
37715,0.1363554,-0.46457672,0.5603218,0.5331299,-0.36851808,-0.28780517,88.0
37716,0.1363554,-0.46457672,0.5603218,0.4354248,-0.4056885,-0.4343628,88.0
37717,0.12490463,-0.3700409,0.4357109,0.4354248,-0.4056885,-0.4343628,88.0
37718,0.12490463,-0.3700409,0.4357109,0.56817627,-0.45135498,-0.56392825,88.0
37719,0.053878784,-0.24680328,0.21207047,0.56817627,-0.45135498,-0.56392825,88.0
37720,0.053878784,-0.24680328,0.21207047,0.78376466,-0.5097656,-0.65207523,88.0
37721,-0.0579834,0.043045044,0.017555237,0.78376466,-0.5097656,-0.65207523,88.0
37722,-0.0579834,0.043045044,0.017555237,0.8729736,-0.5564942,-0.7147339,88.0
37723,-0.22501183,0.34275818,-0.08156204,0.8729736,-0.5564942,-0.7147339,88.0
37724,-0.22501183,0.34275818,-0.08156204,0.9717407,-0.5936646,-0.7476563,88.0
37725,-0.44781876,0.48779297,-0.10340881,0.9717407,-0.5936646,-0.7476563,88.0
37726,-0.44781876,0.48779297,-0.10340881,1.0131592,-0.61278075,-0.7625244,88.0
37727,-0.668252,0.40039062,-0.15123367,1.0131592,-0.61278075,-0.7625244,88.0
37728,-0.668252,0.40039062,-0.15123367,1.0864381,-0.65207523,-0.75509036,88.0
37729,-0.8429022,0.25266266,-0.24946594,1.0864381,-0.65207523,-0.75509036,88.0
37730,-0.8429022,0.25266266,-0.24946594,1.1278565,-0.6786255,-0.72854006,88.0
37731,-0.9681444,0.29242706,-0.32226562,1.1278565,-0.6786255,-0.72854006,88.0
37732,-0.9681444,0.29242706,-0.32226562,1.081128,-0.70942384,-0.7041138,88.0
37733,-1.0342684,0.4332962,-0.3852768,1.081128,-0.70942384,-0.7041138,88.0
37734,-1.0342684,0.4332962,-0.3852768,0.9781128,-0.7519043,-0.6839356,88.0
37735,-1.0060892,0.60220337,-0.47926712,0.9781128,-0.7519043,-0.6839356,88.0
37736,-1.0060892,0.60220337,-0.47926712,0.80181885,-0.7391602,-0.60959476,88.0
37737,-0.9149418,0.77671814,-0.5292015,0.80181885,-0.7391602,-0.60959476,88.0
37738,-0.9149418,0.77671814,-0.5292015,0.5936646,-0.70198977,-0.53525394,88.0
37739,-0.78987503,0.9546509,-0.51283646,0.5936646,-0.70198977,-0.53525394,88.0
37740,-0.78987503,0.9546509,-0.51283646,0.3079834,-0.66588134,-0.45878908,88.0
37741,-0.5869665,1.1560211,-0.5245018,0.3079834,-0.66588134,-0.45878908,88.0
37742,-0.5869665,1.1560211,-0.5245018,0.0,-0.5787964,-0.33240968,88.0
37743,-0.29071522,1.1776352,-0.6071396,0.0,-0.5787964,-0.33240968,88.0
37744,-0.29071522,1.1776352,-0.6071396,-0.2888672,-0.39613038,-0.20284425,88.0
37745,-0.03492737,0.712204,-0.5881424,-0.2888672,-0.39613038,-0.20284425,88.0
37746,-0.03492737,0.712204,-0.5881424,-0.2623169,-0.059472658,-0.038232423,88.0
37747,0.038488388,-0.033546448,-0.30946732,-0.2623169,-0.059472658,-0.038232423,88.0
37748,0.038488388,-0.033546448,-0.30946732,-0.038232423,0.2803711,0.08602295,88.0
37749,0.05504608,-0.51329803,0.16064072,-0.038232423,0.2803711,0.08602295,88.0
37750,0.05504608,-0.51329803,0.16064072,0.06796875,0.5171997,0.1444336,88.0
37751,0.1769104,-0.58395386,0.55729675,0.06796875,0.5171997,0.1444336,88.0
37752,0.1769104,-0.58395386,0.55729675,0.0180542,0.6159668,0.045666505,88.0
37753,0.45843506,-0.57512665,0.61582184,0.0180542,0.6159668,0.045666505,88.0
37754,0.45843506,-0.57512665,0.61582184,-0.019116212,0.5936646,-0.14655761,88.0
37755,0.88083553,-0.68270874,0.37107468,-0.019116212,0.5936646,-0.14655761,88.0
37756,0.88083553,-0.68270874,0.37107468,0.18266602,0.52038574,-0.3440918,88.0
37757,1.3056822,-0.74342346,-0.024219513,0.18266602,0.52038574,-0.3440918,88.0
37758,1.3056822,-0.74342346,-0.024219513,0.52038574,0.5012695,-0.5320679,88.0
37759,1.5376616,-0.70025635,-0.43709946,0.52038574,0.5012695,-0.5320679,88.0
37760,1.5376616,-0.70025635,-0.43709946,0.96430665,0.58410645,-0.67331547,88.0
37761,1.3755026,-0.5948105,-0.69750595,0.96430665,0.58410645,-0.67331547,88.0
37762,1.3755026,-0.5948105,-0.69750595,1.3296387,0.7306641,-0.76358646,88.0
37763,0.8343859,-0.39883423,-0.70780945,1.3296387,0.7306641,-0.76358646,88.0
37764,0.8343859,-0.39883423,-0.70780945,1.4337158,0.8219971,-0.8028809,88.0
37765,0.8343859,-0.39883423,-0.70780945,1.4337158,0.8219971,-0.8028809,88.0
37766,0.16921711,-0.31427002,-0.579113,1.4337158,0.8219971,-0.8028809,88.0
37767,0.16921711,-0.31427002,-0.579113,1.5186768,0.8867798,-0.8007569,88.0
37768,-0.44240952,-0.44268036,-0.40589142,1.5186768,0.8867798,-0.8007569,88.0
37769,-0.44240952,-0.44268036,-0.40589142,1.5346069,0.9281983,-0.78376466,88.0
37770,-0.9573822,-0.65424347,-0.20298386,1.5346069,0.9281983,-0.78376466,88.0
37771,-0.9573822,-0.65424347,-0.20298386,1.4613281,0.8931519,-0.7327881,88.0
37772,-1.3115597,-0.8299103,-0.12608337,1.4613281,0.8931519,-0.7327881,88.0
37773,-1.3115597,-0.8299103,-0.12608337,1.2935303,0.7508423,-0.7317261,88.0
37774,-1.3033867,-0.86216736,-0.38402176,1.2935303,0.7508423,-0.7317261,88.0
37775,-1.3033867,-0.86216736,-0.38402176,1.0195312,0.56180423,-0.7869507,88.0
37776,-0.8601532,-0.80690765,-0.8377228,1.0195312,0.56180423,-0.7869507,88.0
37777,-0.8601532,-0.80690765,-0.8377228,0.86766356,0.4980835,-0.8602295,88.0
37778,-0.32297325,-0.7153473,-1.0461922,0.86766356,0.4980835,-0.8602295,88.0
37779,-0.32297325,-0.7153473,-1.0461922,0.8358032,0.48109132,-0.91864014,88.0
37780,-0.027298927,-0.6281967,-0.91490936,0.8358032,0.48109132,-0.91864014,88.0
37781,-0.027298927,-0.6281967,-0.91490936,0.96218264,0.452417,-0.9547486,88.0
37782,0.019774437,-0.54094696,-0.7279625,0.96218264,0.452417,-0.9547486,88.0
37783,0.019774437,-0.54094696,-0.7279625,1.1108643,0.42799073,-0.93775636,88.0
37784,-0.0908947,-0.44304657,-0.6547203,1.1108643,0.42799073,-0.93775636,88.0
37785,-0.0908947,-0.44304657,-0.6547203,1.2266235,0.43011475,-0.8889038,88.0
37786,-0.2649641,-0.30730438,-0.6422348,1.2266235,0.43011475,-0.8889038,88.0
37787,-0.2649641,-0.30730438,-0.6422348,1.1544068,0.4067505,-0.8400513,88.0
37788,-0.38810635,-0.14549255,-0.63025665,1.1544068,0.4067505,-0.8400513,88.0
37789,-0.38810635,-0.14549255,-0.63025665,0.93350834,0.3462158,-0.80181885,88.0
37790,-0.4054184,-0.09136963,-0.6157913,0.93350834,0.3462158,-0.80181885,88.0
37791,-0.4054184,-0.09136963,-0.6157913,0.71791995,0.28461915,-0.7890747,88.0
37792,-0.34269428,-0.20058441,-0.5398483,0.71791995,0.28461915,-0.7890747,88.0
37793,-0.34269428,-0.20058441,-0.5398483,0.63933104,0.21983643,-0.7763306,88.0
37794,-0.23604488,-0.31930542,-0.40626907,0.63933104,0.21983643,-0.7763306,88.0
37795,-0.23604488,-0.31930542,-0.40626907,0.60109866,0.15930176,-0.811377,88.0
37796,-0.07744694,-0.33618164,-0.31102753,0.60109866,0.15930176,-0.811377,88.0
37797,-0.07744694,-0.33618164,-0.31102753,0.58410645,0.124255374,-0.85385746,88.0
37798,0.08373356,-0.29051208,-0.27324677,0.58410645,0.124255374,-0.85385746,88.0
37799,0.08373356,-0.29051208,-0.27324677,0.6138428,0.14018555,-0.89421386,88.0
37800,0.12868118,-0.20770264,-0.21072388,0.6138428,0.14018555,-0.89421386,88.0
37801,0.12868118,-0.20770264,-0.21072388,0.6117188,0.16673584,-0.91757816,88.0
37802,0.01119709,-0.17242432,-0.08724594,0.6117188,0.16673584,-0.91757816,88.0
37803,0.01119709,-0.17242432,-0.08724594,0.6796875,0.21027832,-0.8814697,88.0
37804,-0.25818062,-0.3406906,0.12236786,0.6796875,0.21027832,-0.8814697,88.0
37805,-0.25818062,-0.3406906,0.12236786,0.8889038,0.20178223,-0.8251831,88.0
37806,-0.5027847,-0.64445496,0.32946014,0.8889038,0.20178223,-0.8251831,88.0
37807,-0.5027847,-0.64445496,0.32946014,1.0620117,0.12000733,-0.79119873,88.0
37808,-0.48357582,-0.85139465,0.36345673,1.0620117,0.12000733,-0.79119873,88.0
37809,-0.48357582,-0.85139465,0.36345673,1.1066163,-0.032922365,-0.7848267,88.0
37810,-0.15299797,-0.80417633,0.2122879,1.1066163,-0.032922365,-0.7848267,88.0
37811,-0.15299797,-0.80417633,0.2122879,0.93563235,-0.115759276,-0.813501,88.0
37812,0.2547016,-0.62659454,0.06461716,0.93563235,-0.115759276,-0.813501,88.0
37813,0.2547016,-0.62659454,0.06461716,0.70305175,-0.07115479,-0.8336792,88.0
37814,0.352602,-0.7762985,0.14655304,0.70305175,-0.07115479,-0.8336792,88.0
37815,0.352602,-0.7762985,0.14655304,0.89208984,0.19434814,-0.7497803,88.0
37816,-0.1177845,-1.3059616,0.5919113,0.89208984,0.19434814,-0.7497803,88.0
37817,-0.1177845,-1.3059616,0.5919113,1.4432739,0.3419678,-0.5809204,88.0
37818,-0.7587786,-1.6328812,1.1273613,1.4432739,0.3419678,-0.5809204,88.0
37819,-0.7587786,-1.6328812,1.1273613,1.6057618,0.20709229,-0.53525394,88.0
37820,-0.7855873,-1.2489319,1.0409622,1.6057618,0.20709229,-0.53525394,88.0
37821,-0.7855873,-1.2489319,1.0409622,1.083252,-0.10513916,-0.63720703,88.0
37822,0.03185749,-0.46824646,0.083465576,1.083252,-0.10513916,-0.63720703,88.0
37823,0.03185749,-0.46824646,0.083465576,0.2793091,-0.28461915,-0.81987303,88.0
37824,0.98549557,-0.09199524,-1.0080338,0.2793091,-0.28461915,-0.81987303,88.0
37825,0.98549557,-0.09199524,-1.0080338,-0.050976563,-0.24532472,-1.0046631,88.0
37826,1.2999563,-0.3484726,-1.3396072,-0.050976563,-0.24532472,-1.0046631,88.0
37827,1.2999563,-0.3484726,-1.3396072,0.3079834,-0.16779785,-1.0747559,88.0
37828,1.0020142,-0.6616287,-0.8565712,0.3079834,-0.16779785,-1.0747559,88.0
37829,1.0020142,-0.6616287,-0.8565712,0.79969484,-0.13912354,-0.99298096,88.0
37830,0.54907227,-0.62451935,-0.21308899,0.79969484,-0.13912354,-0.99298096,88.0
37831,0.54907227,-0.62451935,-0.21308899,1.1119263,-0.10620117,-0.8867798,88.0
37832,0.16809082,-0.366745,0.038402557,1.1119263,-0.10620117,-0.8867798,88.0
37833,0.16809082,-0.366745,0.038402557,1.1013062,-0.038232423,-0.725354,88.0
37834,-0.20682335,-0.117866516,-0.096279144,1.1013062,-0.038232423,-0.725354,88.0
37835,-0.20682335,-0.117866516,-0.096279144,0.77951664,-0.009558106,-0.5341919,88.0
37836,-0.5819502,-0.18195343,-0.25138855,0.77951664,-0.009558106,-0.5341919,88.0
37837,-0.5819502,-0.18195343,-0.25138855,0.40250245,-0.10301514,-0.3982544,88.0
37838,-0.7679043,-0.5835724,-0.21148682,0.40250245,-0.10301514,-0.3982544,88.0
37839,-0.7679043,-0.5835724,-0.21148682,0.2347046,-0.24320069,-0.32391357,88.0
37840,-0.6331463,-0.8348923,-0.1274643,0.2347046,-0.24320069,-0.32391357,88.0
37841,-0.6331463,-0.8348923,-0.1274643,-0.019116212,-0.38444826,-0.2899292,88.0
37842,-0.31088638,-0.7395325,-0.15088654,-0.019116212,-0.38444826,-0.2899292,88.0
37843,-0.31088638,-0.7395325,-0.15088654,-0.22302246,-0.43861085,-0.30267334,88.0
37844,-0.08490276,-0.5327759,-0.20370483,-0.22302246,-0.43861085,-0.30267334,88.0
37845,-0.08490276,-0.5327759,-0.20370483,-0.36002198,-0.42905274,-0.33134767,88.0
37846,-0.0475235,-0.32509613,-0.22525787,-0.36002198,-0.42905274,-0.33134767,88.0
37847,-0.0475235,-0.32509613,-0.22525787,-0.43754885,-0.40993652,-0.32816163,88.0
37848,-0.083758354,-0.23314667,-0.20573044,-0.43754885,-0.40993652,-0.32816163,88.0
37849,-0.083758354,-0.23314667,-0.20573044,-0.30267334,-0.35577393,-0.3058594,88.0
37850,-0.12240219,-0.25102234,-0.11922455,-0.30267334,-0.35577393,-0.3058594,88.0
37851,-0.12240219,-0.25102234,-0.11922455,-0.09451904,-0.2888672,-0.2803711,88.0
37852,-0.18796062,-0.18103027,-0.0063285828,-0.09451904,-0.2888672,-0.2803711,88.0
37853,-0.18796062,-0.18103027,-0.0063285828,-0.10938721,-0.2548828,-0.25594482,88.0
37854,-0.18796062,-0.18103027,-0.0063285828,-0.10938721,-0.2548828,-0.25594482,87.0
37855,-0.24913502,-0.016342163,0.092033386,-0.10938721,-0.2548828,-0.25594482,87.0
37856,-0.24913502,-0.016342163,0.092033386,-0.20390625,-0.26656494,-0.2623169,87.0
37857,-0.21239376,0.12939453,0.17518997,-0.20390625,-0.26656494,-0.2623169,87.0
37858,-0.21239376,0.12939453,0.17518997,-0.35046387,-0.2824951,-0.26868898,87.0
37859,-0.14533043,0.10266113,0.27621078,-0.35046387,-0.2824951,-0.26868898,87.0
37860,-0.14533043,0.10266113,0.27621078,-0.3058594,-0.31435546,-0.29311523,87.0
37861,-0.104447365,0.028999329,0.37875748,-0.3058594,-0.31435546,-0.29311523,87.0
37862,-0.104447365,0.028999329,0.37875748,-0.22939454,-0.3727661,-0.28674316,87.0
37863,-0.05498123,0.15965271,0.40320206,-0.22939454,-0.3727661,-0.28674316,87.0
37864,-0.05498123,0.15965271,0.40320206,-0.2803711,-0.4078125,-0.24532472,87.0
37865,0.011264801,0.47049713,0.32061005,-0.2803711,-0.4078125,-0.24532472,87.0
37866,0.011264801,0.47049713,0.32061005,-0.50445557,-0.46516114,-0.18479005,87.0
37867,0.14366722,0.7486725,0.15397263,-0.50445557,-0.46516114,-0.18479005,87.0
37868,0.14366722,0.7486725,0.15397263,-0.73597413,-0.51826173,-0.10938721,87.0
37869,0.3320732,0.7576752,0.03572464,-0.73597413,-0.51826173,-0.10938721,87.0
37870,0.3320732,0.7576752,0.03572464,-0.81668705,-0.5278198,-0.009558106,87.0
37871,0.49223328,0.5412369,0.06618881,-0.81668705,-0.5278198,-0.009558106,87.0
37872,0.49223328,0.5412369,0.06618881,-0.7975708,-0.5533081,0.0541626,87.0
37873,0.61331844,0.3094406,0.16576767,-0.7975708,-0.5533081,0.0541626,87.0
37874,0.61331844,0.3094406,0.16576767,-0.7986328,-0.5777344,0.09770508,87.0
37875,0.7309017,0.221138,0.24427032,-0.7986328,-0.5777344,0.09770508,87.0
37876,0.7309017,0.221138,0.24427032,-0.7880127,-0.5628662,0.13487549,87.0
37877,0.78302383,0.31487274,0.32773972,-0.7880127,-0.5628662,0.13487549,87.0
37878,0.78302383,0.31487274,0.32773972,-0.9345703,-0.5501221,0.1539917,87.0
37879,0.7685213,0.38749695,0.39505386,-0.9345703,-0.5501221,0.1539917,87.0
37880,0.7685213,0.38749695,0.39505386,-1.0938721,-0.544812,0.16992188,87.0
37881,0.7355814,0.09553528,0.51223373,-1.0938721,-0.544812,0.16992188,87.0
37882,0.7355814,0.09553528,0.51223373,-0.9218262,-0.5171997,0.1985962,87.0
37883,0.6532364,-0.33457184,0.73078156,-0.9218262,-0.5171997,0.1985962,87.0
37884,0.6532364,-0.33457184,0.73078156,-0.6488892,-0.5299439,0.2081543,87.0
37885,0.51102924,-0.4383011,0.92302704,-0.6488892,-0.5299439,0.2081543,87.0
37886,0.51102924,-0.4383011,0.92302704,-0.5979126,-0.61278075,0.13381349,87.0
37887,0.3949442,-0.26319122,0.9054146,-0.5979126,-0.61278075,0.13381349,87.0
37888,0.3949442,-0.26319122,0.9054146,-0.72004396,-0.70198977,0.011682129,87.0
37889,0.37241268,-0.14362335,0.73202133,-0.72004396,-0.70198977,0.011682129,87.0
37890,0.37241268,-0.14362335,0.73202133,-0.8846558,-0.79013675,-0.11257324,87.0
37891,0.40192223,-0.29551697,0.6785736,-0.8846558,-0.79013675,-0.11257324,87.0
37892,0.40192223,-0.29551697,0.6785736,-0.82730716,-0.84536135,-0.2081543,87.0
37893,0.38404942,-0.6237259,0.8952751,-0.82730716,-0.84536135,-0.2081543,87.0
37894,0.38404942,-0.6237259,0.8952751,-0.5894165,-0.85598147,-0.31329346,87.0
37895,0.28173923,-0.7945862,1.1828346,-0.5894165,-0.85598147,-0.31329346,87.0
37896,0.28173923,-0.7945862,1.1828346,-0.42374268,-0.9197022,-0.41843262,87.0
37897,0.20937538,-0.60217285,1.14888,-0.42374268,-0.9197022,-0.41843262,87.0
37898,0.20937538,-0.60217285,1.14888,-0.47790527,-1.0280274,-0.55968016,87.0
37899,0.31098175,-0.097206116,0.63459396,-0.47790527,-1.0280274,-0.55968016,87.0
37900,0.31098175,-0.097206116,0.63459396,-0.815625,-1.1172364,-0.6881836,87.0
37901,0.48391724,0.27387238,0.021995544,-0.815625,-1.1172364,-0.6881836,87.0
37902,0.48391724,0.27387238,0.021995544,-1.0439576,-1.1490967,-0.8644776,87.0
37903,0.5090332,0.19160461,-0.27756882,-1.0439576,-1.1490967,-0.8644776,87.0
37904,0.5090332,0.19160461,-0.27756882,-0.94731444,-1.1575928,-1.0120972,87.0
37905,0.38682842,0.048561096,-0.35079193,-0.94731444,-1.1575928,-1.0120972,87.0
37906,0.38682842,0.048561096,-0.35079193,-0.77314454,-1.1618408,-1.1289185,87.0
37907,0.25572777,0.2188797,-0.39960098,-0.77314454,-1.1618408,-1.1289185,87.0
37908,0.25572777,0.2188797,-0.39960098,-0.69136965,-1.2011353,-1.1586548,87.0
37909,0.18751621,0.3995819,-0.44808578,-0.69136965,-1.2011353,-1.1586548,87.0
37910,0.18751621,0.3995819,-0.44808578,-0.4991455,-1.2000732,-1.1501588,87.0
37911,0.118629456,0.34809875,-0.4428177,-0.4991455,-1.2000732,-1.1501588,87.0
37912,0.118629456,0.34809875,-0.4428177,-0.2548828,-1.1692749,-1.0673218,87.0
37913,-0.09830952,0.351326,-0.4885559,-0.2548828,-1.1692749,-1.0673218,87.0
37914,-0.09830952,0.351326,-0.4885559,-0.1444336,-1.1607789,-0.9388184,87.0
37915,-0.48735142,0.5472107,-0.7309456,-0.1444336,-1.1607789,-0.9388184,87.0
37916,-0.48735142,0.5472107,-0.7309456,-0.25063476,-1.1820191,-0.8315552,87.0
37917,-0.8600588,0.64575195,-0.9607086,-0.25063476,-1.1820191,-0.8315552,87.0
37918,-0.8600588,0.64575195,-0.9607086,-0.3440918,-1.1363525,-0.69986576,87.0
37919,-1.1742773,0.1950531,-0.7385254,-0.3440918,-1.1363525,-0.69986576,87.0
37920,-1.1742773,0.1950531,-0.7385254,-0.09239502,-0.9759888,-0.50233155,87.0
37921,-1.538518,-0.4656372,-0.044139862,-0.09239502,-0.9759888,-0.50233155,87.0
37922,-1.538518,-0.4656372,-0.044139862,0.2166504,-0.88253176,-0.22196046,87.0
37923,-1.7306681,-0.49227142,0.6023712,0.2166504,-0.88253176,-0.22196046,87.0
37924,-1.7306681,-0.49227142,0.6023712,0.1731079,-0.7965088,0.07115479,87.0
37925,-1.6311893,-0.052383423,0.9585953,0.1731079,-0.7965088,0.07115479,87.0
37926,-1.6311893,-0.052383423,0.9585953,0.08602295,-0.60322267,0.36320803,87.0
37927,-1.592598,0.31916046,1.1646423,0.08602295,-0.60322267,0.36320803,87.0
37928,-1.592598,0.31916046,1.1646423,-0.37595215,-0.51082766,0.5522461,87.0
37929,-1.5946836,0.26115417,1.2105942,-0.37595215,-0.51082766,0.5522461,87.0
37930,-1.5946836,0.26115417,1.2105942,-0.8782837,-0.51826173,0.70305175,87.0
37931,-1.3565941,-0.31266785,1.1108437,-0.8782837,-0.51826173,0.70305175,87.0
37932,-1.3565941,-0.31266785,1.1108437,-0.68499756,-0.38869628,0.84323734,87.0
37933,-1.0165863,-0.47479248,0.8827286,-0.68499756,-0.38869628,0.84323734,87.0
37934,-1.0165863,-0.47479248,0.8827286,-0.69136965,-0.3536499,0.8591675,87.0
37935,-0.6276369,0.20955658,0.41693878,-0.69136965,-0.3536499,0.8591675,87.0
37936,-0.6276369,0.20955658,0.41693878,-1.1905152,-0.4163086,0.6775635,87.0
37937,-0.09954643,0.61961365,0.08560181,-1.1905152,-0.4163086,0.6775635,87.0
37938,-0.09954643,0.61961365,0.08560181,-1.2181275,-0.27718505,0.6085327,87.0
37939,0.20675182,0.22670746,0.37791824,-1.2181275,-0.27718505,0.6085327,87.0
37940,0.20675182,0.22670746,0.37791824,-0.79013675,-0.11044922,0.61915284,87.0
37941,0.032381058,-0.17327118,0.8534813,-0.79013675,-0.11044922,0.61915284,87.0
37942,0.032381058,-0.17327118,0.8534813,-0.3802002,-0.14018555,0.5787964,87.0
37943,-0.20994759,-0.058769226,0.71471786,-0.3802002,-0.14018555,0.5787964,87.0
37944,-0.20994759,-0.058769226,0.71471786,-0.33240968,-0.24638672,0.46622315,87.0
37945,-0.17513561,0.037857056,0.045139313,-0.33240968,-0.24638672,0.46622315,87.0
37946,-0.17513561,0.037857056,0.045139313,-0.26762697,-0.28355715,0.33134767,87.0
37947,0.029153824,-0.1825943,-0.32767105,-0.26762697,-0.28355715,0.33134767,87.0
37948,0.029153824,-0.1825943,-0.32767105,-0.16354981,-0.2538208,0.26656494,87.0
37949,0.14890862,-0.28832245,-0.09726715,-0.16354981,-0.2538208,0.26656494,87.0
37950,0.14890862,-0.28832245,-0.09726715,-0.09451904,-0.3069214,0.18054199,87.0
37951,0.1809187,-0.0040359497,0.16514206,-0.09451904,-0.3069214,0.18054199,87.0
37952,0.1809187,-0.0040359497,0.16514206,-0.10620117,-0.40993652,0.0361084,87.0
37953,0.1809187,-0.0040359497,0.16514206,-0.10620117,-0.40993652,0.0361084,86.0
37954,0.28263855,0.4325714,-0.074272156,-0.10620117,-0.40993652,0.0361084,86.0
37955,0.28263855,0.4325714,-0.074272156,-0.09451904,-0.5511841,-0.050976563,86.0
37956,0.46827412,0.57489014,-0.6045952,-0.09451904,-0.5511841,-0.050976563,86.0
37957,0.46827412,0.57489014,-0.6045952,0.14761963,-0.6074707,-0.10620117,86.0
37958,0.5498762,0.47669983,-0.7082863,0.14761963,-0.6074707,-0.10620117,86.0
37959,0.5498762,0.47669983,-0.7082863,0.48215333,-0.65632325,-0.10513916,86.0
37960,0.40316963,0.5063629,-0.3012123,0.48215333,-0.65632325,-0.10513916,86.0
37961,0.40316963,0.5063629,-0.3012123,0.6881836,-0.7434082,-0.11151123,86.0
37962,0.2847433,0.64380646,0.028011322,0.6881836,-0.7434082,-0.11151123,86.0
37963,0.2847433,0.64380646,0.028011322,0.64995116,-0.8963379,-0.12000733,86.0
37964,0.43775558,0.4975891,0.08797455,0.64995116,-0.8963379,-0.12000733,86.0
37965,0.43775558,0.4975891,0.08797455,0.9133301,-0.8867798,-0.11044922,86.0
37966,0.510458,0.1950531,0.24042511,0.9133301,-0.8867798,-0.11044922,86.0
37967,0.510458,0.1950531,0.24042511,1.1554688,-0.8230591,0.007434082,86.0
37968,0.14099598,0.1823883,0.47106552,1.1554688,-0.8230591,0.007434082,86.0
37969,0.14099598,0.1823883,0.47106552,0.9855469,-0.9281983,0.046728518,86.0
37970,-0.28715515,0.34059906,0.310215,0.9855469,-0.9281983,0.046728518,86.0
37971,-0.28715515,0.34059906,0.310215,0.58623046,-1.0524536,-0.0180542,86.0
37972,-0.4136238,0.22529602,-0.069358826,0.58623046,-1.0524536,-0.0180542,86.0
37973,-0.4136238,0.22529602,-0.069358826,0.84536135,-1.0343994,-0.13487549,86.0
37974,-0.52815247,0.11468506,0.12388229,0.84536135,-1.0343994,-0.13487549,86.0
37975,-0.52815247,0.11468506,0.12388229,1.3413209,-1.0078491,-0.08496094,86.0
37976,-0.72117996,0.28824615,0.8354111,1.3413209,-1.0078491,-0.08496094,86.0
37977,-0.72117996,0.28824615,0.8354111,1.4284058,-1.0598878,0.0021240234,86.0
37978,-0.6819248,0.123039246,1.3040237,1.4284058,-1.0598878,0.0021240234,86.0
37979,-0.6819248,0.123039246,1.3040237,1.4326538,-1.088562,0.13699952,86.0
37980,-0.61963654,-0.5390167,1.4303055,1.4326538,-1.088562,0.13699952,86.0
37981,-0.61963654,-0.5390167,1.4303055,1.7066529,-1.1427246,0.1996582,86.0
37982,-0.78569984,-0.78596497,1.3590775,1.7066529,-1.1427246,0.1996582,86.0
37983,-0.78569984,-0.78596497,1.3590775,1.6195679,-1.2085694,0.36320803,86.0
37984,-0.7232008,-0.42437744,1.0393143,1.6195679,-1.2085694,0.36320803,86.0
37985,-0.7232008,-0.42437744,1.0393143,1.2298096,-1.2393677,0.41737062,86.0
37986,-0.27705956,-0.29502106,0.55807495,1.2298096,-1.2393677,0.41737062,86.0
37987,-0.27705956,-0.29502106,0.55807495,0.89421386,-1.177771,0.51082766,86.0
37988,0.10507393,-0.45378113,0.21142578,0.89421386,-1.177771,0.51082766,86.0
37989,0.10507393,-0.45378113,0.21142578,0.8421753,-1.1172364,0.5129517,86.0
37990,0.4732685,-0.34612274,0.24682617,0.8421753,-1.1172364,0.5129517,86.0
37991,0.4732685,-0.34612274,0.24682617,0.5851685,-1.1002442,0.53737795,86.0
37992,1.0454121,-0.04159546,0.4893036,0.5851685,-1.1002442,0.53737795,86.0
37993,1.0454121,-0.04159546,0.4893036,0.5331299,-1.0482056,0.63933104,86.0
37994,1.3103895,0.3646698,0.8182373,0.5331299,-1.0482056,0.63933104,86.0
37995,1.3103895,0.3646698,0.8182373,0.21346436,-0.9632446,0.68074954,86.0
37996,0.91088486,0.5049896,1.4589233,0.21346436,-0.9632446,0.68074954,86.0
37997,0.91088486,0.5049896,1.4589233,-0.21346436,-0.99085695,0.51932377,86.0
37998,0.3243618,-0.46247864,2.5176125,-0.21346436,-0.99085695,0.51932377,86.0
37999,0.3243618,-0.46247864,2.5176125,0.72960204,-1.0821899,0.31010744,86.0
38000,0.23509979,-1.2520142,3.1999512,0.72960204,-1.0821899,0.31010744,86.0
38001,0.23509979,-1.2520142,3.1999512,2.707068,-0.98448485,0.54375,86.0
38002,0.6187439,0.28912354,2.7563477,2.707068,-0.98448485,0.54375,86.0
38003,0.6187439,0.28912354,2.7563477,1.7555054,-0.94625247,0.96218264,86.0
38004,1.0847292,2.382141,1.2985611,1.7555054,-0.94625247,0.96218264,86.0
38005,1.0847292,2.382141,1.2985611,0.53950197,-0.63614506,1.1193603,86.0
38006,1.3389626,3.364174,-0.3441124,0.53950197,-0.63614506,1.1193603,86.0
38007,1.3389626,3.364174,-0.3441124,-0.17735596,-0.09770508,1.717273,86.0
38008,0.86333275,3.0011826,-0.5485077,-0.17735596,-0.09770508,1.717273,86.0
38009,0.86333275,3.0011826,-0.5485077,-0.4248047,0.26656494,1.8946289,86.0
38010,-0.16222668,0.8965378,0.9238434,-0.4248047,0.26656494,1.8946289,86.0
38011,-0.16222668,0.8965378,0.9238434,0.42055663,0.39613038,1.808606,86.0
38012,-0.52383614,-0.533844,1.7994003,0.42055663,0.39613038,1.808606,86.0
38013,-0.52383614,-0.533844,1.7994003,-0.30373535,0.38763428,1.6737305,86.0
38014,0.12443638,-0.034362793,0.71572876,-0.30373535,0.38763428,1.6737305,86.0
38015,0.12443638,-0.034362793,0.71572876,-2.18562,0.2262085,1.1066163,86.0
38016,0.9643688,0.73007965,-1.2261124,-2.18562,0.2262085,1.1066163,86.0
38017,0.9643688,0.73007965,-1.2261124,-2.2089844,0.271875,0.8209351,86.0
38018,1.2828846,0.9787903,-2.12957,-2.2089844,0.271875,0.8209351,86.0
38019,1.2828846,0.9787903,-2.12957,-1.3360108,0.24320069,0.55968016,86.0
38020,0.6506977,0.43289948,-1.6216125,-1.3360108,0.24320069,0.55968016,86.0
38021,0.6506977,0.43289948,-1.6216125,0.5798584,0.19541016,0.43754885,86.0
38022,0.12877274,0.065071106,-1.2287598,0.5798584,0.19541016,0.43754885,86.0
38023,0.12877274,0.065071106,-1.2287598,1.2446778,0.23151855,0.38763428,86.0
38024,-1.208786,0.79141235,-1.2873535,1.2446778,0.23151855,0.38763428,86.0
38025,-1.208786,0.79141235,-1.2873535,-0.35471192,0.06584473,-0.0998291,86.0
38026,-1.2152338,0.78232574,-1.2143936,-0.35471192,0.06584473,-0.0998291,86.0
38027,-1.2152338,0.78232574,-1.2143936,-0.9589966,-0.0010620117,-0.30373535,86.0
38028,-1.162837,0.096138,-1.078743,-0.9589966,-0.0010620117,-0.30373535,86.0
38029,-1.162837,0.096138,-1.078743,-1.4815063,-0.0031860352,-0.014868164,86.0
38030,-0.97704697,-0.05117035,-0.58909225,-1.4815063,-0.0031860352,-0.014868164,86.0
38031,-0.97704697,-0.05117035,-0.58909225,-1.545227,-0.050976563,-0.15823975,86.0
38032,-0.6264496,-1.1629562,-0.16913986,-1.545227,-0.050976563,-0.15823975,86.0
38033,-0.6264496,-1.1629562,-0.16913986,-0.6117188,-0.09239502,-0.057348635,86.0
38034,-0.23942852,-1.2308655,-0.112594604,-0.6117188,-0.09239502,-0.057348635,86.0
38035,-0.23942852,-1.2308655,-0.112594604,-0.5150757,-0.07646485,-0.010620117,86.0
38036,0.7947607,-1.3181229,0.31682205,-0.5150757,-0.07646485,-0.010620117,86.0
38037,0.7947607,-1.3181229,0.31682205,-0.14337158,0.007434082,0.007434082,86.0
38038,0.7664108,-0.99214935,0.63952637,-0.14337158,0.007434082,0.007434082,86.0
38039,0.7664108,-0.99214935,0.63952637,-0.027612304,0.020178223,0.059472658,86.0
38040,0.13132954,-0.02533722,1.621788,-0.027612304,0.020178223,0.059472658,86.0
38041,0.13132954,-0.02533722,1.621788,-0.42799073,-0.025488282,0.12850343,86.0
38042,-0.10558128,0.47637177,1.4400673,-0.42799073,-0.025488282,0.12850343,86.0
38043,-0.10558128,0.47637177,1.4400673,-0.6669434,-0.059472658,0.17841797,86.0
38044,-0.3000164,1.0948639,1.146038,-0.6669434,-0.059472658,0.17841797,86.0
38045,-0.3000164,1.0948639,1.146038,-0.8782837,-0.17629395,0.22939454,86.0
38046,-0.27828217,0.74394226,0.8455658,-0.8782837,-0.17629395,0.22939454,86.0
38047,-0.27828217,0.74394226,0.8455658,-0.75296634,-0.3090454,0.39613038,86.0
38048,-0.17735004,-0.096336365,0.36034012,-0.75296634,-0.3090454,0.39613038,86.0
38049,-0.17735004,-0.096336365,0.36034012,-0.49383545,-0.42161867,0.34727785,86.0
38050,0.108169556,-0.58657837,-0.33945084,-0.49383545,-0.42161867,0.34727785,86.0
38051,0.108169556,-0.58657837,-0.33945084,-0.16567384,-0.43861085,0.28674316,86.0
38052,0.2592411,-0.695755,-1.0775528,-0.16567384,-0.43861085,0.28674316,86.0
38053,0.2592411,-0.695755,-1.0775528,0.16567384,-0.30373535,0.12000733,86.0
38054,0.15569592,-0.42988586,-1.3923645,0.16567384,-0.30373535,0.12000733,86.0
38055,0.15569592,-0.42988586,-1.3923645,-0.19753419,-0.23151855,0.07540283,86.0
38056,0.09309864,-0.076927185,-0.98246,-0.19753419,-0.23151855,0.07540283,86.0
38057,0.09309864,-0.076927185,-0.98246,-0.62552494,-0.23895264,-0.032922365,86.0
38058,0.20414257,-0.23080444,-0.19833374,-0.62552494,-0.23895264,-0.032922365,86.0
38059,0.20414257,-0.23080444,-0.19833374,-0.6531372,-0.28568116,-0.038232423,86.0
38060,0.19676113,-0.54241943,0.50294113,-0.6531372,-0.28568116,-0.038232423,86.0
38061,0.19676113,-0.54241943,0.50294113,-0.3175415,-0.34940186,-0.008496094,86.0
38062,-0.05084324,-0.2868805,0.71697617,-0.3175415,-0.34940186,-0.008496094,86.0
38063,-0.05084324,-0.2868805,0.71697617,-0.30373535,-0.4439209,0.022302246,86.0
38064,-0.05084324,-0.2868805,0.71697617,-0.30373535,-0.4439209,0.022302246,85.0
38065,-0.28137207,0.47449493,0.37006378,-0.30373535,-0.4439209,0.022302246,85.0
38066,-0.28137207,0.47449493,0.37006378,-0.80819094,-0.5649902,0.029736329,85.0
38067,-0.15795898,0.6885071,-0.1723938,-0.80819094,-0.5649902,0.029736329,85.0
38068,-0.15795898,0.6885071,-0.1723938,-1.081128,-0.6053467,-0.007434082,85.0
38069,0.2522831,0.031295776,-0.366539,-1.081128,-0.6053467,-0.007434082,85.0
38070,0.2522831,0.031295776,-0.366539,-0.5607422,-0.5883545,0.039294433,85.0
38071,0.4627037,-0.51602936,0.07175827,-0.5607422,-0.5883545,0.039294433,85.0
38072,0.4627037,-0.51602936,0.07175827,-0.21452637,-0.5851685,0.0053100586,85.0
38073,0.28176022,-0.6030426,0.5799637,-0.21452637,-0.5851685,0.0053100586,85.0
38074,0.28176022,-0.6030426,0.5799637,-0.043542482,-0.5979126,-0.10301514,85.0
38075,0.045354843,-0.62454987,0.4752121,-0.043542482,-0.5979126,-0.10301514,85.0
38076,0.045354843,-0.62454987,0.4752121,0.033984374,-0.5809204,-0.1709839,85.0
38077,0.17516327,-0.26970673,-0.07311249,0.033984374,-0.5809204,-0.1709839,85.0
38078,0.17516327,-0.26970673,-0.07311249,-0.14018555,-0.51188964,-0.10407715,85.0
38079,0.43825054,0.44445038,-0.28814316,-0.14018555,-0.51188964,-0.10407715,85.0
38080,0.43825054,0.44445038,-0.28814316,-0.45772704,-0.44179687,-0.19541016,85.0
38081,0.28640366,0.68891907,0.05173874,-0.45772704,-0.44179687,-0.19541016,85.0
38082,0.28640366,0.68891907,0.05173874,-0.14018555,-0.44710693,-0.10513916,85.0
38083,-0.11835003,0.102256775,0.33602142,-0.14018555,-0.44710693,-0.10513916,85.0
38084,-0.11835003,0.102256775,0.33602142,0.33878174,-0.41949463,-0.16248779,85.0
38085,-0.21212387,-0.74313354,0.23820114,0.33878174,-0.41949463,-0.16248779,85.0
38086,-0.21212387,-0.74313354,0.23820114,0.35577393,-0.44179687,-0.19753419,85.0
38087,0.08993244,-1.3127289,-0.046928406,0.35577393,-0.44179687,-0.19753419,85.0
38088,0.08993244,-1.3127289,-0.046928406,0.3982544,-0.4439209,-0.33240968,85.0
38089,0.31386566,-1.6164551,-0.045207977,0.3982544,-0.4439209,-0.33240968,85.0
38090,0.31386566,-1.6164551,-0.045207977,0.68712157,-0.4704712,-0.4694092,85.0
38091,0.22262573,-1.7223282,0.2035675,0.68712157,-0.4704712,-0.4694092,85.0
38092,0.22262573,-1.7223282,0.2035675,0.83474123,-0.48427734,-0.6924316,85.0
38093,0.19282246,-1.2868118,0.06717682,0.83474123,-0.48427734,-0.6924316,85.0
38094,0.19282246,-1.2868118,0.06717682,0.46622315,-0.49171144,-0.8071289,85.0
38095,0.66148376,-0.399498,-0.8205147,0.46622315,-0.49171144,-0.8071289,85.0
38096,0.66148376,-0.399498,-0.8205147,0.39188233,-0.37595215,-0.89421386,85.0
38097,1.5042114,0.21707153,-1.9469757,0.39188233,-0.37595215,-0.89421386,85.0
38098,1.5042114,0.21707153,-1.9469757,0.53100586,-0.13168946,-1.0397094,85.0
38099,2.2245235,0.39165497,-2.2892456,0.53100586,-0.13168946,-1.0397094,85.0
38100,2.2245235,0.39165497,-2.2892456,0.6595093,0.16461182,-1.1384766,85.0
38101,2.38665,0.2748108,-1.5318756,0.6595093,0.16461182,-1.1384766,85.0
38102,2.38665,0.2748108,-1.5318756,1.3455689,0.3993164,-1.2765381,85.0
38103,1.9326601,0.59067535,-0.52536774,1.3455689,0.3993164,-1.2765381,85.0
38104,1.9326601,0.59067535,-0.52536774,1.8691406,0.52675784,-1.177771,85.0
38105,1.3791971,1.9352951,-0.08082962,1.8691406,0.52675784,-1.177771,85.0
38106,1.3791971,1.9352951,-0.08082962,1.7363892,0.5533081,-0.8591675,85.0
38107,0.9019909,2.6668243,0.18532562,1.7363892,0.5533081,-0.8591675,85.0
38108,0.9019909,2.6668243,0.18532562,2.1134033,0.4715332,-0.7890747,85.0
38109,0.034727097,1.4355011,0.6958084,2.1134033,0.4715332,-0.7890747,85.0
38110,0.034727097,1.4355011,0.6958084,3.2030275,0.58304447,-0.6966797,85.0
38111,-1.1468887,0.3731537,1.2183685,3.2030275,0.58304447,-0.6966797,85.0
38112,-1.1468887,0.3731537,1.2183685,3.352771,0.6000366,-0.3525879,85.0
38113,-2.0204897,0.9103241,1.5508194,3.352771,0.6000366,-0.3525879,85.0
38114,-2.0204897,0.9103241,1.5508194,2.3640382,0.61702883,-0.21452637,85.0
38115,-2.5769749,1.5416489,1.6189423,2.3640382,0.61702883,-0.21452637,85.0
38116,-2.5769749,1.5416489,1.6189423,1.3307008,0.4704712,-0.11363526,85.0
38117,-3.0008984,1.3066711,1.3399773,1.3307008,0.4704712,-0.11363526,85.0
38118,-3.0008984,1.3066711,1.3399773,0.6202149,0.2803711,-0.045666505,85.0
38119,-2.9144402,0.6512222,0.7781601,0.6202149,0.2803711,-0.045666505,85.0
38120,-2.9144402,0.6512222,0.7781601,0.09664307,0.17416993,0.052038576,85.0
38121,-2.3149137,-0.27436066,0.163311,0.09664307,0.17416993,0.052038576,85.0
38122,-2.3149137,-0.27436066,0.163311,-0.09451904,0.22727051,0.035046387,85.0
38123,-1.6441917,-0.9502716,-0.17456055,-0.09451904,0.22727051,0.035046387,85.0
38124,-1.6441917,-0.9502716,-0.17456055,-0.015930176,0.40993652,0.058410645,85.0
38125,-1.3099823,-0.9422226,-0.0030059814,-0.015930176,0.40993652,0.058410645,85.0
38126,-1.3099823,-0.9422226,-0.0030059814,0.3451538,0.34833986,0.06584473,85.0
38127,-1.1302242,-0.37262726,0.38017273,0.3451538,0.34833986,0.06584473,85.0
38128,-1.1302242,-0.37262726,0.38017273,0.44710693,0.30161133,0.21346436,85.0
38129,-0.8056326,0.4141693,0.43611908,0.44710693,0.30161133,0.21346436,85.0
38130,-0.8056326,0.4141693,0.43611908,-0.34833986,0.21134034,0.24532472,85.0
38131,-0.36112022,0.5546875,-0.04977417,-0.34833986,0.21134034,0.24532472,85.0
38132,-0.36112022,0.5546875,-0.04977417,-0.83049315,0.1709839,0.14230958,85.0
38133,0.18219757,-0.12882233,-0.54034424,-0.83049315,0.1709839,0.14230958,85.0
38134,0.18219757,-0.12882233,-0.54034424,-0.77102053,0.15505372,0.04991455,85.0
38135,0.6235781,-0.9124985,-0.55046463,-0.77102053,0.15505372,0.04991455,85.0
38136,0.6235781,-0.9124985,-0.55046463,-0.19753419,0.20284425,0.019116212,85.0
38137,0.7893162,-0.92723083,-0.36470032,-0.19753419,0.20284425,0.019116212,85.0
38138,0.7893162,-0.92723083,-0.36470032,0.08602295,0.19222413,0.045666505,85.0
38139,0.83168507,-0.21374512,-0.22672272,0.08602295,0.19222413,0.045666505,85.0
38140,0.83168507,-0.21374512,-0.22672272,0.09133301,0.13699952,0.04248047,85.0
38141,0.95723057,0.38142395,-0.091293335,0.09133301,0.13699952,0.04248047,85.0
38142,0.95723057,0.38142395,-0.091293335,-0.10195313,0.08283692,0.052038576,85.0
38143,0.84830475,0.3837433,0.26411057,-0.10195313,0.08283692,0.052038576,85.0
38144,0.84830475,0.3837433,0.26411057,-0.22408448,0.06265869,0.08602295,85.0
38145,0.5491028,-0.73540497,0.76374435,-0.22408448,0.06265869,0.08602295,85.0
38146,0.5491028,-0.73540497,0.76374435,-0.0637207,-0.04460449,0.15505372,85.0
38147,0.61209774,-1.7039337,0.6596527,-0.0637207,-0.04460449,0.15505372,85.0
38148,0.61209774,-1.7039337,0.6596527,0.6287109,0.10620117,0.032922365,85.0
38149,0.75662136,-0.6550064,0.13656998,0.6287109,0.10620117,0.032922365,85.0
38150,0.75662136,-0.6550064,0.13656998,0.09451904,-0.0637207,-0.083898924,85.0
38151,0.6747303,0.69721985,-0.09560394,0.09451904,-0.0637207,-0.083898924,85.0
38152,0.6747303,0.69721985,-0.09560394,-0.26868898,-0.1539917,-0.1444336,85.0
38153,0.5249891,0.9137955,-0.1736641,-0.26868898,-0.1539917,-0.1444336,85.0
38154,0.5249891,0.9137955,-0.1736641,-0.13699952,-0.14230958,-0.12956543,85.0
38155,0.5249891,0.9137955,-0.1736641,-0.13699952,-0.14230958,-0.12956543,78.0
38156,0.34993553,0.4826355,-0.2745514,-0.13699952,-0.14230958,-0.12956543,78.0
38157,0.34993553,0.4826355,-0.2745514,0.07646485,-0.08283692,-0.19434814,78.0
38158,0.18445301,0.029220581,-0.28944016,0.07646485,-0.08283692,-0.19434814,78.0
38159,0.18445301,0.029220581,-0.28944016,0.43967286,0.021240234,0.0,78.0
38160,0.033842087,0.025566101,-0.22262955,0.43967286,0.021240234,0.0,78.0
38161,0.033842087,0.025566101,-0.22262955,0.39506838,0.013806152,0.07115479,78.0
38162,-0.15716743,0.36317444,-0.16405487,0.39506838,0.013806152,0.07115479,78.0
38163,-0.15716743,0.36317444,-0.16405487,0.14549561,-0.025488282,0.08602295,78.0
38164,-0.32314682,0.36183167,-0.18602753,0.14549561,-0.025488282,0.08602295,78.0
38165,-0.32314682,0.36183167,-0.18602753,-0.08602295,-0.093457036,-0.0180542,78.0
38166,-0.3412571,-0.29384613,-0.24285507,-0.08602295,-0.093457036,-0.0180542,78.0
38167,-0.3412571,-0.29384613,-0.24285507,-0.040356446,-0.12850343,-0.10195313,78.0
38168,-0.27414036,-0.92549133,-0.17380142,-0.040356446,-0.12850343,-0.10195313,78.0
38169,-0.27414036,-0.92549133,-0.17380142,0.541626,-0.11682129,-0.11363526,78.0
38170,-0.17456055,-0.5804825,-0.08369446,0.541626,-0.11682129,-0.11363526,78.0
38171,-0.17456055,-0.5804825,-0.08369446,0.54375,-0.107263185,-0.090270996,78.0
38172,-0.095617294,0.33694458,-0.093105316,0.54375,-0.107263185,-0.090270996,78.0
38173,-0.095617294,0.33694458,-0.093105316,0.17841797,-0.10513916,-0.11363526,78.0
38174,-0.11862087,0.7457886,-0.13037872,0.17841797,-0.10513916,-0.11363526,78.0
38175,-0.11862087,0.7457886,-0.13037872,-0.13806152,-0.13487549,-0.11044922,78.0
38176,-0.15534592,0.6048813,-0.18824005,-0.13806152,-0.13487549,-0.11044922,78.0
38177,-0.15534592,0.6048813,-0.18824005,0.0063720704,-0.11469727,-0.095581055,78.0
38178,0.02124405,0.45321655,-0.31742477,0.0063720704,-0.11469727,-0.095581055,78.0
38179,0.02124405,0.45321655,-0.31742477,0.30479738,-0.08602295,-0.07434082,78.0
38180,0.30025864,0.50351715,-0.32276535,0.30479738,-0.08602295,-0.07434082,78.0
38181,0.30025864,0.50351715,-0.32276535,0.4322388,-0.04141846,0.009558106,78.0
38182,0.34792233,0.50888824,0.013221741,0.4322388,-0.04141846,0.009558106,78.0
38183,0.34792233,0.50888824,0.013221741,0.45666504,-0.0541626,0.022302246,78.0
38184,0.2391777,0.2853546,0.38912964,0.45666504,-0.0541626,0.022302246,78.0
38185,0.2391777,0.2853546,0.38912964,0.16992188,-0.0637207,-0.03079834,78.0
38186,0.14853287,-0.18888855,0.5280304,0.16992188,-0.0637207,-0.03079834,78.0
38187,0.14853287,-0.18888855,0.5280304,-0.13168946,-0.13699952,-0.035046387,78.0
38188,0.073391914,-0.6231308,0.48669434,-0.13168946,-0.13699952,-0.035046387,78.0
38189,0.073391914,-0.6231308,0.48669434,-0.1263794,-0.15930176,-0.040356446,78.0
38190,0.07372856,-0.75351715,0.3684845,-0.1263794,-0.15930176,-0.040356446,78.0
38191,0.07372856,-0.75351715,0.3684845,-0.025488282,-0.15186767,-0.046728518,78.0
38192,0.20789623,-0.6688309,0.2251091,-0.025488282,-0.15186767,-0.046728518,78.0
38193,0.20789623,-0.6688309,0.2251091,0.19116211,-0.13381349,0.032922365,78.0
38194,0.2774868,-0.31819916,0.17964935,0.19116211,-0.13381349,0.032922365,78.0
38195,0.2774868,-0.31819916,0.17964935,0.11044922,-0.14655761,0.14761963,78.0
38196,0.14620781,0.16759491,0.20550919,0.11044922,-0.14655761,0.14761963,78.0
38197,0.14620781,0.16759491,0.20550919,0.09239502,-0.16779785,0.21027832,78.0
38198,-0.033729553,0.4488678,0.1677742,0.09239502,-0.16779785,0.21027832,78.0
38199,-0.033729553,0.4488678,0.1677742,-0.32603762,-0.19434814,0.18160401,78.0
38200,-0.116033554,0.33514404,-0.028259277,-0.32603762,-0.19434814,0.18160401,78.0
38201,-0.116033554,0.33514404,-0.028259277,-0.3334717,-0.13912354,0.23045655,78.0
38202,0.052571297,0.23911285,-0.37411118,-0.3334717,-0.13912354,0.23045655,78.0
38203,0.052571297,0.23911285,-0.37411118,-0.20921631,-0.07327881,0.29099122,78.0
38204,0.38469696,0.41941833,-0.63360214,-0.20921631,-0.07327881,0.29099122,78.0
38205,0.38469696,0.41941833,-0.63360214,-0.09451904,0.028674318,0.3802002,78.0
38206,0.38688374,0.507637,-0.48397064,-0.09451904,0.028674318,0.3802002,78.0
38207,0.38688374,0.507637,-0.48397064,-0.057348635,0.045666505,0.3717041,78.0
38208,0.009885788,0.21356964,0.055854797,-0.057348635,0.045666505,0.3717041,78.0
38209,0.009885788,0.21356964,0.055854797,0.10407715,0.007434082,0.24851075,78.0
38210,-0.29722977,-0.04624176,0.52721786,0.10407715,0.007434082,0.24851075,78.0
38211,-0.29722977,-0.04624176,0.52721786,0.040356446,-0.010620117,0.18054199,78.0
38212,-0.41484642,0.052261353,0.56194687,0.040356446,-0.010620117,0.18054199,78.0
38213,-0.41484642,0.052261353,0.56194687,-0.29736328,-0.060534667,0.11257324,78.0
38214,-0.42104912,0.12549591,0.32220078,-0.29736328,-0.060534667,0.11257324,78.0
38215,-0.42104912,0.12549591,0.32220078,-0.3154175,-0.08920898,0.045666505,78.0
38216,-0.36047173,0.0059661865,0.0063476562,-0.3154175,-0.08920898,0.045666505,78.0
38217,-0.36047173,0.0059661865,0.0063476562,-0.18266602,-0.06478272,-0.004248047,78.0
38218,-0.19579887,-0.063941956,-0.2890625,-0.18266602,-0.06478272,-0.004248047,78.0
38219,-0.19579887,-0.063941956,-0.2890625,-0.16992188,-0.007434082,-0.06159668,78.0
38220,0.08686638,0.058921814,-0.4294815,-0.16992188,-0.007434082,-0.06159668,78.0
38221,0.08686638,0.058921814,-0.4294815,-0.14018555,-0.0021240234,0.06903076,78.0
38222,0.24754524,0.20801544,-0.29188538,-0.14018555,-0.0021240234,0.06903076,78.0
38223,0.24754524,0.20801544,-0.29188538,0.22302246,-0.025488282,0.16036378,78.0
38224,0.18527985,0.35554504,0.030483246,0.22302246,-0.025488282,0.16036378,78.0
38225,0.18527985,0.35554504,0.030483246,0.24001466,-0.047790527,0.21240234,78.0
38226,0.05606079,0.42404938,0.17629242,0.24001466,-0.047790527,0.21240234,78.0
38227,0.05606079,0.42404938,0.17629242,-0.32816163,-0.0180542,0.2824951,78.0
38228,-0.041064262,0.07897186,0.06706238,-0.32816163,-0.0180542,0.2824951,78.0
38229,-0.041064262,0.07897186,0.06706238,-0.63614506,-0.046728518,0.23682861,78.0
38230,0.00699234,-0.50839996,-0.17330551,-0.63614506,-0.046728518,0.23682861,78.0
38231,0.00699234,-0.50839996,-0.17330551,-0.23151855,-0.019116212,0.22833252,78.0
38232,0.17240334,-0.67516327,-0.40364838,-0.23151855,-0.019116212,0.22833252,78.0
38233,0.17240334,-0.67516327,-0.40364838,0.22302246,0.04248047,0.18903808,78.0
38234,0.21986866,-0.36626434,-0.388031,0.22302246,0.04248047,0.18903808,78.0
38235,0.21986866,-0.36626434,-0.388031,0.2548828,0.043542482,0.14549561,78.0
38236,0.12602901,-0.09587097,-0.04673004,0.2548828,0.043542482,0.14549561,78.0
38237,0.12602901,-0.09587097,-0.04673004,0.27399904,0.0063720704,0.09770508,78.0
38238,0.06622887,-0.03352356,0.37460327,0.27399904,0.0063720704,0.09770508,78.0
38239,0.06622887,-0.03352356,0.37460327,0.2347046,-0.010620117,0.04885254,78.0
38240,0.11837673,0.087638855,0.4520645,0.2347046,-0.010620117,0.04885254,78.0
38241,0.11837673,0.087638855,0.4520645,0.19647217,0.020178223,0.0541626,78.0
38242,0.14326096,0.3963089,0.16215134,0.19647217,0.020178223,0.0541626,78.0
38243,0.14326096,0.3963089,0.16215134,0.0722168,0.09664307,0.047790527,78.0
38244,0.020968437,0.6880417,-0.04616928,0.0722168,0.09664307,0.047790527,78.0
38245,0.020968437,0.6880417,-0.04616928,-0.19328614,0.19222413,0.027612304,78.0
38246,-0.15252495,0.6076584,-0.095703125,-0.19328614,0.19222413,0.027612304,78.0
38247,-0.15252495,0.6076584,-0.095703125,-0.21346436,0.23364258,-0.020178223,78.0
38248,-0.1780014,0.18234253,0.2049408,-0.21346436,0.23364258,-0.020178223,78.0
38249,-0.1780014,0.18234253,0.2049408,0.029736329,0.19541016,-0.039294433,78.0
38250,-0.04130268,-0.057861328,1.0106468,0.029736329,0.19541016,-0.039294433,78.0
38251,-0.04130268,-0.057861328,1.0106468,-0.34833986,0.0722168,-0.029736329,78.0
38252,-0.010385513,-0.14692688,1.5028648,-0.34833986,0.0722168,-0.029736329,78.0
38253,-0.010385513,-0.14692688,1.5028648,-0.4439209,-0.021240234,-0.004248047,78.0
38254,-0.010385513,-0.14692688,1.5028648,-0.4439209,-0.021240234,-0.004248047,77.0
38255,-0.08108711,-0.11231232,0.9918442,-0.4439209,-0.021240234,-0.004248047,77.0
38256,-0.08108711,-0.11231232,0.9918442,-0.4598511,0.0021240234,-0.009558106,77.0
38257,-0.12691784,-0.0065612793,-0.23533249,-0.4598511,0.0021240234,-0.009558106,77.0
38258,-0.12691784,-0.0065612793,-0.23533249,0.115759276,0.004248047,-0.14018555,77.0
38259,-0.21967411,0.36190033,-1.4063339,0.115759276,0.004248047,-0.14018555,77.0
38260,-0.21967411,0.36190033,-1.4063339,0.5968506,0.18266602,0.0021240234,77.0
38261,-0.5010443,0.8317337,-1.7331734,0.5968506,0.18266602,0.0021240234,77.0
38262,-0.5010443,0.8317337,-1.7331734,0.36639404,0.16354981,-0.1539917,77.0
38263,-0.5967827,0.39313507,-1.3721848,0.36639404,0.16354981,-0.1539917,77.0
38264,-0.5967827,0.39313507,-1.3721848,1.1151123,0.18903808,-0.14868164,77.0
38265,-0.1905117,-0.26702118,-0.81853485,1.1151123,0.18903808,-0.14868164,77.0
38266,-0.1905117,-0.26702118,-0.81853485,1.3402588,0.17416993,-0.026550293,77.0
38267,0.23990059,0.26563263,-0.05525589,1.3402588,0.17416993,-0.026550293,77.0
38268,0.23990059,0.26563263,-0.05525589,0.6818115,0.14549561,0.1359375,77.0
38269,0.2631855,0.80750275,0.7422104,0.6818115,0.14549561,0.1359375,77.0
38270,0.2631855,0.80750275,0.7422104,-0.115759276,-0.07434082,0.13381349,77.0
38271,0.20901108,0.11152649,0.9181709,-0.115759276,-0.07434082,0.13381349,77.0
38272,0.20901108,0.11152649,0.9181709,0.1083252,0.0,0.18054199,77.0
38273,0.25315857,-0.49338531,0.3939743,0.1083252,0.0,0.18054199,77.0
38274,0.25315857,-0.49338531,0.3939743,-0.060534667,0.026550293,0.23895264,77.0
38275,0.26365948,-0.43711853,-0.27011108,-0.060534667,0.026550293,0.23895264,77.0
38276,0.26365948,-0.43711853,-0.27011108,-0.3727661,0.09133301,0.24107666,77.0
38277,0.12405014,-0.38632965,-0.43346024,-0.3727661,0.09133301,0.24107666,77.0
38278,0.12405014,-0.38632965,-0.43346024,-0.6064087,0.11682129,0.15823975,77.0
38279,-0.052455902,-0.69512177,-0.11014557,-0.6064087,0.11682129,0.15823975,77.0
38280,-0.052455902,-0.69512177,-0.11014557,-0.5713623,0.08602295,0.039294433,77.0
38281,-0.06703758,-1.011589,0.23981476,-0.5713623,0.08602295,0.039294433,77.0
38282,-0.06703758,-1.011589,0.23981476,-0.2824951,0.14337158,0.008496094,77.0
38283,0.02487278,-0.8606262,0.35533905,-0.2824951,0.14337158,0.008496094,77.0
38284,0.02487278,-0.8606262,0.35533905,-0.15717773,0.14655761,-0.043542482,77.0
38285,0.12883377,-0.2837143,0.19013214,-0.15717773,0.14655761,-0.043542482,77.0
38286,0.12883377,-0.2837143,0.19013214,-0.40250245,0.14974366,-0.05628662,77.0
38287,0.18542767,0.14893341,-0.13157272,-0.40250245,0.14974366,-0.05628662,77.0
38288,0.18542767,0.14893341,-0.13157272,-0.43011475,0.13912354,-0.08071289,77.0
38289,0.15894985,0.06706238,-0.3451004,-0.43011475,0.13912354,-0.08071289,77.0
38290,0.15894985,0.06706238,-0.3451004,-0.17947999,0.07115479,-0.1444336,77.0
38291,0.16378117,-0.20973206,-0.31118774,-0.17947999,0.07115479,-0.1444336,77.0
38292,0.16378117,-0.20973206,-0.31118774,0.16036378,0.0637207,-0.16142578,77.0
38293,0.25531673,-0.25457764,-0.10771561,0.16036378,0.0637207,-0.16142578,77.0
38294,0.25531673,-0.25457764,-0.10771561,0.36639404,0.03186035,-0.16142578,77.0
38295,0.35469246,-0.032691956,2.0599365E-4,0.36639404,0.03186035,-0.16142578,77.0
38296,0.35469246,-0.032691956,2.0599365E-4,0.3069214,0.027612304,-0.20603028,77.0
38297,0.4376974,0.1957779,-0.044937134,0.3069214,0.027612304,-0.20603028,77.0
38298,0.4376974,0.1957779,-0.044937134,0.0361084,-0.033984374,-0.1901001,77.0
38299,0.4653921,0.23410034,-0.1027832,0.0361084,-0.033984374,-0.1901001,77.0
38300,0.4653921,0.23410034,-0.1027832,0.21134034,-0.04991455,-0.121069334,77.0
38301,0.3879385,0.2401123,-0.07833481,0.21134034,-0.04991455,-0.121069334,77.0
38302,0.3879385,0.2401123,-0.07833481,0.29948732,0.012744141,-0.09239502,77.0
38303,0.14940166,0.12640381,0.049259186,0.29948732,0.012744141,-0.09239502,77.0
38304,0.14940166,0.12640381,0.049259186,0.14549561,0.0021240234,-0.13487549,77.0
38305,-0.12100601,-0.10107422,0.2023468,0.14549561,0.0021240234,-0.13487549,77.0
38306,-0.12100601,-0.10107422,0.2023468,0.08920898,-0.07752686,-0.10620117,77.0
38307,-0.19400978,-0.1324997,0.2854843,0.08920898,-0.07752686,-0.10620117,77.0
38308,-0.19400978,-0.1324997,0.2854843,0.19434814,-0.0361084,-0.115759276,77.0
38309,-0.19816399,-0.004058838,0.22338104,0.19434814,-0.0361084,-0.115759276,77.0
38310,-0.19816399,-0.004058838,0.22338104,0.1996582,-0.043542482,-0.10620117,77.0
38311,-0.30132866,0.09590149,0.01304245,0.1996582,-0.043542482,-0.10620117,77.0
38312,-0.30132866,0.09590149,0.01304245,0.20284425,-0.012744141,-0.1083252,77.0
38313,-0.48395824,0.1505661,-0.20560837,0.20284425,-0.012744141,-0.1083252,77.0
38314,-0.48395824,0.1505661,-0.20560837,0.07965088,0.0053100586,-0.13912354,77.0
38315,-0.69593143,0.12739563,-0.31455994,0.07965088,0.0053100586,-0.13912354,77.0
38316,-0.69593143,0.12739563,-0.31455994,-0.0361084,0.04885254,-0.15611573,77.0
38317,-0.89344025,-0.10764313,-0.27365494,-0.0361084,0.04885254,-0.15611573,77.0
38318,-0.89344025,-0.10764313,-0.27365494,0.04991455,0.008496094,-0.23258057,77.0
38319,-0.86724186,-0.18409729,-0.08294678,0.04991455,0.008496094,-0.23258057,77.0
38320,-0.86724186,-0.18409729,-0.08294678,-0.070092775,0.045666505,-0.17735596,77.0
38321,-0.5739689,0.024620056,0.10253906,-0.070092775,0.045666505,-0.17735596,77.0
38322,-0.5739689,0.024620056,0.10253906,-0.27718505,-0.07327881,-0.1359375,77.0
38323,-0.20418262,0.16762543,-0.010375977,-0.27718505,-0.07327881,-0.1359375,77.0
38324,-0.20418262,0.16762543,-0.010375977,-0.0637207,-0.004248047,-0.21346436,77.0
38325,0.013460159,0.23552704,-0.21551514,-0.0637207,-0.004248047,-0.21346436,77.0
38326,0.013460159,0.23552704,-0.21551514,-0.04885254,0.013806152,-0.081774905,77.0
38327,0.032984734,0.10221863,-0.23021317,-0.04885254,0.013806152,-0.081774905,77.0
38328,0.032984734,0.10221863,-0.23021317,-0.033984374,0.010620117,-0.16567384,77.0
38329,0.06661034,-0.0033187866,-0.16169739,-0.033984374,0.010620117,-0.16567384,77.0
38330,0.06661034,-0.0033187866,-0.16169739,0.08602295,0.013806152,0.038232423,77.0
38331,0.12773895,0.11994171,-0.17404556,0.08602295,0.013806152,0.038232423,77.0
38332,0.12773895,0.11994171,-0.17404556,0.22514649,0.095581055,0.027612304,77.0
38333,0.03878784,0.27189636,-0.11632538,0.22514649,0.095581055,0.027612304,77.0
38334,0.03878784,0.27189636,-0.11632538,0.11257324,0.09239502,0.0722168,77.0
38335,-0.025170326,0.34095764,0.2772293,0.11257324,0.09239502,0.0722168,77.0
38336,-0.025170326,0.34095764,0.2772293,-0.3334717,0.008496094,-0.004248047,77.0
38337,0.044573784,0.112220764,0.83169556,-0.3334717,0.008496094,-0.004248047,77.0
38338,0.044573784,0.112220764,0.83169556,-0.66588134,-0.040356446,0.021240234,77.0
38339,-0.090646744,-0.49105835,1.1311378,-0.66588134,-0.040356446,0.021240234,77.0
38340,-0.090646744,-0.49105835,1.1311378,-0.5628662,-0.13381349,-0.04248047,77.0
38341,-0.3313675,-0.6599045,0.8206825,-0.5628662,-0.13381349,-0.04248047,77.0
38342,-0.3313675,-0.6599045,0.8206825,-0.16673584,-0.1274414,0.09239502,77.0
38343,-0.46287155,-3.5095215E-4,-0.02741623,-0.16673584,-0.1274414,0.09239502,77.0
38344,-0.46287155,-3.5095215E-4,-0.02741623,-0.16992188,-0.10195313,0.14549561,77.0
38345,-0.5821495,0.56404877,-0.7531967,-0.16992188,-0.10195313,0.14549561,77.0
38346,-0.5821495,0.56404877,-0.7531967,-0.4598511,-0.12319336,0.10407715,77.0
38347,-0.58790016,0.38095093,-0.9866867,-0.4598511,-0.12319336,0.10407715,77.0
38348,-0.58790016,0.38095093,-0.9866867,-0.4970215,-0.10195313,0.050976563,77.0
38349,-0.58790016,0.38095093,-0.9866867,-0.4970215,-0.10195313,0.050976563,76.0
38350,-0.3571005,-0.20532227,-0.8445282,-0.4970215,-0.10195313,0.050976563,76.0
38351,-0.3571005,-0.20532227,-0.8445282,-0.13275146,-0.023364259,0.08283692,76.0
38352,-0.04703331,-0.5160141,-0.46025467,-0.13275146,-0.023364259,0.08283692,76.0
38353,-0.04703331,-0.5160141,-0.46025467,0.15611573,0.025488282,0.11044922,76.0
38354,0.20900345,-0.29567719,-0.088970184,0.15611573,0.025488282,0.11044922,76.0
38355,0.20900345,-0.29567719,-0.088970184,0.06478272,-0.0031860352,0.19434814,76.0
38356,0.43691635,0.08495331,-0.07166672,0.06478272,-0.0031860352,0.19434814,76.0
38357,0.43691635,0.08495331,-0.07166672,-0.05522461,0.04460449,0.1731079,76.0
38358,0.6496191,0.17719269,-0.23392105,-0.05522461,0.04460449,0.1731079,76.0
38359,0.6496191,0.17719269,-0.23392105,-0.26125488,0.06265869,0.115759276,76.0
38360,0.908062,-0.23129272,-0.11203003,-0.26125488,0.06265869,0.115759276,76.0
38361,0.908062,-0.23129272,-0.11203003,-0.18054199,0.07434082,0.014868164,76.0
38362,1.1119232,-0.58278656,0.33795166,-0.18054199,0.07434082,0.014868164,76.0
38363,1.1119232,-0.58278656,0.33795166,0.12213135,0.12531738,0.0541626,76.0
38364,1.0281258,-0.33881378,0.7248535,0.12213135,0.12531738,0.0541626,76.0
38365,1.0281258,-0.33881378,0.7248535,0.13381349,0.090270996,0.009558106,76.0
38366,1.1098909,-0.11412811,0.7998657,0.13381349,0.090270996,0.009558106,76.0
38367,1.1098909,-0.11412811,0.7998657,0.4343628,-0.08071289,-0.52675784,76.0
38368,1.0526466,-0.13135529,0.57136154,0.4343628,-0.08071289,-0.52675784,76.0
38369,1.0526466,-0.13135529,0.57136154,0.5883545,0.13487549,-0.04141846,76.0
38370,0.36899757,0.102249146,0.23648071,0.5883545,0.13487549,-0.04141846,76.0
38371,0.36899757,0.102249146,0.23648071,0.52038574,0.035046387,-0.032922365,76.0
38372,-0.09954071,0.5466461,0.0423584,0.52038574,0.035046387,-0.032922365,76.0
38373,-0.09954071,0.5466461,0.0423584,0.1178833,0.053100586,-0.022302246,76.0
38374,-0.27833843,0.6244507,0.03559494,0.1178833,0.053100586,-0.022302246,76.0
38375,-0.27833843,0.6244507,0.03559494,-0.18372802,-0.028674318,-0.11682129,76.0
38376,-0.24598598,0.05632019,-0.015285492,-0.18372802,-0.028674318,-0.11682129,76.0
38377,-0.24598598,0.05632019,-0.015285492,-0.038232423,-0.090270996,-0.19753419,76.0
38378,-0.032409668,-0.5163803,-0.16726685,-0.038232423,-0.090270996,-0.19753419,76.0
38379,-0.032409668,-0.5163803,-0.16726685,0.47896728,0.06903076,-0.1996582,76.0
38380,-0.09456825,-0.3691635,-0.21230316,0.47896728,0.06903076,-0.1996582,76.0
38381,-0.09456825,-0.3691635,-0.21230316,0.5278198,0.06159668,-0.16673584,76.0
38382,-0.29254913,0.2616501,-0.1635437,0.5278198,0.06159668,-0.16673584,76.0
38383,-0.29254913,0.2616501,-0.1635437,0.22514649,0.023364259,-0.11257324,76.0
38384,-0.37665462,0.5666733,-0.13684082,0.22514649,0.023364259,-0.11257324,76.0
38385,-0.37665462,0.5666733,-0.13684082,0.08071289,-0.0361084,-0.07646485,76.0
38386,-0.38014412,0.2943039,-0.22639084,0.08071289,-0.0361084,-0.07646485,76.0
38387,-0.38014412,0.2943039,-0.22639084,0.3069214,-0.007434082,-0.029736329,76.0
38388,-0.34470367,-0.029281616,-0.3447113,0.3069214,-0.007434082,-0.029736329,76.0
38389,-0.34470367,-0.029281616,-0.3447113,0.43117675,0.008496094,0.020178223,76.0
38390,-0.2937441,-0.14632416,-0.36881256,0.43117675,0.008496094,0.020178223,76.0
38391,-0.2937441,-0.14632416,-0.36881256,0.45347902,0.03186035,-0.039294433,76.0
38392,-0.2579689,-0.14073944,-0.3018875,0.45347902,0.03186035,-0.039294433,76.0
38393,-0.2579689,-0.14073944,-0.3018875,0.39613038,0.083898924,-0.014868164,76.0
38394,-0.38231564,-0.056388855,-0.048870087,0.39613038,0.083898924,-0.014868164,76.0
38395,-0.38231564,-0.056388855,-0.048870087,0.17947999,0.014868164,-0.019116212,76.0
38396,-0.36213875,0.07521057,0.38776016,0.17947999,0.014868164,-0.019116212,76.0
38397,-0.36213875,0.07521057,0.38776016,0.06584473,-0.043542482,-0.045666505,76.0
38398,-0.13095856,-0.05682373,0.79823303,0.06584473,-0.043542482,-0.045666505,76.0
38399,-0.13095856,-0.05682373,0.79823303,0.029736329,-0.1263794,-0.016992187,76.0
38400,-0.01828003,-0.35179138,0.8057976,0.029736329,-0.1263794,-0.016992187,76.0
38401,-0.01828003,-0.35179138,0.8057976,0.18372802,-0.2442627,-0.11151123,76.0
38402,0.18549824,-0.16403961,0.09054947,0.18372802,-0.2442627,-0.11151123,76.0
38403,0.18549824,-0.16403961,0.09054947,0.42161867,-0.21027832,-0.07646485,76.0
38404,0.44416332,0.36432648,-0.8661957,0.42161867,-0.21027832,-0.07646485,76.0
38405,0.44416332,0.36432648,-0.8661957,0.44498292,-0.045666505,-0.081774905,76.0
38406,0.39732265,0.7692795,-1.1955109,0.44498292,-0.045666505,-0.081774905,76.0
38407,0.39732265,0.7692795,-1.1955109,0.08814698,0.028674318,-0.052038576,76.0
38408,0.05331993,0.77668,-0.7843628,0.08814698,0.028674318,-0.052038576,76.0
38409,0.05331993,0.77668,-0.7843628,-0.115759276,0.05628662,-0.07752686,76.0
38410,-0.16264153,0.37584686,-0.19428635,-0.115759276,0.05628662,-0.07752686,76.0
38411,-0.16264153,0.37584686,-0.19428635,-0.20921631,0.058410645,0.020178223,76.0
38412,-0.1218853,-0.022125244,0.10359192,-0.20921631,0.058410645,0.020178223,76.0
38413,-0.1218853,-0.022125244,0.10359192,-0.07434082,0.10513916,0.03717041,76.0
38414,-0.102062225,7.324219E-4,0.09780121,-0.07434082,0.10513916,0.03717041,76.0
38415,-0.102062225,7.324219E-4,0.09780121,-0.004248047,0.10407715,0.11044922,76.0
38416,-0.18788719,0.15885925,0.022651672,-0.004248047,0.10407715,0.11044922,76.0
38417,-0.18788719,0.15885925,0.022651672,0.057348635,0.1444336,0.050976563,76.0
38418,-0.28736973,0.10170746,0.1617012,0.057348635,0.1444336,0.050976563,76.0
38419,-0.28736973,0.10170746,0.1617012,-0.20072022,0.083898924,0.009558106,76.0
38420,-0.21313572,-0.21281433,0.42064285,-0.20072022,0.083898924,0.009558106,76.0
38421,-0.21313572,-0.21281433,0.42064285,-0.20496826,0.039294433,0.021240234,76.0
38422,0.051781654,-0.49521637,0.44449615,-0.20496826,0.039294433,0.021240234,76.0
38423,0.051781654,-0.49521637,0.44449615,0.20496826,0.10195313,0.07434082,76.0
38424,0.20507336,-0.24839783,0.21706009,0.20496826,0.10195313,0.07434082,76.0
38425,0.20507336,-0.24839783,0.21706009,0.09133301,0.10938721,0.053100586,76.0
38426,0.091402054,0.19026184,-0.013801575,0.09133301,0.10938721,0.053100586,76.0
38427,0.091402054,0.19026184,-0.013801575,-0.30479738,0.039294433,0.012744141,76.0
38428,-0.04882717,0.17996979,-0.044525146,-0.30479738,0.039294433,0.012744141,76.0
38429,-0.04882717,0.17996979,-0.044525146,-0.34940186,-0.009558106,-0.0063720704,76.0
38430,-0.026756287,-0.17797089,0.06495285,-0.34940186,-0.009558106,-0.0063720704,76.0
38431,-0.026756287,-0.17797089,0.06495285,-0.10195313,0.016992187,-0.022302246,76.0
38432,0.061969757,-0.34407043,0.18463898,-0.10195313,0.016992187,-0.022302246,76.0
38433,0.061969757,-0.34407043,0.18463898,-0.070092775,0.021240234,-0.016992187,76.0
38434,0.051223755,-0.17279053,0.23943329,-0.070092775,0.021240234,-0.016992187,76.0
38435,0.051223755,-0.17279053,0.23943329,-0.19116211,0.009558106,-0.009558106,76.0
38436,-0.05690956,0.060928345,0.19670868,-0.19116211,0.009558106,-0.009558106,76.0
38437,-0.05690956,0.060928345,0.19670868,-0.28674316,-0.040356446,0.0021240234,76.0
38438,-0.15948105,0.07456207,0.09866333,-0.28674316,-0.040356446,0.0021240234,76.0
38439,-0.15948105,0.07456207,0.09866333,-0.21134034,-0.081774905,0.0,76.0
38440,-0.18811989,-0.08219147,-0.0035171509,-0.21134034,-0.081774905,0.0,76.0
38441,-0.18811989,-0.08219147,-0.0035171509,-0.02442627,-0.0637207,-0.029736329,76.0
38442,-0.14629745,-0.14228058,-0.060943604,-0.02442627,-0.0637207,-0.029736329,76.0
38443,-0.14629745,-0.14228058,-0.060943604,-0.016992187,-0.0637207,-0.046728518,76.0
38444,-0.07718277,-0.13845825,-0.08749008,-0.016992187,-0.0637207,-0.046728518,76.0
38445,-0.07718277,-0.13845825,-0.08749008,0.04141846,-0.038232423,-0.06796875,76.0
38446,-0.06841087,-0.093444824,-0.15240097,0.04141846,-0.038232423,-0.06796875,76.0
38447,-0.06841087,-0.093444824,-0.15240097,0.06584473,-0.012744141,-0.047790527,76.0
38448,-0.118974686,0.069496155,-0.19943619,0.06584473,-0.012744141,-0.047790527,76.0
38449,-0.118974686,0.069496155,-0.19943619,-0.0361084,-0.033984374,-0.023364259,76.0
38450,-0.11058426,0.14188385,-0.15569305,-0.0361084,-0.033984374,-0.023364259,76.0
38451,-0.11058426,0.14188385,-0.15569305,0.0,-0.03079834,-0.038232423,76.0
38452,0.020529747,0.024787903,-0.09088898,0.0,-0.03079834,-0.038232423,76.0
38453,0.020529747,0.024787903,-0.09088898,0.047790527,-0.0053100586,-0.040356446,76.0
38454,0.14869976,-0.14252472,-0.103134155,0.047790527,-0.0053100586,-0.040356446,76.0
38455,0.14869976,-0.14252472,-0.103134155,0.09770508,0.0361084,-0.035046387,76.0
38456,0.13759995,-0.18480682,-0.12624359,0.09770508,0.0361084,-0.035046387,76.0
38457,0.13759995,-0.18480682,-0.12624359,-0.08602295,0.013806152,0.023364259,76.0
38458,0.11553669,-0.1357727,-0.08798218,-0.08602295,0.013806152,0.023364259,76.0
38459,0.11553669,-0.1357727,-0.08798218,0.107263185,0.03717041,0.0361084,76.0
38460,0.11553669,-0.1357727,-0.08798218,0.107263185,0.03717041,0.0361084,75.0
38461,0.05201149,-0.26058197,0.009399414,0.107263185,0.03717041,0.0361084,75.0
38462,0.05201149,-0.26058197,0.009399414,0.5894165,0.050976563,-0.0053100586,75.0
38463,-0.17577362,-0.2723465,0.18369293,0.5894165,0.050976563,-0.0053100586,75.0
38464,-0.17577362,-0.2723465,0.18369293,0.6977417,0.014868164,0.022302246,75.0
38465,-0.3781309,0.23937225,0.3184967,0.6977417,0.014868164,0.022302246,75.0
38466,-0.3781309,0.23937225,0.3184967,0.5076416,-0.025488282,0.021240234,75.0
38467,-0.39508247,0.7850418,0.3852768,0.5076416,-0.025488282,0.021240234,75.0
38468,-0.39508247,0.7850418,0.3852768,0.040356446,-0.11044922,-0.010620117,75.0
38469,-0.3139906,0.6178131,0.30610657,0.040356446,-0.11044922,-0.010620117,75.0
38470,-0.3139906,0.6178131,0.30610657,-0.027612304,-0.1359375,0.0063720704,75.0
38471,-0.23589706,0.2646637,-0.051254272,-0.027612304,-0.1359375,0.0063720704,75.0
38472,-0.23589706,0.2646637,-0.051254272,0.019116212,-0.10407715,0.08071289,75.0
38473,-0.142807,0.3040924,-0.40434265,0.019116212,-0.10407715,0.08071289,75.0
38474,-0.142807,0.3040924,-0.40434265,-0.09133301,-0.11151123,0.095581055,75.0
38475,0.054699898,0.3160019,-0.49829102,-0.09133301,-0.11151123,0.095581055,75.0
38476,0.054699898,0.3160019,-0.49829102,-0.1709839,-0.10513916,0.07327881,75.0
38477,0.36050797,0.060264587,-0.32622147,-0.1709839,-0.10513916,0.07327881,75.0
38478,0.36050797,0.060264587,-0.32622147,0.0053100586,-0.06796875,0.05522461,75.0
38479,0.6169224,-0.24583435,-0.056900024,0.0053100586,-0.06796875,0.05522461,75.0
38480,0.6169224,-0.24583435,-0.056900024,0.18691407,-0.026550293,0.04248047,75.0
38481,0.6672802,-0.22442627,0.1883316,0.18691407,-0.026550293,0.04248047,75.0
38482,0.6672802,-0.22442627,0.1883316,0.23895264,-0.009558106,0.06478272,75.0
38483,0.5292473,0.064323425,0.28067017,0.23895264,-0.009558106,0.06478272,75.0
38484,0.5292473,0.064323425,0.28067017,0.03717041,-0.009558106,0.0722168,75.0
38485,0.3519249,0.11581421,0.08269119,0.03717041,-0.009558106,0.0722168,75.0
38486,0.3519249,0.11581421,0.08269119,-0.10938721,-0.0010620117,0.035046387,75.0
38487,0.22727966,-0.3509674,-0.2448349,-0.10938721,-0.0010620117,0.035046387,75.0
38488,0.22727966,-0.3509674,-0.2448349,0.2166504,0.010620117,-0.095581055,75.0
38489,0.18065262,-0.7162018,-0.237957,0.2166504,0.010620117,-0.095581055,75.0
38490,0.18065262,-0.7162018,-0.237957,0.47896728,0.059472658,-0.07646485,75.0
38491,0.17528439,-0.43751526,0.17862701,0.47896728,0.059472658,-0.07646485,75.0
38492,0.17528439,-0.43751526,0.17862701,0.18797608,0.025488282,-0.12213135,75.0
38493,0.114421844,-0.0911026,0.5669365,0.18797608,0.025488282,-0.12213135,75.0
38494,0.114421844,-0.0911026,0.5669365,-0.014868164,-0.07646485,-0.21134034,75.0
38495,0.09561539,-0.021980286,0.51556015,-0.014868164,-0.07646485,-0.21134034,75.0
38496,0.09561539,-0.021980286,0.51556015,0.0063720704,-0.06265869,-0.15505372,75.0
38497,0.08272934,0.094680786,0.04745865,0.0063720704,-0.06265869,-0.15505372,75.0
38498,0.08272934,0.094680786,0.04745865,-0.087084964,-0.06478272,-0.2177124,75.0
38499,-0.073415756,0.32635498,-0.463768,-0.087084964,-0.06478272,-0.2177124,75.0
38500,-0.073415756,0.32635498,-0.463768,-0.13275146,-0.0361084,-0.17523193,75.0
38501,-0.3197794,0.4846573,-0.5779114,-0.13275146,-0.0361084,-0.17523193,75.0
38502,-0.3197794,0.4846573,-0.5779114,-0.07646485,-0.046728518,-0.124255374,75.0
38503,-0.48697567,0.5117645,-0.27191162,-0.07646485,-0.046728518,-0.124255374,75.0
38504,-0.48697567,0.5117645,-0.27191162,-0.08283692,-0.046728518,-0.016992187,75.0
38505,-0.4676447,0.46325684,0.035118103,-0.08283692,-0.046728518,-0.016992187,75.0
38506,-0.4676447,0.46325684,0.035118103,-0.26868898,-0.07434082,0.043542482,75.0
38507,-0.32001495,0.16996002,0.034309387,-0.26868898,-0.07434082,0.043542482,75.0
38508,-0.32001495,0.16996002,0.034309387,-0.3462158,-0.058410645,0.059472658,75.0
38509,-0.16347027,-0.31272888,-0.08354187,-0.3462158,-0.058410645,0.059472658,75.0
38510,-0.16347027,-0.31272888,-0.08354187,-0.11469727,-0.04141846,0.0180542,75.0
38511,6.570816E-4,-0.43741608,-0.057750702,-0.11469727,-0.04141846,0.0180542,75.0
38512,6.570816E-4,-0.43741608,-0.057750702,-0.023364259,-0.009558106,0.0541626,75.0
38513,0.093811035,-0.14222717,0.076408386,-0.023364259,-0.009558106,0.0541626,75.0
38514,0.093811035,-0.14222717,0.076408386,0.012744141,-0.0021240234,0.019116212,75.0
38515,0.08746338,0.049575806,0.29955292,0.012744141,-0.0021240234,0.019116212,75.0
38516,0.08746338,0.049575806,0.29955292,0.08602295,-0.0053100586,0.014868164,75.0
38517,0.089746475,0.022956848,0.59407043,0.08602295,-0.0053100586,0.014868164,75.0
38518,0.089746475,0.022956848,0.59407043,0.014868164,-0.046728518,0.0031860352,75.0
38519,0.09170723,-0.06954956,0.6795273,0.014868164,-0.046728518,0.0031860352,75.0
38520,0.09170723,-0.06954956,0.6795273,0.011682129,-0.06690674,0.008496094,75.0
38521,0.12444019,-0.06485748,0.43714142,0.011682129,-0.06690674,0.008496094,75.0
38522,0.12444019,-0.06485748,0.43714142,-0.124255374,-0.04460449,-0.06159668,75.0
38523,0.15770626,-0.036102295,0.24715042,-0.124255374,-0.04460449,-0.06159668,75.0
38524,0.15770626,-0.036102295,0.24715042,-0.10089111,-0.04885254,-0.083898924,75.0
38525,0.19491482,0.036354065,-0.10464859,-0.10089111,-0.04885254,-0.083898924,75.0
38526,0.19491482,0.036354065,-0.10464859,0.25594482,0.095581055,-0.1996582,75.0
38527,0.14570236,0.06273651,-0.22655487,0.25594482,0.095581055,-0.1996582,75.0
38528,0.14570236,0.06273651,-0.22655487,0.35471192,0.033984374,-0.20072022,75.0
38529,0.05968952,0.46987152,-0.8572197,0.35471192,0.033984374,-0.20072022,75.0
38530,0.05968952,0.46987152,-0.8572197,0.47684327,0.05522461,-0.12531738,75.0
38531,0.0068216324,0.3420868,-0.89040375,0.47684327,0.05522461,-0.12531738,75.0
38532,0.0068216324,0.3420868,-0.89040375,0.47471926,0.07965088,-0.11682129,75.0
38533,-0.15340424,-0.09729767,-0.8433876,0.47471926,0.07965088,-0.11682129,75.0
38534,-0.15340424,-0.09729767,-0.8433876,0.73597413,0.18797608,-0.09770508,75.0
38535,-0.104034424,-0.12036896,-0.6001015,0.73597413,0.18797608,-0.09770508,75.0
38536,-0.104034424,-0.12036896,-0.6001015,0.6202149,0.22408448,-0.027612304,75.0
38537,0.03750038,0.20419312,0.007171631,0.6202149,0.22408448,-0.027612304,75.0
38538,0.03750038,0.20419312,0.007171631,0.115759276,0.22727051,-0.046728518,75.0
38539,0.06336212,0.20979309,0.09054184,0.115759276,0.22727051,-0.046728518,75.0
38540,0.06336212,0.20979309,0.09054184,0.0063720704,0.2516968,-0.026550293,75.0
38541,0.017694473,0.27924347,0.30316925,0.0063720704,0.2516968,-0.026550293,75.0
38542,0.017694473,0.27924347,0.30316925,-0.47578126,0.20921631,0.0722168,75.0
38543,-0.004166603,0.18667603,0.31731415,-0.47578126,0.20921631,0.0722168,75.0
38544,-0.004166603,0.18667603,0.31731415,-0.5171997,0.20284425,0.07965088,75.0
38545,-0.14649773,-0.48036957,0.72227097,-0.5171997,0.20284425,0.07965088,75.0
38546,-0.14649773,-0.48036957,0.72227097,-0.60959476,0.06796875,0.14655761,75.0
38547,-0.15920258,-0.4767151,0.7151184,-0.60959476,0.06796875,0.14655761,75.0
38548,-0.15920258,-0.4767151,0.7151184,-0.6775635,0.04991455,0.18585205,75.0
38549,-0.19170475,-0.31819153,0.47586823,-0.6775635,0.04991455,0.18585205,75.0
38550,-0.19170475,-0.31819153,0.47586823,-0.95581055,0.007434082,0.09451904,75.0
38551,-0.08147621,-0.15538788,-0.117500305,-0.95581055,0.007434082,0.09451904,75.0
38552,-0.08147621,-0.15538788,-0.117500305,-1.0014771,-0.029736329,0.039294433,75.0
38553,0.03059578,-0.60108185,-0.5367012,-1.0014771,-0.029736329,0.039294433,75.0
38554,0.03059578,-0.60108185,-0.5367012,-0.4322388,0.0180542,0.033984374,75.0
38555,0.014722824,-0.87075806,-0.44634247,-0.4322388,0.0180542,0.033984374,75.0
38556,0.014722824,-0.87075806,-0.44634247,0.035046387,-0.007434082,0.035046387,75.0
38557,-0.0056533813,-0.35190582,-0.08181763,0.035046387,-0.007434082,0.035046387,75.0
38558,-0.0056533813,-0.35190582,-0.08181763,-0.046728518,0.013806152,-0.013806152,75.0
38559,-0.04220581,0.2611618,0.18474197,-0.046728518,0.013806152,-0.013806152,75.0
38560,-0.04220581,0.2611618,0.18474197,-0.17735596,-0.025488282,-0.03717041,75.0
38561,-0.095482826,0.39313507,0.13460922,-0.17735596,-0.025488282,-0.03717041,75.0
38562,-0.095482826,0.39313507,0.13460922,-0.17629395,-0.06690674,-0.05522461,75.0
38563,-0.097919464,0.16344452,-0.11807251,-0.17629395,-0.06690674,-0.05522461,75.0
38564,-0.097919464,0.16344452,-0.11807251,-0.0541626,-0.057348635,-0.03186035,75.0
38565,-0.11714172,-0.083488464,-0.16512299,-0.0541626,-0.057348635,-0.03186035,75.0
38566,-0.11714172,-0.083488464,-0.16512299,-0.028674318,-0.014868164,0.045666505,75.0
38567,-0.14826679,-0.027153015,0.022029877,-0.028674318,-0.014868164,0.045666505,75.0
38568,-0.14826679,-0.027153015,0.022029877,-0.23151855,-0.070092775,0.039294433,75.0
38569,-0.122592926,0.18914032,0.10910034,-0.23151855,-0.070092775,0.039294433,75.0
38570,-0.122592926,0.18914032,0.10910034,-0.30267334,-0.11044922,0.04460449,75.0
38571,-0.122592926,0.18914032,0.10910034,-0.30267334,-0.11044922,0.04460449,75.0
38572,-0.0025177002,0.21399689,-0.010986328,-0.30267334,-0.11044922,0.04460449,75.0
38573,-0.0025177002,0.21399689,-0.010986328,-0.1359375,-0.07115479,0.057348635,75.0
38574,0.121105194,0.067489624,-0.12150955,-0.1359375,-0.07115479,0.057348635,75.0
38575,0.121105194,0.067489624,-0.12150955,-0.07752686,-0.06584473,0.06584473,75.0
38576,0.17480183,-0.083984375,-0.0943985,-0.07752686,-0.06584473,0.06584473,75.0
38577,0.17480183,-0.083984375,-0.0943985,-0.06265869,-0.07540283,0.008496094,75.0
38578,0.1701889,-0.16001129,0.043144226,-0.06265869,-0.07540283,0.008496094,75.0
38579,0.1701889,-0.16001129,0.043144226,-0.032922365,-0.052038576,0.03079834,75.0
38580,0.10698891,-0.16673279,0.19792938,-0.032922365,-0.052038576,0.03079834,75.0
38581,0.10698891,-0.16673279,0.19792938,-0.03079834,-0.083898924,0.032922365,75.0
38582,0.04223156,-0.21390533,0.1795578,-0.03079834,-0.083898924,0.032922365,75.0
38583,0.04223156,-0.21390533,0.1795578,0.059472658,-0.060534667,0.028674318,75.0
38584,0.06383896,-0.16617584,-0.011554718,0.059472658,-0.060534667,0.028674318,75.0
38585,0.06383896,-0.16617584,-0.011554718,0.039294433,0.0021240234,-0.026550293,75.0
38586,0.06318092,-0.07766724,-0.12892151,0.039294433,0.0021240234,-0.026550293,75.0
38587,0.06318092,-0.07766724,-0.12892151,0.07115479,0.021240234,-0.0361084,75.0
38588,-0.0012741089,-3.5095215E-4,-0.057640076,0.07115479,0.021240234,-0.0361084,75.0
38589,-0.0012741089,-3.5095215E-4,-0.057640076,0.11682129,0.023364259,-0.03186035,75.0
38590,-0.07338238,0.14500427,0.09806442,0.11682129,0.023364259,-0.03186035,75.0
38591,-0.07338238,0.14500427,0.09806442,0.06159668,0.007434082,-0.045666505,75.0
38592,-0.10450649,0.23924255,0.17953873,0.06159668,0.007434082,-0.045666505,75.0
38593,-0.10450649,0.23924255,0.17953873,0.032922365,-0.04885254,-0.019116212,75.0
38594,-0.07442474,0.24092865,0.11012268,0.032922365,-0.04885254,-0.019116212,75.0
38595,-0.07442474,0.24092865,0.11012268,-0.06690674,-0.06584473,-0.0180542,75.0
38596,-0.030511856,0.06707001,-0.025501251,-0.06690674,-0.06584473,-0.0180542,75.0
38597,-0.030511856,0.06707001,-0.025501251,0.022302246,-0.03717041,-0.04460449,75.0
38598,-0.009284973,-0.15161896,-0.10226059,0.022302246,-0.03717041,-0.04460449,75.0
38599,-0.009284973,-0.15161896,-0.10226059,0.10513916,0.021240234,-0.04991455,75.0
38600,0.017682076,-0.16175842,-0.056732178,0.10513916,0.021240234,-0.04991455,75.0
38601,0.017682076,-0.16175842,-0.056732178,0.107263185,0.026550293,-0.050976563,75.0
38602,0.023202896,-0.0135269165,0.059947968,0.107263185,0.026550293,-0.050976563,75.0
38603,0.023202896,-0.0135269165,0.059947968,0.050976563,0.025488282,-0.04991455,75.0
38604,-0.007499695,0.02519226,0.115989685,0.050976563,0.025488282,-0.04991455,75.0
38605,-0.007499695,0.02519226,0.115989685,0.012744141,0.033984374,-0.07327881,75.0
38606,-0.00866127,-0.10337067,0.08427048,0.012744141,0.033984374,-0.07327881,75.0
38607,-0.00866127,-0.10337067,0.08427048,0.0361084,0.020178223,-0.052038576,75.0
38608,0.052970886,-0.0750885,0.023284912,0.0361084,0.020178223,-0.052038576,75.0
38609,0.052970886,-0.0750885,0.023284912,0.0361084,0.028674318,-0.020178223,75.0
38610,0.16691303,0.21918488,-0.04361725,0.0361084,0.028674318,-0.020178223,75.0
38611,0.16691303,0.21918488,-0.04361725,-0.07646485,0.023364259,-0.023364259,75.0
38612,0.25936127,0.47000122,-0.13014603,-0.07646485,0.023364259,-0.023364259,75.0
38613,0.25936127,0.47000122,-0.13014603,-0.06478272,0.0053100586,0.05522461,75.0
38614,0.314044,0.43990326,-0.18503952,-0.06478272,0.0053100586,0.05522461,75.0
38615,0.314044,0.43990326,-0.18503952,-0.095581055,0.0010620117,0.07646485,75.0
38616,0.31162262,0.036712646,-0.15798187,-0.095581055,0.0010620117,0.07646485,75.0
38617,0.31162262,0.036712646,-0.15798187,-0.007434082,0.027612304,0.09770508,75.0
38618,0.19463539,-0.39666748,-0.073028564,-0.007434082,0.027612304,0.09770508,75.0
38619,0.19463539,-0.39666748,-0.073028564,0.11257324,0.04141846,0.1731079,75.0
38620,-0.097185135,-0.49517822,-0.008888245,0.11257324,0.04141846,0.1731079,75.0
38621,-0.097185135,-0.49517822,-0.008888245,0.121069334,-0.007434082,0.107263185,75.0
38622,-0.40575027,-0.29090118,-0.047966003,0.121069334,-0.007434082,0.107263185,75.0
38623,-0.40575027,-0.29090118,-0.047966003,0.26337892,-0.06478272,0.06265869,75.0
38624,-0.43480492,0.0077590942,-0.215168,0.26337892,-0.06478272,0.06265869,75.0
38625,-0.43480492,0.0077590942,-0.215168,0.26550293,-0.06265869,0.070092775,75.0
38626,-0.2908373,0.18489075,-0.31325912,0.26550293,-0.06265869,0.070092775,75.0
38627,-0.2908373,0.18489075,-0.31325912,0.022302246,-0.078588866,0.043542482,75.0
38628,-0.15594864,0.121025085,-0.19464874,0.022302246,-0.078588866,0.043542482,75.0
38629,-0.15594864,0.121025085,-0.19464874,-0.23789063,-0.10089111,-0.07327881,75.0
38630,-0.12639427,-0.029212952,0.14477158,-0.23789063,-0.10089111,-0.07327881,75.0
38631,-0.12639427,-0.029212952,0.14477158,-0.6180908,-0.1263794,0.026550293,75.0
38632,-0.20312977,-0.090545654,0.5615082,-0.6180908,-0.1263794,0.026550293,75.0
38633,-0.20312977,-0.090545654,0.5615082,-0.77739257,-0.16248779,0.007434082,75.0
38634,-0.1532383,-0.017211914,0.5706177,-0.77739257,-0.16248779,0.007434082,75.0
38635,-0.1532383,-0.017211914,0.5706177,-0.7476563,-0.12319336,0.009558106,75.0
38636,0.036112785,0.20174408,-0.011341095,-0.7476563,-0.12319336,0.009558106,75.0
38637,0.036112785,0.20174408,-0.011341095,-0.7168579,-0.06265869,0.05522461,75.0
38638,0.25705147,0.009002686,-0.5923004,-0.7168579,-0.06265869,0.05522461,75.0
38639,0.25705147,0.009002686,-0.5923004,0.35471192,0.21983643,-0.35046387,75.0
38640,0.26883698,-0.30891418,-0.20899582,0.35471192,0.21983643,-0.35046387,75.0
38641,0.26883698,-0.30891418,-0.20899582,0.62340087,0.1720459,-0.2516968,75.0
38642,-0.029729843,0.17942047,0.9481125,0.62340087,0.1720459,-0.2516968,75.0
38643,-0.029729843,0.17942047,0.9481125,0.023364259,-0.09133301,-0.10620117,75.0
38644,-0.25740242,1.1128616,1.5203323,0.023364259,-0.09133301,-0.10620117,75.0
38645,-0.25740242,1.1128616,1.5203323,-1.1363525,-0.42374268,0.2166504,75.0
38646,-0.2171154,1.125885,0.83238983,-1.1363525,-0.42374268,0.2166504,75.0
38647,-0.2171154,1.125885,0.83238983,-1.6068238,-0.56817627,0.3175415,75.0
38648,0.1468277,-0.16493225,-0.48277283,-1.6068238,-0.56817627,0.3175415,75.0
38649,0.1468277,-0.16493225,-0.48277283,-0.29205322,-0.1539917,-0.08071289,75.0
38650,0.2823305,-1.0043335,-1.1987305,-0.29205322,-0.1539917,-0.08071289,75.0
38651,0.2823305,-1.0043335,-1.1987305,0.09239502,-0.083898924,0.059472658,75.0
38652,0.08980465,-0.85707855,-0.9894028,0.09239502,-0.083898924,0.059472658,75.0
38653,0.08980465,-0.85707855,-0.9894028,0.18479005,0.007434082,-0.029736329,75.0
38654,0.10399723,-0.57785034,-0.35032654,0.18479005,0.007434082,-0.029736329,75.0
38655,0.10399723,-0.57785034,-0.35032654,0.27399904,0.09451904,-0.07646485,75.0
38656,0.10399723,-0.57785034,-0.35032654,0.27399904,0.09451904,-0.07646485,75.0
38657,0.20313168,-0.449646,0.20793533,0.27399904,0.09451904,-0.07646485,75.0
38658,0.20313168,-0.449646,0.20793533,0.32709962,0.12531738,-0.16354981,75.0
38659,0.24327946,-0.26281738,0.47446442,0.32709962,0.12531738,-0.16354981,75.0
38660,0.24327946,-0.26281738,0.47446442,0.3717041,0.13487549,-0.20178223,75.0
38661,0.23651886,0.12911224,0.38327026,0.3717041,0.13487549,-0.20178223,75.0
38662,0.23651886,0.12911224,0.38327026,0.26550293,0.23045655,-0.16567384,75.0
38663,0.21760845,0.623909,0.0111961365,0.26550293,0.23045655,-0.16567384,75.0
38664,0.21760845,0.623909,0.0111961365,-0.15823975,0.46409914,-0.04460449,75.0
38665,-0.03133297,0.6681442,-0.4495163,-0.15823975,0.46409914,-0.04460449,75.0
38666,-0.03133297,0.6681442,-0.4495163,-0.35152587,0.23151855,-0.08283692,75.0
38667,-0.26410484,-0.12770844,-0.76477814,-0.35152587,0.23151855,-0.08283692,75.0
38668,-0.26410484,-0.12770844,-0.76477814,0.30161133,0.18054199,-0.19753419,75.0
38669,-0.091703415,-0.8454437,-0.6149597,0.30161133,0.18054199,-0.19753419,75.0
38670,-0.091703415,-0.8454437,-0.6149597,0.98236084,0.2177124,-0.19434814,75.0
38671,0.23550034,-0.6620941,-0.04389572,0.98236084,0.2177124,-0.19434814,75.0
38672,0.23550034,-0.6620941,-0.04389572,1.1225464,0.17629395,-0.14655761,75.0
38673,0.47967148,0.05580902,0.4486122,1.1225464,0.17629395,-0.14655761,75.0
38674,0.47967148,0.05580902,0.4486122,0.81987303,0.17841797,-0.1731079,75.0
38675,0.5119724,0.73877716,0.58187866,0.81987303,0.17841797,-0.1731079,75.0
38676,0.5119724,0.73877716,0.58187866,0.05522461,0.11257324,-0.11257324,75.0
38677,0.33319855,1.0710297,0.5442238,0.05522461,0.11257324,-0.11257324,75.0
38678,0.33319855,1.0710297,0.5442238,-0.9409424,0.0010620117,-0.10195313,75.0
38679,0.11888981,0.6704712,0.46725464,-0.9409424,0.0010620117,-0.10195313,75.0
38680,0.11888981,0.6704712,0.46725464,-1.2839721,-0.058410645,-0.14337158,75.0
38681,-0.0104904175,-0.41526794,0.1737442,-1.2839721,-0.058410645,-0.14337158,75.0
38682,-0.0104904175,-0.41526794,0.1737442,-0.6680054,-0.016992187,-0.19116211,75.0
38683,-0.04750347,-1.0345688,-0.19771194,-0.6680054,-0.016992187,-0.19116211,75.0
38684,-0.04750347,-1.0345688,-0.19771194,-0.016992187,0.06159668,-0.12319336,75.0
38685,-0.10565376,-0.55239105,-0.3102417,-0.016992187,0.06159668,-0.12319336,75.0
38686,-0.10565376,-0.55239105,-0.3102417,0.13062744,0.07540283,-0.0541626,75.0
38687,-0.28280163,0.26244354,-0.1412468,0.13062744,0.07540283,-0.0541626,75.0
38688,-0.28280163,0.26244354,-0.1412468,-0.04248047,0.08814698,-0.020178223,75.0
38689,-0.5207596,0.63440704,0.07665253,-0.04248047,0.08814698,-0.020178223,75.0
38690,-0.5207596,0.63440704,0.07665253,-0.25594482,-0.0031860352,0.04460449,75.0
38691,-0.64990807,0.40849304,0.091495514,-0.25594482,-0.0031860352,0.04460449,75.0
38692,-0.64990807,0.40849304,0.091495514,-0.22939454,-0.013806152,0.028674318,75.0
38693,-0.5729408,-0.021774292,-0.04962921,-0.22939454,-0.013806152,0.028674318,75.0
38694,-0.5729408,-0.021774292,-0.04962921,-0.09664307,-0.0180542,0.035046387,75.0
38695,-0.46122074,-0.30400085,-0.10890579,-0.09664307,-0.0180542,0.035046387,75.0
38696,-0.46122074,-0.30400085,-0.10890579,0.13699952,0.0053100586,0.0053100586,75.0
38697,-0.41007805,-0.2751007,-0.038490295,0.13699952,0.0053100586,0.0053100586,75.0
38698,-0.41007805,-0.2751007,-0.038490295,0.07327881,-0.009558106,0.022302246,75.0
38699,-0.3044901,-0.0014648438,-0.026481628,0.07327881,-0.009558106,0.022302246,75.0
38700,-0.3044901,-0.0014648438,-0.026481628,-0.15611573,-0.0063720704,0.016992187,75.0
38701,-0.123096466,0.30353546,-0.15090942,-0.15611573,-0.0063720704,0.016992187,75.0
38702,-0.123096466,0.30353546,-0.15090942,-0.56392825,0.023364259,0.07752686,75.0
38703,-0.11661625,0.3672638,-0.2717514,-0.56392825,0.023364259,0.07752686,75.0
38704,-0.11661625,0.3672638,-0.2717514,-0.8007569,0.004248047,0.07327881,75.0
38705,-0.22498322,-0.03564453,-0.34312057,-0.8007569,0.004248047,0.07327881,75.0
38706,-0.22498322,-0.03564453,-0.34312057,-0.541626,-0.007434082,0.032922365,75.0
38707,-0.10836792,-0.5614624,-0.33036804,-0.541626,-0.007434082,0.032922365,75.0
38708,-0.10836792,-0.5614624,-0.33036804,-0.14337158,-0.0180542,0.09133301,75.0
38709,0.10489464,-0.7429657,-0.24803543,-0.14337158,-0.0180542,0.09133301,75.0
38710,0.10489464,-0.7429657,-0.24803543,0.11469727,0.03717041,0.115759276,75.0
38711,0.08597851,-0.5042114,-0.103652954,0.11469727,0.03717041,0.115759276,75.0
38712,0.08597851,-0.5042114,-0.103652954,0.060534667,0.022302246,0.1178833,75.0
38713,-0.10505676,-0.08060455,0.05039215,0.060534667,0.022302246,0.1178833,75.0
