,accx,accy,accz,gyrox,gyroy,gyroz,heart rate
37123,type,type,type,type,type,type,type
37124,-0.00726375,0.16030604,0.48938087,-0.121069334,0.039294433,0.07434082,96.0
37125,-0.00726375,0.16030604,0.48938087,-0.16354981,0.059472658,-0.025488282,96.0
37126,-0.05658005,0.033896685,0.11119463,-0.16354981,0.059472658,-0.025488282,96.0
37127,-0.05658005,0.033896685,0.11119463,0.13699952,-0.03079834,-0.06584473,96.0
37128,-0.03939247,-0.20641537,-0.0050628474,0.13699952,-0.03079834,-0.06584473,96.0
37129,-0.03939247,-0.20641537,-0.0050628474,0.4248047,-0.059472658,-0.0541626,96.0
37130,-0.03939247,-0.20641537,-0.0050628474,0.28674316,0.03717041,-0.04885254,96.0
37131,0.017216489,-0.11053024,0.15804689,0.28674316,0.03717041,-0.04885254,96.0
37132,0.0801184,0.14516957,0.2920015,0.28674316,0.03717041,-0.04885254,96.0
37133,0.0801184,0.14516957,0.2920015,0.098767094,0.08071289,-0.070092775,96.0
37134,0.11846483,0.17929485,0.15653819,0.098767094,0.08071289,-0.070092775,96.0
37135,0.11846483,0.17929485,0.15653819,-0.009558106,0.11363526,-0.06796875,96.0
37136,0.10389051,-0.07566813,-0.17819963,-0.009558106,0.11363526,-0.06796875,96.0
37137,0.10389051,-0.07566813,-0.17819963,0.13062744,0.10089111,-0.026550293,96.0
37138,0.031342387,-0.29583722,-0.3956603,0.13062744,0.10089111,-0.026550293,96.0
37139,0.031342387,-0.29583722,-0.3956603,0.33665773,0.046728518,0.007434082,96.0
37140,-0.024901688,-0.18872058,-0.30178216,0.33665773,0.046728518,0.007434082,96.0
37141,-0.024901688,-0.18872058,-0.30178216,0.29205322,0.045666505,0.050976563,96.0
37142,-0.016491175,0.031311125,-0.072614685,0.29205322,0.045666505,0.050976563,96.0
37143,-0.016491175,0.031311125,-0.072614685,0.16673584,0.046728518,0.08602295,96.0
37144,-0.009372145,0.054150462,-0.0054306164,0.16673584,0.046728518,0.08602295,96.0
37145,-0.009372145,0.054150462,-0.0054306164,0.06265869,0.10407715,0.1178833,96.0
37146,-0.084707186,-0.2965478,-0.1652942,0.06265869,0.10407715,0.1178833,96.0
37147,-0.084707186,-0.2965478,-0.1652942,0.44073486,0.0063720704,0.1731079,96.0
37148,-0.15955041,-0.51449656,-0.26709867,0.44073486,0.0063720704,0.1731079,96.0
37149,-0.15955041,-0.51449656,-0.26709867,0.7072998,-0.090270996,0.18797608,96.0
37150,-0.066422075,-0.12150934,-0.10563448,0.7072998,-0.090270996,0.18797608,96.0
37151,-0.066422075,-0.12150934,-0.10563448,0.5586182,-0.070092775,0.12213135,96.0
37152,0.04556839,0.3711641,0.09868333,0.5586182,-0.070092775,0.12213135,96.0
37153,0.04556839,0.3711641,0.09868333,0.29523927,-0.019116212,0.15717773,96.0
37154,0.06796107,0.21321547,0.049796283,0.29523927,-0.019116212,0.15717773,96.0
37155,0.06796107,0.21321547,0.049796283,0.7699585,-0.16885987,0.23364258,96.0
37156,0.06796107,0.21321547,0.049796283,1.359375,-0.2824951,0.25700685,96.0
37157,-0.010401651,-0.41719618,-0.20324159,1.359375,-0.2824951,0.25700685,96.0
37158,-0.099996135,-0.47065878,-0.18722707,1.359375,-0.2824951,0.25700685,96.0
37159,-0.099996135,-0.47065878,-0.18722707,1.3243287,-0.2262085,0.24107666,96.0
37160,-0.076774254,0.17989391,0.19896102,1.3243287,-0.2262085,0.24107666,96.0
37161,-0.076774254,0.17989391,0.19896102,0.9451904,-0.1996582,0.17629395,96.0
37162,0.038177773,0.7720767,0.5313368,0.9451904,-0.1996582,0.17629395,96.0
37163,0.038177773,0.7720767,0.5313368,0.1720459,0.007434082,0.095581055,96.0
37164,0.06889671,0.6144388,0.5048302,0.1720459,0.007434082,0.095581055,96.0
37165,0.06889671,0.6144388,0.5048302,0.021240234,0.10195313,0.09770508,96.0
37166,-0.034824044,-0.07756521,0.16281189,0.021240234,0.10195313,0.09770508,96.0
37167,-0.034824044,-0.07756521,0.16281189,0.48321533,0.021240234,0.1359375,96.0
37168,-0.09424107,-0.44224018,-0.13676709,0.48321533,0.021240234,0.1359375,96.0
37169,-0.09424107,-0.44224018,-0.13676709,0.7625244,-0.058410645,0.11257324,96.0
37170,-0.0011741072,-0.20998111,-0.18841758,0.7625244,-0.058410645,0.11257324,96.0
37171,-0.0011741072,-0.20998111,-0.18841758,0.6616333,-0.07540283,0.10195313,96.0
37172,0.19301823,0.13089207,-0.14035809,0.6616333,-0.07540283,0.10195313,96.0
37173,0.19301823,0.13089207,-0.14035809,0.31223145,0.0637207,0.10195313,96.0
37174,0.21923393,0.11808035,-0.19590464,0.31223145,0.0637207,0.10195313,96.0
37175,0.21923393,0.11808035,-0.19590464,0.5055176,0.0180542,0.14124756,96.0
37176,0.21923393,0.11808035,-0.19590464,0.5055176,0.0180542,0.14124756,96.0
37177,-0.009012282,-0.042913646,-0.32503426,0.5055176,0.0180542,0.14124756,96.0
37178,-0.009012282,-0.042913646,-0.32503426,0.90695804,-0.12000733,0.14018555,96.0
37179,-0.20391393,0.3049391,-0.4724908,0.90695804,-0.12000733,0.14018555,96.0
37180,-0.20391393,0.3049391,-0.4724908,0.8442993,-0.19116211,0.08602295,96.0
37181,-0.20279178,1.2382385,-0.68008006,0.8442993,-0.19116211,0.08602295,96.0
37182,-0.20279178,1.2382385,-0.68008006,0.2516968,-0.15823975,-0.11682129,96.0
37183,-0.20279178,1.2382385,-0.68008006,-0.4258667,-0.098767094,-0.3717041,96.0
37184,-0.10045363,1.7692163,-0.6969937,-0.4258667,-0.098767094,-0.3717041,96.0
37185,-0.05077306,1.2948408,-0.36363745,-0.4258667,-0.098767094,-0.3717041,96.0
37186,-0.05077306,1.2948408,-0.36363745,-1.0333375,-0.087084964,-0.6074707,96.0
37187,-0.08864091,0.43973005,0.023457706,-1.0333375,-0.087084964,-0.6074707,96.0
37188,-0.08864091,0.43973005,0.023457706,-1.7746216,-0.053100586,-0.7625244,96.0
37189,-0.15151575,-0.093064606,0.2658853,-1.7746216,-0.053100586,-0.7625244,96.0
37190,-0.15151575,-0.093064606,0.2658853,-2.3396118,-0.057348635,-0.8315552,96.0
37191,-0.121993855,-0.29781592,0.3307991,-2.3396118,-0.057348635,-0.8315552,96.0
37192,-0.121993855,-0.29781592,0.3307991,-2.1930542,-0.022302246,-0.97067875,96.0
37193,0.0034180973,-0.5005574,0.16024476,-2.1930542,-0.022302246,-0.97067875,96.0
37194,0.0034180973,-0.5005574,0.16024476,-1.722583,-0.14974366,-1.0715698,96.0
37195,0.1418336,-0.72794837,0.052902818,-1.722583,-0.14974366,-1.0715698,96.0
37196,0.1418336,-0.72794837,0.052902818,-1.4815063,-0.13699952,-1.0227174,96.0
37197,0.17101082,-1.0202615,0.37550098,-1.4815063,-0.13699952,-1.0227174,96.0
37198,0.17101082,-1.0202615,0.37550098,-1.2468017,-0.13062744,-0.97492677,96.0
37199,0.036662176,-1.4529647,0.8976542,-1.2468017,-0.13062744,-0.97492677,96.0
37200,0.036662176,-1.4529647,0.8976542,-1.1044922,-0.15186767,-0.8485474,96.0
37201,0.036662176,-1.4529647,0.8976542,-1.0301514,-0.08071289,-0.7423462,96.0
37202,-0.09676889,-1.5102966,1.13962,-1.0301514,-0.08071289,-0.7423462,96.0
37203,-0.12105525,-0.9739721,0.9073014,-1.0301514,-0.08071289,-0.7423462,96.0
37204,-0.12105525,-0.9739721,0.9073014,-1.0588257,0.0361084,-0.6042847,96.0
37205,-0.079534635,-0.4840361,0.34876597,-1.0588257,0.0361084,-0.6042847,96.0
37206,-0.079534635,-0.4840361,0.34876597,-1.1469727,0.04460449,-0.44816896,96.0
37207,-0.016911399,-0.45827377,-0.22124356,-1.1469727,0.04460449,-0.44816896,96.0
37208,-0.016911399,-0.45827377,-0.22124356,-1.0736939,0.03186035,-0.2814331,96.0
37209,-0.0640174,-0.69149697,-0.49666038,-1.0736939,0.03186035,-0.2814331,96.0
37210,-0.0640174,-0.69149697,-0.49666038,-0.48427734,-0.0637207,-0.18479005,96.0
37211,-0.16066216,-0.44854665,-0.40031904,-0.48427734,-0.0637207,-0.18479005,96.0
37212,-0.16066216,-0.44854665,-0.40031904,-0.1359375,-0.14761963,-0.11682129,96.0
37213,-0.049806587,0.20762992,-0.30514294,-0.1359375,-0.14761963,-0.11682129,96.0
37214,-0.049806587,0.20762992,-0.30514294,-0.26762697,-0.09451904,-0.035046387,96.0
37215,0.17079926,0.47507608,-0.4967877,-0.26762697,-0.09451904,-0.035046387,96.0
37216,0.17079926,0.47507608,-0.4967877,-0.3802002,-0.115759276,0.029736329,96.0
37217,0.22595826,0.3626659,-0.66036963,-0.3802002,-0.115759276,0.029736329,96.0
37218,0.22595826,0.3626659,-0.66036963,-0.22833252,-0.15186767,0.07434082,96.0
37219,0.16482422,0.38857025,-0.6128294,-0.22833252,-0.15186767,0.07434082,96.0
37220,0.16482422,0.38857025,-0.6128294,0.0063720704,-0.20921631,0.0637207,96.0
37221,0.11689356,0.75343436,-0.6395921,0.0063720704,-0.20921631,0.0637207,96.0
37222,0.11689356,0.75343436,-0.6395921,0.0361084,-0.2442627,0.03717041,96.0
37223,0.1642668,0.97058195,-0.55257946,0.0361084,-0.2442627,0.03717041,96.0
37224,0.1642668,0.97058195,-0.55257946,-0.022302246,-0.2888672,0.012744141,96.0
37225,0.21837634,0.68167794,0.19525331,-0.022302246,-0.2888672,0.012744141,96.0
37226,0.21837634,0.68167794,0.19525331,-0.03717041,-0.29417726,-0.093457036,96.0
37227,0.28303847,-0.25675726,2.0089126,-0.03717041,-0.29417726,-0.093457036,96.0
37228,0.28303847,-0.25675726,2.0089126,1.4188477,-0.84323734,-0.7858887,96.0
37229,0.2483424,-1.112022,3.5601208,1.4188477,-0.84323734,-0.7858887,96.0
37230,0.2483424,-1.112022,3.5601208,0.7858887,-0.0180542,0.028674318,96.0
37231,-0.2654374,-0.6441342,2.418934,0.7858887,-0.0180542,0.028674318,96.0
37232,-0.2654374,-0.6441342,2.418934,0.26762697,0.040356446,0.16992188,96.0
37233,-0.65224254,0.20921654,-0.07880545,0.26762697,0.040356446,0.16992188,96.0
37234,-0.65224254,0.20921654,-0.07880545,0.043542482,-0.10089111,0.16248779,96.0
37235,-0.4144698,0.2658962,-1.315498,0.043542482,-0.10089111,0.16248779,96.0
37236,-0.4144698,0.2658962,-1.315498,0.0637207,-0.04991455,0.1901001,96.0
37237,0.114163905,-0.011941254,-1.4727597,0.0637207,-0.04991455,0.1901001,96.0
37238,0.114163905,-0.011941254,-1.4727597,0.16248779,0.010620117,0.24638672,96.0
37239,0.5626935,-0.20749003,-1.4043553,0.16248779,0.010620117,0.24638672,96.0
37240,0.5626935,-0.20749003,-1.4043553,0.45347902,-0.2081543,0.009558106,96.0
37241,0.79131687,-0.32647783,-1.100303,0.45347902,-0.2081543,0.009558106,96.0
37242,0.79131687,-0.32647783,-1.100303,0.8028809,-0.38338622,-0.17841797,96.0
37243,0.67369074,-0.10965639,-0.46017408,0.8028809,-0.38338622,-0.17841797,96.0
37244,0.67369074,-0.10965639,-0.46017408,0.91014403,-0.33984375,-0.16354981,96.0
37245,0.21791989,0.52078325,0.097156145,0.91014403,-0.33984375,-0.16354981,96.0
37246,0.21791989,0.52078325,0.097156145,0.71367186,-0.23364258,-0.12956543,96.0
37247,-0.26608157,0.85783756,0.24446076,0.71367186,-0.23364258,-0.12956543,96.0
37248,-0.26608157,0.85783756,0.24446076,0.58198243,-0.29099122,-0.06796875,96.0
37249,-0.5152334,0.719522,0.29708228,0.58198243,-0.29099122,-0.06796875,96.0
37250,-0.5152334,0.719522,0.29708228,0.6435791,-0.3419678,0.016992187,96.0
37251,-0.47811693,0.76614493,0.54882306,0.6435791,-0.3419678,0.016992187,96.0
37252,-0.47811693,0.76614493,0.54882306,0.17416993,-0.15823975,0.1709839,96.0
37253,-0.3164657,0.8858652,0.5046712,0.17416993,-0.15823975,0.1709839,96.0
37254,-0.3164657,0.8858652,0.5046712,-0.18797608,-0.039294433,0.16142578,96.0
37255,-0.08410518,0.6572151,0.13270429,-0.18797608,-0.039294433,0.16142578,96.0
37256,-0.08410518,0.6572151,0.13270429,-0.46622315,0.08602295,0.081774905,96.0
37257,0.14118755,0.2021637,-0.19727895,-0.46622315,0.08602295,0.081774905,96.0
37258,0.14118755,0.2021637,-0.19727895,-0.7434082,0.12000733,0.052038576,96.0
37259,0.2026717,-0.27424315,-0.5230942,-0.7434082,0.12000733,0.052038576,96.0
37260,0.2026717,-0.27424315,-0.5230942,-0.5692383,0.029736329,0.06478272,96.0
37261,0.13844353,-0.60209715,-0.56185913,-0.5692383,0.029736329,0.06478272,96.0
37262,0.13844353,-0.60209715,-0.56185913,-0.3069214,0.004248047,0.15186767,96.0
37263,0.040442318,-0.6497686,-0.22248535,-0.3069214,0.004248047,0.15186767,96.0
37264,0.040442318,-0.6497686,-0.22248535,-0.24638672,0.081774905,0.27718505,96.0
37265,-0.093756974,-0.45708293,0.12085205,-0.24638672,0.081774905,0.27718505,96.0
37266,-0.093756974,-0.45708293,0.12085205,-0.31010744,0.18691407,0.32603762,96.0
37267,-0.29681954,-0.21771713,0.13032423,-0.31010744,0.18691407,0.32603762,96.0
37268,-0.29681954,-0.21771713,0.13032423,-0.21346436,0.10513916,0.3175415,96.0
37269,-0.3892989,-0.13951793,0.012145121,-0.21346436,0.10513916,0.3175415,96.0
37270,-0.3892989,-0.13951793,0.012145121,-0.06478272,0.090270996,0.26125488,96.0
37271,-0.35107535,-0.17900938,0.13078544,-0.06478272,0.090270996,0.26125488,96.0
37272,-0.35107535,-0.17900938,0.13078544,0.115759276,0.0063720704,0.33984375,96.0
37273,-0.3253549,-0.06760937,0.18101995,0.115759276,0.0063720704,0.33984375,96.0
37274,-0.3253549,-0.06760937,0.18101995,0.18054199,-0.07965088,0.26550293,96.0
37275,-0.30945385,0.05931583,0.11097807,0.18054199,-0.07965088,0.26550293,96.0
37276,-0.30945385,0.05931583,0.11097807,0.30267334,-0.1539917,0.24957275,96.0
37277,-0.34979698,0.16594632,0.16877514,0.30267334,-0.1539917,0.24957275,96.0
37278,-0.34979698,0.16594632,0.16877514,0.37807617,-0.10620117,0.270813,96.0
37279,-0.22263545,0.32440746,0.25424618,0.37807617,-0.10620117,0.270813,96.0
37280,-0.22263545,0.32440746,0.25424618,0.2177124,0.13806152,0.37701416,96.0
37281,-0.19507614,0.35579062,0.1449619,0.2177124,0.13806152,0.37701416,96.0
37282,-0.19507614,0.35579062,0.1449619,0.4598511,0.25063476,0.52675784,96.0
37283,-0.0239442,0.13919793,-0.27112764,0.4598511,0.25063476,0.52675784,96.0
37284,-0.0239442,0.13919793,-0.27112764,0.36320803,-0.07540283,-0.0541626,96.0
37285,-0.0239442,0.13919793,-0.27112764,0.36320803,-0.07540283,-0.0541626,95.0
37286,0.3239843,-0.10410797,-0.8357986,0.36320803,-0.07540283,-0.0541626,95.0
37287,0.3239843,-0.10410797,-0.8357986,0.1985962,-0.0031860352,0.0637207,95.0
37288,0.24646771,-0.18659449,-1.1161976,0.1985962,-0.0031860352,0.0637207,95.0
37289,0.24646771,-0.18659449,-1.1161976,0.17841797,-0.08602295,0.045666505,95.0
37290,0.2583192,-0.0984333,-0.99430084,0.17841797,-0.08602295,0.045666505,95.0
37291,0.2583192,-0.0984333,-0.99430084,-0.004248047,-0.053100586,-0.023364259,95.0
37292,0.7353907,-0.027501523,-0.58751833,-0.004248047,-0.053100586,-0.023364259,95.0
37293,0.7353907,-0.027501523,-0.58751833,-0.38444826,-0.14761963,-0.04141846,95.0
37294,1.2490425,-0.36357838,0.3272388,-0.38444826,-0.14761963,-0.04141846,95.0
37295,1.2490425,-0.36357838,0.3272388,0.004248047,-0.16248779,0.027612304,95.0
37296,1.0309968,-0.84943205,1.2623403,0.004248047,-0.16248779,0.027612304,95.0
37297,1.0309968,-0.84943205,1.2623403,0.14868164,-0.0361084,0.05628662,95.0
37298,0.3944385,-0.62084204,1.2867888,0.14868164,-0.0361084,0.05628662,95.0
37299,0.3944385,-0.62084204,1.2867888,-0.012744141,0.1444336,0.17629395,95.0
37300,-0.07664895,0.09308463,0.6090697,-0.012744141,0.1444336,0.17629395,95.0
37301,-0.07664895,0.09308463,0.6090697,-0.14868164,0.2357666,0.27293703,95.0
37302,-0.28050864,0.51478755,0.0047118366,-0.14868164,0.2357666,0.27293703,95.0
37303,-0.28050864,0.51478755,0.0047118366,-0.271875,0.26762697,0.19328614,95.0
37304,-0.3570119,0.5536025,-0.27112067,-0.271875,0.26762697,0.19328614,95.0
37305,-0.3570119,0.5536025,-0.27112067,-0.36320803,0.22939454,0.18372802,95.0
37306,-0.37004557,0.25771356,-0.38200885,-0.36320803,0.22939454,0.18372802,95.0
37307,-0.37004557,0.25771356,-0.38200885,-0.2623169,0.12213135,0.05522461,95.0
37308,-0.3065589,-0.18803084,-0.3695109,-0.2623169,0.12213135,0.05522461,95.0
37309,-0.3065589,-0.18803084,-0.3695109,-0.038232423,-0.03079834,-0.011682129,95.0
37310,-0.18816707,-0.34123278,-0.1556551,-0.038232423,-0.03079834,-0.011682129,95.0
37311,-0.18816707,-0.34123278,-0.1556551,0.015930176,-0.07646485,-0.06796875,95.0
37312,-0.116061,-0.26392862,0.13696274,0.015930176,-0.07646485,-0.06796875,95.0
37313,-0.116061,-0.26392862,0.13696274,0.08283692,-0.10301514,-0.053100586,95.0
37314,-0.089357615,-0.12786654,0.35566396,0.08283692,-0.10301514,-0.053100586,95.0
37315,-0.089357615,-0.12786654,0.35566396,0.09451904,-0.057348635,-0.011682129,95.0
37316,-0.03072682,0.08293626,0.38432366,0.09451904,-0.057348635,-0.011682129,95.0
37317,-0.03072682,0.08293626,0.38432366,-0.0180542,0.07434082,0.035046387,95.0
37318,-0.017061919,0.20109022,0.1458134,-0.0180542,0.07434082,0.035046387,95.0
37319,-0.017061919,0.20109022,0.1458134,-0.0637207,0.12000733,0.0361084,95.0
37320,-0.081422955,0.04079163,-0.17669645,-0.0637207,0.12000733,0.0361084,95.0
37321,-0.081422955,0.04079163,-0.17669645,0.045666505,0.07752686,0.032922365,95.0
37322,-0.14842695,-0.23604345,-0.3054685,0.045666505,0.07752686,0.032922365,95.0
37323,-0.14842695,-0.23604345,-0.3054685,0.19753419,-0.09664307,0.04248047,95.0
37324,-0.19381481,-0.40544856,-0.18463358,0.19753419,-0.09664307,0.04248047,95.0
37325,-0.19381481,-0.40544856,-0.18463358,0.44923097,-0.26656494,0.078588866,95.0
37326,-0.016050383,-0.1723935,0.2084699,0.44923097,-0.26656494,0.078588866,95.0
37327,-0.016050383,-0.1723935,0.2084699,0.21240234,-0.16992188,0.07115479,95.0
37328,0.2701309,0.2226687,0.40239602,0.21240234,-0.16992188,0.07115479,95.0
37329,0.2701309,0.2226687,0.40239602,-0.007434082,-0.078588866,0.023364259,95.0
37330,0.31731322,0.31734395,-0.08817838,-0.007434082,-0.078588866,0.023364259,95.0
37331,0.31731322,0.31734395,-0.08817838,-0.60109866,-0.025488282,0.04460449,95.0
37332,0.23519823,0.02462712,-0.7622908,-0.60109866,-0.025488282,0.04460449,95.0
37333,0.23519823,0.02462712,-0.7622908,-1.0216553,-0.0031860352,0.029736329,95.0
37334,0.012450576,-1.2184453,-1.0118834,-1.0216553,-0.0031860352,0.029736329,95.0
37335,0.012450576,-1.2184453,-1.0118834,0.76677245,-0.23151855,0.09239502,95.0
37336,-0.6164311,-2.191553,-0.685642,0.76677245,-0.23151855,0.09239502,95.0
37337,-0.6164311,-2.191553,-0.685642,2.4893556,-0.62127686,0.2782471,95.0
37338,-0.49580604,-0.26758575,0.7976778,2.4893556,-0.62127686,0.2782471,95.0
37339,-0.49580604,-0.26758575,0.7976778,1.722583,-0.42905274,0.118945315,95.0
37340,0.6996808,3.678473,2.0623856,1.722583,-0.42905274,0.118945315,95.0
37341,0.6996808,3.678473,2.0623856,-0.9324463,0.6956177,-0.8400513,95.0
37342,1.0064732,5.1345263,0.7985778,-0.9324463,0.6956177,-0.8400513,95.0
37343,1.0064732,5.1345263,0.7985778,-2.2450929,0.7827026,-0.78376466,95.0
37344,-0.09562713,2.7101116,-1.4575856,-2.2450929,0.7827026,-0.78376466,95.0
37345,-0.09562713,2.7101116,-1.4575856,-1.3614991,0.5012695,-0.13699952,95.0
37346,-0.75659204,-1.8091569,-1.4820719,-1.3614991,0.5012695,-0.13699952,95.0
37347,-0.75659204,-1.8091569,-1.4820719,-0.1731079,0.27293703,0.11257324,95.0
37348,-0.34390888,-4.756774,0.17706224,-0.1731079,0.27293703,0.11257324,95.0
37349,-0.34390888,-4.756774,0.17706224,0.7083618,0.271875,0.5278198,95.0
37350,-0.05779311,-3.7244253,0.88391054,0.7083618,0.271875,0.5278198,95.0
37351,-0.05779311,-3.7244253,0.88391054,1.2170655,0.008496094,0.56817627,95.0
37352,-0.21037024,-0.57578063,0.34102738,1.2170655,0.008496094,0.56817627,95.0
37353,-0.21037024,-0.57578063,0.34102738,0.67650145,-0.07327881,0.1274414,95.0
37354,-0.49681184,1.7186358,-0.39762488,0.67650145,-0.07327881,0.1274414,95.0
37355,-0.49681184,1.7186358,-0.39762488,-0.1996582,0.1359375,0.14549561,95.0
37356,-0.38086012,1.9004214,-0.5475433,-0.1996582,0.1359375,0.14549561,95.0
37357,-0.38086012,1.9004214,-0.5475433,0.016992187,-0.010620117,0.12850343,95.0
37358,-0.0890753,1.3943117,-0.38113767,0.016992187,-0.010620117,0.12850343,95.0
37359,-0.0890753,1.3943117,-0.38113767,0.06478272,-0.009558106,0.13168946,95.0
37360,0.2744307,0.8694411,-0.20248094,0.06478272,-0.009558106,0.13168946,95.0
37361,0.2744307,0.8694411,-0.20248094,-0.087084964,-0.06796875,0.20921631,95.0
37362,0.1611461,0.39289173,-0.07199454,-0.087084964,-0.06796875,0.20921631,95.0
37363,0.1611461,0.39289173,-0.07199454,-0.0063720704,-0.090270996,0.16354981,95.0
37364,0.018955953,-1.0137262,0.75988483,-0.0063720704,-0.090270996,0.16354981,95.0
37365,0.018955953,-1.0137262,0.75988483,0.06796875,-0.07965088,0.19647217,95.0
37366,-0.014205355,-0.99999464,0.72742695,0.06796875,-0.07965088,0.19647217,95.0
37367,-0.014205355,-0.99999464,0.72742695,-0.027612304,-0.14974366,0.1720459,95.0
37368,-0.27779496,-0.7216388,0.004524565,-0.027612304,-0.14974366,0.1720459,95.0
37369,-0.27779496,-0.7216388,0.004524565,0.18691407,-0.5320679,0.05628662,95.0
37370,-0.2611886,-0.7603677,-0.15907566,0.18691407,-0.5320679,0.05628662,95.0
37371,-0.2611886,-0.7603677,-0.15907566,0.4895874,-0.54906005,0.06903076,95.0
37372,0.37428886,-0.7991267,0.5515969,0.4895874,-0.54906005,0.06903076,95.0
37373,0.37428886,-0.7991267,0.5515969,0.56180423,-0.1444336,0.14018555,95.0
37374,0.5012988,-0.28450394,0.6821711,0.56180423,-0.1444336,0.14018555,95.0
37375,0.5012988,-0.28450394,0.6821711,0.2538208,0.012744141,0.11682129,95.0
37376,0.34082174,1.9662933,0.11486527,0.2538208,0.012744141,0.11682129,95.0
37377,0.34082174,1.9662933,0.11486527,-0.8591675,0.24320069,-0.046728518,95.0
37378,0.34082174,1.9662933,0.11486527,-1.083252,0.3058594,-0.1178833,95.0
37379,0.1822033,2.1026,-0.15638658,-1.083252,0.3058594,-0.1178833,95.0
37380,0.20378265,0.5643189,-0.5636591,-1.083252,0.3058594,-0.1178833,95.0
37381,0.20378265,0.5643189,-0.5636591,-0.9611206,0.34833986,-0.04248047,95.0
37382,0.20378265,0.5643189,-0.5636591,-0.9611206,0.34833986,-0.04248047,94.0
37383,0.13187379,-0.27569333,-0.612585,-0.9611206,0.34833986,-0.04248047,94.0
37384,0.13187379,-0.27569333,-0.612585,-0.4163086,0.10301514,-0.14337158,94.0
37385,-0.10772121,-1.2730205,-0.8099533,-0.4163086,0.10301514,-0.14337158,94.0
37386,-0.10772121,-1.2730205,-0.8099533,-0.04141846,-0.11682129,-0.021240234,94.0
37387,-0.31337425,-1.1908652,-0.5287732,-0.04141846,-0.11682129,-0.021240234,94.0
37388,-0.31337425,-1.1908652,-0.5287732,0.20921631,-0.23258057,0.004248047,94.0
37389,-0.3574621,-0.37631273,0.44510892,0.20921631,-0.23258057,0.004248047,94.0
37390,-0.3574621,-0.37631273,0.44510892,0.11682129,-0.16248779,-0.08283692,94.0
37391,-0.21400923,-0.104736716,0.53644603,0.11682129,-0.16248779,-0.08283692,94.0
37392,-0.21400923,-0.104736716,0.53644603,0.13699952,-0.10195313,-0.0637207,94.0
37393,-0.037540384,0.27642792,0.5139469,0.13699952,-0.10195313,-0.0637207,94.0
37394,-0.037540384,0.27642792,0.5139469,-0.05628662,0.0053100586,-0.047790527,94.0
37395,0.023336828,0.37792945,0.28417996,-0.05628662,0.0053100586,-0.047790527,94.0
37396,0.023336828,0.37792945,0.28417996,-0.17735596,0.0722168,-0.04248047,94.0
37397,0.061723664,0.07031231,0.023559794,-0.17735596,0.0722168,-0.04248047,94.0
37398,0.061723664,0.07031231,0.023559794,-0.115759276,0.070092775,-0.043542482,94.0
37399,0.104334995,-0.23085952,-0.064770326,-0.115759276,0.070092775,-0.043542482,94.0
37400,0.104334995,-0.23085952,-0.064770326,-0.011682129,0.03186035,-0.022302246,94.0
37401,0.08573851,-0.034345806,-1.4389306E-4,-0.011682129,0.03186035,-0.022302246,94.0
37402,0.08573851,-0.034345806,-1.4389306E-4,-0.10195313,0.07646485,-0.009558106,94.0
37403,-0.06113331,0.4269301,-0.014140993,-0.10195313,0.07646485,-0.009558106,94.0
37404,-0.06113331,0.4269301,-0.014140993,-0.24744873,0.1083252,0.18585205,94.0
37405,-0.21923137,0.41640982,-0.32305595,-0.24744873,0.1083252,0.18585205,94.0
37406,-0.21923137,0.41640982,-0.32305595,-0.16461182,-0.022302246,0.040356446,94.0
37407,-0.1349432,0.22496136,-0.30734614,-0.16461182,-0.022302246,0.040356446,94.0
37408,-0.1349432,0.22496136,-0.30734614,-0.13487549,-0.04248047,0.043542482,94.0
37409,0.16797318,-0.13946451,-0.05802291,-0.13487549,-0.04248047,0.043542482,94.0
37410,0.16797318,-0.13946451,-0.05802291,-0.2527588,0.0722168,0.007434082,94.0
37411,0.30107775,-0.54023373,0.14371839,-0.2527588,0.0722168,0.007434082,94.0
37412,0.30107775,-0.54023373,0.14371839,-0.15505372,0.014868164,-0.057348635,94.0
37413,0.114092186,-0.58392036,0.04468663,-0.15505372,0.014868164,-0.057348635,94.0
37414,0.114092186,-0.58392036,0.04468663,0.023364259,-0.10089111,-0.059472658,94.0
37415,0.0018328428,-0.2939796,-0.036662802,0.023364259,-0.10089111,-0.059472658,94.0
37416,0.0018328428,-0.2939796,-0.036662802,0.09239502,-0.10195313,-0.08814698,94.0
37417,0.048060507,0.086496025,0.07585774,0.09239502,-0.10195313,-0.08814698,94.0
37418,0.048060507,0.086496025,0.07585774,0.0031860352,-0.026550293,-0.08602295,94.0
37419,0.16073844,0.30939457,0.24427995,0.0031860352,-0.026550293,-0.08602295,94.0
37420,0.16073844,0.30939457,0.24427995,-0.13062744,0.09133301,0.022302246,94.0
37421,0.10227239,0.25286233,0.1121598,-0.13062744,0.09133301,0.022302246,94.0
37422,0.10227239,0.25286233,0.1121598,-0.16673584,0.115759276,-0.007434082,94.0
37423,-0.15443698,0.14917707,-0.16126093,-0.16673584,0.115759276,-0.007434082,94.0
37424,-0.15443698,0.14917707,-0.16126093,-0.06584473,0.009558106,-0.06584473,94.0
37425,-0.22016825,0.09639244,-0.20801266,-0.06584473,0.009558106,-0.06584473,94.0
37426,-0.22016825,0.09639244,-0.20801266,-0.0998291,0.010620117,-0.14974366,94.0
37427,-0.13957454,-0.0024881065,-0.058487758,-0.0998291,0.010620117,-0.14974366,94.0
37428,-0.13957454,-0.0024881065,-0.058487758,-0.040356446,0.0010620117,-0.1178833,94.0
37429,-0.01250191,-0.17828444,0.16893245,-0.040356446,0.0010620117,-0.1178833,94.0
37430,-0.01250191,-0.17828444,0.16893245,-0.04991455,0.039294433,-0.124255374,94.0
37431,0.095101014,-0.3680914,0.2914204,-0.04991455,0.039294433,-0.124255374,94.0
37432,0.095101014,-0.3680914,0.2914204,-0.05628662,0.1529297,-0.04991455,94.0
37433,0.14129078,-0.4562285,0.19447663,-0.05628662,0.1529297,-0.04991455,94.0
37434,0.14129078,-0.4562285,0.19447663,0.25700685,0.09239502,0.04141846,94.0
37435,0.13509074,-0.0121873915,-0.029916734,0.25700685,0.09239502,0.04141846,94.0
37436,0.13509074,-0.0121873915,-0.029916734,0.12319336,0.038232423,0.058410645,94.0
37437,0.11171028,0.2869542,-0.1734085,0.12319336,0.038232423,0.058410645,94.0
37438,0.11171028,0.2869542,-0.1734085,0.009558106,0.0180542,0.08283692,94.0
37439,0.13568169,-0.123500615,-0.058343492,0.009558106,0.0180542,0.08283692,94.0
37440,0.13568169,-0.123500615,-0.058343492,0.1083252,-0.15080567,0.16567384,94.0
37441,0.1459111,-0.45634443,-0.033857413,0.1083252,-0.15080567,0.16567384,94.0
37442,0.1459111,-0.45634443,-0.033857413,-0.058410645,-0.13699952,-0.023364259,94.0
37443,0.061870486,-0.22612292,-0.17719579,-0.058410645,-0.13699952,-0.023364259,94.0
37444,0.061870486,-0.22612292,-0.17719579,0.021240234,-0.19328614,0.07434082,94.0
37445,-0.027407914,0.13707042,-0.18559209,0.021240234,-0.19328614,0.07434082,94.0
37446,-0.027407914,0.13707042,-0.18559209,-0.3717041,-0.0998291,-0.050976563,94.0
37447,-0.4152369,-0.16733342,-0.32020217,-0.3717041,-0.0998291,-0.050976563,94.0
37448,-0.4152369,-0.16733342,-0.32020217,0.22727051,-0.23258057,-0.14549561,94.0
37449,-0.5834224,-1.8049605,-0.60827357,0.22727051,-0.23258057,-0.14549561,94.0
37450,-0.5834224,-1.8049605,-0.60827357,2.090039,-0.5894165,0.095581055,94.0
37451,-0.35739958,-0.4422716,-0.039023638,2.090039,-0.5894165,0.095581055,94.0
37452,-0.35739958,-0.4422716,-0.039023638,1.8702027,-0.4322388,0.0180542,94.0
37453,0.581158,3.6481237,1.3486273,1.8702027,-0.4322388,0.0180542,94.0
37454,0.581158,3.6481237,1.3486273,-0.5894165,0.7189819,-0.7954468,94.0
37455,1.0725436,4.870574,1.4876543,-0.5894165,0.7189819,-0.7954468,94.0
37456,1.0725436,4.870574,1.4876543,-1.9360474,1.0110352,-0.79969484,94.0
37457,0.19389915,2.3269038,-0.27625838,-1.9360474,1.0110352,-0.79969484,94.0
37458,0.19389915,2.3269038,-0.27625838,-1.0397094,0.38869628,-0.5278198,94.0
37459,-0.6996048,-0.9153203,-1.6947128,-1.0397094,0.38869628,-0.5278198,94.0
37460,-0.6996048,-0.9153203,-1.6947128,0.3090454,0.03079834,0.14974366,94.0
37461,-0.66698366,-2.5788016,-0.97802365,0.3090454,0.03079834,0.14974366,94.0
37462,-0.66698366,-2.5788016,-0.97802365,0.17416993,0.24638672,0.3334717,94.0
37463,-0.3573052,-2.5014203,0.5072417,0.17416993,0.24638672,0.3334717,94.0
37464,-0.3573052,-2.5014203,0.5072417,0.35577393,0.014868164,0.48746338,94.0
37465,-0.15428899,-0.8946543,0.6645092,0.35577393,0.014868164,0.48746338,94.0
37466,-0.15428899,-0.8946543,0.6645092,0.1178833,-0.016992187,0.1539917,94.0
37467,-0.16774271,0.83735275,0.007730406,0.1178833,-0.016992187,0.1539917,94.0
37468,-0.16774271,0.83735275,0.007730406,-0.15823975,0.13062744,0.16673584,94.0
37469,-0.32271957,1.041928,-0.22288063,-0.15823975,0.13062744,0.16673584,94.0
37470,-0.32271957,1.041928,-0.22288063,0.07752686,0.08814698,0.19116211,94.0
37471,-0.32817078,0.42822024,-0.21156867,0.07752686,0.08814698,0.19116211,94.0
37472,-0.32817078,0.42822024,-0.21156867,0.20709229,0.022302246,0.21877442,94.0
37473,-0.2696045,-0.23259473,-0.0768477,0.20709229,0.022302246,0.21877442,94.0
37474,-0.2696045,-0.23259473,-0.0768477,0.32497558,-0.11469727,0.27612305,94.0
37475,-0.18498293,-0.73061925,0.41104382,0.32497558,-0.11469727,0.27612305,94.0
37476,-0.18498293,-0.73061925,0.41104382,0.2782471,-0.26337892,0.27399904,94.0
37477,-0.08286184,-1.0712264,0.6302999,0.2782471,-0.26337892,0.27399904,94.0
37478,-0.08286184,-1.0712264,0.6302999,0.37595215,-0.4258667,0.3791382,94.0
37479,0.1416817,-0.8596544,0.090885445,0.37595215,-0.4258667,0.3791382,94.0
37480,0.1416817,-0.8596544,0.090885445,0.56605226,-0.32072756,0.050976563,94.0
37481,0.21683657,0.34439313,-0.4371061,0.56605226,-0.32072756,0.050976563,94.0
37482,0.21683657,0.34439313,-0.4371061,0.4333008,-0.31116945,0.027612304,94.0
37483,0.16817142,1.7516497,-0.23205793,0.4333008,-0.31116945,0.027612304,94.0
37484,0.16817142,1.7516497,-0.23205793,-0.03186035,-0.11151123,-0.10513916,94.0
37485,0.41468853,1.9307144,0.28690004,-0.03186035,-0.11151123,-0.10513916,94.0
37486,0.41468853,1.9307144,0.28690004,-0.62764895,0.20496826,-0.0637207,94.0
37487,0.43403354,0.68313354,0.20832863,-0.62764895,0.20496826,-0.0637207,94.0
37488,0.43403354,0.68313354,0.20832863,-0.6202149,0.15930176,-0.04460449,94.0
37489,0.43403354,0.68313354,0.20832863,-0.6202149,0.15930176,-0.04460449,94.0
37490,0.052829854,-0.66732377,-0.27600068,-0.6202149,0.15930176,-0.04460449,94.0
37491,0.052829854,-0.66732377,-0.27600068,-0.20496826,-0.0031860352,-0.052038576,94.0
37492,-0.21441336,-1.0697598,-0.30880103,-0.20496826,-0.0031860352,-0.052038576,94.0
37493,-0.21441336,-1.0697598,-0.30880103,-0.026550293,-0.06690674,-0.052038576,94.0
37494,-0.23536126,-0.5808445,-0.025116995,-0.026550293,-0.06690674,-0.052038576,94.0
37495,-0.23536126,-0.5808445,-0.025116995,-0.07434082,-0.06265869,-0.053100586,94.0
37496,-0.14784712,-0.17447789,0.14702067,-0.07434082,-0.06265869,-0.053100586,94.0
37497,-0.14784712,-0.17447789,0.14702067,0.047790527,-0.093457036,-0.040356446,94.0
37498,-0.029141948,-0.06261699,0.20300472,0.047790527,-0.093457036,-0.040356446,94.0
37499,-0.029141948,-0.06261699,0.20300472,0.0637207,-0.0541626,0.0010620117,94.0
37500,0.051539958,0.08430582,0.18908834,0.0637207,-0.0541626,0.0010620117,94.0
37501,0.051539958,0.08430582,0.18908834,-0.03186035,-0.013806152,0.023364259,94.0
37502,0.029293492,0.09553304,0.09395866,-0.03186035,-0.013806152,0.023364259,94.0
37503,0.029293492,0.09553304,0.09395866,-0.06265869,-0.04141846,0.0180542,94.0
37504,-0.0843533,0.024570972,-0.13307282,-0.06265869,-0.04141846,0.0180542,94.0
37505,-0.0843533,0.024570972,-0.13307282,0.06265869,-0.10513916,-0.047790527,94.0
37506,-0.16991183,0.16323587,-0.21656568,0.06265869,-0.10513916,-0.047790527,94.0
37507,-0.16991183,0.16323587,-0.21656568,0.03079834,-0.08071289,-0.023364259,94.0
37508,-0.078593045,0.5050882,-0.03627745,0.03079834,-0.08071289,-0.023364259,94.0
37509,-0.078593045,0.5050882,-0.03627745,-0.24744873,0.029736329,-0.025488282,94.0
37510,-0.012105405,0.47045243,0.081756845,-0.24744873,0.029736329,-0.025488282,94.0
37511,-0.012105405,0.47045243,0.081756845,-0.4088745,0.015930176,-0.010620117,94.0
37512,-0.025138423,0.09655237,-0.024755653,-0.4088745,0.015930176,-0.010620117,94.0
37513,-0.025138423,0.09655237,-0.024755653,-0.31116945,-0.09451904,-0.10089111,94.0
37514,0.057928815,-0.10301936,-0.1412889,-0.31116945,-0.09451904,-0.10089111,94.0
37515,0.057928815,-0.10301936,-0.1412889,-0.2814331,-0.007434082,-0.08814698,94.0
37516,0.18718779,-0.18256193,0.04926136,-0.2814331,-0.007434082,-0.08814698,94.0
37517,0.18718779,-0.18256193,0.04926136,-0.2177124,0.07115479,-0.033984374,94.0
37518,0.2439397,-0.4054612,0.30166495,-0.2177124,0.07115479,-0.033984374,94.0
37519,0.2439397,-0.4054612,0.30166495,-0.33240968,0.23151855,-0.027612304,94.0
37520,0.26349893,-0.85747445,0.32520646,-0.33240968,0.23151855,-0.027612304,94.0
37521,0.26349893,-0.85747445,0.32520646,0.08283692,0.16248779,0.028674318,94.0
37522,0.13899738,-0.64502496,-0.02566246,0.08283692,0.16248779,0.028674318,94.0
37523,0.13899738,-0.64502496,-0.02566246,0.15717773,0.060534667,0.046728518,94.0
37524,-0.020332858,0.10486626,-0.49670184,0.15717773,0.060534667,0.046728518,94.0
37525,-0.020332858,0.10486626,-0.49670184,0.16354981,-0.124255374,-0.043542482,94.0
37526,-0.03537029,0.18079242,-0.5432111,0.16354981,-0.124255374,-0.043542482,94.0
37527,-0.03537029,0.18079242,-0.5432111,0.2548828,-0.24638672,-0.04885254,94.0
37528,-0.03533969,-0.22776598,-0.111180216,0.2548828,-0.24638672,-0.04885254,94.0
37529,-0.03533969,-0.22776598,-0.111180216,0.51188964,-0.2803711,-0.04141846,94.0
37530,0.024548072,-0.09434657,0.29150015,0.51188964,-0.2803711,-0.04141846,94.0
37531,0.024548072,-0.09434657,0.29150015,0.36002198,-0.14655761,-0.07540283,94.0
37532,0.0452244,0.5774036,0.3789765,0.36002198,-0.14655761,-0.07540283,94.0
37533,0.0452244,0.5774036,0.3789765,0.06159668,-0.0180542,-0.07434082,94.0
37534,0.059555985,0.90558743,0.30379155,0.06159668,-0.0180542,-0.07434082,94.0
37535,0.059555985,0.90558743,0.30379155,-0.26656494,0.11044922,-0.06584473,94.0
37536,0.033423595,0.54976296,0.14033549,-0.26656494,0.11044922,-0.06584473,94.0
37537,0.033423595,0.54976296,0.14033549,-0.37701416,0.13381349,-0.05628662,94.0
37538,-0.042011127,0.0027742386,-0.04676482,-0.37701416,0.13381349,-0.05628662,94.0
37539,-0.042011127,0.0027742386,-0.04676482,-0.4056885,0.12319336,-0.0541626,94.0
37540,-0.13753957,-0.42420882,-0.21077612,-0.4056885,0.12319336,-0.0541626,94.0
37541,-0.13753957,-0.42420882,-0.21077612,-0.23364258,0.015930176,-0.06903076,94.0
37542,-0.25514883,-0.82087344,-0.2931326,-0.23364258,0.015930176,-0.06903076,94.0
37543,-0.25514883,-0.82087344,-0.2931326,0.08071289,-0.19222413,-0.11257324,94.0
37544,-0.2420097,-1.047458,-0.18014818,0.08071289,-0.19222413,-0.11257324,94.0
37545,-0.2420097,-1.047458,-0.18014818,0.634021,-0.31435546,-0.057348635,94.0
37546,-0.10881773,-0.6606959,0.006980084,0.634021,-0.31435546,-0.057348635,94.0
37547,-0.10881773,-0.6606959,0.006980084,0.72216797,-0.32285157,-0.2347046,94.0
37548,0.0077944547,0.010237202,0.24183896,0.72216797,-0.32285157,-0.2347046,94.0
37549,0.0077944547,0.010237202,0.24183896,0.7614624,-0.31329346,-0.18054199,94.0
37550,0.20783469,1.015453,0.5828266,0.7614624,-0.31329346,-0.18054199,94.0
37551,0.20783469,1.015453,0.5828266,0.05522461,0.043542482,-0.2623169,94.0
37552,0.41564518,2.4789639,0.53729403,0.05522461,0.043542482,-0.2623169,94.0
37553,0.41564518,2.4789639,0.53729403,-1.0970582,0.58623046,-0.6117188,94.0
37554,0.50274324,2.8471727,-0.012608618,-1.0970582,0.58623046,-0.6117188,94.0
37555,0.50274324,2.8471727,-0.012608618,-1.9668458,1.0014771,-0.70305175,94.0
37556,0.18540992,1.325077,-0.44629294,-1.9668458,1.0014771,-0.70305175,94.0
37557,0.18540992,1.325077,-0.44629294,-1.7480713,0.7126099,-0.996167,94.0
37558,-0.31326875,-0.8824433,-0.55106515,-1.7480713,0.7126099,-0.996167,94.0
37559,-0.31326875,-0.8824433,-0.55106515,-1.1034302,0.2623169,-0.5703003,94.0
37560,-0.4832322,-2.346311,-0.45120367,-1.1034302,0.2623169,-0.5703003,94.0
37561,-0.4832322,-2.346311,-0.45120367,-0.59472656,-0.070092775,-0.35789797,94.0
37562,-0.35755745,-2.5955303,-0.26240337,-0.59472656,-0.070092775,-0.35789797,94.0
37563,-0.35755745,-2.5955303,-0.26240337,-0.12531738,-0.17947999,-0.2442627,94.0
37564,-0.020237848,-2.1407676,-0.076878265,-0.12531738,-0.17947999,-0.2442627,94.0
37565,-0.020237848,-2.1407676,-0.076878265,0.52675784,-0.1444336,0.16779785,94.0
37566,0.15219352,-1.046159,-0.013699874,0.52675784,-0.1444336,0.16779785,94.0
37567,0.15219352,-1.046159,-0.013699874,0.79969484,-0.14761963,0.3812622,94.0
37568,0.06622503,0.35115877,0.027516663,0.79969484,-0.14761963,0.3812622,94.0
37569,0.06622503,0.35115877,0.027516663,0.7338501,-0.18797608,0.37807617,94.0
37570,0.062489305,1.1222601,0.21940103,0.7338501,-0.18797608,0.37807617,94.0
37571,0.062489305,1.1222601,0.21940103,0.33984375,0.06159668,0.25063476,94.0
37572,0.09414428,0.8081596,0.2895345,0.33984375,0.06159668,0.25063476,94.0
37573,0.09414428,0.8081596,0.2895345,0.41843262,0.09133301,0.36533204,94.0
37574,0.0077372976,0.3024115,0.08528971,0.41843262,0.09133301,0.36533204,94.0
37575,0.0077372976,0.3024115,0.08528971,0.5384399,0.11363526,0.3802002,94.0
37576,-0.11579503,0.5102031,-0.12249089,0.5384399,0.11363526,0.3802002,94.0
37577,-0.11579503,0.5102031,-0.12249089,0.24638672,0.06690674,0.21877442,94.0
37578,-0.2596526,0.56016445,-0.19047318,0.24638672,0.06690674,0.21877442,94.0
37579,-0.2596526,0.56016445,-0.19047318,0.12000733,-0.13168946,0.13806152,94.0
37580,-0.38385737,-0.12847978,-0.0998639,0.12000733,-0.13168946,0.13806152,94.0
37581,-0.38385737,-0.12847978,-0.0998639,0.40250245,-0.37489015,0.18797608,94.0
37582,-0.129852,-0.51442933,0.12988672,0.40250245,-0.37489015,0.18797608,94.0
37583,-0.129852,-0.51442933,0.12988672,0.50870365,-0.20603028,0.2623169,94.0
37584,0.15596949,0.06333445,0.25506905,0.50870365,-0.20603028,0.2623169,94.0
37585,0.15596949,0.06333445,0.25506905,0.15823975,-0.04460449,0.1444336,94.0
37586,0.040180862,0.47541124,0.18653814,0.15823975,-0.04460449,0.1444336,94.0
37587,0.040180862,0.47541124,0.18653814,-0.015930176,-0.118945315,0.18903808,94.0
37588,0.06798454,0.06659609,0.25135455,-0.015930176,-0.118945315,0.18903808,94.0
37589,0.06798454,0.06659609,0.25135455,-0.007434082,-0.070092775,0.090270996,94.0
37590,0.4237602,-0.35064158,0.3925265,-0.007434082,-0.070092775,0.090270996,94.0
37591,0.4237602,-0.35064158,0.3925265,0.124255374,0.17841797,0.121069334,94.0
37592,0.5461615,0.16090518,0.15978536,0.124255374,0.17841797,0.121069334,94.0
37593,0.5461615,0.16090518,0.15978536,-0.21983643,0.31966552,0.15717773,94.0
37594,0.24652392,0.62703955,-0.16453011,-0.21983643,0.31966552,0.15717773,94.0
37595,0.24652392,0.62703955,-0.16453011,-0.36745605,0.17416993,0.07327881,94.0
37596,-0.119992785,-0.106583655,-0.2596026,-0.36745605,0.17416993,0.07327881,94.0
37597,-0.119992785,-0.106583655,-0.2596026,-0.36745605,0.17416993,0.07327881,94.0
37598,-0.119992785,-0.106583655,-0.2596026,-0.16779785,0.016992187,0.083898924,94.0
37599,-0.34741026,-1.2510018,-0.47374654,-0.16779785,0.016992187,0.083898924,94.0
37600,-0.34741026,-1.2510018,-0.47374654,0.4322388,-0.31860352,0.16036378,94.0
37601,-0.34238133,-1.4836628,-0.2825861,0.4322388,-0.31860352,0.16036378,94.0
37602,-0.34238133,-1.4836628,-0.2825861,0.75615233,-0.5299439,0.081774905,94.0
37603,0.018868372,-0.14111724,0.33196336,0.75615233,-0.5299439,0.081774905,94.0
37604,0.018868372,-0.14111724,0.33196336,0.012744141,-0.1529297,-0.07327881,94.0
37605,0.35943064,1.3227508,0.29951844,0.012744141,-0.1529297,-0.07327881,94.0
37606,0.35943064,1.3227508,0.29951844,-0.9483765,0.095581055,-0.121069334,94.0
37607,0.23476131,1.0818456,-0.29574904,-0.9483765,0.095581055,-0.121069334,94.0
37608,0.23476131,1.0818456,-0.29574904,-1.2574219,0.08071289,-0.15186767,94.0
37609,-0.16946635,-1.3537374,-0.66861826,-1.2574219,0.08071289,-0.15186767,94.0
37610,-0.16946635,-1.3537374,-0.66861826,0.75721437,-0.2357666,0.20603028,94.0
37611,-0.4865008,-2.7063909,-0.41654748,0.75721437,-0.2357666,0.20603028,94.0
37612,-0.4865008,-2.7063909,-0.41654748,1.9328613,-0.59897465,0.04885254,94.0
37613,-0.122342736,0.2770871,0.5338763,1.9328613,-0.59897465,0.04885254,94.0
37614,-0.122342736,0.2770871,0.5338763,0.6796875,-0.18372802,-0.2516968,94.0
37615,0.6700213,3.8188865,1.3671279,0.6796875,-0.18372802,-0.2516968,94.0
37616,0.6700213,3.8188865,1.3671279,-0.9674927,0.8092529,-0.6839356,94.0
37617,0.7883852,3.804499,0.7660656,-0.9674927,0.8092529,-0.6839356,94.0
37618,0.7883852,3.804499,0.7660656,-1.7002808,0.65844727,-0.65632325,94.0
37619,0.0732497,1.2449298,-0.86493075,-1.7002808,0.65844727,-0.65632325,94.0
37620,0.0732497,1.2449298,-0.86493075,-0.78376466,0.33771974,-0.2824951,94.0
37621,-0.41995248,-1.3951085,-1.609364,-0.78376466,0.33771974,-0.2824951,94.0
37622,-0.41995248,-1.3951085,-1.609364,0.23789063,-0.038232423,0.24107666,94.0
37623,-0.34448248,-2.678965,-0.5441319,0.23789063,-0.038232423,0.24107666,94.0
37624,-0.34448248,-2.678965,-0.5441319,0.40144044,0.07965088,0.4333008,94.0
37625,-0.27631843,-2.2378743,0.670383,0.40144044,0.07965088,0.4333008,94.0
37626,-0.27631843,-2.2378743,0.670383,0.3971924,-0.012744141,0.30054933,94.0
37627,-0.25737065,-0.30970868,0.5484646,0.3971924,-0.012744141,0.30054933,94.0
37628,-0.25737065,-0.30970868,0.5484646,0.029736329,0.013806152,0.053100586,94.0
37629,-0.19786431,1.2046256,0.091054395,0.029736329,0.013806152,0.053100586,94.0
37630,-0.19786431,1.2046256,0.091054395,-0.12850343,0.20709229,0.13168946,94.0
37631,-0.07167035,0.88937193,0.06753346,-0.12850343,0.20709229,0.13168946,94.0
37632,-0.07167035,0.88937193,0.06753346,0.41949463,0.13699952,0.18266602,94.0
37633,-0.112414405,-0.20483547,-0.0698746,0.41949463,0.13699952,0.18266602,94.0
37634,-0.112414405,-0.20483547,-0.0698746,0.50870365,0.078588866,0.3451538,94.0
37635,-0.3160912,-0.835719,-0.4513709,0.50870365,0.078588866,0.3451538,94.0
37636,-0.3160912,-0.835719,-0.4513709,0.33028564,-0.15186767,0.32709962,94.0
37637,-0.43396428,-0.72090673,-0.38255668,0.33028564,-0.15186767,0.32709962,94.0
37638,-0.43396428,-0.72090673,-0.38255668,0.1709839,-0.47684327,0.19541016,94.0
37639,-0.323148,-0.51017267,0.3082613,0.1709839,-0.47684327,0.19541016,94.0
37640,-0.323148,-0.51017267,0.3082613,0.35152587,-0.6701294,0.16779785,94.0
37641,0.12823695,-0.54632175,0.64035904,0.35152587,-0.6701294,0.16779785,94.0
37642,0.12823695,-0.54632175,0.64035904,0.42799073,-0.36427003,0.059472658,94.0
37643,0.47099778,0.06105052,0.3231271,0.42799073,-0.36427003,0.059472658,94.0
37644,0.47099778,0.06105052,0.3231271,0.3791382,-0.25063476,0.015930176,94.0
37645,0.42070693,1.5085328,0.122649625,0.3791382,-0.25063476,0.015930176,94.0
37646,0.42070693,1.5085328,0.122649625,-0.16354981,-0.06584473,-0.1274414,94.0
37647,0.38189027,2.0620022,0.19331014,-0.16354981,-0.06584473,-0.1274414,94.0
37648,0.38189027,2.0620022,0.19331014,-0.83474123,0.20072022,-0.039294433,94.0
37649,0.3534126,1.069963,-0.03511019,-0.83474123,0.20072022,-0.039294433,94.0
37650,0.3534126,1.069963,-0.03511019,-1.1023682,0.2793091,0.098767094,94.0
37651,0.058999617,-0.36060673,-0.45678687,-1.1023682,0.2793091,0.098767094,94.0
37652,0.058999617,-0.36060673,-0.45678687,-0.5883545,-0.02442627,-0.04885254,94.0
37653,-0.25757325,-1.1410122,-0.43621808,-0.5883545,-0.02442627,-0.04885254,94.0
37654,-0.25757325,-1.1410122,-0.43621808,-0.057348635,-0.087084964,-0.027612304,94.0
37655,-0.2553384,-0.9361619,-0.083044305,-0.057348635,-0.087084964,-0.027612304,94.0
37656,-0.2553384,-0.9361619,-0.083044305,0.081774905,-0.033984374,-0.06478272,94.0
37657,-0.07969797,-0.3354285,0.1268629,0.081774905,-0.033984374,-0.06478272,94.0
37658,-0.07969797,-0.3354285,0.1268629,0.06584473,-0.03079834,-0.05628662,94.0
37659,0.023167893,-0.0052446723,0.12636825,0.06584473,-0.03079834,-0.05628662,94.0
37660,0.023167893,-0.0052446723,0.12636825,0.052038576,-0.06690674,-0.050976563,94.0
37661,0.03590492,0.040994704,0.040877312,0.052038576,-0.06690674,-0.050976563,94.0
37662,0.03590492,0.040994704,0.040877312,0.087084964,-0.08071289,-0.043542482,94.0
37663,0.0338753,-0.043315083,-0.02511065,0.087084964,-0.08071289,-0.043542482,94.0
37664,0.0338753,-0.043315083,-0.02511065,0.18054199,-0.06478272,-0.0031860352,94.0
37665,0.0629767,-0.12998898,0.113126814,0.18054199,-0.06478272,-0.0031860352,94.0
37666,0.0629767,-0.12998898,0.113126814,0.20072022,-0.029736329,0.0010620117,94.0
37667,0.07812794,0.08366752,0.30438083,0.20072022,-0.029736329,0.0010620117,94.0
37668,0.07812794,0.08366752,0.30438083,-0.007434082,0.07115479,0.03079834,94.0
37669,-0.0030249879,0.45980513,0.19559209,-0.007434082,0.07115479,0.03079834,94.0
37670,-0.0030249879,0.45980513,0.19559209,-0.32603762,0.08496094,0.035046387,94.0
37671,-0.16672663,0.3027196,-0.19992281,-0.32603762,0.08496094,0.035046387,94.0
37672,-0.16672663,0.3027196,-0.19992281,-0.13062744,-0.06265869,-0.11363526,94.0
37673,-0.0569897,-0.23941615,-0.2888323,-0.13062744,-0.06265869,-0.11363526,94.0
37674,-0.0569897,-0.23941615,-0.2888323,0.12956543,-0.043542482,0.03186035,94.0
37675,0.20361479,-0.35488743,0.018628985,0.12956543,-0.043542482,0.03186035,94.0
37676,0.20361479,-0.35488743,0.018628985,-0.04991455,0.08920898,-0.0063720704,94.0
37677,0.17540404,-0.15699343,0.09714196,-0.04991455,0.08920898,-0.0063720704,94.0
37678,0.17540404,-0.15699343,0.09714196,-0.05522461,0.035046387,-0.012744141,94.0
37679,-0.017379403,0.05253026,-0.10679571,-0.05522461,0.035046387,-0.012744141,94.0
37680,-0.017379403,0.05253026,-0.10679571,0.0180542,-0.0541626,-0.043542482,94.0
37681,-0.12061739,0.25843045,-0.17441362,0.0180542,-0.0541626,-0.043542482,94.0
37682,-0.12061739,0.25843045,-0.17441362,-0.013806152,-0.020178223,-0.08283692,94.0
37683,-0.11033669,0.29995728,-0.015861467,-0.013806152,-0.020178223,-0.08283692,94.0
37684,-0.11033669,0.29995728,-0.015861467,-0.10407715,-0.03079834,-0.08071289,94.0
37685,-0.04110138,0.06278077,0.14630741,-0.10407715,-0.03079834,-0.08071289,94.0
37686,-0.04110138,0.06278077,0.14630741,-0.083898924,0.019116212,-0.012744141,94.0
37687,0.009758055,-0.083515644,0.18824954,-0.083898924,0.019116212,-0.012744141,94.0
37688,0.009758055,-0.083515644,0.18824954,-0.11151123,0.0541626,0.04885254,94.0
37689,0.009758055,-0.083515644,0.18824954,-0.11151123,0.0541626,0.04885254,95.0
37690,-0.046942092,0.05608785,0.059181184,-0.11151123,0.0541626,0.04885254,95.0
37691,-0.046942092,0.05608785,0.059181184,-0.16885987,0.083898924,0.033984374,95.0
37692,-0.17170894,0.13985318,-0.06857303,-0.16885987,0.083898924,0.033984374,95.0
37693,-0.17170894,0.13985318,-0.06857303,-0.11151123,0.060534667,0.038232423,95.0
37694,-0.19943991,0.2429372,-0.04622805,-0.11151123,0.060534667,0.038232423,95.0
37695,-0.19943991,0.2429372,-0.04622805,-0.24213867,0.13806152,0.021240234,95.0
37696,-0.14483026,0.24621743,0.0024218578,-0.24213867,0.13806152,0.021240234,95.0
37697,-0.14483026,0.24621743,0.0024218578,-0.31435546,0.13912354,0.107263185,95.0
37698,-0.09553951,-0.1730212,0.08971825,-0.31435546,0.13912354,0.107263185,95.0
37699,-0.09553951,-0.1730212,0.08971825,-0.35046387,0.13275146,-0.046728518,95.0
37700,-0.005630821,-0.708937,0.13503143,-0.35046387,0.13275146,-0.046728518,95.0
37701,-0.005630821,-0.708937,0.13503143,-0.16461182,0.053100586,-0.15186767,95.0
37702,0.26777318,-1.0082384,0.08267114,-0.16461182,0.053100586,-0.15186767,95.0
37703,0.26777318,-1.0082384,0.08267114,0.22939454,0.0053100586,-0.1083252,95.0
37704,0.51050764,-0.46702778,-0.051074997,0.22939454,0.0053100586,-0.1083252,95.0
37705,0.51050764,-0.46702778,-0.051074997,0.1901001,-0.007434082,-0.08283692,95.0
37706,0.54650426,0.443077,-0.21921694,0.1901001,-0.007434082,-0.08283692,95.0
37707,0.54650426,0.443077,-0.21921694,-0.0180542,-0.09133301,0.053100586,95.0
37708,0.51881963,0.48504022,0.05797606,-0.0180542,-0.09133301,0.053100586,95.0
37709,0.51881963,0.48504022,0.05797606,-0.21983643,0.026550293,-0.039294433,95.0
37710,0.35043168,0.169331,0.4033877,-0.21983643,0.026550293,-0.039294433,95.0
37711,0.35043168,0.169331,0.4033877,-0.5235718,0.19222413,0.0031860352,95.0
37712,-0.05976695,0.06083101,-0.013886526,-0.5235718,0.19222413,0.0031860352,95.0
37713,-0.05976695,0.06083101,-0.013886526,-0.64995116,0.18160401,0.04141846,95.0
37714,-0.32048202,-0.2572556,-0.64388514,-0.64995116,0.18160401,0.04141846,95.0
37715,-0.32048202,-0.2572556,-0.64388514,-0.45878908,-0.15823975,-0.06796875,95.0
37716,-0.27724746,-0.83048713,-0.733321,-0.45878908,-0.15823975,-0.06796875,95.0
37717,-0.27724746,-0.83048713,-0.733321,0.07646485,-0.35152587,0.026550293,95.0
37718,-0.22520372,-1.6309912,-0.5821036,0.07646485,-0.35152587,0.026550293,95.0
37719,-0.22520372,-1.6309912,-0.5821036,1.0715698,-0.3334717,-0.046728518,95.0
37720,-0.35079286,-1.9256182,-0.24594411,1.0715698,-0.3334717,-0.046728518,95.0
37721,-0.35079286,-1.9256182,-0.24594411,2.2057984,-0.62552494,-0.095581055,95.0
37722,-0.2693306,-0.07237935,0.77946544,2.2057984,-0.62552494,-0.095581055,95.0
37723,-0.2693306,-0.07237935,0.77946544,1.3986695,-0.36108398,-0.15823975,95.0
37724,0.49292177,2.897492,1.709107,1.3986695,-0.36108398,-0.15823975,95.0
37725,0.49292177,2.897492,1.709107,-0.7412842,0.4354248,-0.38657227,95.0
37726,1.1398208,4.133643,1.2109869,-0.7412842,0.4354248,-0.38657227,95.0
37727,1.1398208,4.133643,1.2109869,-2.617859,1.177771,-0.6595093,95.0
37728,0.20089474,2.0093071,-0.20741907,-2.617859,1.177771,-0.6595093,95.0
37729,0.20089474,2.0093071,-0.20741907,-0.14974366,0.44498292,-0.2803711,95.0
37730,-0.78053176,-0.7465826,-1.5104421,-0.14974366,0.44498292,-0.2803711,95.0
37731,-0.78053176,-0.7465826,-1.5104421,0.540564,0.014868164,-0.09239502,95.0
37732,-0.5124015,-1.5760992,-1.740385,0.540564,0.014868164,-0.09239502,95.0
37733,-0.5124015,-1.5760992,-1.740385,0.3525879,0.0998291,0.25063476,95.0
37734,-0.22279964,-1.8178496,-0.53719324,0.3525879,0.0998291,0.25063476,95.0
37735,-0.22279964,-1.8178496,-0.53719324,0.5479981,-0.014868164,0.3451538,95.0
37736,-0.2108691,-1.6534374,0.60844123,0.5479981,-0.014868164,0.3451538,95.0
37737,-0.2108691,-1.6534374,0.60844123,0.50870365,-0.06796875,0.26444092,95.0
37738,-0.33388084,-0.36576754,0.6499732,0.50870365,-0.06796875,0.26444092,95.0
37739,-0.33388084,-0.36576754,0.6499732,0.13381349,-0.06584473,0.15930176,95.0
37740,-0.26292986,0.87236404,0.22386043,0.13381349,-0.06584473,0.15930176,95.0
37741,-0.26292986,0.87236404,0.22386043,0.04141846,0.027612304,0.19541016,95.0
37742,-0.053434715,0.87472224,0.069176234,0.04141846,0.027612304,0.19541016,95.0
37743,-0.053434715,0.87472224,0.069176234,0.2899292,0.07434082,0.21134034,95.0
37744,0.06496708,0.21956542,0.06521648,0.2899292,0.07434082,0.21134034,95.0
37745,0.06496708,0.21956542,0.06521648,0.4959595,0.06690674,0.28568116,95.0
37746,0.050826207,-0.23565137,0.15328403,0.4959595,0.06690674,0.28568116,95.0
37747,0.050826207,-0.23565137,0.15328403,0.3982544,-0.023364259,0.29311523,95.0
37748,-0.11435613,-0.28651917,0.20443875,0.3982544,-0.023364259,0.29311523,95.0
37749,-0.11435613,-0.28651917,0.20443875,0.10407715,-0.26444092,0.2262085,95.0
37750,-0.20544976,-0.12272118,0.08558469,0.10407715,-0.26444092,0.2262085,95.0
37751,-0.20544976,-0.12272118,0.08558469,-0.07965088,-0.3462158,0.24213867,95.0
37752,-0.02773872,0.027921692,-0.18863675,-0.07965088,-0.3462158,0.24213867,95.0
37753,-0.02773872,0.027921692,-0.18863675,-0.013806152,-0.32922363,0.107263185,95.0
37754,0.13757464,-0.010206595,-0.28809202,-0.013806152,-0.32922363,0.107263185,95.0
37755,0.13757464,-0.010206595,-0.28809202,0.44604492,-0.47684327,-0.09451904,95.0
37756,0.38551137,0.11067018,0.16303225,0.44604492,-0.47684327,-0.09451904,95.0
37757,0.38551137,0.11067018,0.16303225,0.3069214,-0.20603028,-0.02442627,95.0
37758,0.5995224,0.7573838,0.5706724,0.3069214,-0.20603028,-0.02442627,95.0
37759,0.5995224,0.7573838,0.5706724,-0.40250245,0.17416993,-0.040356446,95.0
37760,0.3596106,1.0617542,0.33908185,-0.40250245,0.17416993,-0.040356446,95.0
37761,0.3596106,1.0617542,0.33908185,-0.86553955,0.22727051,-0.07540283,95.0
37762,-0.030585453,0.37364656,-0.23622964,-0.86553955,0.22727051,-0.07540283,95.0
37763,-0.030585453,0.37364656,-0.23622964,-0.7688965,0.090270996,-0.06159668,95.0
37764,-0.27360165,-0.52474,-0.49912778,-0.7688965,0.090270996,-0.06159668,95.0
37765,-0.27360165,-0.52474,-0.49912778,-0.41206056,-0.11044922,-0.08814698,95.0
37766,-0.2465913,-0.7476484,-0.3358745,-0.41206056,-0.11044922,-0.08814698,95.0
37767,-0.2465913,-0.7476484,-0.3358745,-0.18479005,-0.07540283,-0.06265869,95.0
37768,-0.04907968,-0.5705675,-0.033616573,-0.18479005,-0.07540283,-0.06265869,95.0
37769,-0.04907968,-0.5705675,-0.033616573,-0.07540283,-0.026550293,-0.05522461,95.0
37770,0.010296807,-0.53001356,0.12763555,-0.07540283,-0.026550293,-0.05522461,95.0
37771,0.010296807,-0.53001356,0.12763555,0.11682129,-0.08602295,-0.040356446,95.0
37772,-0.011598982,-0.35393026,0.1164517,0.11682129,-0.08602295,-0.040356446,95.0
37773,-0.011598982,-0.35393026,0.1164517,0.19116211,-0.10301514,-0.019116212,95.0
37774,0.018931262,-0.007033378,0.10042454,0.19116211,-0.10301514,-0.019116212,95.0
37775,0.018931262,-0.007033378,0.10042454,0.18160401,-0.053100586,-0.028674318,95.0
37776,0.07821874,0.2426643,0.19670928,0.18160401,-0.053100586,-0.028674318,95.0
37777,0.07821874,0.2426643,0.19670928,0.11363526,0.035046387,0.014868164,95.0
37778,0.05863212,0.36257628,0.28244066,0.11363526,0.035046387,0.014868164,95.0
37779,0.05863212,0.36257628,0.28244066,-0.12531738,0.13912354,0.029736329,95.0
37780,-0.07988874,0.3851294,0.051294327,-0.12531738,0.13912354,0.029736329,95.0
37781,-0.07988874,0.3851294,0.051294327,-0.23364258,0.08814698,-0.008496094,95.0
37782,-0.13141587,0.2983745,-0.24833222,-0.23364258,0.08814698,-0.008496094,95.0
37783,-0.13141587,0.2983745,-0.24833222,-0.2262085,0.16354981,-0.060534667,95.0
37784,-0.11847498,0.20764491,-0.2785608,-0.2262085,0.16354981,-0.060534667,95.0
37785,-0.11847498,0.20764491,-0.2785608,-0.16248779,0.07115479,-0.035046387,95.0
37786,-0.17511447,0.13623309,-0.23838818,-0.16248779,0.07115479,-0.035046387,95.0
37787,-0.17511447,0.13623309,-0.23838818,-0.15930176,0.020178223,0.0180542,95.0
37788,-0.1772742,0.109779954,-0.14293224,-0.15930176,0.020178223,0.0180542,95.0
37789,-0.1772742,0.109779954,-0.14293224,-0.14230958,-0.0541626,-0.027612304,95.0
37790,0.021181121,0.1571843,0.1328466,-0.14230958,-0.0541626,-0.027612304,95.0
37791,0.021181121,0.1571843,0.1328466,-0.3727661,0.08920898,-0.07540283,95.0
37792,0.021181121,0.1571843,0.1328466,-0.3727661,0.08920898,-0.07540283,95.0
37793,0.18966219,-0.017843902,0.2965727,-0.3727661,0.08920898,-0.07540283,95.0
37794,0.18966219,-0.017843902,0.2965727,-0.36851808,0.1539917,0.046728518,95.0
37795,0.17322633,-0.34998068,0.09494858,-0.36851808,0.1539917,0.046728518,95.0
37796,0.17322633,-0.34998068,0.09494858,-0.17523193,0.14974366,0.026550293,95.0
37797,0.14016798,-0.4696452,-0.111321405,-0.17523193,0.14974366,0.026550293,95.0
37798,0.14016798,-0.4696452,-0.111321405,-0.11469727,0.08602295,0.009558106,95.0
37799,0.20155089,-0.43752038,-0.08211133,-0.11469727,0.08602295,0.009558106,95.0
37800,0.20155089,-0.43752038,-0.08211133,-0.10301514,0.043542482,-0.012744141,95.0
37801,0.2223247,-0.32220867,-0.006423924,-0.10301514,0.043542482,-0.012744141,95.0
37802,0.2223247,-0.32220867,-0.006423924,-0.07752686,-0.014868164,-0.053100586,95.0
37803,0.13828456,-0.17160973,0.009497091,-0.07752686,-0.014868164,-0.053100586,95.0
37804,0.13828456,-0.17160973,0.009497091,0.013806152,-0.04885254,-0.038232423,95.0
37805,0.04511252,0.0049241334,-0.013874495,0.013806152,-0.04885254,-0.038232423,95.0
37806,0.04511252,0.0049241334,-0.013874495,0.046728518,-0.059472658,-0.07327881,95.0
37807,-0.012762524,0.1955897,-0.01618993,0.046728518,-0.059472658,-0.07327881,95.0
37808,-0.012762524,0.1955897,-0.01618993,0.0010620117,-0.027612304,-0.05522461,95.0
37809,-0.045293033,0.2679952,0.07626925,0.0010620117,-0.027612304,-0.05522461,95.0
37810,-0.045293033,0.2679952,0.07626925,-0.07646485,0.0021240234,-0.026550293,95.0
37811,-0.10177398,0.25444746,0.16122292,-0.07646485,0.0021240234,-0.026550293,95.0
37812,-0.10177398,0.25444746,0.16122292,-0.21452637,0.06159668,0.016992187,95.0
37813,-0.19955882,0.1703304,0.069835275,-0.21452637,0.06159668,0.016992187,95.0
37814,-0.19955882,0.1703304,0.069835275,-0.2262085,0.07965088,0.039294433,95.0
37815,-0.21077012,-0.066103846,-0.021158148,-0.2262085,0.07965088,0.039294433,95.0
37816,-0.21077012,-0.066103846,-0.021158148,-0.124255374,0.052038576,0.059472658,95.0
37817,-0.10614051,-0.22437966,0.033586178,-0.124255374,0.052038576,0.059472658,95.0
37818,-0.10614051,-0.22437966,0.033586178,-0.16885987,0.06796875,0.07752686,95.0
37819,0.044677436,-0.5881463,0.09045537,-0.16885987,0.06796875,0.07752686,95.0
37820,0.044677436,-0.5881463,0.09045537,0.06690674,0.09451904,-0.0053100586,95.0
37821,0.1332273,-0.7362275,0.016602576,0.06690674,0.09451904,-0.0053100586,95.0
37822,0.1332273,-0.7362275,0.016602576,0.4067505,-0.08920898,0.090270996,95.0
37823,0.14721905,0.031318285,-0.086937666,0.4067505,-0.08920898,0.090270996,95.0
37824,0.14721905,0.031318285,-0.086937666,0.22302246,-0.09770508,0.04885254,95.0
37825,0.07335386,0.7071103,0.0080011375,0.22302246,-0.09770508,0.04885254,95.0
37826,0.07335386,0.7071103,0.0080011375,-0.059472658,-0.14761963,0.0053100586,95.0
37827,0.056559063,0.5550437,-0.05031296,-0.059472658,-0.14761963,0.0053100586,95.0
37828,0.056559063,0.5550437,-0.05031296,-0.060534667,-0.033984374,-0.007434082,95.0
37829,0.14075506,0.049161926,-0.17018202,-0.060534667,-0.033984374,-0.007434082,95.0
37830,0.14075506,0.049161926,-0.17018202,0.10513916,-0.09451904,0.007434082,95.0
37831,0.13668853,0.01656343,0.0014032186,0.10513916,-0.09451904,0.007434082,95.0
37832,0.13668853,0.01656343,0.0014032186,-0.25806886,0.035046387,-0.04248047,95.0
37833,-0.002111584,0.29867554,-0.016760726,-0.25806886,0.035046387,-0.04248047,95.0
37834,-0.002111584,0.29867554,-0.016760726,-0.40356445,-0.013806152,-0.13487549,95.0
37835,-0.21429914,0.26994628,-0.3278373,-0.40356445,-0.013806152,-0.13487549,95.0
37836,-0.21429914,0.26994628,-0.3278373,-0.41843262,-0.13275146,-0.21452637,95.0
37837,-0.3674476,-0.5242773,-0.42285335,-0.41843262,-0.13275146,-0.21452637,95.0
37838,-0.3674476,-0.5242773,-0.42285335,-0.028674318,-0.25806886,-0.21134034,95.0
37839,-0.40985167,-1.9919074,-0.29246968,-0.028674318,-0.25806886,-0.21134034,95.0
37840,-0.40985167,-1.9919074,-0.29246968,1.2096313,-0.47790527,-0.121069334,95.0
37841,-0.18880662,-2.2409015,-0.057864904,1.2096313,-0.47790527,-0.121069334,95.0
37842,-0.18880662,-2.2409015,-0.057864904,2.0656128,-0.54693604,-0.06903076,95.0
37843,0.39398646,-0.09026742,0.8592623,2.0656128,-0.54693604,-0.06903076,95.0
37844,0.39398646,-0.09026742,0.8592623,1.176709,-0.118945315,-0.12956543,95.0
37845,1.0051916,2.7578642,1.655403,1.176709,-0.118945315,-0.12956543,95.0
37846,1.0051916,2.7578642,1.655403,-0.3993164,0.73809814,-0.45878908,95.0
37847,1.0798613,3.6647143,0.83901966,-0.3993164,0.73809814,-0.45878908,95.0
37848,1.0798613,3.6647143,0.83901966,-1.3922974,1.1310425,-0.6467652,95.0
37849,-0.009475231,1.9972987,-0.95914316,-1.3922974,1.1310425,-0.6467652,95.0
37850,-0.009475231,1.9972987,-0.95914316,-0.4980835,0.21452637,-0.56392825,95.0
37851,-0.009475231,1.9972987,-0.95914316,-0.94731444,-0.1720459,-0.34940186,95.0
37852,-0.85838586,-0.11980021,-2.2525563,-0.94731444,-0.1720459,-0.34940186,95.0
37853,-0.79973364,-1.7385893,-1.6517032,-0.94731444,-0.1720459,-0.34940186,95.0
37854,-0.79973364,-1.7385893,-1.6517032,0.2357666,-0.20284425,0.22302246,95.0
37855,-0.59351003,-2.1920676,-0.54390895,0.2357666,-0.20284425,0.22302246,95.0
37856,-0.59351003,-2.1920676,-0.54390895,0.51932377,-0.26975098,0.1539917,95.0
37857,-0.037930593,-2.427104,1.8697557,0.51932377,-0.26975098,0.1539917,95.0
37858,-0.037930593,-2.427104,1.8697557,0.73703617,-0.09664307,0.3812622,95.0
37859,0.08086158,-1.3242515,1.4765906,0.73703617,-0.09664307,0.3812622,95.0
37860,0.08086158,-1.3242515,1.4765906,0.66481936,-0.013806152,0.33028564,95.0
37861,0.046268858,1.5900006,-0.11281925,0.66481936,-0.013806152,0.33028564,95.0
37862,0.046268858,1.5900006,-0.11281925,0.0,0.18479005,0.03717041,95.0
37863,0.042007767,1.7698522,-0.3589688,0.0,0.18479005,0.03717041,95.0
37864,0.042007767,1.7698522,-0.3589688,-0.025488282,0.18691407,0.14124756,95.0
37865,0.15732448,0.8563236,-0.1428513,-0.025488282,0.18691407,0.14124756,95.0
37866,0.15732448,0.8563236,-0.1428513,0.014868164,0.41843262,0.18054199,95.0
37867,0.14854026,0.11800566,0.013587616,0.014868164,0.41843262,0.18054199,95.0
37868,0.14854026,0.11800566,0.013587616,0.08496094,0.36639404,0.22939454,95.0
37869,-0.27042562,-1.0814866,0.0110165775,0.08496094,0.36639404,0.22939454,95.0
37870,-0.27042562,-1.0814866,0.0110165775,0.4258667,-0.18160401,0.23364258,95.0
37871,-0.36035904,-0.7934974,-0.15181907,0.4258667,-0.18160401,0.23364258,95.0
37872,-0.36035904,-0.7934974,-0.15181907,0.36851808,-0.35152587,0.1709839,95.0
37873,-0.23226917,0.22645696,-0.2310866,0.36851808,-0.35152587,0.1709839,95.0
37874,-0.23226917,0.22645696,-0.2310866,0.5214478,-0.53100586,0.093457036,95.0
37875,-0.089660555,0.1338145,-0.02539663,0.5214478,-0.53100586,0.093457036,95.0
37876,-0.089660555,0.1338145,-0.02539663,0.5278198,-0.4959595,0.08602295,95.0
37877,0.43156746,-0.18207194,0.5560255,0.5278198,-0.4959595,0.08602295,95.0
37878,0.43156746,-0.18207194,0.5560255,0.62127686,-0.26868898,0.10620117,95.0
37879,0.4241114,0.0778776,0.55982286,0.62127686,-0.26868898,0.10620117,95.0
37880,0.4241114,0.0778776,0.55982286,0.33771974,-0.11469727,0.10195313,95.0
37881,0.27686235,1.286826,0.33152527,0.33771974,-0.11469727,0.10195313,95.0
37882,0.27686235,1.286826,0.33152527,-0.60216063,0.21983643,0.045666505,95.0
37883,0.10156801,1.189849,0.081821784,-0.60216063,0.21983643,0.045666505,95.0
37884,0.10156801,1.189849,0.081821784,-0.6966797,0.15930176,0.03186035,95.0
37885,-0.14283006,0.55814147,-0.2884488,-0.6966797,0.15930176,0.03186035,95.0
37886,-0.14283006,0.55814147,-0.2884488,-0.72641605,0.15717773,-0.020178223,95.0
37887,-0.010785045,-0.19738328,-0.1822117,-0.72641605,0.15717773,-0.020178223,95.0
37888,-0.010785045,-0.19738328,-0.1822117,-0.7391602,0.29736328,-0.06796875,95.0
37889,0.12464833,-0.785995,-0.10850129,-0.7391602,0.29736328,-0.06796875,95.0
37890,0.12464833,-0.785995,-0.10850129,-0.47684327,0.21558838,-0.027612304,95.0
37891,-0.08845273,-0.9765866,-0.34307545,-0.47684327,0.21558838,-0.027612304,95.0
37892,-0.08845273,-0.9765866,-0.34307545,-0.087084964,-0.052038576,-0.035046387,95.0
37893,-0.31897995,-0.5891428,-0.28782707,-0.087084964,-0.052038576,-0.035046387,95.0
37894,-0.31897995,-0.5891428,-0.28782707,0.12956543,-0.24744873,-0.0361084,95.0
37895,-0.2627157,-0.28253248,-0.09859662,0.12956543,-0.24744873,-0.0361084,95.0
37896,-0.2627157,-0.28253248,-0.09859662,0.15717773,-0.2442627,-0.039294433,95.0
37897,-0.2627157,-0.28253248,-0.09859662,0.15717773,-0.2442627,-0.039294433,96.0
37898,-0.06443283,0.1402948,0.16567838,0.15717773,-0.2442627,-0.039294433,96.0
37899,-0.06443283,0.1402948,0.16567838,0.107263185,-0.13806152,-0.008496094,96.0
37900,0.11354162,0.20604688,0.26889524,0.107263185,-0.13806152,-0.008496094,96.0
37901,0.11354162,0.20604688,0.26889524,0.050976563,-0.04885254,-0.016992187,96.0
37902,0.1750252,0.026055768,0.21398094,0.050976563,-0.04885254,-0.016992187,96.0
37903,0.1750252,0.026055768,0.21398094,0.04141846,-0.019116212,-0.0031860352,96.0
37904,0.112566546,0.03568837,0.04015448,0.04141846,-0.019116212,-0.0031860352,96.0
37905,0.112566546,0.03568837,0.04015448,0.016992187,-0.03079834,-0.013806152,96.0
37906,0.05693556,0.13110197,-0.022136671,0.016992187,-0.03079834,-0.013806152,96.0
37907,0.05693556,0.13110197,-0.022136671,-0.008496094,-0.0031860352,-0.04248047,96.0
37908,0.06688634,0.17331418,0.10638735,-0.008496094,-0.0031860352,-0.04248047,96.0
37909,0.06688634,0.17331418,0.10638735,-0.1263794,0.039294433,0.015930176,96.0
37910,0.010882121,0.1057412,0.114833996,-0.1263794,0.039294433,0.015930176,96.0
37911,0.010882121,0.1057412,0.114833996,-0.20603028,0.07327881,0.014868164,96.0
37912,-0.105307974,-0.076161444,-0.04558398,-0.20603028,0.07327881,0.014868164,96.0
37913,-0.105307974,-0.076161444,-0.04558398,-0.057348635,-0.0031860352,-0.007434082,96.0
37914,-0.10560869,-0.08678365,-0.16885243,-0.057348635,-0.0031860352,-0.007434082,96.0
37915,-0.10560869,-0.08678365,-0.16885243,-0.08602295,0.047790527,-0.013806152,96.0
37916,-0.13343714,0.17777768,-0.2401967,-0.08602295,0.047790527,-0.013806152,96.0
37917,-0.13343714,0.17777768,-0.2401967,-0.1709839,-0.021240234,-0.020178223,96.0
37918,-0.18525314,0.26968795,-0.21321449,-0.1709839,-0.021240234,-0.020178223,96.0
37919,-0.18525314,0.26968795,-0.21321449,-0.17735596,-0.07115479,-0.070092775,96.0
37920,-0.057833865,-0.015755981,0.05149872,-0.17735596,-0.07115479,-0.070092775,96.0
37921,-0.057833865,-0.015755981,0.05149872,-0.08814698,-0.1083252,-0.04141846,96.0
37922,0.14281984,-0.038532525,0.3339114,-0.08814698,-0.1083252,-0.04141846,96.0
37923,0.14281984,-0.038532525,0.3339114,-0.3717041,0.118945315,-0.04248047,96.0
37924,0.12114064,0.087264806,0.14963643,-0.3717041,0.118945315,-0.04248047,96.0
37925,0.12114064,0.087264806,0.14963643,-0.36639404,0.1359375,-0.0180542,96.0
37926,-0.008348718,-0.16618669,-0.22203891,-0.36639404,0.1359375,-0.0180542,96.0
37927,-0.008348718,-0.16618669,-0.22203891,-0.07115479,-0.007434082,0.028674318,96.0
37928,0.029453844,-0.47680923,-0.24030203,-0.07115479,-0.007434082,0.028674318,96.0
37929,0.029453844,-0.47680923,-0.24030203,0.07540283,-0.039294433,-0.025488282,96.0
37930,0.12120712,-0.47874963,-0.054277755,0.07540283,-0.039294433,-0.025488282,96.0
37931,0.12120712,-0.47874963,-0.054277755,0.1529297,-0.07540283,-0.03186035,96.0
37932,0.117229365,-0.11327315,0.005674474,0.1529297,-0.07540283,-0.03186035,96.0
37933,0.117229365,-0.11327315,0.005674474,0.15611573,-0.12213135,-0.033984374,96.0
37934,0.095089644,0.21802406,0.035972685,0.15611573,-0.12213135,-0.033984374,96.0
37935,0.095089644,0.21802406,0.035972685,0.040356446,-0.11151123,-0.014868164,96.0
37936,0.15870112,0.058598936,0.21472785,0.040356446,-0.11151123,-0.014868164,96.0
37937,0.15870112,0.058598936,0.21472785,0.060534667,-0.039294433,0.004248047,96.0
37938,0.15474409,-0.14499097,0.30155525,0.060534667,-0.039294433,0.004248047,96.0
37939,0.15474409,-0.14499097,0.30155525,0.014868164,0.038232423,0.033984374,96.0
37940,0.014542349,0.03818203,0.1740689,0.014868164,0.038232423,0.033984374,96.0
37941,0.014542349,0.03818203,0.1740689,-0.10089111,0.060534667,0.0031860352,96.0
37942,-0.07410831,0.2728674,-0.010415293,-0.10089111,0.060534667,0.0031860352,96.0
37943,-0.07410831,0.2728674,-0.010415293,-0.19116211,0.06478272,-0.028674318,96.0
37944,-0.08592239,0.33064747,-0.16065156,-0.19116211,0.06478272,-0.028674318,96.0
37945,-0.08592239,0.33064747,-0.16065156,-0.21877442,0.081774905,-0.059472658,96.0
37946,-0.09779064,0.16322401,-0.22799635,-0.21877442,0.081774905,-0.059472658,96.0
37947,-0.09779064,0.16322401,-0.22799635,-0.1709839,0.020178223,-0.07327881,96.0
37948,-0.12875742,-0.11140078,-0.18149376,-0.1709839,0.020178223,-0.07327881,96.0
37949,-0.12875742,-0.11140078,-0.18149376,-0.045666505,-0.038232423,-0.053100586,96.0
37950,-0.10394588,-0.20748,-0.046330266,-0.045666505,-0.038232423,-0.053100586,96.0
37951,-0.10394588,-0.20748,-0.046330266,-0.008496094,-0.05522461,-0.033984374,96.0
37952,-0.035964325,-0.03575939,0.1475183,-0.008496094,-0.05522461,-0.033984374,96.0
37953,-0.035964325,-0.03575939,0.1475183,-0.09239502,0.0,0.004248047,96.0
37954,-0.026122533,0.09602629,0.18288282,-0.09239502,0.0,0.004248047,96.0
37955,-0.026122533,0.09602629,0.18288282,-0.14549561,0.07540283,0.045666505,96.0
37956,-0.05710408,-0.13919461,0.051237892,-0.14549561,0.07540283,0.045666505,96.0
37957,-0.05710408,-0.13919461,0.051237892,0.040356446,0.026550293,0.07646485,96.0
37958,-0.001835607,-0.5482575,0.075975664,0.040356446,0.026550293,0.07646485,96.0
37959,-0.001835607,-0.5482575,0.075975664,0.2262085,0.020178223,0.07752686,96.0
37960,0.111824974,-0.58603036,0.16673756,0.2262085,0.020178223,0.07752686,96.0
37961,0.111824974,-0.58603036,0.16673756,0.29205322,0.027612304,0.11469727,96.0
37962,0.12229689,-0.076661214,0.006400302,0.29205322,0.027612304,0.11469727,96.0
37963,0.12229689,-0.076661214,0.006400302,0.23258057,-0.022302246,0.090270996,96.0
37964,0.008274525,0.5486686,-0.1946112,0.23258057,-0.022302246,0.090270996,96.0
37965,0.008274525,0.5486686,-0.1946112,0.1083252,-0.14018555,0.039294433,96.0
37966,0.008938957,0.7400824,-0.09729053,0.1083252,-0.14018555,0.039294433,96.0
37967,0.008938957,0.7400824,-0.09729053,-0.13062744,0.028674318,0.0053100586,96.0
37968,0.030454388,0.3570073,-0.009448636,-0.13062744,0.028674318,0.0053100586,96.0
37969,0.030454388,0.3570073,-0.009448636,-0.21558838,-0.009558106,0.0021240234,96.0
37970,-0.04953786,-0.3365255,-0.096365064,-0.21558838,-0.009558106,0.0021240234,96.0
37971,-0.04953786,-0.3365255,-0.096365064,0.025488282,-0.15717773,-0.06478272,96.0
37972,0.013702234,-0.43545577,-0.011308361,0.025488282,-0.15717773,-0.06478272,96.0
37973,0.013702234,-0.43545577,-0.011308361,0.010620117,-0.090270996,-0.107263185,96.0
37974,0.064843625,0.04172328,0.029222354,0.010620117,-0.090270996,-0.107263185,96.0
37975,0.064843625,0.04172328,0.029222354,-0.29205322,-0.06265869,-0.22727051,96.0
37976,-0.0011524437,-0.61973417,-0.2828477,-0.29205322,-0.06265869,-0.22727051,96.0
37977,-0.0011524437,-0.61973417,-0.2828477,0.2814331,-0.19434814,-0.32709962,96.0
37978,-0.066717856,-2.2588243,-0.62915903,0.2814331,-0.19434814,-0.32709962,96.0
37979,-0.066717856,-2.2588243,-0.62915903,1.8882569,-0.42055663,-0.33028564,96.0
37980,-0.037639424,-1.5113199,-0.05858846,1.8882569,-0.42055663,-0.33028564,96.0
37981,-0.037639424,-1.5113199,-0.05858846,1.9657837,-0.33878174,0.010620117,96.0
37982,0.38512284,2.5151384,1.3285443,1.9657837,-0.33878174,0.010620117,96.0
37983,0.38512284,2.5151384,1.3285443,-0.31435546,0.44073486,-0.31435546,96.0
37984,1.1764089,4.9843764,1.4453794,-0.31435546,0.44073486,-0.31435546,96.0
37985,1.1764089,4.9843764,1.4453794,-2.3353639,1.1968873,-0.77951664,96.0
37986,0.41826332,3.08672,-0.36862326,-2.3353639,1.1968873,-0.77951664,96.0
37987,0.41826332,3.08672,-0.36862326,-0.97280276,0.45029297,-0.7582764,96.0
37988,-1.0340295,-0.16584122,-2.2148938,-0.97280276,0.45029297,-0.7582764,96.0
37989,-1.0340295,-0.16584122,-2.2148938,-0.3993164,0.08496094,-0.21877442,96.0
37990,-0.9808613,-2.6009712,-1.6310092,-0.3993164,0.08496094,-0.21877442,96.0
37991,-0.9808613,-2.6009712,-1.6310092,0.3695801,0.021240234,0.26019287,96.0
37992,-0.34842196,-3.510892,0.7127463,0.3695801,0.021240234,0.26019287,96.0
37993,-0.34842196,-3.510892,0.7127463,0.23045655,0.1263794,0.26550293,96.0
37994,0.0084938705,-2.3802345,1.5544256,0.23045655,0.1263794,0.26550293,96.0
37995,0.0084938705,-2.3802345,1.5544256,0.24851075,0.04141846,0.4598511,96.0
37996,-0.089042306,-0.028235495,0.5822123,0.24851075,0.04141846,0.4598511,96.0
37997,-0.089042306,-0.028235495,0.5822123,-0.26868898,0.23789063,0.053100586,96.0
37998,-0.089042306,-0.028235495,0.5822123,-0.26868898,0.23789063,0.053100586,96.0
37999,-0.25271577,1.5057807,-0.27716225,-0.26868898,0.23789063,0.053100586,96.0
38000,-0.25271577,1.5057807,-0.27716225,-0.10513916,0.09451904,0.14124756,96.0
38001,-0.07836892,1.5073712,-0.5249647,-0.10513916,0.09451904,0.14124756,96.0
38002,-0.07836892,1.5073712,-0.5249647,-0.008496094,0.13912354,0.15930176,96.0
38003,0.044922054,0.644813,-0.5901866,-0.008496094,0.13912354,0.15930176,96.0
38004,0.044922054,0.644813,-0.5901866,0.1720459,-0.013806152,0.18160401,96.0
38005,-0.015539408,-0.26655927,-0.4332699,0.1720459,-0.013806152,0.18160401,96.0
38006,-0.015539408,-0.26655927,-0.4332699,0.2814331,-0.17416993,0.28568116,96.0
38007,-0.08309804,-0.76834995,0.142117,0.2814331,-0.17416993,0.28568116,96.0
38008,-0.08309804,-0.76834995,0.142117,0.5894165,-0.3727661,0.14655761,96.0
38009,-0.058202058,-0.80056864,0.6287693,0.5894165,-0.3727661,0.14655761,96.0
38010,-0.058202058,-0.80056864,0.6287693,0.58198243,-0.38657227,0.17629395,96.0
38011,0.013265014,-0.4171151,0.51713896,0.58198243,-0.38657227,0.17629395,96.0
38012,0.013265014,-0.4171151,0.51713896,0.63826907,-0.38975832,0.15823975,96.0
38013,0.13010664,-5.865991E-4,0.16490747,0.63826907,-0.38975832,0.15823975,96.0
38014,0.13010664,-5.865991E-4,0.16490747,0.75721437,-0.39294434,0.03717041,96.0
38015,0.26999107,0.660041,0.0030563436,0.75721437,-0.39294434,0.03717041,96.0
38016,0.26999107,0.660041,0.0030563436,0.2081543,-0.24851075,0.009558106,96.0
38017,0.39655927,1.228277,0.15643677,0.2081543,-0.24851075,0.009558106,96.0
38018,0.39655927,1.228277,0.15643677,-0.29205322,0.0541626,-0.023364259,96.0
38019,0.4071522,1.000041,0.27789602,-0.29205322,0.0541626,-0.023364259,96.0
38020,0.4071522,1.000041,0.27789602,-0.71154785,0.24320069,-0.0053100586,96.0
38021,0.088014245,0.26778185,-0.043894127,-0.71154785,0.24320069,-0.0053100586,96.0
38022,0.088014245,0.26778185,-0.043894127,-0.7306641,0.11257324,-0.078588866,96.0
38023,-0.2596423,-0.4937579,-0.40932184,-0.7306641,0.11257324,-0.078588866,96.0
38024,-0.2596423,-0.4937579,-0.40932184,-0.39400634,-0.052038576,-0.047790527,96.0
38025,-0.24872948,-0.8001821,-0.3149941,-0.39400634,-0.052038576,-0.047790527,96.0
38026,-0.24872948,-0.8001821,-0.3149941,-0.13062744,-0.07965088,-0.06478272,96.0
38027,-0.04600507,-0.600424,0.01304378,-0.13062744,-0.07965088,-0.06478272,96.0
38028,-0.04600507,-0.600424,0.01304378,-0.08071289,-0.012744141,-0.047790527,96.0
38029,0.03156752,-0.29014146,0.16380417,-0.08071289,-0.012744141,-0.047790527,96.0
38030,0.03156752,-0.29014146,0.16380417,-0.038232423,-0.033984374,-0.028674318,96.0
38031,-0.030410044,-0.051827528,0.06512537,-0.038232423,-0.033984374,-0.028674318,96.0
38032,-0.030410044,-0.051827528,0.06512537,-0.008496094,-0.0722168,-0.027612304,96.0
38033,-0.10504092,0.16052772,-0.07536553,-0.008496094,-0.0722168,-0.027612304,96.0
38034,-0.10504092,0.16052772,-0.07536553,-0.035046387,-0.11044922,-0.022302246,96.0
38035,-0.093725115,0.22159845,-0.122890085,-0.035046387,-0.11044922,-0.022302246,96.0
38036,-0.093725115,0.22159845,-0.122890085,-0.007434082,-0.107263185,-0.02442627,96.0
38037,0.0074417815,0.009468704,-0.00418365,-0.007434082,-0.107263185,-0.02442627,96.0
38038,0.0074417815,0.009468704,-0.00418365,0.053100586,-0.078588866,-0.02442627,96.0
38039,0.119198054,-0.13235423,0.21343775,0.053100586,-0.078588866,-0.02442627,96.0
38040,0.119198054,-0.13235423,0.21343775,0.0637207,-0.0180542,-0.004248047,96.0
38041,0.16225298,0.082239166,0.37551093,0.0637207,-0.0180542,-0.004248047,96.0
38042,0.16225298,0.082239166,0.37551093,-0.1529297,0.07752686,0.027612304,96.0
38043,0.06725356,0.3398636,0.19492781,-0.1529297,0.07752686,0.027612304,96.0
38044,0.06725356,0.3398636,0.19492781,-0.35683593,0.10513916,0.033984374,96.0
38045,-0.077141985,0.19288698,-0.19577894,-0.35683593,0.10513916,0.033984374,96.0
38046,-0.077141985,0.19288698,-0.19577894,-0.1720459,0.10620117,-0.0541626,96.0
38047,-0.10109347,-0.07175243,-0.33788538,-0.1720459,0.10620117,-0.0541626,96.0
38048,-0.10109347,-0.07175243,-0.33788538,-0.07434082,0.10620117,-0.0063720704,96.0
38049,-0.1402864,0.014802635,-0.3511921,-0.07434082,0.10620117,-0.0063720704,96.0
38050,-0.1402864,0.014802635,-0.3511921,-0.20496826,0.035046387,-0.03079834,96.0
38051,-0.19235608,-0.05939813,-0.2702115,-0.20496826,0.035046387,-0.03079834,96.0
38052,-0.19235608,-0.05939813,-0.2702115,0.020178223,-0.13487549,-0.0637207,96.0
38053,-0.0063750893,-0.26429096,0.14990747,0.020178223,-0.13487549,-0.0637207,96.0
38054,-0.0063750893,-0.26429096,0.14990747,-0.012744141,-0.06903076,-0.09770508,96.0
38055,0.22551516,-0.091925934,0.43715012,-0.012744141,-0.06903076,-0.09770508,96.0
38056,0.22551516,-0.091925934,0.43715012,-0.18585205,0.07965088,-0.029736329,96.0
38057,0.25836623,0.12708181,0.21660241,-0.18585205,0.07965088,-0.029736329,96.0
38058,0.25836623,0.12708181,0.21660241,-0.21134034,0.10195313,0.010620117,96.0
38059,0.13495226,0.10161662,-0.11841729,-0.21134034,0.10195313,0.010620117,96.0
38060,0.13495226,0.10161662,-0.11841729,-0.1359375,0.03186035,0.013806152,96.0
38061,0.07396523,0.012189299,-0.13787349,-0.1359375,0.03186035,0.013806152,96.0
38062,0.07396523,0.012189299,-0.13787349,-0.15611573,0.060534667,0.008496094,96.0
38063,0.06277326,0.017856896,0.001871624,-0.15611573,0.060534667,0.008496094,96.0
38064,0.06277326,0.017856896,0.001871624,-0.23045655,0.095581055,0.04885254,96.0
38065,-0.06624868,-0.03490883,-0.060282487,-0.23045655,0.095581055,0.04885254,96.0
38066,-0.06624868,-0.03490883,-0.060282487,-0.13168946,0.0063720704,0.010620117,96.0
38067,-0.18473724,-0.20456281,-0.15298674,-0.13168946,0.0063720704,0.010620117,96.0
38068,-0.18473724,-0.20456281,-0.15298674,0.053100586,-0.08283692,0.011682129,96.0
38069,-0.16474535,-0.21551794,-0.07592943,0.053100586,-0.08283692,0.011682129,96.0
38070,-0.16474535,-0.21551794,-0.07592943,0.13487549,-0.060534667,0.0053100586,96.0
38071,-0.07820741,0.09135519,0.06775987,0.13487549,-0.060534667,0.0053100586,96.0
38072,-0.07820741,0.09135519,0.06775987,0.023364259,-0.015930176,0.022302246,96.0
38073,0.014082022,0.34254217,0.22154188,0.023364259,-0.015930176,0.022302246,96.0
38074,0.014082022,0.34254217,0.22154188,-0.17416993,0.060534667,0.08071289,96.0
38075,0.07540136,0.12667046,0.32962608,-0.17416993,0.060534667,0.08071289,96.0
38076,0.07540136,0.12667046,0.32962608,-0.28780517,0.13487549,0.15505372,96.0
38077,0.14863896,-0.419733,0.2523117,-0.28780517,0.13487549,0.15505372,96.0
38078,0.14863896,-0.419733,0.2523117,-0.013806152,0.15717773,0.13062744,96.0
38079,0.18028812,-0.5113113,0.011126712,-0.013806152,0.15717773,0.13062744,96.0
38080,0.18028812,-0.5113113,0.011126712,0.070092775,0.16354981,0.09239502,96.0
38081,0.08818802,-0.0937048,-0.22348389,0.070092775,0.16354981,0.09239502,96.0
38082,0.08818802,-0.0937048,-0.22348389,0.02442627,0.08920898,0.05522461,96.0
38083,-0.12119763,0.10991165,-0.26466358,0.02442627,0.08920898,0.05522461,96.0
38084,-0.12119763,0.10991165,-0.26466358,0.023364259,-0.115759276,0.04141846,96.0
38085,-0.20119394,0.12877405,-0.2742675,0.023364259,-0.115759276,0.04141846,96.0
38086,-0.20119394,0.12877405,-0.2742675,0.13275146,-0.19647217,0.019116212,96.0
38087,0.052985273,0.12814131,-0.055461355,0.13275146,-0.19647217,0.019116212,96.0
38088,0.052985273,0.12814131,-0.055461355,0.038232423,-0.1359375,-0.011682129,96.0
38089,0.25968558,0.08469079,0.35095564,0.038232423,-0.1359375,-0.011682129,96.0
38090,0.25968558,0.08469079,0.35095564,-0.33028564,0.026550293,-0.0541626,96.0
38091,0.10807806,0.04411982,0.17556432,-0.33028564,0.026550293,-0.0541626,96.0
38092,0.10807806,0.04411982,0.17556432,-0.32497558,-0.0637207,-0.1985962,96.0
38093,-0.21716304,-0.02683793,-0.4174587,-0.32497558,-0.0637207,-0.1985962,96.0
38094,-0.21716304,-0.02683793,-0.4174587,-0.1731079,-0.2824951,-0.2984253,96.0
38095,-0.21716304,-0.02683793,-0.4174587,-0.1731079,-0.2824951,-0.2984253,96.0
38096,-0.3785156,-1.0241681,-0.7123361,-0.1731079,-0.2824951,-0.2984253,96.0
38097,-0.3785156,-1.0241681,-0.7123361,0.81243896,-0.3791382,-0.40037844,96.0
38098,-0.18231687,-2.173912,-0.4450764,0.81243896,-0.3791382,-0.40037844,96.0
38099,-0.18231687,-2.173912,-0.4450764,2.1102173,-0.53100586,0.04248047,96.0
38100,0.19314797,-1.1416322,0.5313412,2.1102173,-0.53100586,0.04248047,96.0
38101,0.19314797,-1.1416322,0.5313412,1.7629395,-0.3440918,-0.2538208,96.0
38102,0.5490863,2.3861206,1.6320554,1.7629395,-0.3440918,-0.2538208,96.0
38103,0.5490863,2.3861206,1.6320554,-0.24851075,0.49064943,-0.22833252,96.0
38104,0.9315908,4.9792943,1.1813768,-0.24851075,0.49064943,-0.22833252,96.0
38105,0.9315908,4.9792943,1.1813768,-2.9354005,1.4284058,-0.4630371,96.0
38106,0.33435956,3.1713018,-0.6721105,-2.9354005,1.4284058,-0.4630371,96.0
38107,0.33435956,3.1713018,-0.6721105,-1.3041505,0.5150757,-0.9218262,96.0
38108,-0.6072316,-0.4459175,-2.2148979,-1.3041505,0.5150757,-0.9218262,96.0
38109,-0.6072316,-0.4459175,-2.2148979,-0.271875,-0.11682129,-0.15080567,96.0
38110,-0.66730386,-2.8715656,-1.7169379,-0.271875,-0.11682129,-0.15080567,96.0
38111,-0.66730386,-2.8715656,-1.7169379,0.34090576,-0.022302246,0.35789797,96.0
38112,-0.40306917,-3.596398,0.49137884,0.34090576,-0.022302246,0.35789797,96.0
38113,-0.40306917,-3.596398,0.49137884,0.48640138,-0.07327881,0.36320803,96.0
38114,-0.06616871,-2.2887883,1.54834,0.48640138,-0.07327881,0.36320803,96.0
38115,-0.06616871,-2.2887883,1.54834,0.2357666,0.060534667,0.49277344,96.0
38116,0.0142403245,0.20196486,0.6680787,0.2357666,0.060534667,0.49277344,96.0
38117,0.0142403245,0.20196486,0.6680787,-0.7338501,0.49277344,0.07115479,96.0
38118,-0.2612518,1.6676998,-0.46320552,-0.7338501,0.49277344,0.07115479,96.0
38119,-0.2612518,1.6676998,-0.46320552,0.0541626,-0.0063720704,0.15823975,96.0
38120,-0.29183835,1.5590988,-0.7737016,0.0541626,-0.0063720704,0.15823975,96.0
38121,-0.29183835,1.5590988,-0.7737016,0.27293703,-0.04141846,0.16461182,96.0
38122,-0.0057118833,0.7555555,-0.30116343,0.27293703,-0.04141846,0.16461182,96.0
38123,-0.0057118833,0.7555555,-0.30116343,0.5543701,-0.0637207,0.11363526,96.0
38124,0.2119344,-0.20654196,0.4193842,0.5543701,-0.0637207,0.11363526,96.0
38125,0.2119344,-0.20654196,0.4193842,0.32072756,0.03186035,0.20390625,96.0
38126,0.14200847,-0.8036735,0.5882784,0.32072756,0.03186035,0.20390625,96.0
38127,0.14200847,-0.8036735,0.5882784,0.41099855,-0.16461182,0.20390625,96.0
38128,-0.20204264,-0.6749701,0.14313248,0.41099855,-0.16461182,0.20390625,96.0
38129,-0.20204264,-0.6749701,0.14313248,0.5320679,-0.4439209,0.13168946,96.0
38130,-0.3589974,-0.37502247,-0.17162684,0.5320679,-0.4439209,0.13168946,96.0
38131,-0.3589974,-0.37502247,-0.17162684,0.70305175,-0.6818115,0.078588866,96.0
38132,-0.08753973,-0.41676602,0.05199296,0.70305175,-0.6818115,0.078588866,96.0
38133,-0.08753973,-0.41676602,0.05199296,0.8846558,-0.64782715,0.033984374,96.0
38134,0.35661617,-0.04463108,0.4567189,0.8846558,-0.64782715,0.033984374,96.0
38135,0.35661617,-0.04463108,0.4567189,0.6000366,-0.30479738,0.087084964,96.0
38136,0.5006616,0.8991096,0.40950352,0.6000366,-0.30479738,0.087084964,96.0
38137,0.5006616,0.8991096,0.40950352,0.07752686,-0.025488282,-0.0010620117,96.0
38138,0.2620039,1.4914801,0.11546904,0.07752686,-0.025488282,-0.0010620117,96.0
38139,0.2620039,1.4914801,0.11546904,-0.4343628,0.09451904,0.09133301,96.0
38140,0.10190047,1.3965166,0.032670647,-0.4343628,0.09451904,0.09133301,96.0
38141,0.10190047,1.3965166,0.032670647,-0.99935305,0.31223145,-0.0180542,96.0
38142,0.18490173,0.5842055,-0.01641719,-0.99935305,0.31223145,-0.0180542,96.0
38143,0.18490173,0.5842055,-0.01641719,-1.26698,0.46516114,-0.06584473,96.0
38144,0.088607416,-0.6377503,-0.30080467,-1.26698,0.46516114,-0.06584473,96.0
38145,0.088607416,-0.6377503,-0.30080467,-0.8666016,0.26125488,-0.09451904,96.0
38146,-0.22738066,-1.3200147,-0.6713444,-0.8666016,0.26125488,-0.09451904,96.0
38147,-0.22738066,-1.3200147,-0.6713444,-0.2442627,-0.08920898,-0.09770508,96.0
38148,-0.40241235,-1.0985044,-0.5594388,-0.2442627,-0.08920898,-0.09770508,96.0
38149,-0.40241235,-1.0985044,-0.5594388,0.022302246,-0.29523927,-0.11682129,96.0
38150,-0.3190368,-0.7867137,-0.04775858,0.022302246,-0.29523927,-0.11682129,96.0
38151,-0.3190368,-0.7867137,-0.04775858,0.1996582,-0.31223145,-0.13062744,96.0
38152,-0.07776363,-0.92338955,0.32063103,0.1996582,-0.31223145,-0.13062744,96.0
38153,-0.07776363,-0.92338955,0.32063103,0.72641605,-0.25594482,-0.07965088,96.0
38154,0.048738807,-0.27853101,0.34778902,0.72641605,-0.25594482,-0.07965088,96.0
38155,0.048738807,-0.27853101,0.34778902,0.5915405,-0.19434814,-0.2548828,96.0
38156,0.04566829,0.7827904,0.4012659,0.5915405,-0.19434814,-0.2548828,96.0
38157,0.04566829,0.7827904,0.4012659,0.098767094,-0.045666505,-0.39613038,96.0
38158,0.15377095,1.3401728,0.64659864,0.098767094,-0.045666505,-0.39613038,96.0
38159,0.15377095,1.3401728,0.64659864,-0.3706421,0.21027832,-0.4895874,96.0
38160,0.4056828,2.2341378,0.46591175,-0.3706421,0.21027832,-0.4895874,96.0
38161,0.4056828,2.2341378,0.46591175,-1.4443359,0.8442993,-0.53737795,96.0
38162,0.33241978,2.3525448,-0.37279063,-1.4443359,0.8442993,-0.53737795,96.0
38163,0.33241978,2.3525448,-0.37279063,-1.4315919,0.901648,-0.9855469,96.0
38164,-0.1960515,0.97418654,-0.8878809,-1.4315919,0.901648,-0.9855469,96.0
38165,-0.1960515,0.97418654,-0.8878809,-0.84748536,0.37489015,-0.7338501,96.0
38166,-0.24183875,-0.6762172,-0.35002643,-0.84748536,0.37489015,-0.7338501,96.0
38167,-0.24183875,-0.6762172,-0.35002643,-0.93350834,0.3345337,-0.7423462,96.0
38168,0.0164289,-1.7450998,0.05573324,-0.93350834,0.3345337,-0.7423462,96.0
38169,0.0164289,-1.7450998,0.05573324,-0.6202149,-0.0053100586,-0.541626,96.0
38170,0.16497418,-2.1174178,-0.063531086,-0.6202149,-0.0053100586,-0.541626,96.0
38171,0.16497418,-2.1174178,-0.063531086,-0.26444092,0.05522461,-0.16461182,96.0
38172,0.33301693,-2.0545177,0.014116541,-0.26444092,0.05522461,-0.16461182,96.0
38173,0.33301693,-2.0545177,0.014116541,0.14018555,0.04248047,0.13275146,96.0
38174,0.012397446,-1.3685653,-0.012705788,0.14018555,0.04248047,0.13275146,96.0
38175,0.012397446,-1.3685653,-0.012705788,0.12213135,0.004248047,0.10195313,96.0
38176,-0.39707667,-0.4494666,-0.1071617,0.12213135,0.004248047,0.10195313,96.0
38177,-0.39707667,-0.4494666,-0.1071617,0.1529297,-0.025488282,0.05628662,96.0
38178,-0.3823098,0.24602973,-0.0016595349,0.1529297,-0.025488282,0.05628662,96.0
38179,-0.3823098,0.24602973,-0.0016595349,0.10301514,-0.04141846,-0.06265869,96.0
38180,-0.2191657,0.913462,-0.020248532,0.10301514,-0.04141846,-0.06265869,96.0
38181,-0.2191657,0.913462,-0.020248532,0.060534667,-0.0541626,-0.20072022,96.0
38182,-0.084866256,1.3170978,-0.13310556,0.060534667,-0.0541626,-0.20072022,96.0
38183,-0.084866256,1.3170978,-0.13310556,-0.2262085,-0.14974366,-0.28355715,96.0
38184,0.10863288,0.55445945,-0.09923348,-0.2262085,-0.14974366,-0.28355715,96.0
38185,0.10863288,0.55445945,-0.09923348,0.081774905,-0.1083252,-0.24957275,96.0
38186,0.5818892,-0.8031976,0.24704145,0.081774905,-0.1083252,-0.24957275,96.0
38187,0.5818892,-0.8031976,0.24704145,0.58198243,0.053100586,0.3164795,96.0
38188,0.63777703,-0.8830244,0.47762585,0.58198243,0.053100586,0.3164795,96.0
38189,0.63777703,-0.8830244,0.47762585,0.3982544,0.14230958,0.37807617,96.0
38190,0.15581487,0.07540421,0.2139122,0.3982544,0.14230958,0.37807617,96.0
38191,0.15581487,0.07540421,0.2139122,0.2984253,0.093457036,0.4630371,96.0
38192,-0.109601036,0.77067494,-0.14246887,0.2984253,0.093457036,0.4630371,96.0
38193,-0.109601036,0.77067494,-0.14246887,0.009558106,0.15823975,0.34940186,96.0
38194,-0.21301043,0.5476923,-0.41293752,0.009558106,0.15823975,0.34940186,96.0
38195,-0.21301043,0.5476923,-0.41293752,0.3079834,0.033984374,0.41843262,96.0
38196,-0.45126772,0.010688022,-0.47840908,0.3079834,0.033984374,0.41843262,96.0
38197,-0.45126772,0.010688022,-0.47840908,0.3791382,-0.06159668,0.36851808,96.0
38198,-0.59353375,-0.31096864,-0.19877952,0.3791382,-0.06159668,0.36851808,96.0
38199,-0.59353375,-0.31096864,-0.19877952,0.4078125,-0.18372802,0.32391357,96.0
38200,-0.4368265,-0.5962847,0.2413304,0.4078125,-0.18372802,0.32391357,96.0
38201,-0.4368265,-0.5962847,0.2413304,0.5809204,-0.3525879,0.33134767,96.0
38202,-0.16351148,-0.7883925,0.45543006,0.5809204,-0.3525879,0.33134767,96.0
38203,-0.16351148,-0.7883925,0.45543006,0.9218262,-0.31329346,0.42055663,96.0
38204,0.07633191,-0.7054088,0.31784746,0.9218262,-0.31329346,0.42055663,96.0
38205,0.07633191,-0.7054088,0.31784746,0.9133301,-0.31116945,0.2516968,96.0
38206,0.24146105,-0.3050375,0.14840639,0.9133301,-0.31116945,0.2516968,96.0
38207,0.24146105,-0.3050375,0.14840639,1.1809571,-0.2984253,0.19753419,96.0
38208,0.24146105,-0.3050375,0.14840639,1.1809571,-0.2984253,0.19753419,96.0
38209,0.33085194,1.0632577,0.17048293,1.1809571,-0.2984253,0.19753419,96.0
38210,0.33085194,1.0632577,0.17048293,0.3334717,-0.10407715,0.11469727,96.0
38211,0.3828212,2.5052326,0.094272085,0.3334717,-0.10407715,0.11469727,96.0
38212,0.3828212,2.5052326,0.094272085,-0.7604004,0.25063476,-0.0637207,96.0
38213,0.36349574,1.9958975,-0.22358136,-0.7604004,0.25063476,-0.0637207,96.0
38214,0.36349574,1.9958975,-0.22358136,-0.90695804,0.29311523,-0.02442627,96.0
38215,0.23900217,0.16956961,-0.5110184,-0.90695804,0.29311523,-0.02442627,96.0
38216,0.23900217,0.16956961,-0.5110184,-0.5140137,0.22196046,-0.028674318,96.0
38217,-0.005001873,-1.1730845,-0.5373548,-0.5140137,0.22196046,-0.028674318,96.0
38218,-0.005001873,-1.1730845,-0.5373548,-0.13912354,0.098767094,0.020178223,96.0
38219,-0.31797856,-1.4219027,-0.21389264,-0.13912354,0.098767094,0.020178223,96.0
38220,-0.31797856,-1.4219027,-0.21389264,0.2347046,-0.04141846,0.012744141,96.0
38221,-0.5268682,-1.1581887,0.163798,0.2347046,-0.04141846,0.012744141,96.0
38222,-0.5268682,-1.1581887,0.163798,0.5150757,-0.22514649,0.07752686,96.0
38223,-0.44373578,-0.6319709,0.31807455,0.5150757,-0.22514649,0.07752686,96.0
38224,-0.44373578,-0.6319709,0.31807455,0.59472656,-0.2782471,0.032922365,96.0
38225,-0.113802105,0.12839547,0.3613078,0.59472656,-0.2782471,0.032922365,96.0
38226,-0.113802105,0.12839547,0.3613078,0.37701416,-0.16567384,-0.021240234,96.0
38227,0.17851399,0.60352206,0.29742026,0.37701416,-0.16567384,-0.021240234,96.0
38228,0.17851399,0.60352206,0.29742026,0.11363526,-0.06903076,-0.03186035,96.0
38229,0.22170523,0.5502493,0.06053143,0.11363526,-0.06903076,-0.03186035,96.0
38230,0.22170523,0.5502493,0.06053143,-0.0031860352,-0.0722168,-0.029736329,96.0
38231,0.055306077,0.07805343,-0.18415543,-0.0031860352,-0.0722168,-0.029736329,96.0
38232,0.055306077,0.07805343,-0.18415543,0.10620117,-0.18372802,-0.1359375,96.0
38233,-0.066253185,-0.5437707,-0.21196058,0.10620117,-0.18372802,-0.1359375,96.0
38234,-0.066253185,-0.5437707,-0.21196058,0.52038574,-0.27506104,-0.29099122,96.0
38235,-0.024645612,-0.3789252,0.044567283,0.52038574,-0.27506104,-0.29099122,96.0
38236,-0.024645612,-0.3789252,0.044567283,0.55755615,-0.26444092,-0.38869628,96.0
38237,0.04706818,0.7011201,0.4545137,0.55755615,-0.26444092,-0.38869628,96.0
38238,0.04706818,0.7011201,0.4545137,-0.03717041,-0.093457036,-0.49277344,96.0
38239,0.1953694,1.9641187,0.60438246,-0.03717041,-0.093457036,-0.49277344,96.0
38240,0.1953694,1.9641187,0.60438246,-0.9451904,0.30373535,-0.53737795,96.0
38241,0.555795,2.6944518,0.2413795,-0.9451904,0.30373535,-0.53737795,96.0
38242,0.555795,2.6944518,0.2413795,-1.996582,0.9228882,-0.5033936,96.0
38243,0.6247874,2.0133495,-0.40622503,-1.996582,0.9228882,-0.5033936,96.0
38244,0.6247874,2.0133495,-0.40622503,-2.4256349,0.99298096,-0.87403566,96.0
38245,-0.13176188,-0.36444247,-0.8695113,-2.4256349,0.99298096,-0.87403566,96.0
38246,-0.13176188,-0.36444247,-0.8695113,-0.85385746,0.07540283,-0.5628662,96.0
38247,-0.68098325,-2.6033459,-0.7847326,-0.85385746,0.07540283,-0.5628662,96.0
38248,-0.68098325,-2.6033459,-0.7847326,-0.6531372,-0.17841797,-0.40993652,96.0
38249,-0.40274557,-3.5979357,-0.250601,-0.6531372,-0.17841797,-0.40993652,96.0
38250,-0.40274557,-3.5979357,-0.250601,0.21983643,-0.19753419,-0.11044922,96.0
38251,-0.07836102,-2.935685,0.15707538,0.21983643,-0.19753419,-0.11044922,96.0
38252,-0.07836102,-2.935685,0.15707538,0.5564942,-0.24001466,0.16142578,96.0
38253,-0.12918052,-0.8771857,0.39001578,0.5564942,-0.24001466,0.16142578,96.0
38254,-0.12918052,-0.8771857,0.39001578,0.58623046,-0.28780517,0.0010620117,96.0
38255,-0.03397186,1.0844331,0.6706552,0.58623046,-0.28780517,0.0010620117,96.0
38256,-0.03397186,1.0844331,0.6706552,-0.08496094,-0.043542482,0.007434082,96.0
38257,0.101264894,1.9639211,0.3195686,-0.08496094,-0.043542482,0.007434082,96.0
38258,0.101264894,1.9639211,0.3195686,-0.49064943,0.14337158,-0.11469727,96.0
38259,-0.029534966,1.4086002,-0.3908539,-0.49064943,0.14337158,-0.11469727,96.0
38260,-0.029534966,1.4086002,-0.3908539,-0.2538208,0.025488282,-0.19328614,96.0
38261,-0.0710645,0.47399932,-0.5107666,-0.2538208,0.025488282,-0.19328614,96.0
38262,-0.0710645,0.47399932,-0.5107666,-0.45772704,-0.17629395,-0.28568116,96.0
38263,0.05778463,-0.40296608,-0.23821536,-0.45772704,-0.17629395,-0.28568116,96.0
38264,0.05778463,-0.40296608,-0.23821536,-0.016992187,-0.1901001,-0.18903808,96.0
38265,0.52557343,-1.0982518,0.16069724,-0.016992187,-0.1901001,-0.18903808,96.0
38266,0.52557343,-1.0982518,0.16069724,0.5607422,0.04991455,0.28568116,96.0
38267,0.71038795,-0.7436161,0.49823552,0.5607422,0.04991455,0.28568116,96.0
38268,0.71038795,-0.7436161,0.49823552,0.38232422,0.24638672,0.42799073,96.0
38269,0.302783,0.21848604,0.37269732,0.38232422,0.24638672,0.42799073,96.0
38270,0.302783,0.21848604,0.37269732,0.19753419,0.18797608,0.62127686,96.0
38271,-0.14031754,0.4035242,-0.10053599,0.19753419,0.18797608,0.62127686,96.0
38272,-0.14031754,0.4035242,-0.10053599,0.24001466,0.2803711,0.48427734,96.0
38273,-0.38533753,-0.17533739,-0.4858365,0.24001466,0.2803711,0.48427734,96.0
38274,-0.38533753,-0.17533739,-0.4858365,0.70942384,0.12000733,0.59897465,96.0
38275,-0.6097227,-0.3824086,-0.53108865,0.70942384,0.12000733,0.59897465,96.0
38276,-0.6097227,-0.3824086,-0.53108865,0.7975708,-0.052038576,0.4800293,96.0
38277,-0.81036115,-0.24856603,-0.25320345,0.7975708,-0.052038576,0.4800293,96.0
38278,-0.81036115,-0.24856603,-0.25320345,0.8315552,-0.3971924,0.30373535,96.0
38279,-0.56424356,-0.20395535,0.17797923,0.8315552,-0.3971924,0.30373535,96.0
38280,-0.56424356,-0.20395535,0.17797923,0.9855469,-0.4800293,0.32922363,96.0
38281,0.03832686,0.031745374,0.4790167,0.9855469,-0.4800293,0.32922363,96.0
38282,0.03832686,0.031745374,0.4790167,0.80394286,-0.35152587,0.25913087,96.0
38283,0.3751805,0.14766192,0.4490459,0.80394286,-0.35152587,0.25913087,96.0
38284,0.3751805,0.14766192,0.4490459,0.7614624,-0.32816163,0.16885987,96.0
38285,0.3721903,0.39793912,0.28111172,0.7614624,-0.32816163,0.16885987,96.0
38286,0.3721903,0.39793912,0.28111172,0.5894165,-0.2984253,0.14018555,96.0
38287,0.45798174,1.4993328,0.110228725,0.5894165,-0.2984253,0.14018555,96.0
38288,0.45798174,1.4993328,0.110228725,-0.3355957,0.10513916,-0.08283692,96.0
38289,0.4844762,1.9320469,-0.06294007,-0.3355957,0.10513916,-0.08283692,96.0
38290,0.4844762,1.9320469,-0.06294007,-0.95368654,0.32178956,-0.045666505,96.0
38291,0.25919962,0.710054,-0.30566213,-0.95368654,0.32178956,-0.045666505,96.0
38292,0.25919962,0.710054,-0.30566213,-0.8612915,0.26762697,-0.043542482,96.0
38293,-0.0530651,-0.8592518,-0.45462492,-0.8612915,0.26762697,-0.043542482,96.0
38294,-0.0530651,-0.8592518,-0.45462492,-0.31010744,0.118945315,-0.004248047,96.0
38295,-0.38229585,-1.5211173,-0.2844519,-0.31010744,0.118945315,-0.004248047,96.0
38296,-0.38229585,-1.5211173,-0.2844519,0.05628662,-0.11469727,0.047790527,96.0
38297,-0.45105153,-1.2465813,0.053981453,0.05628662,-0.11469727,0.047790527,96.0
38298,-0.45105153,-1.2465813,0.053981453,0.27399904,-0.21240234,-0.013806152,96.0
38299,-0.22696671,-0.5641474,0.32410556,0.27399904,-0.21240234,-0.013806152,96.0
38300,-0.22696671,-0.5641474,0.32410556,0.30373535,-0.18903808,-0.010620117,96.0
38301,-0.0032896698,0.178101,0.31659648,0.30373535,-0.18903808,-0.010620117,96.0
38302,-0.0032896698,0.178101,0.31659648,0.20390625,-0.087084964,-0.0361084,96.0
38303,0.086540624,0.5343875,0.09730794,0.20390625,-0.087084964,-0.0361084,96.0
38304,0.086540624,0.5343875,0.09730794,0.1709839,-0.06265869,-0.028674318,96.0
38305,0.11641268,0.4869827,-0.019480307,0.1709839,-0.06265869,-0.028674318,96.0
38306,0.11641268,0.4869827,-0.019480307,0.06796875,-0.033984374,-0.022302246,96.0
38307,0.10351833,0.26381713,-0.043220967,0.06796875,-0.033984374,-0.022302246,96.0
38308,0.10351833,0.26381713,-0.043220967,0.04248047,-0.03717041,-0.04460449,96.0
38309,0.10351833,0.26381713,-0.043220967,0.04248047,-0.03717041,-0.04460449,96.0
38310,0.047231168,0.06395896,-0.016669057,0.04248047,-0.03717041,-0.04460449,96.0
38311,0.047231168,0.06395896,-0.016669057,0.035046387,-0.053100586,-0.059472658,96.0
38312,0.039127707,-0.17478499,0.03572481,0.035046387,-0.053100586,-0.059472658,96.0
38313,0.039127707,-0.17478499,0.03572481,-0.06903076,-0.04141846,-0.06265869,96.0
38314,-0.0031826943,-0.06470592,0.0974153,-0.06903076,-0.04141846,-0.06265869,96.0
38315,-0.0031826943,-0.06470592,0.0974153,-0.14124756,-0.027612304,-0.08496094,96.0
38316,0.059123766,-0.07102743,0.07573497,-0.14124756,-0.027612304,-0.08496094,96.0
38317,0.059123766,-0.07102743,0.07573497,-0.21346436,0.052038576,-0.035046387,96.0
38318,0.040304385,-0.116721846,-0.09063272,-0.21346436,0.052038576,-0.035046387,96.0
38319,0.040304385,-0.116721846,-0.09063272,-0.2548828,0.046728518,-0.025488282,96.0
38320,-0.06095718,-0.23651713,-0.20934701,-0.2548828,0.046728518,-0.025488282,96.0
38321,-0.06095718,-0.23651713,-0.20934701,-0.16992188,-0.016992187,-0.022302246,96.0
38322,-0.07155627,-0.44326645,-0.19463825,-0.16992188,-0.016992187,-0.022302246,96.0
38323,-0.07155627,-0.44326645,-0.19463825,-0.004248047,-0.06159668,-0.035046387,96.0
38324,-0.05569472,-0.38585097,-0.07674332,-0.004248047,-0.06159668,-0.035046387,96.0
38325,-0.05569472,-0.38585097,-0.07674332,0.046728518,-0.095581055,-0.04991455,96.0
38326,-0.0029175878,-0.08884433,0.075153194,0.046728518,-0.095581055,-0.04991455,96.0
38327,-0.0029175878,-0.08884433,0.075153194,-0.009558106,-0.08920898,-0.059472658,96.0
38328,0.07854972,0.086248755,0.13956591,-0.009558106,-0.08920898,-0.059472658,96.0
38329,0.07854972,0.086248755,0.13956591,-0.007434082,-0.107263185,-0.0722168,96.0
38330,0.09909466,0.17764159,0.11483878,-0.007434082,-0.107263185,-0.0722168,96.0
38331,0.09909466,0.17764159,0.11483878,-0.09239502,-0.07646485,-0.10407715,96.0
38332,0.059231784,0.27573144,0.05811858,-0.09239502,-0.07646485,-0.10407715,96.0
38333,0.059231784,0.27573144,0.05811858,-0.23045655,-0.046728518,-0.083898924,96.0
38334,-0.010536935,-0.041353323,-0.052723885,-0.23045655,-0.046728518,-0.083898924,96.0
38335,-0.010536935,-0.041353323,-0.052723885,-0.098767094,-0.09133301,-0.124255374,96.0
38336,-0.011224959,-0.44779214,-0.052042387,-0.098767094,-0.09133301,-0.124255374,96.0
38337,-0.011224959,-0.44779214,-0.052042387,0.1901001,-0.07327881,-0.052038576,96.0
38338,0.02212355,-0.020623848,0.103971556,0.1901001,-0.07327881,-0.052038576,96.0
38339,0.02212355,-0.020623848,0.103971556,-0.11257324,0.03079834,-0.1083252,96.0
38340,-0.020362683,0.5864794,0.1296128,-0.11257324,0.03079834,-0.1083252,96.0
38341,-0.020362683,0.5864794,0.1296128,-0.5012695,0.08814698,-0.14761963,96.0
38342,-0.10924669,-0.004022002,-0.08411494,-0.5012695,0.08814698,-0.14761963,96.0
38343,-0.10924669,-0.004022002,-0.08411494,-0.30161133,-0.04460449,-0.20603028,96.0
38344,-0.07941396,-1.3876293,-0.13460153,-0.30161133,-0.04460449,-0.20603028,96.0
38345,-0.07941396,-1.3876293,-0.13460153,0.72854006,-0.15611573,-0.14761963,96.0
38346,0.19434237,-0.75340176,0.29782414,0.72854006,-0.15611573,-0.14761963,96.0
38347,0.19434237,-0.75340176,0.29782414,0.3536499,0.121069334,-0.1720459,96.0
38348,0.31154078,1.6931282,0.49643803,0.3536499,0.121069334,-0.1720459,96.0
38349,0.31154078,1.6931282,0.49643803,-0.90058595,0.47471926,-0.40356445,96.0
38350,0.16248947,2.4664898,-0.01720503,-0.90058595,0.47471926,-0.40356445,96.0
38351,0.16248947,2.4664898,-0.01720503,-1.4751343,0.5851685,-0.45560303,96.0
38352,-0.102650024,1.1004503,-0.5840155,-1.4751343,0.5851685,-0.45560303,96.0
38353,-0.102650024,1.1004503,-0.5840155,-1.3445069,0.32391357,-0.5533081,96.0
38354,-0.2765414,-0.37646353,-0.6484624,-1.3445069,0.32391357,-0.5533081,96.0
38355,-0.2765414,-0.37646353,-0.6484624,-1.1660889,0.15505372,-0.5777344,96.0
38356,-0.24438986,-0.6652944,-0.47499552,-1.1660889,0.15505372,-0.5777344,96.0
38357,-0.24438986,-0.6652944,-0.47499552,-1.0726318,-0.0053100586,-0.5150757,96.0
38358,0.08756916,-2.1027188,0.052278966,-1.0726318,-0.0053100586,-0.5150757,96.0
38359,0.08756916,-2.1027188,0.052278966,0.050976563,0.014868164,-0.058410645,96.0
38360,0.22766031,-2.0401342,0.21361272,0.050976563,0.014868164,-0.058410645,96.0
38361,0.22766031,-2.0401342,0.21361272,0.31010744,-0.019116212,0.115759276,96.0
38362,0.032897294,-0.7175078,0.2407022,0.31010744,-0.019116212,0.115759276,96.0
38363,0.032897294,-0.7175078,0.2407022,0.35683593,-0.12319336,0.020178223,96.0
38364,-0.12578177,0.009233534,0.1948933,0.35683593,-0.12319336,0.020178223,96.0
38365,-0.12578177,0.009233534,0.1948933,0.29736328,-0.1539917,0.06265869,96.0
38366,-0.149539,1.0348282,0.10890537,0.29736328,-0.1539917,0.06265869,96.0
38367,-0.149539,1.0348282,0.10890537,-0.0063720704,-0.033984374,-0.028674318,96.0
38368,-0.10702134,0.9358216,-0.05126682,-0.0063720704,-0.033984374,-0.028674318,96.0
38369,-0.10702134,0.9358216,-0.05126682,-0.011682129,-0.03717041,-0.06159668,96.0
38370,-0.038986214,0.6545777,-0.30179226,-0.011682129,-0.03717041,-0.06159668,96.0
38371,-0.038986214,0.6545777,-0.30179226,-0.10407715,-0.1274414,-0.19116211,96.0
38372,-0.04539796,0.3751636,-0.22602853,-0.10407715,-0.1274414,-0.19116211,96.0
38373,-0.04539796,0.3751636,-0.22602853,-0.12213135,-0.18691407,-0.21983643,96.0
38374,0.30383056,-0.5274204,0.20399164,-0.12213135,-0.18691407,-0.21983643,96.0
38375,0.30383056,-0.5274204,0.20399164,0.29099122,-0.008496094,0.10301514,96.0
38376,0.40340382,-0.60400414,0.28233394,0.29099122,-0.008496094,0.10301514,96.0
38377,0.40340382,-0.60400414,0.28233394,0.35152587,0.033984374,0.23789063,96.0
38378,0.32411465,-0.02216819,0.10223434,0.35152587,0.033984374,0.23789063,96.0
38379,0.32411465,-0.02216819,0.10223434,0.3079834,0.15080567,0.31329346,96.0
38380,0.19216526,0.15667951,0.008215696,0.3079834,0.15080567,0.31329346,96.0
38381,0.19216526,0.15667951,0.008215696,0.16992188,0.19222413,0.30267334,96.0
38382,-0.02117014,0.19017516,-0.034882523,0.16992188,0.19222413,0.30267334,96.0
38383,-0.02117014,0.19017516,-0.034882523,0.18479005,0.29099122,0.28355715,96.0
38384,-0.23074228,-0.2979087,-0.039673597,0.18479005,0.29099122,0.28355715,96.0
38385,-0.23074228,-0.2979087,-0.039673597,0.4630371,0.26125488,0.5331299,96.0
38386,-0.36451328,-0.4712249,-0.10842345,0.4630371,0.26125488,0.5331299,96.0
38387,-0.36451328,-0.4712249,-0.10842345,0.64995116,0.15080567,0.4364868,96.0
38388,-0.4052947,-0.2610742,-0.07522753,0.64995116,0.15080567,0.4364868,96.0
38389,-0.4052947,-0.2610742,-0.07522753,0.5564942,-0.0063720704,0.36427003,96.0
38390,-0.4869555,-0.21600044,0.012242287,0.5564942,-0.0063720704,0.36427003,96.0
38391,-0.4869555,-0.21600044,0.012242287,0.5363159,-0.3355957,0.35471192,96.0
38392,-0.37943256,-0.33311528,-0.08533557,0.5363159,-0.3355957,0.35471192,96.0
38393,-0.37943256,-0.33311528,-0.08533557,0.77951664,-0.47578126,0.38763428,96.0
38394,-0.039520174,-0.10658014,-0.2466498,0.77951664,-0.47578126,0.38763428,96.0
38395,-0.039520174,-0.10658014,-0.2466498,0.94625247,-0.5150757,0.16992188,96.0
38396,0.15531012,0.43438923,-0.13246389,0.94625247,-0.5150757,0.16992188,96.0
38397,0.15531012,0.43438923,-0.13246389,0.998291,-0.5936646,0.0010620117,96.0
38398,0.56874275,1.3369646,0.4846539,0.998291,-0.5936646,0.0010620117,96.0
38399,0.56874275,1.3369646,0.4846539,0.19328614,-0.035046387,0.058410645,96.0
38400,0.81100005,1.7853553,0.8881016,0.19328614,-0.035046387,0.058410645,96.0
38401,0.81100005,1.7853553,0.8881016,-0.74022216,0.38657227,0.0010620117,96.0
38402,0.32394654,0.9665777,0.38997343,-0.74022216,0.38657227,0.0010620117,96.0
38403,0.32394654,0.9665777,0.38997343,-0.94625247,0.3090454,-0.059472658,96.0
38404,-0.2175884,-0.047099173,-0.3296228,-0.94625247,0.3090454,-0.059472658,96.0
38405,-0.2175884,-0.047099173,-0.3296228,-0.8814697,0.21027832,-0.08071289,96.0
38406,-0.2175884,-0.047099173,-0.3296228,-0.8814697,0.21027832,-0.08071289,96.0
38407,-0.3906967,-0.5831139,-0.6297139,-0.8814697,0.21027832,-0.08071289,96.0
38408,-0.3906967,-0.5831139,-0.6297139,-0.62340087,0.13062744,-0.10620117,96.0
38409,-0.29341674,-0.93161565,-0.44675207,-0.62340087,0.13062744,-0.10620117,96.0
38410,-0.29341674,-0.93161565,-0.44675207,-0.26868898,0.023364259,-0.025488282,96.0
38411,-0.26764354,-0.9738692,-0.09336357,-0.26868898,0.023364259,-0.025488282,96.0
38412,-0.26764354,-0.9738692,-0.09336357,-0.046728518,-0.12213135,-0.04248047,96.0
38413,-0.27997178,-0.6770446,0.08115631,-0.046728518,-0.12213135,-0.04248047,96.0
38414,-0.27997178,-0.6770446,0.08115631,0.14655761,-0.2262085,-0.026550293,96.0
38415,-0.1291532,-0.2502416,0.17522779,0.14655761,-0.2262085,-0.026550293,96.0
38416,-0.1291532,-0.2502416,0.17522779,0.17841797,-0.16036378,0.012744141,96.0
38417,0.04172139,0.06333211,0.24477208,0.17841797,-0.16036378,0.012744141,96.0
38418,0.04172139,0.06333211,0.24477208,0.13168946,-0.087084964,0.10513916,96.0
38419,0.11509098,0.08185467,0.18173075,0.13168946,-0.087084964,0.10513916,96.0
38420,0.11509098,0.08185467,0.18173075,0.16885987,-0.07965088,0.04991455,96.0
38421,0.27219975,-0.16649869,0.06494027,0.16885987,-0.07965088,0.04991455,96.0
38422,0.27219975,-0.16649869,0.06494027,0.38551027,-0.03079834,0.0063720704,96.0
38423,0.44140482,-0.021248251,0.09092927,0.38551027,-0.03079834,0.0063720704,96.0
38424,0.44140482,-0.021248251,0.09092927,0.37807617,0.07434082,0.16779785,96.0
38425,0.3427479,0.58878756,0.12787037,0.37807617,0.07434082,0.16779785,96.0
38426,0.3427479,0.58878756,0.12787037,-0.10513916,0.10938721,0.13699952,96.0
38427,0.18299958,0.49463844,0.05162491,-0.10513916,0.10938721,0.13699952,96.0
38428,0.18299958,0.49463844,0.05162491,-0.22089843,0.083898924,0.1083252,96.0
38429,0.044898212,-0.04415741,0.032693967,-0.22089843,0.083898924,0.1083252,96.0
38430,0.044898212,-0.04415741,0.032693967,-0.24638672,0.10195313,0.10620117,96.0
38431,-0.13794619,-0.039378665,-0.21709435,-0.24638672,0.10195313,0.10620117,96.0
38432,-0.13794619,-0.039378665,-0.21709435,-0.42055663,0.15080567,-0.0637207,96.0
38433,-0.27361378,0.1704502,-0.5990905,-0.42055663,0.15080567,-0.0637207,96.0
38434,-0.27361378,0.1704502,-0.5990905,-0.3079834,-0.08920898,-0.11682129,96.0
38435,-0.21399601,0.2044876,-0.5291992,-0.3079834,-0.08920898,-0.11682129,96.0
38436,-0.21399601,0.2044876,-0.5291992,-0.21027832,-0.17629395,-0.11682129,96.0
38437,-0.06967093,-0.21184936,-0.14053464,-0.21027832,-0.17629395,-0.11682129,96.0
38438,-0.06967093,-0.21184936,-0.14053464,-0.098767094,-0.19541016,-0.1274414,96.0
38439,-0.033837333,-1.1213228,0.105370134,-0.098767094,-0.19541016,-0.1274414,96.0
38440,-0.033837333,-1.1213228,0.105370134,0.55968016,-0.32603762,-0.12531738,96.0
38441,-0.030109417,-1.2063844,0.23280685,0.55968016,-0.32603762,-0.12531738,96.0
38442,-0.030109417,-1.2063844,0.23280685,0.9281983,-0.27718505,-0.033984374,96.0
38443,0.02084655,-0.17268813,0.37003455,0.9281983,-0.27718505,-0.033984374,96.0
38444,0.02084655,-0.17268813,0.37003455,0.71579593,-0.18266602,-0.118945315,96.0
38445,0.059792474,0.5645961,0.60193586,0.71579593,-0.18266602,-0.118945315,96.0
38446,0.059792474,0.5645961,0.60193586,0.5564942,-0.13168946,-0.07540283,96.0
38447,0.30893016,0.93364716,0.83059657,0.5564942,-0.13168946,-0.07540283,96.0
38448,0.30893016,0.93364716,0.83059657,-0.045666505,0.20072022,-0.04141846,96.0
38449,0.4102423,1.4539368,0.38115203,-0.045666505,0.20072022,-0.04141846,96.0
38450,0.4102423,1.4539368,0.38115203,-0.7083618,0.5798584,-0.3440918,96.0
38451,0.23921677,1.590542,-0.56713647,-0.7083618,0.5798584,-0.3440918,96.0
38452,0.23921677,1.590542,-0.56713647,-1.1352905,0.7657105,-0.37382814,96.0
38453,-0.19707873,1.2060518,-1.2618147,-1.1352905,0.7657105,-0.37382814,96.0
38454,-0.19707873,1.2060518,-1.2618147,-1.3657471,0.3993164,-0.59260255,96.0
38455,-0.66204536,0.07187271,-1.0758824,-1.3657471,0.3993164,-0.59260255,96.0
38456,-0.66204536,0.07187271,-1.0758824,-0.72216797,0.004248047,-0.271875,96.0
38457,-0.13421391,-1.7827606,0.07955286,-0.72216797,0.004248047,-0.271875,96.0
38458,-0.13421391,-1.7827606,0.07955286,-0.16142578,0.09664307,0.023364259,96.0
38459,0.5120503,-2.8269289,0.99061984,-0.16142578,0.09664307,0.023364259,96.0
38460,0.5120503,-2.8269289,0.99061984,0.29630128,0.21558838,0.3791382,96.0
38461,0.23638582,-1.9464552,0.6831209,0.29630128,0.21558838,0.3791382,96.0
38462,0.23638582,-1.9464552,0.6831209,0.6159668,0.13699952,0.4619751,96.0
38463,-0.49053,0.0898695,-0.24940172,0.6159668,0.13699952,0.4619751,96.0
38464,-0.49053,0.0898695,-0.24940172,0.39082032,-0.07434082,0.29311523,96.0
38465,-0.7122971,1.2674279,-0.61642814,0.39082032,-0.07434082,0.29311523,96.0
38466,-0.7122971,1.2674279,-0.61642814,0.39400634,-0.18479005,0.18160401,96.0
38467,-0.23043336,1.1148212,-0.25678995,0.39400634,-0.18479005,0.18160401,96.0
38468,-0.23043336,1.1148212,-0.25678995,0.34727785,0.020178223,0.10938721,96.0
38469,0.25569236,0.4910635,0.20261247,0.34727785,0.020178223,0.10938721,96.0
38470,0.25569236,0.4910635,0.20261247,0.31860352,0.083898924,0.21346436,96.0
38471,0.3254035,-0.012886494,0.3372731,0.31860352,0.083898924,0.21346436,96.0
38472,0.3254035,-0.012886494,0.3372731,0.16673584,0.03186035,0.18585205,96.0
38473,0.022932678,-0.119110465,0.03728673,0.16673584,0.03186035,0.18585205,96.0
38474,0.022932678,-0.119110465,0.03728673,0.16567384,-0.13806152,0.2166504,96.0
38475,-0.3609141,-0.4527713,-0.32810518,0.16567384,-0.13806152,0.2166504,96.0
38476,-0.3609141,-0.4527713,-0.32810518,0.58304447,-0.4609131,0.16779785,96.0
38477,-0.2548934,-0.8665627,-0.1412195,0.58304447,-0.4609131,0.16779785,96.0
38478,-0.2548934,-0.8665627,-0.1412195,0.90695804,-0.55755615,0.14655761,96.0
38479,0.22596811,-0.40201485,0.27428025,0.90695804,-0.55755615,0.14655761,96.0
38480,0.22596811,-0.40201485,0.27428025,0.90058595,-0.37807617,0.0063720704,96.0
38481,0.3707281,1.1244698,0.41249064,0.90058595,-0.37807617,0.0063720704,96.0
38482,0.3707281,1.1244698,0.41249064,-0.013806152,-0.11469727,-0.0541626,96.0
38483,0.2679082,2.0929108,0.3471312,-0.013806152,-0.11469727,-0.0541626,96.0
38484,0.2679082,2.0929108,0.3471312,-0.80394286,0.18797608,-0.06478272,96.0
38485,0.199141,1.1308715,0.104120955,-0.80394286,0.18797608,-0.06478272,96.0
38486,0.199141,1.1308715,0.104120955,-0.91864014,0.270813,-0.04248047,96.0
38487,0.05139044,-0.5753198,-0.22064611,-0.91864014,0.270813,-0.04248047,96.0
38488,0.05139044,-0.5753198,-0.22064611,-0.49277344,0.19222413,-0.016992187,96.0
38489,-0.15510347,-1.2805562,-0.33093584,-0.49277344,0.19222413,-0.016992187,96.0
38490,-0.15510347,-1.2805562,-0.33093584,-0.19647217,0.023364259,-0.007434082,96.0
38491,-0.23840162,-0.8549015,-0.17979994,-0.19647217,0.023364259,-0.007434082,96.0
38492,-0.23840162,-0.8549015,-0.17979994,-0.12956543,-0.040356446,-0.046728518,96.0
38493,-0.17292345,-0.25135285,-0.033549428,-0.12956543,-0.040356446,-0.046728518,96.0
38494,-0.17292345,-0.25135285,-0.033549428,-0.02442627,-0.08920898,-0.035046387,96.0
38495,-0.17292345,-0.25135285,-0.033549428,-0.02442627,-0.08920898,-0.035046387,97.0
38496,-0.05369521,0.04708667,0.033084773,-0.02442627,-0.08920898,-0.035046387,97.0
38497,-0.05369521,0.04708667,0.033084773,-0.0010620117,-0.0998291,-0.010620117,97.0
38498,0.010522835,0.03126064,0.032473676,-0.0010620117,-0.0998291,-0.010620117,97.0
38499,0.010522835,0.03126064,0.032473676,0.05522461,-0.10513916,-0.020178223,97.0
38500,0.03863067,-0.15498418,0.046364687,0.05522461,-0.10513916,-0.020178223,97.0
38501,0.03863067,-0.15498418,0.046364687,0.18479005,-0.09770508,0.011682129,97.0
38502,0.09301391,-0.12642875,0.13115913,0.18479005,-0.09770508,0.011682129,97.0
38503,0.09301391,-0.12642875,0.13115913,0.16992188,-0.026550293,0.0031860352,97.0
38504,0.10995801,0.20290974,0.16972223,0.16992188,-0.026550293,0.0031860352,97.0
38505,0.10995801,0.20290974,0.16972223,0.050976563,0.023364259,-0.0180542,97.0
38506,0.036525976,0.4762072,0.09843648,0.050976563,0.023364259,-0.0180542,97.0
38507,0.036525976,0.4762072,0.09843648,-0.1274414,0.040356446,-0.060534667,97.0
38508,-0.030019943,0.32906148,-0.038902186,-0.1274414,0.040356446,-0.060534667,97.0
38509,-0.030019943,0.32906148,-0.038902186,-0.13062744,0.0021240234,-0.038232423,97.0
38510,-0.06276107,-0.016560398,-0.12691033,-0.13062744,0.0021240234,-0.038232423,97.0
38511,-0.06276107,-0.016560398,-0.12691033,-0.039294433,-0.03079834,-0.07327881,97.0
38512,-0.025587276,-0.11914432,-0.10530023,-0.039294433,-0.03079834,-0.07327881,97.0
38513,-0.025587276,-0.11914432,-0.10530023,-0.052038576,-0.013806152,-0.020178223,97.0
38514,0.03072647,-0.021548368,0.0047734864,-0.052038576,-0.013806152,-0.020178223,97.0
38515,0.03072647,-0.021548368,0.0047734864,-0.14761963,0.015930176,0.0031860352,97.0
38516,0.04743274,-0.013808519,0.10121869,-0.14761963,0.015930176,0.0031860352,97.0
38517,0.04743274,-0.013808519,0.10121869,-0.17735596,0.028674318,-0.014868164,97.0
38518,0.024103418,-0.06956732,-0.036566548,-0.17735596,0.028674318,-0.014868164,97.0
38519,0.024103418,-0.06956732,-0.036566548,-0.06690674,0.03079834,0.0010620117,97.0
38520,-0.079667464,-0.04998979,-0.1708304,-0.06690674,0.03079834,0.0010620117,97.0
38521,-0.079667464,-0.04998979,-0.1708304,-0.012744141,-0.014868164,-0.020178223,97.0
38522,-0.1054454,0.08506921,-0.024872318,-0.012744141,-0.014868164,-0.020178223,97.0
38523,-0.1054454,0.08506921,-0.024872318,-0.16248779,-0.020178223,-0.04460449,97.0
38524,-0.057293333,0.18435176,0.07799033,-0.16248779,-0.020178223,-0.04460449,97.0
38525,-0.057293333,0.18435176,0.07799033,-0.2442627,-0.0180542,-0.06584473,97.0
38526,-9.860322E-4,0.06449801,0.04486297,-0.2442627,-0.0180542,-0.06584473,97.0
38527,-9.860322E-4,0.06449801,0.04486297,-0.20709229,-0.033984374,-0.05522461,97.0
38528,0.0579392,-0.093872786,0.010670651,-0.20709229,-0.033984374,-0.05522461,97.0
38529,0.0579392,-0.093872786,0.010670651,-0.16992188,-0.012744141,-0.03717041,97.0
38530,0.069337204,-0.18497372,0.021183006,-0.16992188,-0.012744141,-0.03717041,97.0
38531,0.069337204,-0.18497372,0.021183006,-0.10513916,-0.0063720704,-0.011682129,97.0
38532,0.024842322,-0.12827682,0.06787414,-0.10513916,-0.0063720704,-0.011682129,97.0
38533,0.024842322,-0.12827682,0.06787414,-0.115759276,0.0021240234,-0.0063720704,97.0
38534,-0.0023185257,0.05813293,-0.009006351,-0.115759276,0.0021240234,-0.0063720704,97.0
38535,-0.0023185257,0.05813293,-0.009006351,-0.12956543,0.03717041,-0.0180542,97.0
38536,-0.048388023,0.106308594,-0.15556934,-0.12956543,0.03717041,-0.0180542,97.0
38537,-0.048388023,0.106308594,-0.15556934,-0.05522461,-0.0021240234,0.0,97.0
38538,-0.07578317,0.01312305,-0.10486318,-0.05522461,-0.0021240234,0.0,97.0
38539,-0.07578317,0.01312305,-0.10486318,-0.07115479,-0.019116212,-0.008496094,97.0
38540,-0.05070222,0.037537016,0.12914658,-0.07115479,-0.019116212,-0.008496094,97.0
38541,-0.05070222,0.037537016,0.12914658,-0.19647217,0.050976563,0.083898924,97.0
38542,-0.039463148,-0.07300994,0.16443786,-0.19647217,0.050976563,0.083898924,97.0
38543,-0.039463148,-0.07300994,0.16443786,-0.15930176,0.10089111,0.0180542,97.0
38544,0.035861127,-0.6095798,-0.031315923,-0.15930176,0.10089111,0.0180542,97.0
38545,0.035861127,-0.6095798,-0.031315923,0.29736328,-0.016992187,-0.07540283,97.0
38546,0.1689477,-0.6368216,-0.030497072,0.29736328,-0.016992187,-0.07540283,97.0
38547,0.1689477,-0.6368216,-0.030497072,0.36320803,-0.033984374,0.08496094,97.0
38548,0.21004829,0.12219554,0.0925335,0.36320803,-0.033984374,0.08496094,97.0
38549,0.21004829,0.12219554,0.0925335,0.052038576,-0.0361084,0.07434082,97.0
38550,0.19414948,0.47933602,0.08939545,0.052038576,-0.0361084,0.07434082,97.0
38551,0.19414948,0.47933602,0.08939545,-0.07434082,-0.033984374,0.047790527,97.0
38552,0.17109106,0.33510458,0.103401124,-0.07434082,-0.033984374,0.047790527,97.0
38553,0.17109106,0.33510458,0.103401124,-0.1529297,0.02442627,0.06796875,97.0
38554,0.032063283,0.12708023,-0.039312787,-0.1529297,0.02442627,0.06796875,97.0
38555,0.032063283,0.12708023,-0.039312787,-0.3706421,0.023364259,-0.046728518,97.0
38556,-0.20863892,-0.20589197,-0.41412845,-0.3706421,0.023364259,-0.046728518,97.0
38557,-0.20863892,-0.20589197,-0.41412845,-0.07434082,-0.16567384,-0.10513916,97.0
38558,-0.31470168,-0.6941813,-0.564335,-0.07434082,-0.16567384,-0.10513916,97.0
38559,-0.31470168,-0.6941813,-0.564335,0.4343628,-0.30161133,-0.25913087,97.0
38560,-0.25159043,-1.2165389,-0.33954173,0.4343628,-0.30161133,-0.25913087,97.0
38561,-0.25159043,-1.2165389,-0.33954173,1.1278565,-0.3971924,-0.12956543,97.0
38562,-0.06399208,-0.9917858,0.020407617,1.1278565,-0.3971924,-0.12956543,97.0
38563,-0.06399208,-0.9917858,0.020407617,1.5654052,-0.41418457,-0.070092775,97.0
38564,0.28056905,0.22938633,0.61289597,1.5654052,-0.41418457,-0.070092775,97.0
38565,0.28056905,0.22938633,0.61289597,1.2744141,-0.15080567,-0.04991455,97.0
38566,0.54567105,1.9811897,1.2546723,1.2744141,-0.15080567,-0.04991455,97.0
38567,0.54567105,1.9811897,1.2546723,0.008496094,0.33134767,-0.17735596,97.0
38568,0.56059694,3.0700471,0.92396486,0.008496094,0.33134767,-0.17735596,97.0
38569,0.56059694,3.0700471,0.92396486,-1.355127,0.8782837,-0.3451538,97.0
38570,0.35232276,2.197627,-0.4762334,-1.355127,0.8782837,-0.3451538,97.0
38571,0.35232276,2.197627,-0.4762334,-1.901001,0.901648,-0.51826173,97.0
38572,-0.27346405,0.28101432,-1.7801445,-1.901001,0.901648,-0.51826173,97.0
38573,-0.27346405,0.28101432,-1.7801445,-1.4082276,0.37701416,-0.33771974,97.0
38574,-0.69362473,-1.7262506,-1.4071722,-1.4082276,0.37701416,-0.33771974,97.0
38575,-0.69362473,-1.7262506,-1.4071722,0.06265869,-0.09133301,0.2347046,97.0
38576,-0.40427727,-2.7852364,0.302668,0.06265869,-0.09133301,0.2347046,97.0
38577,-0.40427727,-2.7852364,0.302668,0.3355957,-0.015930176,0.38338622,97.0
38578,-0.064034596,-2.0860627,1.2053058,0.3355957,-0.015930176,0.38338622,97.0
38579,-0.064034596,-2.0860627,1.2053058,0.47896728,-0.014868164,0.5055176,97.0
38580,-0.08002406,-0.24979496,0.6599234,0.47896728,-0.014868164,0.5055176,97.0
38581,-0.08002406,-0.24979496,0.6599234,0.121069334,0.050976563,0.33134767,97.0
38582,-0.22987619,1.0011406,-0.26556718,0.121069334,0.050976563,0.33134767,97.0
38583,-0.22987619,1.0011406,-0.26556718,0.039294433,-0.04141846,0.10195313,97.0
38584,-0.25971884,1.0356048,-0.5975978,0.039294433,-0.04141846,0.10195313,97.0
38585,-0.25971884,1.0356048,-0.5975978,0.15611573,-0.045666505,0.1083252,97.0
38586,-0.14987713,0.38846925,-0.29897666,0.15611573,-0.045666505,0.1083252,97.0
38587,-0.14987713,0.38846925,-0.29897666,0.39294434,-0.13275146,0.17947999,97.0
38588,0.053560212,-0.30368996,0.25716877,0.39294434,-0.13275146,0.17947999,97.0
38589,0.053560212,-0.30368996,0.25716877,0.3727661,-0.15505372,0.16461182,97.0
38590,0.13498685,-0.4253006,0.44626236,0.3727661,-0.15505372,0.16461182,97.0
38591,0.13498685,-0.4253006,0.44626236,0.25594482,-0.1985962,0.1709839,97.0
38592,0.024530008,-0.4895691,0.13207093,0.25594482,-0.1985962,0.1709839,97.0
38593,0.024530008,-0.4895691,0.13207093,0.5150757,-0.34090576,0.13912354,97.0
38594,-0.0018603653,-0.55833006,-0.14809081,0.5150757,-0.34090576,0.13912354,97.0
38595,-0.0018603653,-0.55833006,-0.14809081,0.84536135,-0.43967286,0.09770508,97.0
38596,0.09210302,-0.013399899,-0.17380711,0.84536135,-0.43967286,0.09770508,97.0
38597,0.09210302,-0.013399899,-0.17380711,0.88359374,-0.42799073,-0.08283692,97.0
38598,0.14223711,1.3203226,0.038029507,0.88359374,-0.42799073,-0.08283692,97.0
38599,0.14223711,1.3203226,0.038029507,0.10089111,-0.20284425,-0.04991455,97.0
38600,0.3813434,1.8953207,0.5409949,0.10089111,-0.20284425,-0.04991455,97.0
38601,0.3813434,1.8953207,0.5409949,-0.66588134,0.24001466,0.015930176,97.0
38602,0.48498195,0.7853849,0.58398,-0.66588134,0.24001466,0.015930176,97.0
38603,0.48498195,0.7853849,0.58398,-0.9260742,0.40993652,-0.023364259,97.0
38604,0.022800013,-0.6353884,-0.105875075,-0.9260742,0.40993652,-0.023364259,97.0
38605,0.022800013,-0.6353884,-0.105875075,-0.54375,0.1444336,-0.03079834,97.0
38606,-0.41098362,-1.1216896,-0.58904576,-0.54375,0.1444336,-0.03079834,97.0
38607,-0.41098362,-1.1216896,-0.58904576,-0.2177124,-0.04141846,-0.04141846,97.0
38608,-0.41098362,-1.1216896,-0.58904576,-0.2177124,-0.04141846,-0.04141846,97.0
38609,-0.3911282,-0.596192,-0.4793421,-0.2177124,-0.04141846,-0.04141846,97.0
38610,-0.3911282,-0.596192,-0.4793421,-0.10089111,-0.08496094,-0.07327881,97.0
38611,-0.20040259,-0.058984876,-0.1164937,-0.10089111,-0.08496094,-0.07327881,97.0
38612,-0.20040259,-0.058984876,-0.1164937,-0.04248047,-0.11682129,-0.0541626,97.0
38613,0.02614034,-0.08405313,0.15422936,-0.04248047,-0.11682129,-0.0541626,97.0
38614,0.02614034,-0.08405313,0.15422936,0.057348635,-0.10195313,-0.038232423,97.0
38615,0.12778483,-0.2510438,0.19413544,0.057348635,-0.10195313,-0.038232423,97.0
38616,0.12778483,-0.2510438,0.19413544,0.16248779,-0.10089111,-0.007434082,97.0
38617,0.11766976,-0.13866463,0.14977857,0.16248779,-0.10089111,-0.007434082,97.0
38618,0.11766976,-0.13866463,0.14977857,0.13487549,-0.059472658,0.012744141,97.0
38619,0.09221931,0.033721596,0.12303331,0.13487549,-0.059472658,0.012744141,97.0
38620,0.09221931,0.033721596,0.12303331,0.08496094,-0.008496094,-0.0063720704,97.0
38621,0.05414654,0.07774633,0.08650038,0.08496094,-0.008496094,-0.0063720704,97.0
38622,0.05414654,0.07774633,0.08650038,0.093457036,0.0063720704,-0.009558106,97.0
38623,0.04773618,0.20852275,0.1195421,0.093457036,0.0063720704,-0.009558106,97.0
38624,0.04773618,0.20852275,0.1195421,-0.045666505,0.07327881,0.015930176,97.0
38625,0.035100564,0.46145934,0.1368202,-0.045666505,0.07327881,0.015930176,97.0
38626,0.035100564,0.46145934,0.1368202,-0.3802002,0.1263794,-0.023364259,97.0
