,accx,accy,accz,gyrox,gyroy,gyroz,heart rate
37235,type,type,type,type,type,type,type
37236,-0.20664406,0.5356369,-0.63671494,0.24320069,-0.19116211,-0.3812622,111.0
37237,-0.20664406,0.5356369,-0.63671494,0.02442627,-0.31223145,-0.31010744,111.0
37238,-0.051472664,0.5727844,-0.75302505,0.02442627,-0.31223145,-0.31010744,111.0
37239,-0.051472664,0.5727844,-0.75302505,-0.16461182,-0.16461182,-0.24638672,111.0
37240,-0.051472664,0.5727844,-0.75302505,-0.34727785,0.032922365,-0.19541016,111.0
37241,0.20491552,0.34487152,-0.28730774,-0.34727785,0.032922365,-0.19541016,111.0
37242,0.24806309,-0.056854248,0.20631409,-0.34727785,0.032922365,-0.19541016,111.0
37243,0.24806309,-0.056854248,0.20631409,-0.13381349,0.04141846,0.0541626,111.0
37244,0.07677078,-0.39128113,0.28886795,-0.13381349,0.04141846,0.0541626,111.0
37245,0.07677078,-0.39128113,0.28886795,0.020178223,0.083898924,0.0722168,111.0
37246,-0.23149109,-0.23806,0.07186508,0.020178223,0.083898924,0.0722168,111.0
37247,-0.23149109,-0.23806,0.07186508,-0.08496094,-0.08920898,-0.4630371,111.0
37248,-0.23149109,-0.23806,0.07186508,-0.26125488,-0.07752686,-0.27399904,111.0
37249,-0.22285128,0.113773346,-0.23884583,-0.26125488,-0.07752686,-0.27399904,111.0
37250,-0.22285128,0.113773346,-0.23884583,-0.26125488,-0.07752686,-0.27399904,111.0
37251,0.043435097,0.08740616,-0.3730011,-0.26125488,-0.07752686,-0.27399904,111.0
37252,0.043435097,0.08740616,-0.3730011,-0.14124756,0.07752686,-0.22302246,111.0
37253,0.03508997,-0.15163422,-0.20011139,-0.14124756,0.07752686,-0.22302246,111.0
37254,0.03508997,-0.15163422,-0.20011139,-0.0021240234,0.022302246,-0.29417726,111.0
37255,-0.15499687,-0.1095047,0.04584503,-0.0021240234,0.022302246,-0.29417726,111.0
37256,-0.15499687,-0.1095047,0.04584503,0.03186035,0.032922365,-0.30373535,111.0
37257,-0.29477406,0.24712753,0.1328659,0.03186035,0.032922365,-0.30373535,111.0
37258,-0.29477406,0.24712753,0.1328659,-0.1539917,0.0053100586,-0.32178956,111.0
37259,-0.3630042,0.52510834,0.03696823,-0.1539917,0.0053100586,-0.32178956,111.0
37260,-0.3630042,0.52510834,0.03696823,-0.34727785,-0.038232423,-0.36745605,111.0
37261,-0.27614594,0.38586807,-0.106399536,-0.34727785,-0.038232423,-0.36745605,111.0
37262,-0.27614594,0.38586807,-0.106399536,-0.38763428,-0.08496094,-0.42905274,111.0
37263,-0.0111022,-0.16850281,-0.17094803,-0.38763428,-0.08496094,-0.42905274,111.0
37264,-0.0111022,-0.16850281,-0.17094803,-0.20284425,-0.07115479,-0.4970215,111.0
37265,0.086637974,-0.6442261,-0.11634827,-0.20284425,-0.07115479,-0.4970215,111.0
37266,0.086637974,-0.6442261,-0.11634827,0.04141846,0.0180542,-0.5851685,111.0
37267,-0.20793581,-0.48482513,-0.0061912537,0.04141846,0.0180542,-0.5851685,111.0
37268,-0.20793581,-0.48482513,-0.0061912537,0.021240234,-0.04885254,-0.6711914,111.0
37269,-0.48751545,0.19760132,-0.03333664,0.021240234,-0.04885254,-0.6711914,111.0
37270,-0.48751545,0.19760132,-0.03333664,-0.47471926,-0.15505372,-0.77951664,111.0
37271,-0.31252193,0.6580696,-0.34077835,-0.47471926,-0.15505372,-0.77951664,111.0
37272,-0.31252193,0.6580696,-0.34077835,-1.2117554,-0.2538208,-0.9611206,111.0
37273,0.21046829,0.6258087,-0.6989403,-1.2117554,-0.2538208,-0.9611206,111.0
37274,0.21046829,0.6258087,-0.6989403,-2.075171,-0.2899292,-1.2489258,111.0
37275,0.21046829,0.6258087,-0.6989403,-3.2614381,-0.16673584,-1.6418701,111.0
37276,0.5575962,0.45957184,-0.6654968,-3.2614381,-0.16673584,-1.6418701,111.0
37277,0.2749467,-0.027412415,-0.2380104,-3.2614381,-0.16673584,-1.6418701,111.0
37278,0.2749467,-0.027412415,-0.2380104,-4.251233,-0.0637207,-2.0082643,111.0
37279,-0.40413952,-1.205986,0.20787048,-4.251233,-0.0637207,-2.0082643,111.0
37280,-0.40413952,-1.205986,0.20787048,-4.4031005,0.014868164,-2.4203248,111.0
37281,-0.93117285,-3.1109543,0.54605484,-4.4031005,0.014868164,-2.4203248,111.0
37282,-0.93117285,-3.1109543,0.54605484,-3.1594849,0.18266602,-2.8408813,111.0
37283,-1.5121746,-4.9794617,1.1665077,-3.1594849,0.18266602,-2.8408813,111.0
37284,-1.5121746,-4.9794617,1.1665077,-1.8871949,0.27612305,-3.0097413,111.0
37285,-2.30482,-5.8391953,2.2849388,-1.8871949,0.27612305,-3.0097413,111.0
37286,-2.30482,-5.8391953,2.2849388,-1.3052124,-0.07434082,-3.076648,111.0
37287,-2.6990194,-5.8470764,3.2945786,-1.3052124,-0.07434082,-3.076648,111.0
37288,-2.6990194,-5.8470764,3.2945786,-0.9526245,-0.2803711,-2.622107,111.0
37289,-2.6856804,-5.2809906,3.6951714,-0.9526245,-0.2803711,-2.622107,111.0
37290,-2.6856804,-5.2809906,3.6951714,-0.5894165,-0.45878908,-2.0592408,111.0
37291,-2.5148659,-4.134178,3.6174927,-0.5894165,-0.45878908,-2.0592408,111.0
37292,-2.5148659,-4.134178,3.6174927,-0.85491943,-0.7189819,-1.6482422,111.0
37293,-2.5148659,-4.134178,3.6174927,-1.0163453,-0.8772217,-1.1395386,111.0
37294,-2.0138578,-3.0877,3.134781,-1.0163453,-0.8772217,-1.1395386,111.0
37295,-1.4191923,-2.823166,2.2611847,-1.0163453,-0.8772217,-1.1395386,111.0
37296,-1.4191923,-2.823166,2.2611847,-0.7657105,-1.0120972,-0.91864014,111.0
37297,-0.8325949,-2.9312134,1.5559196,-0.7657105,-1.0120972,-0.91864014,111.0
37298,-0.8325949,-2.9312134,1.5559196,0.04885254,-1.0917481,-0.79013675,111.0
37299,0.32235146,-3.331871,2.557003,0.04885254,-1.0917481,-0.79013675,111.0
37300,0.32235146,-3.331871,2.557003,-1.0312134,-1.2298096,-1.6811646,111.0
37301,1.2672691,-3.076126,2.9789505,-1.0312134,-1.2298096,-1.6811646,111.0
37302,1.2672691,-3.076126,2.9789505,-1.0014771,-1.081128,-0.4630371,111.0
37303,1.0223484,-0.87635803,0.085235596,-1.0014771,-1.081128,-0.4630371,111.0
37304,1.0223484,-0.87635803,0.085235596,0.4980835,-0.727478,-0.16885987,111.0
37305,0.9150715,0.858902,-2.4768066,0.4980835,-0.727478,-0.16885987,111.0
37306,0.9150715,0.858902,-2.4768066,0.86766356,-0.6680054,0.016992187,111.0
37307,1.3398571,0.847229,-2.1190948,0.86766356,-0.6680054,0.016992187,111.0
37308,1.3398571,0.847229,-2.1190948,0.7593384,-0.6149048,0.4078125,111.0
37309,1.5322866,0.79774475,-0.6834717,0.7593384,-0.6149048,0.4078125,111.0
37310,1.5322866,0.79774475,-0.6834717,-0.098767094,-0.9505005,0.45666504,111.0
37311,1.6715078,0.72203064,-0.13624191,-0.098767094,-0.9505005,0.45666504,111.0
37312,1.6715078,0.72203064,-0.13624191,0.31116945,-0.92501223,-0.098767094,111.0
37313,2.208068,0.5005264,-0.33350372,0.31116945,-0.92501223,-0.098767094,111.0
37314,2.208068,0.5005264,-0.33350372,0.6754395,-1.1098022,-0.24638672,111.0
37315,2.8003774,0.7446594,-0.29696655,0.6754395,-1.1098022,-0.24638672,111.0
37316,2.8003774,0.7446594,-0.29696655,0.24001466,-0.7306641,-0.22939454,111.0
37317,2.734003,0.87363434,-0.062194824,0.24001466,-0.7306641,-0.22939454,111.0
37318,2.734003,0.87363434,-0.062194824,-0.0998291,-0.32391357,-0.02442627,111.0
37319,2.734003,0.87363434,-0.062194824,0.29523927,-0.0361084,0.08283692,111.0
37320,1.8777051,0.46871185,-0.11072922,0.29523927,-0.0361084,0.08283692,111.0
37321,0.6433263,0.21110535,-0.13664246,0.29523927,-0.0361084,0.08283692,111.0
37322,0.6433263,0.21110535,-0.13664246,0.41418457,0.032922365,0.16142578,111.0
37323,-0.31588078,0.5587387,0.11544037,0.41418457,0.032922365,0.16142578,111.0
37324,-0.31588078,0.5587387,0.11544037,0.058410645,-0.07752686,0.10938721,111.0
37325,-0.51940393,0.7864685,0.20867538,0.058410645,-0.07752686,0.10938721,111.0
37326,-0.51940393,0.7864685,0.20867538,-0.04885254,-0.039294433,0.13275146,111.0
37327,-0.36523008,0.52732086,0.08583832,-0.04885254,-0.039294433,0.13275146,111.0
37328,-0.36523008,0.52732086,0.08583832,-0.15611573,0.08496094,0.04885254,111.0
37329,-0.44036484,-0.060905457,-0.05109024,-0.15611573,0.08496094,0.04885254,111.0
37330,-0.44036484,-0.060905457,-0.05109024,0.10407715,0.095581055,0.0021240234,111.0
37331,-0.462265,-0.4828186,-0.104652405,0.10407715,0.095581055,0.0021240234,111.0
37332,-0.462265,-0.4828186,-0.104652405,0.42905274,0.0021240234,-0.18585205,111.0
37333,-0.20058584,-0.21691132,-0.1281662,0.42905274,0.0021240234,-0.18585205,111.0
37334,-0.20058584,-0.21691132,-0.1281662,0.542688,0.16992188,-0.08602295,111.0
37335,-0.03191614,0.4306488,-0.18300247,0.542688,0.16992188,-0.08602295,111.0
37336,-0.03191614,0.4306488,-0.18300247,0.34090576,0.12000733,-0.09133301,111.0
37337,0.09401035,0.6554184,-0.26788712,0.34090576,0.12000733,-0.09133301,111.0
37338,0.09401035,0.6554184,-0.26788712,0.33665773,-0.14655761,-0.08814698,111.0
37339,0.6596322,0.46733856,-0.39108276,0.33665773,-0.14655761,-0.08814698,111.0
37340,0.6596322,0.46733856,-0.39108276,0.9218262,-0.3334717,-0.04460449,111.0
37341,1.3764486,0.83351135,-0.42926025,0.9218262,-0.3334717,-0.04460449,111.0
37342,1.3764486,0.83351135,-0.42926025,0.7880127,-0.25806886,0.14230958,111.0
37343,1.4525871,1.6363525,-0.34697342,0.7880127,-0.25806886,0.14230958,111.0
37344,1.4525871,1.6363525,-0.34697342,0.14337158,-0.10407715,0.010620117,111.0
37345,1.0018525,1.5222664,0.0821991,0.14337158,-0.10407715,0.010620117,111.0
37346,1.0018525,1.5222664,0.0821991,0.16885987,0.07540283,-0.07327881,111.0
37347,0.3886404,0.5609741,0.4525528,0.16885987,0.07540283,-0.07327881,111.0
37348,0.3886404,0.5609741,0.4525528,0.2347046,0.26019287,0.15823975,111.0
37349,-0.3261237,-0.02999115,0.13721466,0.2347046,0.26019287,0.15823975,111.0
37350,-0.3261237,-0.02999115,0.13721466,0.2548828,0.14549561,0.13381349,111.0
37351,-0.6890974,0.11647415,-0.33799362,0.2548828,0.14549561,0.13381349,111.0
37352,-0.6890974,0.11647415,-0.33799362,0.16248779,0.08814698,0.07115479,111.0
37353,-0.56525517,0.694767,-0.37055588,0.16248779,0.08814698,0.07115479,111.0
37354,-0.56525517,0.694767,-0.37055588,-0.2824951,0.078588866,0.022302246,111.0
37355,-0.300251,0.83701324,0.15580368,-0.2824951,0.078588866,0.022302246,111.0
37356,-0.300251,0.83701324,0.15580368,-0.6711914,0.10620117,-0.09770508,111.0
37357,-0.2934847,0.43767548,0.59381104,-0.6711914,0.10620117,-0.09770508,111.0
37358,-0.2934847,0.43767548,0.59381104,-0.9430664,0.043542482,-0.10089111,111.0
37359,-0.2934847,0.43767548,0.59381104,-0.9430664,0.043542482,-0.10089111,111.0
37360,-0.3654151,-0.31279755,0.47545242,-0.9430664,0.043542482,-0.10089111,111.0
37361,-0.3654151,-0.31279755,0.47545242,-0.83474123,0.0010620117,-0.13381349,111.0
37362,-0.29902124,-1.3247757,0.11061096,-0.83474123,0.0010620117,-0.13381349,111.0
37363,-0.29902124,-1.3247757,0.11061096,-0.26762697,0.04885254,-0.032922365,111.0
37364,-0.22805977,-1.3488464,-0.30277252,-0.26762697,0.04885254,-0.032922365,111.0
37365,-0.22805977,-1.3488464,-0.30277252,-0.11257324,-0.0541626,-0.019116212,111.0
37366,-0.06977701,-0.5167694,-0.4682541,-0.11257324,-0.0541626,-0.019116212,111.0
37367,-0.06977701,-0.5167694,-0.4682541,-0.08602295,-0.004248047,0.047790527,111.0
37368,0.13263035,-0.011024475,-0.19588089,-0.08602295,-0.004248047,0.047790527,111.0
37369,0.13263035,-0.011024475,-0.19588089,-0.12850343,0.13699952,0.13275146,111.0
37370,0.27063084,-0.31902313,0.3623047,-0.12850343,0.13699952,0.13275146,111.0
37371,0.27063084,-0.31902313,0.3623047,0.095581055,0.3419678,0.16567384,111.0
37372,0.13870907,-0.69597626,0.5809784,0.095581055,0.3419678,0.16567384,111.0
37373,0.13870907,-0.69597626,0.5809784,0.11682129,0.3802002,0.27718505,111.0
37374,-0.31564426,-0.40331268,0.09574127,0.11682129,0.3802002,0.27718505,111.0
37375,-0.31564426,-0.40331268,0.09574127,0.14549561,0.1529297,0.10195313,111.0
37376,-0.64233446,-0.134552,-0.3835907,0.14549561,0.1529297,0.10195313,111.0
37377,-0.64233446,-0.134552,-0.3835907,0.4364868,-0.07646485,-0.022302246,111.0
37378,-0.64696074,0.11238861,-0.3252945,0.4364868,-0.07646485,-0.022302246,111.0
37379,-0.64696074,0.11238861,-0.3252945,0.51082766,-0.27506104,-0.19434814,111.0
37380,-0.4024806,0.73026276,-0.11721802,0.51082766,-0.27506104,-0.19434814,111.0
37381,-0.4024806,0.73026276,-0.11721802,0.30373535,-0.3706421,-0.1985962,111.0
37382,0.1319828,1.1867752,0.32811356,0.30373535,-0.3706421,-0.1985962,111.0
37383,0.1319828,1.1867752,0.32811356,-0.4715332,0.0,-0.007434082,111.0
37384,0.47317648,0.5389252,0.57263184,-0.4715332,0.0,-0.007434082,111.0
37385,0.47317648,0.5389252,0.57263184,-0.45772704,0.32497558,0.087084964,111.0
37386,0.3049326,-0.61403656,0.22806549,-0.45772704,0.32497558,0.087084964,111.0
37387,0.3049326,-0.61403656,0.22806549,0.025488282,0.2357666,-0.026550293,111.0
37388,-0.020336151,-0.5844803,-0.3109703,0.025488282,0.2357666,-0.026550293,111.0
37389,-0.020336151,-0.5844803,-0.3109703,-0.060534667,0.052038576,-0.0361084,111.0
37390,-0.33927917,-0.07530975,-0.5643501,-0.060534667,0.052038576,-0.0361084,111.0
37391,-0.33927917,-0.07530975,-0.5643501,0.19753419,-0.20921631,-0.0063720704,111.0
37392,-0.40981436,0.006843567,0.08546829,0.19753419,-0.20921631,-0.0063720704,111.0
37393,-0.40981436,0.006843567,0.08546829,-0.0063720704,-0.13062744,-0.013806152,111.0
37394,-0.25513458,0.20710754,0.6683388,-0.0063720704,-0.13062744,-0.013806152,111.0
37395,-0.25513458,0.20710754,0.6683388,-0.76677245,0.04885254,-0.2984253,111.0
37396,-0.35355854,0.016174316,0.24317932,-0.76677245,0.04885254,-0.2984253,111.0
37397,-0.35355854,0.016174316,0.24317932,-1.0875,0.1731079,-0.1274414,111.0
37398,-0.5362401,-0.76247406,-0.5027466,-1.0875,0.1731079,-0.1274414,111.0
37399,-0.5362401,-0.76247406,-0.5027466,-0.65207523,0.078588866,-0.23682861,111.0
37400,-0.26956797,-1.3110428,-0.47106934,-0.65207523,0.078588866,-0.23682861,111.0
37401,-0.26956797,-1.3110428,-0.47106934,-0.14549561,0.08283692,-0.5235718,111.0
37402,0.21071291,-0.9807434,0.08946228,-0.14549561,0.08283692,-0.5235718,111.0
37403,0.21071291,-0.9807434,0.08946228,-0.14018555,0.10620117,-0.47471926,111.0
37404,0.4013586,-0.37859344,0.22528076,-0.14018555,0.10620117,-0.47471926,111.0
37405,0.4013586,-0.37859344,0.22528076,0.3695801,-0.22514649,-0.19222413,111.0
37406,0.24863815,-0.088157654,0.01966858,0.3695801,-0.22514649,-0.19222413,111.0
37407,0.24863815,-0.088157654,0.01966858,0.8241211,-0.29948732,-0.36533204,111.0
37408,0.42464304,0.7566681,0.23685074,0.8241211,-0.29948732,-0.36533204,111.0
37409,0.42464304,0.7566681,0.23685074,-0.25063476,-0.16885987,0.0010620117,111.0
37410,0.7568898,1.1759644,0.40143204,-0.25063476,-0.16885987,0.0010620117,111.0
37411,0.7568898,1.1759644,0.40143204,-0.6881836,0.32922363,-0.009558106,111.0
37412,0.28783607,0.33966064,0.0015792847,-0.6881836,0.32922363,-0.009558106,111.0
37413,0.28783607,0.33966064,0.0015792847,-0.4258667,0.14018555,0.098767094,111.0
37414,-0.3464527,-0.447464,-0.37407684,-0.4258667,0.14018555,0.098767094,111.0
37415,-0.3464527,-0.447464,-0.37407684,-0.11151123,-0.025488282,-0.007434082,111.0
37416,-0.33651304,-0.674942,-0.30834198,-0.11151123,-0.025488282,-0.007434082,111.0
37417,-0.33651304,-0.674942,-0.30834198,0.07965088,-0.013806152,-0.022302246,111.0
37418,-0.1699915,-0.5845413,0.06929016,0.07965088,-0.013806152,-0.022302246,111.0
37419,-0.1699915,-0.5845413,0.06929016,0.13168946,0.045666505,-0.095581055,111.0
37420,-0.09657669,-0.4207306,0.37446594,0.13168946,0.045666505,-0.095581055,111.0
37421,-0.09657669,-0.4207306,0.37446594,-0.011682129,0.03186035,0.07115479,111.0
37422,-0.12722445,-0.19791412,0.3987198,-0.011682129,0.03186035,0.07115479,111.0
37423,-0.12722445,-0.19791412,0.3987198,0.0,0.09770508,0.17416993,111.0
37424,-0.19191647,-0.032913208,0.15878296,0.0,0.09770508,0.17416993,111.0
37425,-0.19191647,-0.032913208,0.15878296,-0.0180542,0.11469727,0.14761963,111.0
37426,-0.21514225,0.022583008,-0.121421814,-0.0180542,0.11469727,0.14761963,111.0
37427,-0.21514225,0.022583008,-0.121421814,-0.010620117,0.07327881,0.12000733,111.0
37428,-0.17706966,0.12298584,-0.2881775,-0.010620117,0.07327881,0.12000733,111.0
37429,-0.17706966,0.12298584,-0.2881775,0.039294433,-0.032922365,-0.0021240234,111.0
37430,-0.045757294,0.20411682,-0.2058258,0.039294433,-0.032922365,-0.0021240234,111.0
37431,-0.045757294,0.20411682,-0.2058258,-0.0021240234,-0.124255374,0.011682129,111.0
37432,0.14022541,0.0566864,0.16109848,-0.0021240234,-0.124255374,0.011682129,111.0
37433,0.14022541,0.0566864,0.16109848,0.032922365,-0.10301514,0.06690674,111.0
37434,0.2899027,-0.3868866,0.45816422,0.032922365,-0.10301514,0.06690674,111.0
37435,0.2899027,-0.3868866,0.45816422,0.04885254,-0.11257324,0.14124756,111.0
37436,0.11434412,-0.66485596,0.088344574,0.04885254,-0.11257324,0.14124756,111.0
37437,0.11434412,-0.66485596,0.088344574,0.51188964,-0.16354981,0.1996582,111.0
37438,-0.10626602,-0.08143616,-0.56134415,0.51188964,-0.16354981,0.1996582,111.0
37439,-0.10626602,-0.08143616,-0.56134415,0.630835,-0.4067505,-0.012744141,111.0
37440,0.24308777,0.9083023,-0.25180817,0.630835,-0.4067505,-0.012744141,111.0
37441,0.24308777,0.9083023,-0.25180817,-0.009558106,-0.0180542,0.0021240234,111.0
37442,0.55733633,1.4065704,0.29074097,-0.009558106,-0.0180542,0.0021240234,111.0
37443,0.55733633,1.4065704,0.29074097,-0.7497803,0.271875,0.03186035,111.0
37444,0.2362132,0.7795639,-0.14650726,-0.7497803,0.271875,0.03186035,111.0
37445,0.2362132,0.7795639,-0.14650726,-0.4354248,0.28674316,0.05522461,111.0
37446,-0.008820057,-0.46126556,-0.38067245,-0.4354248,0.28674316,0.05522461,111.0
37447,-0.008820057,-0.46126556,-0.38067245,-0.07540283,0.47471926,0.14337158,111.0
37448,0.07674503,-0.82231903,0.07585907,-0.07540283,0.47471926,0.14337158,111.0
37449,0.07674503,-0.82231903,0.07585907,-0.25806886,0.69136965,0.21134034,111.0
37450,-0.033672333,-0.69973755,0.5092583,-0.25806886,0.69136965,0.21134034,111.0
37451,-0.033672333,-0.69973755,0.5092583,-0.23895264,0.7391602,0.2262085,111.0
37452,-0.033672333,-0.69973755,0.5092583,-0.23895264,0.7391602,0.2262085,111.0
37453,-0.4983244,-0.62693024,0.50357056,-0.23895264,0.7391602,0.2262085,111.0
37454,-0.4983244,-0.62693024,0.50357056,-0.081774905,0.56180423,0.30054933,111.0
37455,-1.2142477,-0.38648987,-0.07859802,-0.081774905,0.56180423,0.30054933,111.0
37456,-1.2142477,-0.38648987,-0.07859802,0.1444336,0.1274414,0.13381349,111.0
37457,-1.7227039,-0.32183838,-0.88181305,0.1444336,0.1274414,0.13381349,111.0
37458,-1.7227039,-0.32183838,-0.88181305,0.8209351,-0.47365722,-0.36533204,111.0
37459,-0.8848891,-0.09416199,-0.33299255,0.8209351,-0.47365722,-0.36533204,111.0
37460,-0.8848891,-0.09416199,-0.33299255,0.4322388,-0.3440918,-0.270813,111.0
37461,0.49960804,0.5225601,0.6553955,0.4322388,-0.3440918,-0.270813,111.0
37462,0.49960804,0.5225601,0.6553955,-0.19328614,0.34090576,0.08071289,111.0
37463,0.26886368,0.9983063,0.018051147,-0.19328614,0.34090576,0.08071289,111.0
37464,0.26886368,0.9983063,0.018051147,0.08496094,0.078588866,-0.095581055,111.0
37465,-0.3307705,0.83961487,-0.42378998,0.08496094,0.078588866,-0.095581055,111.0
37466,-0.3307705,0.83961487,-0.42378998,-0.045666505,-0.011682129,-0.10089111,111.0
37467,-0.08102226,0.14007568,0.0539093,-0.045666505,-0.011682129,-0.10089111,111.0
37468,-0.08102226,0.14007568,0.0539093,0.0010620117,0.14337158,-0.0541626,111.0
37469,0.100599766,-0.19049072,0.3034668,0.0010620117,0.14337158,-0.0541626,111.0
37470,0.100599766,-0.19049072,0.3034668,-0.13912354,0.1263794,-0.118945315,111.0
37471,0.09735012,-0.14642334,0.29048157,-0.13912354,0.1263794,-0.118945315,111.0
37472,0.09735012,-0.14642334,0.29048157,-0.16673584,0.13381349,-0.14337158,111.0
37473,-0.04532528,-0.19923401,0.17792892,-0.16673584,0.13381349,-0.14337158,111.0
37474,-0.04532528,-0.19923401,0.17792892,-0.1263794,0.16354981,-0.1720459,111.0
37475,-0.20545006,-0.14694977,0.06541443,-0.1263794,0.16354981,-0.1720459,111.0
37476,-0.20545006,-0.14694977,0.06541443,-0.14549561,0.09770508,-0.22939454,111.0
37477,-0.51594734,-0.066848755,-0.15029144,-0.14549561,0.09770508,-0.22939454,111.0
37478,-0.51594734,-0.066848755,-0.15029144,-0.19647217,-0.118945315,-0.16885987,111.0
37479,-0.39309216,-0.19286346,-0.11545944,-0.19647217,-0.118945315,-0.16885987,111.0
37480,-0.39309216,-0.19286346,-0.11545944,-0.16248779,-0.13062744,-0.124255374,111.0
37481,0.04072666,-0.6481781,-0.09872818,-0.16248779,-0.13062744,-0.124255374,111.0
37482,0.04072666,-0.6481781,-0.09872818,0.2538208,-0.03079834,0.007434082,111.0
37483,0.13208103,-0.51670074,-0.09901428,0.2538208,-0.03079834,0.007434082,111.0
37484,0.13208103,-0.51670074,-0.09901428,0.37489015,0.0180542,-0.026550293,111.0
37485,0.069690704,0.42687225,0.049865723,0.37489015,0.0180542,-0.026550293,111.0
37486,0.069690704,0.42687225,0.049865723,0.06903076,0.057348635,-0.07540283,111.0
37487,-0.039230347,0.61343384,0.06668854,0.06903076,0.057348635,-0.07540283,111.0
37488,-0.039230347,0.61343384,0.06668854,-0.0010620117,0.0361084,-0.12531738,111.0
37489,-0.1297121,0.28639984,0.050834656,-0.0010620117,0.0361084,-0.12531738,111.0
37490,-0.1297121,0.28639984,0.050834656,0.09664307,-0.10407715,-0.20072022,111.0
37491,-0.0848732,0.003189087,-0.0039253235,0.09664307,-0.10407715,-0.20072022,111.0
37492,-0.0848732,0.003189087,-0.0039253235,0.25063476,-0.18903808,-0.26762697,111.0
37493,-0.10934162,-0.44498444,-0.2486496,0.25063476,-0.18903808,-0.26762697,111.0
37494,-0.10934162,-0.44498444,-0.2486496,0.7189819,-0.31010744,-0.34940186,111.0
37495,-0.026547909,-0.017166138,-0.23646927,0.7189819,-0.31010744,-0.34940186,111.0
37496,-0.026547909,-0.017166138,-0.23646927,0.4694092,-0.24744873,0.009558106,111.0
37497,0.26169634,1.0320663,-0.016784668,0.4694092,-0.24744873,0.009558106,111.0
37498,0.26169634,1.0320663,-0.016784668,-0.019116212,0.03079834,-0.05628662,111.0
37499,0.33678627,1.119339,0.03200531,-0.019116212,0.03079834,-0.05628662,111.0
37500,0.33678627,1.119339,0.03200531,-0.1359375,0.15505372,-0.07115479,111.0
37501,0.07395744,0.45804596,-0.021465302,-0.1359375,0.15505372,-0.07115479,111.0
37502,0.07395744,0.45804596,-0.021465302,-0.21877442,0.07540283,-0.0722168,111.0
37503,-0.06051159,0.09562683,-0.044246674,-0.21877442,0.07540283,-0.0722168,111.0
37504,-0.06051159,0.09562683,-0.044246674,-0.31966552,0.033984374,-0.05628662,111.0
37505,0.033634186,-0.1987915,-0.037765503,-0.31966552,0.033984374,-0.05628662,111.0
37506,0.033634186,-0.1987915,-0.037765503,-0.2081543,0.1083252,-0.0010620117,111.0
37507,0.063699245,-0.6718292,-0.014770508,-0.2081543,0.1083252,-0.0010620117,111.0
37508,0.063699245,-0.6718292,-0.014770508,0.16673584,0.17523193,0.11151123,111.0
37509,-0.08350086,-0.7202606,0.07361984,0.16673584,0.17523193,0.11151123,111.0
37510,-0.08350086,-0.7202606,0.07361984,0.4258667,0.21346436,0.081774905,111.0
37511,-0.25315285,-0.038002014,0.1329689,0.4258667,0.21346436,0.081774905,111.0
37512,-0.25315285,-0.038002014,0.1329689,0.32497558,0.17416993,0.04991455,111.0
37513,-0.41045666,0.88186646,-0.017868042,0.32497558,0.17416993,0.04991455,111.0
37514,-0.41045666,0.88186646,-0.017868042,0.04460449,-0.07115479,-0.038232423,111.0
37515,-0.33548212,0.61763763,-0.05253601,0.04460449,-0.07115479,-0.038232423,111.0
37516,-0.33548212,0.61763763,-0.05253601,0.16885987,-0.18691407,-0.06265869,111.0
37517,-0.17929888,-0.106781006,-0.11170578,0.16885987,-0.18691407,-0.06265869,111.0
37518,-0.17929888,-0.106781006,-0.11170578,0.5214478,-0.3462158,-0.1444336,111.0
37519,0.01000309,-0.16272736,-0.3522911,0.5214478,-0.3462158,-0.1444336,111.0
37520,0.01000309,-0.16272736,-0.3522911,0.7869507,-0.43967286,-0.16885987,111.0
37521,0.44569778,0.36156464,-0.10838318,0.7869507,-0.43967286,-0.16885987,111.0
37522,0.44569778,0.36156464,-0.10838318,0.29630128,-0.014868164,0.038232423,111.0
37523,0.58294964,0.98682404,0.14700699,0.29630128,-0.014868164,0.038232423,111.0
37524,0.58294964,0.98682404,0.14700699,0.11363526,0.2516968,0.052038576,111.0
37525,0.06367397,1.3852234,-0.21862793,0.11363526,0.2516968,0.052038576,111.0
37526,0.06367397,1.3852234,-0.21862793,-0.24213867,0.03079834,-0.06690674,111.0
37527,-0.19992733,0.87459564,-0.28100586,-0.24213867,0.03079834,-0.06690674,111.0
37528,-0.19992733,0.87459564,-0.28100586,-0.3982544,0.04248047,-0.0053100586,111.0
37529,-0.08838415,0.033283234,0.082595825,-0.3982544,0.04248047,-0.0053100586,111.0
37530,-0.08838415,0.033283234,0.082595825,-0.5363159,-0.014868164,-0.011682129,111.0
37531,0.040450096,-0.27671814,0.37872314,-0.5363159,-0.014868164,-0.011682129,111.0
37532,0.040450096,-0.27671814,0.37872314,-0.7614624,0.016992187,-0.014868164,111.0
37533,0.059630394,-0.576355,0.28681564,-0.7614624,0.016992187,-0.014868164,111.0
37534,0.059630394,-0.576355,0.28681564,-0.54587406,0.06584473,-0.016992187,111.0
37535,-0.07011795,-0.9851303,0.008861542,-0.54587406,0.06584473,-0.016992187,111.0
37536,-0.07011795,-0.9851303,0.008861542,-0.2081543,0.0031860352,-0.014868164,111.0
37537,-0.0539093,-0.92328644,-0.16728592,-0.2081543,0.0031860352,-0.014868164,111.0
37538,-0.0539093,-0.92328644,-0.16728592,-0.0361084,0.033984374,0.0021240234,111.0
37539,0.10119629,-0.44174194,-0.2119751,-0.0361084,0.033984374,0.0021240234,111.0
37540,0.10119629,-0.44174194,-0.2119751,-0.08283692,0.121069334,0.07434082,111.0
37541,0.19353008,-0.12308502,-0.036254883,-0.08283692,0.121069334,0.07434082,111.0
37542,0.19353008,-0.12308502,-0.036254883,-0.081774905,0.26125488,0.16248779,111.0
37543,0.17572212,-0.42733765,0.30250168,-0.081774905,0.26125488,0.16248779,111.0
37544,0.17572212,-0.42733765,0.30250168,0.23895264,0.5129517,0.30373535,111.0
37545,-0.11342621,-0.4356079,0.33227158,0.23895264,0.5129517,0.30373535,111.0
37546,-0.11342621,-0.4356079,0.33227158,0.22727051,0.45347902,0.2814331,111.0
37547,-0.5427427,0.072776794,0.13171005,0.22727051,0.45347902,0.2814331,111.0
37548,-0.5427427,0.072776794,0.13171005,0.1529297,0.16673584,0.22514649,111.0
37549,-0.85116196,0.36506653,-0.15596008,0.1529297,0.16673584,0.22514649,111.0
37550,-0.85116196,0.36506653,-0.15596008,0.13699952,-0.25063476,0.004248047,111.0
37551,-0.8729954,0.28788757,-0.4940071,0.13699952,-0.25063476,0.004248047,111.0
37552,-0.8729954,0.28788757,-0.4940071,0.35789797,-0.6988037,-0.3079834,111.0
37553,-0.265193,0.14139557,-0.32214737,0.35789797,-0.6988037,-0.3079834,111.0
37554,-0.265193,0.14139557,-0.32214737,0.3525879,-0.7168579,-0.39188233,111.0
37555,0.828825,0.56993103,0.41516876,0.3525879,-0.7168579,-0.39188233,111.0
37556,0.828825,0.56993103,0.41516876,-0.48533937,0.2166504,0.057348635,111.0
37557,0.99870443,0.6217041,0.33019257,-0.48533937,0.2166504,0.057348635,111.0
37558,0.99870443,0.6217041,0.33019257,-0.35577393,0.4322388,0.121069334,111.0
37559,0.20648289,-0.3358841,-0.15608215,-0.35577393,0.4322388,0.121069334,111.0
37560,0.20648289,-0.3358841,-0.15608215,0.17629395,0.16036378,0.098767094,111.0
37561,-0.15642023,-0.452713,-0.06497955,0.17629395,0.16036378,0.098767094,111.0
37562,-0.15642023,-0.452713,-0.06497955,-0.07646485,0.15505372,0.047790527,111.0
37563,-0.26228237,0.19547272,-0.07003784,-0.07646485,0.15505372,0.047790527,111.0
37564,-0.26228237,0.19547272,-0.07003784,-0.28461915,-0.16992188,-0.0722168,111.0
37565,-0.26228237,0.19547272,-0.07003784,-0.28461915,-0.16992188,-0.0722168,111.0
37566,-0.39934015,-0.19812775,-0.25335693,-0.28461915,-0.16992188,-0.0722168,111.0
37567,-0.39934015,-0.19812775,-0.25335693,0.34727785,-0.37489015,-0.11044922,111.0
37568,-0.050759315,-0.55281067,0.15586853,0.34727785,-0.37489015,-0.11044922,111.0
37569,-0.050759315,-0.55281067,0.15586853,0.25806886,-0.16885987,-0.020178223,111.0
37570,0.35642624,0.24928284,0.34178543,0.25806886,-0.16885987,-0.020178223,111.0
37571,0.35642624,0.24928284,0.34178543,-0.23682861,0.22408448,0.019116212,111.0
37572,0.21600056,0.5892334,-0.22911072,-0.23682861,0.22408448,0.019116212,111.0
37573,0.21600056,0.5892334,-0.22911072,-0.078588866,0.0722168,-0.023364259,111.0
37574,0.006052017,0.10491943,-0.2927246,-0.078588866,0.0722168,-0.023364259,111.0
37575,0.006052017,0.10491943,-0.2927246,-0.04991455,0.09664307,0.06584473,111.0
37576,0.008918762,-0.12561035,-0.009094238,-0.04991455,0.09664307,0.06584473,111.0
37577,0.008918762,-0.12561035,-0.009094238,-0.07115479,0.14655761,-0.039294433,111.0
37578,0.0093688965,-0.029136658,0.28179932,-0.07115479,0.14655761,-0.039294433,111.0
37579,0.0093688965,-0.029136658,0.28179932,-0.23258057,0.24107666,0.035046387,111.0
37580,-0.062951565,0.062149048,0.4124756,-0.23258057,0.24107666,0.035046387,111.0
37581,-0.062951565,0.062149048,0.4124756,-0.45029297,0.2803711,0.0637207,111.0
37582,-0.2030344,-0.08404541,0.14401627,-0.45029297,0.2803711,0.0637207,111.0
37583,-0.2030344,-0.08404541,0.14401627,-0.4258667,0.18479005,-0.014868164,111.0
37584,-0.33454704,-0.50050354,-0.20236588,-0.4258667,0.18479005,-0.014868164,111.0
37585,-0.33454704,-0.50050354,-0.20236588,-0.1529297,-0.0053100586,-0.05522461,111.0
37586,-0.43016243,-0.8185425,-0.27430725,-0.1529297,-0.0053100586,-0.05522461,111.0
37587,-0.43016243,-0.8185425,-0.27430725,0.17416993,-0.1985962,-0.087084964,111.0
37588,-0.32785797,-0.5624161,-0.053382874,0.17416993,-0.1985962,-0.087084964,111.0
37589,-0.32785797,-0.5624161,-0.053382874,0.25913087,-0.31223145,-0.09133301,111.0
37590,-0.024798393,-0.0934906,0.14490509,0.25913087,-0.31223145,-0.09133301,111.0
37591,-0.024798393,-0.0934906,0.14490509,0.2357666,-0.33240968,-0.05522461,111.0
37592,0.2078228,-0.21052551,0.083747864,0.2357666,-0.33240968,-0.05522461,111.0
37593,0.2078228,-0.21052551,0.083747864,0.7349121,-0.43117675,-0.18054199,111.0
37594,0.18672943,-0.29543304,-0.26158905,0.7349121,-0.43117675,-0.18054199,111.0
37595,0.18672943,-0.29543304,-0.26158905,1.2032593,-0.5246338,-0.26019287,111.0
37596,0.31969643,0.96349335,-0.0038604736,1.2032593,-0.5246338,-0.26019287,111.0
37597,0.31969643,0.96349335,-0.0038604736,0.1720459,-0.36320803,0.2984253,111.0
37598,0.85454845,2.1011887,0.21068192,0.1720459,-0.36320803,0.2984253,111.0
37599,0.85454845,2.1011887,0.21068192,-0.5511841,0.06796875,-0.033984374,111.0
37600,0.6950278,1.271965,-0.27480316,-0.5511841,0.06796875,-0.033984374,111.0
37601,0.6950278,1.271965,-0.27480316,-0.29948732,0.11682129,-0.052038576,111.0
37602,0.052933693,0.030708313,-0.32337952,-0.29948732,0.11682129,-0.052038576,111.0
37603,0.052933693,0.030708313,-0.32337952,-0.4078125,-0.095581055,-0.07115479,111.0
37604,-0.007823944,-0.50014114,-0.059127808,-0.4078125,-0.095581055,-0.07115479,111.0
37605,-0.007823944,-0.50014114,-0.059127808,-0.42268068,-0.010620117,-0.011682129,111.0
37606,0.18390179,-0.84884644,0.13311768,-0.42268068,-0.010620117,-0.011682129,111.0
37607,0.18390179,-0.84884644,0.13311768,-0.11469727,0.06796875,0.010620117,111.0
37608,0.13681889,-0.84944916,0.21122742,-0.11469727,0.06796875,0.010620117,111.0
37609,0.13681889,-0.84944916,0.21122742,0.13912354,0.16036378,0.078588866,111.0
37610,-0.094475746,-0.32777405,0.25115967,0.13912354,0.16036378,0.078588866,111.0
37611,-0.094475746,-0.32777405,0.25115967,0.06265869,0.07115479,0.06159668,111.0
37612,-0.21389866,0.26451874,0.17539978,0.06265869,0.07115479,0.06159668,111.0
37613,-0.21389866,0.26451874,0.17539978,-0.05628662,0.04460449,0.011682129,111.0
37614,-0.13960028,0.3143463,-0.06737137,-0.05628662,0.04460449,0.011682129,111.0
37615,-0.13960028,0.3143463,-0.06737137,-0.023364259,-0.052038576,0.0,111.0
37616,0.03042221,0.037521362,-0.21776581,-0.023364259,-0.052038576,0.0,111.0
37617,0.03042221,0.037521362,-0.21776581,0.0361084,-0.09133301,-0.04885254,111.0
37618,0.1731782,-0.09421539,-0.03655243,0.0361084,-0.09133301,-0.04885254,111.0
37619,0.1731782,-0.09421539,-0.03655243,0.026550293,-0.081774905,-0.04248047,111.0
37620,0.14847946,-0.107536316,0.14916229,0.026550293,-0.081774905,-0.04248047,111.0
37621,0.14847946,-0.107536316,0.14916229,0.026550293,-0.047790527,0.04885254,111.0
37622,-0.034597397,-0.38750458,0.03623581,0.026550293,-0.047790527,0.04885254,111.0
37623,-0.034597397,-0.38750458,0.03623581,0.45560303,-0.1709839,0.03717041,111.0
37624,-0.116251945,-0.5407791,-0.088321686,0.45560303,-0.1709839,0.03717041,111.0
37625,-0.116251945,-0.5407791,-0.088321686,0.85598147,-0.26444092,-0.029736329,111.0
37626,0.0013713837,0.13799286,-0.2327652,0.85598147,-0.26444092,-0.029736329,111.0
37627,0.0013713837,0.13799286,-0.2327652,0.7827026,-0.4078125,0.05628662,111.0
37628,0.44059896,1.3949509,-0.022064209,0.7827026,-0.4078125,0.05628662,111.0
37629,0.44059896,1.3949509,-0.022064209,-0.1539917,-0.10301514,0.09770508,111.0
37630,0.66264725,2.1334305,-0.024658203,-0.1539917,-0.10301514,0.09770508,111.0
37631,0.66264725,2.1334305,-0.024658203,-0.9197022,0.28355715,0.17523193,111.0
37632,0.27704144,1.1297531,-0.38846588,-0.9197022,0.28355715,0.17523193,111.0
37633,0.27704144,1.1297531,-0.38846588,-0.72216797,0.21452637,0.08071289,111.0
37634,0.053297997,-0.5638275,-0.15829468,-0.72216797,0.21452637,0.08071289,111.0
37635,0.053297997,-0.5638275,-0.15829468,-0.5777344,0.4333008,0.22302246,111.0
37636,0.120238304,-1.3434448,0.38558197,-0.5777344,0.4333008,0.22302246,111.0
37637,0.120238304,-1.3434448,0.38558197,-0.54587406,0.5363159,0.26019287,111.0
37638,0.01594162,-1.3430939,0.6780853,-0.54587406,0.5363159,0.26019287,111.0
37639,0.01594162,-1.3430939,0.6780853,-0.4354248,0.48215333,0.14655761,111.0
37640,-0.56162405,-0.89469147,0.14326096,-0.4354248,0.48215333,0.14655761,111.0
37641,-0.56162405,-0.89469147,0.14326096,-0.17735596,0.20603028,0.059472658,111.0
37642,-1.2227001,-0.6444397,-0.5562439,-0.17735596,0.20603028,0.059472658,111.0
37643,-1.2227001,-0.6444397,-0.5562439,0.4088745,-0.3440918,-0.19328614,111.0
37644,-0.80547905,-0.59030914,-0.11725998,0.4088745,-0.3440918,-0.19328614,111.0
37645,-0.80547905,-0.59030914,-0.11725998,0.3069214,-0.3355957,0.0361084,111.0
37646,0.24403238,0.19047546,0.36838913,0.3069214,-0.3355957,0.0361084,111.0
37647,0.24403238,0.19047546,0.36838913,-0.22302246,0.29736328,-0.053100586,111.0
37648,0.32077503,0.66108704,-0.056228638,-0.22302246,0.29736328,-0.053100586,111.0
37649,0.32077503,0.66108704,-0.056228638,-0.09239502,0.09133301,0.0021240234,111.0
37650,-0.053915024,0.23348236,-0.15577316,-0.09239502,0.09133301,0.0021240234,111.0
37651,-0.053915024,0.23348236,-0.15577316,-0.026550293,0.09664307,0.029736329,111.0
37652,0.02847433,-0.10077667,0.15879059,-0.026550293,0.09664307,0.029736329,111.0
37653,0.02847433,-0.10077667,0.15879059,-0.10620117,0.26656494,0.03186035,111.0
37654,0.0858655,-0.12004089,0.3132286,-0.10620117,0.26656494,0.03186035,111.0
37655,0.0858655,-0.12004089,0.3132286,-0.29099122,0.31223145,-0.04885254,111.0
37656,-0.091427326,-0.061058044,0.21452332,-0.29099122,0.31223145,-0.04885254,111.0
37657,-0.091427326,-0.061058044,0.21452332,-0.41843262,0.3058594,-0.16036378,111.0
37658,-0.40317106,-0.2155304,-0.021652222,-0.41843262,0.3058594,-0.16036378,111.0
37659,-0.40317106,-0.2155304,-0.021652222,-0.33134767,0.10195313,-0.26444092,111.0
37660,-0.60691166,-0.49210358,-0.10207367,-0.33134767,0.10195313,-0.26444092,111.0
37661,-0.60691166,-0.49210358,-0.10207367,-0.14549561,-0.095581055,-0.22089843,111.0
37662,-0.50846577,-0.69690704,0.04320526,-0.14549561,-0.095581055,-0.22089843,111.0
37663,-0.50846577,-0.69690704,0.04320526,0.08071289,-0.2888672,-0.16142578,111.0
37664,-0.24625015,-0.9452667,-0.030181885,0.08071289,-0.2888672,-0.16142578,111.0
37665,-0.24625015,-0.9452667,-0.030181885,0.58198243,-0.48321533,-0.19541016,111.0
37666,-0.09479046,-1.0483627,-0.5738869,0.58198243,-0.48321533,-0.19541016,111.0
37667,-0.09479046,-1.0483627,-0.5738869,1.3816773,-0.5787964,-0.1731079,111.0
37668,0.3006811,0.52625275,-0.09895325,1.3816773,-0.5787964,-0.1731079,111.0
37669,0.3006811,0.52625275,-0.09895325,0.5703003,-0.23045655,0.025488282,111.0
37670,1.0285335,2.353325,0.5640259,0.5703003,-0.23045655,0.025488282,111.0
37671,1.0285335,2.353325,0.5640259,-0.62340087,0.2814331,-0.016992187,111.0
37672,0.7603388,1.6209259,0.06856537,-0.62340087,0.2814331,-0.016992187,111.0
37673,0.7603388,1.6209259,0.06856537,-0.18691407,0.36002198,-0.19753419,111.0
37674,-0.13319588,0.23718262,-0.29694366,-0.18691407,0.36002198,-0.19753419,111.0
37675,-0.13319588,0.23718262,-0.29694366,-0.23895264,0.25806886,-0.18372802,111.0
37676,-0.35048962,-0.46513367,-0.11099243,-0.23895264,0.25806886,-0.18372802,111.0
37677,-0.35048962,-0.46513367,-0.11099243,-0.19328614,0.2548828,0.026550293,111.0
37678,-0.20670986,-0.91563416,0.2207756,-0.19328614,0.2548828,0.026550293,111.0
37679,-0.20670986,-0.91563416,0.2207756,0.04141846,0.18160401,0.11682129,111.0
37680,-0.25864172,-0.65750885,0.09258652,0.04141846,0.18160401,0.11682129,111.0
37681,-0.25864172,-0.65750885,0.09258652,0.28461915,0.033984374,0.15080567,111.0
37682,-0.5724535,-0.20383453,-0.20381165,0.28461915,0.033984374,0.15080567,111.0
37683,-0.5724535,-0.20383453,-0.20381165,0.6064087,-0.23045655,-0.019116212,111.0
37684,-0.6042757,0.1839447,-0.26876068,0.6064087,-0.23045655,-0.019116212,111.0
37685,-0.6042757,0.1839447,-0.26876068,0.7582764,-0.4704712,-0.15930176,111.0
37686,-0.225523,0.4719696,-0.31206894,0.7582764,-0.4704712,-0.15930176,111.0
37687,-0.225523,0.4719696,-0.31206894,1.0057251,-0.7072998,-0.29948732,111.0
37688,0.6354141,0.9692154,0.060707092,1.0057251,-0.7072998,-0.29948732,111.0
37689,0.6354141,0.9692154,0.060707092,0.20284425,-0.22196046,0.035046387,111.0
37690,1.1286807,1.5155334,0.2361641,0.20284425,-0.22196046,0.035046387,111.0
37691,1.1286807,1.5155334,0.2361641,-0.2984253,0.32603762,0.04991455,111.0
37692,1.1286807,1.5155334,0.2361641,-0.2984253,0.32603762,0.04991455,110.0
37693,0.40637445,1.310318,-0.2746315,-0.2984253,0.32603762,0.04991455,110.0
37694,0.40637445,1.310318,-0.2746315,-0.40356445,0.15717773,0.0053100586,110.0
37695,-0.27875805,0.3879509,-0.3145523,-0.40356445,0.15717773,0.0053100586,110.0
37696,-0.27875805,0.3879509,-0.3145523,-0.44498292,0.081774905,0.04460449,110.0
37697,-0.20404911,-0.4478302,0.113544464,-0.44498292,0.081774905,0.04460449,110.0
37698,-0.20404911,-0.4478302,0.113544464,-0.3345337,0.12319336,0.007434082,110.0
37699,0.04066658,-0.74446106,0.41926575,-0.3345337,0.12319336,0.007434082,110.0
37700,0.04066658,-0.74446106,0.41926575,-0.2814331,0.13699952,-0.025488282,110.0
37701,0.07061958,-0.55924225,0.44969177,-0.2814331,0.13699952,-0.025488282,110.0
37702,0.07061958,-0.55924225,0.44969177,-0.38869628,0.0541626,0.03717041,110.0
37703,-0.19598246,-0.08517456,0.061267853,-0.38869628,0.0541626,0.03717041,110.0
37704,-0.19598246,-0.08517456,0.061267853,-0.51932377,-0.14018555,0.046728518,110.0
37705,-0.33924484,-0.19930649,-0.32969666,-0.51932377,-0.14018555,0.046728518,110.0
37706,-0.33924484,-0.19930649,-0.32969666,-0.2538208,-0.30373535,-0.124255374,110.0
37707,0.043276787,-0.9825058,-0.2395401,-0.2538208,-0.30373535,-0.124255374,110.0
37708,0.043276787,-0.9825058,-0.2395401,0.32709962,-0.035046387,-0.10195313,110.0
37709,0.362319,-0.6803894,-0.102371216,0.32709962,-0.035046387,-0.10195313,110.0
37710,0.362319,-0.6803894,-0.102371216,0.15505372,0.10513916,0.058410645,110.0
37711,0.25806808,0.22299957,-0.10316086,0.15505372,0.10513916,0.058410645,110.0
37712,0.25806808,0.22299957,-0.10316086,0.07752686,0.1444336,0.1178833,110.0
37713,0.08662987,0.37324524,0.050346375,0.07752686,0.1444336,0.1178833,110.0
37714,0.08662987,0.37324524,0.050346375,0.12319336,0.2177124,0.040356446,110.0
37715,0.08644247,0.16280365,0.28611374,0.12319336,0.2177124,0.040356446,110.0
37716,0.08644247,0.16280365,0.28611374,0.050976563,0.3440918,0.1359375,110.0
37717,-0.02012825,0.05088806,0.1953125,0.050976563,0.3440918,0.1359375,110.0
37718,-0.02012825,0.05088806,0.1953125,0.038232423,0.4258667,0.1359375,110.0
37719,-0.33912516,0.024681091,-0.103126526,0.038232423,0.4258667,0.1359375,110.0
37720,-0.33912516,0.024681091,-0.103126526,0.026550293,0.32391357,0.2548828,110.0
37721,-0.5422964,-0.1433258,-0.104595184,0.026550293,0.32391357,0.2548828,110.0
37722,-0.5422964,-0.1433258,-0.104595184,0.1709839,0.19753419,0.19328614,110.0
37723,-0.53127384,-0.23454285,0.124637604,0.1709839,0.19753419,0.19328614,110.0
37724,-0.53127384,-0.23454285,0.124637604,0.29630128,0.023364259,0.1178833,110.0
37725,-0.51022434,0.18674469,0.06198883,0.29630128,0.023364259,0.1178833,110.0
37726,-0.51022434,0.18674469,0.06198883,0.083898924,-0.21240234,-0.050976563,110.0
37727,-0.5464363,0.6287384,-0.26384735,0.083898924,-0.21240234,-0.050976563,110.0
37728,-0.5464363,0.6287384,-0.26384735,0.016992187,-0.5872925,-0.18585205,110.0
37729,-0.23501301,0.2559967,-0.3468666,0.016992187,-0.5872925,-0.18585205,110.0
37730,-0.23501301,0.2559967,-0.3468666,0.35895997,-0.6552612,-0.16354981,110.0
37731,0.7468529,0.151268,0.16685486,0.35895997,-0.6552612,-0.16354981,110.0
37732,0.7468529,0.151268,0.16685486,-0.16992188,0.07115479,-0.12000733,110.0
37733,1.0886202,0.2945137,0.32844162,-0.16992188,0.07115479,-0.12000733,110.0
37734,1.0886202,0.2945137,0.32844162,-0.09664307,0.4885254,0.10938721,110.0
37735,0.3364358,-0.14600372,0.16100693,-0.09664307,0.4885254,0.10938721,110.0
37736,0.3364358,-0.14600372,0.16100693,0.20921631,0.10407715,0.02442627,110.0
37737,-0.3791542,0.061088562,-0.06974411,0.20921631,0.10407715,0.02442627,110.0
37738,-0.3791542,0.061088562,-0.06974411,-0.13381349,-0.23151855,0.03186035,110.0
37739,-0.49259377,0.40737915,-0.23002625,-0.13381349,-0.23151855,0.03186035,110.0
37740,-0.49259377,0.40737915,-0.23002625,-0.10195313,-0.4704712,-0.06584473,110.0
37741,0.17773914,0.34920502,0.28895187,-0.10195313,-0.4704712,-0.06584473,110.0
37742,0.17773914,0.34920502,0.28895187,-0.8400513,0.0031860352,-0.11682129,110.0
37743,0.39713526,0.31684113,0.14603043,-0.8400513,0.0031860352,-0.11682129,110.0
37744,0.39713526,0.31684113,0.14603043,-1.084314,0.118945315,0.035046387,110.0
37745,-0.0075235367,-0.71593857,-0.45440292,-1.084314,0.118945315,0.035046387,110.0
37746,-0.0075235367,-0.71593857,-0.45440292,-0.37701416,0.013806152,-0.021240234,110.0
37747,-0.011475563,-1.9169846,-0.33486938,-0.37701416,0.013806152,-0.021240234,110.0
37748,-0.011475563,-1.9169846,-0.33486938,0.35152587,0.045666505,0.07646485,110.0
37749,0.07807541,-1.4533539,0.04650879,0.35152587,0.045666505,0.07646485,110.0
37750,0.07807541,-1.4533539,0.04650879,0.5766724,0.014868164,0.013806152,110.0
37751,0.10870075,0.038352966,0.36558914,0.5766724,0.014868164,0.013806152,110.0
37752,0.10870075,0.038352966,0.36558914,0.2803711,-0.14018555,-0.13168946,110.0
37753,-0.0059833527,0.8324661,0.17667389,0.2803711,-0.14018555,-0.13168946,110.0
37754,-0.0059833527,0.8324661,0.17667389,0.30373535,-0.32391357,-0.25063476,110.0
37755,-0.21462536,0.5048065,-0.08708954,0.30373535,-0.32391357,-0.25063476,110.0
37756,-0.21462536,0.5048065,-0.08708954,0.6467652,-0.50020754,-0.1985962,110.0
37757,0.2148962,0.5548706,0.20072556,0.6467652,-0.50020754,-0.1985962,110.0
37758,0.2148962,0.5548706,0.20072556,-0.26868898,-0.3419678,-0.035046387,110.0
37759,0.74500084,0.9126091,0.10741806,-0.26868898,-0.3419678,-0.035046387,110.0
37760,0.74500084,0.9126091,0.10741806,-0.542688,0.11469727,-0.13062744,110.0
37761,0.44701385,0.26174164,-0.28078842,-0.542688,0.11469727,-0.13062744,110.0
37762,0.44701385,0.26174164,-0.28078842,-0.3069214,-0.0021240234,-0.04885254,110.0
37763,-0.0033388138,-0.44869995,-0.21647644,-0.3069214,-0.0021240234,-0.04885254,110.0
37764,-0.0033388138,-0.44869995,-0.21647644,-0.3451538,-0.045666505,0.020178223,110.0
37765,0.004506588,-0.73091125,0.055274963,-0.3451538,-0.045666505,0.020178223,110.0
37766,0.004506588,-0.73091125,0.055274963,-0.13912354,0.016992187,0.035046387,110.0
37767,0.12424755,-0.72901917,0.16215515,-0.13912354,0.016992187,0.035046387,110.0
37768,0.12424755,-0.72901917,0.16215515,0.04885254,0.0637207,0.011682129,110.0
37769,0.16242313,-0.32826233,0.28411865,0.04885254,0.0637207,0.011682129,110.0
37770,0.16242313,-0.32826233,0.28411865,-0.081774905,0.090270996,0.08071289,110.0
37771,0.07468939,0.072769165,0.321373,-0.081774905,0.090270996,0.08071289,110.0
37772,0.07468939,0.072769165,0.321373,-0.17735596,0.14655761,0.12956543,110.0
37773,-0.0996356,0.14681244,0.041778564,-0.17735596,0.14655761,0.12956543,110.0
37774,-0.0996356,0.14681244,0.041778564,-0.17629395,0.045666505,0.081774905,110.0
37775,-0.19131756,-0.09862518,-0.26860046,-0.17629395,0.045666505,0.081774905,110.0
37776,-0.19131756,-0.09862518,-0.26860046,-0.17629395,0.045666505,0.081774905,111.0
37777,-0.19131756,-0.09862518,-0.26860046,-0.060534667,-0.0541626,0.05628662,111.0
37778,-0.11809349,-0.35271454,-0.2682724,-0.060534667,-0.0541626,0.05628662,111.0
37779,-0.11809349,-0.35271454,-0.2682724,0.1720459,-0.1444336,-0.039294433,111.0
37780,0.008857727,-0.26654816,-0.007671356,0.1720459,-0.1444336,-0.039294433,111.0
37781,0.008857727,-0.26654816,-0.007671356,0.1529297,-0.15717773,-0.07965088,111.0
37782,0.045977592,-0.15581512,0.1051178,0.1529297,-0.15717773,-0.07965088,111.0
37783,0.045977592,-0.15581512,0.1051178,0.3058594,-0.23151855,-0.053100586,111.0
37784,-0.012412071,-0.25217438,-0.031944275,0.3058594,-0.23151855,-0.053100586,111.0
37785,-0.012412071,-0.25217438,-0.031944275,0.7657105,-0.3451538,-0.08814698,111.0
37786,0.088581085,0.13557434,-0.13251495,0.7657105,-0.3451538,-0.08814698,111.0
37787,0.088581085,0.13557434,-0.13251495,0.7423462,-0.45666504,-0.08602295,111.0
37788,0.60085726,1.1053619,0.18287659,0.7423462,-0.45666504,-0.08602295,111.0
37789,0.60085726,1.1053619,0.18287659,-0.07965088,-0.09133301,-0.0031860352,111.0
37790,0.7540865,1.4894409,0.06791687,-0.07965088,-0.09133301,-0.0031860352,111.0
37791,0.7540865,1.4894409,0.06791687,-0.4885254,0.16248779,0.14018555,111.0
37792,0.2640481,0.6791153,-0.536705,-0.4885254,0.16248779,0.14018555,111.0
37793,0.2640481,0.6791153,-0.536705,-0.10407715,0.052038576,0.0053100586,111.0
37794,0.030049324,-0.20824432,-0.41830444,-0.10407715,0.052038576,0.0053100586,111.0
37795,0.030049324,-0.20824432,-0.41830444,-0.07540283,0.14974366,0.07646485,111.0
37796,0.11660528,-0.30963898,0.068222046,-0.07540283,0.14974366,0.07646485,111.0
37797,0.11660528,-0.30963898,0.068222046,-0.2527588,0.29417726,0.14337158,111.0
37798,0.15597963,-0.40888214,0.49378967,-0.2527588,0.29417726,0.14337158,111.0
37799,0.15597963,-0.40888214,0.49378967,-0.23258057,0.44816896,0.23364258,111.0
37800,-0.065633774,-0.40943146,0.49554443,-0.23258057,0.44816896,0.23364258,111.0
37801,-0.065633774,-0.40943146,0.49554443,-0.2262085,0.5299439,0.20709229,111.0
37802,-0.45803642,-0.07899475,-0.049850464,-0.2262085,0.5299439,0.20709229,111.0
37803,-0.45803642,-0.07899475,-0.049850464,-0.23895264,0.38338622,0.08814698,111.0
37804,-0.66193676,-0.12919617,-0.38651276,-0.23895264,0.38338622,0.08814698,111.0
37805,-0.66193676,-0.12919617,-0.38651276,-0.011682129,0.24851075,-0.008496094,111.0
37806,-0.5835285,-0.42390442,-0.26644897,-0.011682129,0.24851075,-0.008496094,111.0
37807,-0.5835285,-0.42390442,-0.26644897,0.14761963,0.12213135,-0.045666505,111.0
37808,-0.41499186,-0.56443787,0.061023712,0.14761963,0.12213135,-0.045666505,111.0
37809,-0.41499186,-0.56443787,0.061023712,0.37807617,0.058410645,0.060534667,111.0
37810,-0.30700588,-0.4474945,0.27262497,0.37807617,0.058410645,0.060534667,111.0
37811,-0.30700588,-0.4474945,0.27262497,0.635083,-0.019116212,0.10301514,111.0
37812,-0.30006027,0.2413559,0.13412857,0.635083,-0.019116212,0.10301514,111.0
37813,-0.30006027,0.2413559,0.13412857,0.58410645,-0.13381349,-0.035046387,111.0
37814,-0.31370544,1.0437927,-0.24638367,0.58410645,-0.13381349,-0.035046387,111.0
37815,-0.31370544,1.0437927,-0.24638367,0.32285157,-0.45135498,-0.17735596,111.0
37816,0.05331993,1.1406479,-0.113269806,0.32285157,-0.45135498,-0.17735596,111.0
37817,0.05331993,1.1406479,-0.113269806,-0.06159668,-0.29736328,-0.0031860352,111.0
37818,0.49349785,0.9743118,0.13180923,-0.06159668,-0.29736328,-0.0031860352,111.0
37819,0.49349785,0.9743118,0.13180923,-0.60109866,0.24638672,-0.026550293,111.0
37820,0.23555756,0.31998825,-0.12762451,-0.60109866,0.24638672,-0.026550293,111.0
37821,0.23555756,0.31998825,-0.12762451,-0.38338622,0.12531738,0.019116212,111.0
37822,-0.1932311,-0.55583954,-0.23366547,-0.38338622,0.12531738,0.019116212,111.0
37823,-0.1932311,-0.55583954,-0.23366547,0.03717041,0.050976563,-0.046728518,111.0
37824,-0.083369255,-0.41832733,0.025810242,0.03717041,0.050976563,-0.046728518,111.0
37825,-0.083369255,-0.41832733,0.025810242,-0.26550293,0.1274414,-0.02442627,111.0
37826,0.122733116,-0.10932922,0.34349823,-0.26550293,0.1274414,-0.02442627,111.0
37827,0.122733116,-0.10932922,0.34349823,-0.39294434,0.124255374,-0.14974366,111.0
37828,0.05082321,-0.3203125,0.50011444,-0.39294434,0.124255374,-0.14974366,111.0
37829,0.05082321,-0.3203125,0.50011444,-0.3462158,0.13806152,-0.58198243,111.0
37830,-0.37672424,-0.14135742,0.33592987,-0.3462158,0.13806152,-0.58198243,111.0
37831,-0.37672424,-0.14135742,0.33592987,-0.72323,0.16248779,-1.1490967,111.0
37832,-0.8615236,-0.16294861,-0.23338318,-0.72323,0.16248779,-1.1490967,111.0
37833,-0.8615236,-0.16294861,-0.23338318,-0.58304447,-0.118945315,-1.4199097,111.0
37834,-0.81723404,-1.2895966,-0.6325836,-0.58304447,-0.118945315,-1.4199097,111.0
37835,-0.81723404,-1.2895966,-0.6325836,0.41737062,-0.20284425,-1.5494751,111.0
37836,-0.2971468,-1.3036728,-0.29405594,0.41737062,-0.20284425,-1.5494751,111.0
37837,-0.2971468,-1.3036728,-0.29405594,0.39188233,-0.16885987,-1.4400879,111.0
37838,0.12640572,0.3495636,0.22457123,0.39188233,-0.16885987,-1.4400879,111.0
37839,0.12640572,0.3495636,0.22457123,-0.4333008,-0.06584473,-0.9589966,111.0
37840,0.23844147,0.9439087,0.26509094,-0.4333008,-0.06584473,-0.9589966,111.0
37841,0.23844147,0.9439087,0.26509094,-0.7508423,-0.3069214,-0.3993164,111.0
37842,0.41246986,-0.70542145,0.06623459,-0.7508423,-0.3069214,-0.3993164,111.0
37843,0.41246986,-0.70542145,0.06623459,0.38444826,0.11363526,0.039294433,111.0
37844,0.26972198,-1.5683899,-0.1355896,0.38444826,0.11363526,0.039294433,111.0
37845,0.26972198,-1.5683899,-0.1355896,0.88996583,0.270813,-0.070092775,111.0
37846,-0.22426128,0.17866516,0.043590546,0.88996583,0.270813,-0.070092775,111.0
37847,-0.22426128,0.17866516,0.043590546,0.07115479,0.09664307,-0.19116211,111.0
37848,-0.381155,1.7822037,0.4234085,0.07115479,0.09664307,-0.19116211,111.0
37849,-0.381155,1.7822037,0.4234085,-0.9589966,0.03186035,-0.15717773,111.0
37850,-0.3927288,1.1057663,0.26403427,-0.9589966,0.03186035,-0.15717773,111.0
37851,-0.3927288,1.1057663,0.26403427,-0.90695804,-0.1985962,-0.08496094,111.0
37852,-0.24333382,-0.9841156,-0.1277504,-0.90695804,-0.1985962,-0.08496094,111.0
37853,-0.24333382,-0.9841156,-0.1277504,-0.3419678,-0.17523193,-0.04141846,111.0
37854,0.11805248,-2.0094452,-0.3189621,-0.3419678,-0.17523193,-0.04141846,111.0
37855,0.11805248,-2.0094452,-0.3189621,0.3451538,-0.08071289,0.10301514,111.0
37856,0.29126835,-1.2851334,-0.21479034,0.3451538,-0.08071289,0.10301514,111.0
37857,0.29126835,-1.2851334,-0.21479034,0.43117675,0.059472658,0.13381349,111.0
37858,0.09889603,0.04373169,0.09193802,0.43117675,0.059472658,0.13381349,111.0
37859,0.09889603,0.04373169,0.09193802,0.21346436,0.07434082,-0.0053100586,111.0
37860,-0.13991356,0.9488144,0.35480118,0.21346436,0.07434082,-0.0053100586,111.0
37861,-0.13991356,0.9488144,0.35480118,-0.26868898,0.047790527,-0.06584473,111.0
37862,-0.23451424,0.78060913,0.34413147,-0.26868898,0.047790527,-0.06584473,111.0
37863,-0.23451424,0.78060913,0.34413147,-0.5341919,-0.14655761,0.020178223,111.0
37864,-0.14891529,-0.24290466,0.081775665,-0.5341919,-0.14655761,0.020178223,111.0
37865,-0.14891529,-0.24290466,0.081775665,-0.3727661,-0.26337892,0.12850343,111.0
37866,0.18487167,-0.9750366,-0.24919128,-0.3727661,-0.26337892,0.12850343,111.0
37867,0.18487167,-0.9750366,-0.24919128,0.3069214,-0.14655761,0.27399904,111.0
37868,0.49513817,-0.48112488,-0.28895187,0.3069214,-0.14655761,0.27399904,111.0
37869,0.49513817,-0.48112488,-0.28895187,0.3993164,-0.016992187,0.362146,111.0
37870,0.47839832,0.8332367,0.09383774,0.3993164,-0.016992187,0.362146,111.0
37871,0.47839832,0.8332367,0.09383774,-0.40993652,0.13381349,0.3079834,111.0
37872,0.11359024,1.0117416,0.18328476,-0.40993652,0.13381349,0.3079834,111.0
37873,0.11359024,1.0117416,0.18328476,-0.37807617,0.095581055,0.46834716,111.0
37874,-0.18090534,-0.796257,-0.0732193,-0.37807617,0.095581055,0.46834716,111.0
37875,-0.18090534,-0.796257,-0.0732193,0.39506838,-0.040356446,1.0216553,111.0
37876,-0.18090534,-0.796257,-0.0732193,0.39506838,-0.040356446,1.0216553,111.0
37877,-0.1317482,-2.4519958,-0.17069626,0.39506838,-0.040356446,1.0216553,111.0
37878,-0.1317482,-2.4519958,-0.17069626,1.3869873,-0.05522461,1.4262818,111.0
37879,-0.07598019,-1.1554718,-0.31764984,1.3869873,-0.05522461,1.4262818,111.0
37880,-0.07598019,-1.1554718,-0.31764984,1.7024049,-0.12956543,0.53100586,111.0
37881,0.008014679,2.1379318,-0.119636536,1.7024049,-0.12956543,0.53100586,111.0
37882,0.008014679,2.1379318,-0.119636536,0.5076416,-0.29736328,-0.0180542,111.0
37883,0.47121906,3.8054886,0.48195267,0.5076416,-0.29736328,-0.0180542,111.0
37884,0.47121906,3.8054886,0.48195267,-1.0524536,0.04991455,-0.16036378,111.0
37885,0.6162939,2.0167542,0.06929016,-1.0524536,0.04991455,-0.16036378,111.0
37886,0.6162939,2.0167542,0.06929016,-0.90802,0.22302246,-0.039294433,111.0
37887,0.23250055,-1.0178375,-0.7193222,-0.90802,0.22302246,-0.039294433,111.0
37888,0.23250055,-1.0178375,-0.7193222,0.22939454,0.16461182,-0.014868164,111.0
37889,0.11981392,-1.859848,-0.35098267,0.22939454,0.16461182,-0.014868164,111.0
37890,0.11981392,-1.859848,-0.35098267,0.38869628,0.4619751,0.26975098,111.0
37891,0.15005016,-0.25549316,0.79600525,0.38869628,0.4619751,0.26975098,111.0
37892,0.15005016,-0.25549316,0.79600525,-0.35895997,0.6701294,0.5522461,111.0
37893,-0.18528175,0.93387604,0.7920761,-0.35895997,0.6701294,0.5522461,111.0
37894,-0.18528175,0.93387604,0.7920761,-0.7742066,0.38763428,0.5649902,111.0
37895,-1.0006914,0.21047974,-0.5627136,-0.7742066,0.38763428,0.5649902,111.0
37896,-1.0006914,0.21047974,-0.5627136,0.090270996,-0.1539917,-0.1263794,111.0
37897,-1.1757727,-0.7825699,-0.84840393,0.090270996,-0.1539917,-0.1263794,111.0
37898,-1.1757727,-0.7825699,-0.84840393,0.3695801,-0.6595093,-0.24107666,111.0
37899,-0.08201218,-0.67490387,0.18697357,0.3695801,-0.6595093,-0.24107666,111.0
37900,-0.08201218,-0.67490387,0.18697357,0.013806152,-0.26656494,-0.05628662,111.0
37901,0.729105,0.09921265,0.5830841,0.013806152,-0.26656494,-0.05628662,111.0
37902,0.729105,0.09921265,0.5830841,-0.26337892,0.14018555,0.06796875,111.0
37903,0.39844513,0.25628662,-0.012756348,-0.26337892,0.14018555,0.06796875,111.0
37904,0.39844513,0.25628662,-0.012756348,0.2166504,0.05628662,0.043542482,111.0
37905,2.9945374E-4,0.08433533,-0.22408295,0.2166504,0.05628662,0.043542482,111.0
37906,2.9945374E-4,0.08433533,-0.22408295,0.15611573,0.081774905,0.093457036,111.0
37907,0.027254105,0.1488266,-0.11062622,0.15611573,0.081774905,0.093457036,111.0
37908,0.027254105,0.1488266,-0.11062622,0.2357666,-0.020178223,-0.13062744,111.0
37909,-0.028648376,-0.02519226,-0.12446213,0.2357666,-0.020178223,-0.13062744,111.0
37910,-0.028648376,-0.02519226,-0.12446213,0.45772704,-0.22727051,-0.1720459,111.0
37911,-0.059247017,0.38056946,0.21012115,0.45772704,-0.22727051,-0.1720459,111.0
37912,-0.059247017,0.38056946,0.21012115,-0.25913087,-0.23151855,0.10301514,111.0
37913,0.1594019,0.9476166,0.40602112,-0.25913087,-0.23151855,0.10301514,111.0
37914,0.1594019,0.9476166,0.40602112,-0.72216797,0.060534667,-0.098767094,111.0
37915,0.28450394,0.17086029,0.07507324,-0.72216797,0.060534667,-0.098767094,111.0
37916,0.28450394,0.17086029,0.07507324,-0.39400634,0.22196046,-0.16142578,111.0
37917,0.079092026,-0.60681915,-0.20705795,-0.39400634,0.22196046,-0.16142578,111.0
37918,0.079092026,-0.60681915,-0.20705795,-0.38869628,0.20178223,-0.087084964,111.0
37919,-0.12401867,-0.68024445,-0.32818222,-0.38869628,0.20178223,-0.087084964,111.0
37920,-0.12401867,-0.68024445,-0.32818222,-0.14230958,0.1359375,-0.13062744,111.0
37921,-0.115878105,-0.91049194,-0.016548157,-0.14230958,0.1359375,-0.13062744,111.0
37922,-0.115878105,-0.91049194,-0.016548157,0.2782471,0.118945315,-0.09451904,111.0
37923,-0.07874966,-0.62685394,0.3709793,0.2782471,0.118945315,-0.09451904,111.0
37924,-0.07874966,-0.62685394,0.3709793,0.1985962,0.058410645,0.107263185,111.0
37925,-0.3794794,-0.09308624,0.07445526,0.1985962,0.058410645,0.107263185,111.0
37926,-0.3794794,-0.09308624,0.07445526,0.51082766,-0.2081543,-0.020178223,111.0
37927,-0.58972836,0.083969116,-0.4833336,0.51082766,-0.2081543,-0.020178223,111.0
37928,-0.58972836,0.083969116,-0.4833336,0.9685547,-0.4980835,-0.16461182,111.0
37929,-0.10383797,0.2852173,-0.3346176,0.9685547,-0.4980835,-0.16461182,111.0
37930,-0.10383797,0.2852173,-0.3346176,1.1809571,-0.57454836,-0.21877442,111.0
37931,0.8264513,1.2937622,0.3800354,1.1809571,-0.57454836,-0.21877442,111.0
37932,0.8264513,1.2937622,0.3800354,-0.2357666,0.16036378,-0.028674318,111.0
37933,0.7798748,1.9945297,0.2002449,-0.2357666,0.16036378,-0.028674318,111.0
37934,0.7798748,1.9945297,0.2002449,-0.5628662,0.28355715,0.06796875,111.0
37935,-0.13443756,1.0451355,-0.23420334,-0.5628662,0.28355715,0.06796875,111.0
37936,-0.13443756,1.0451355,-0.23420334,-0.6605713,-0.06796875,0.007434082,111.0
37937,-0.28004742,0.049793243,0.12622452,-0.6605713,-0.06796875,0.007434082,111.0
37938,-0.28004742,0.049793243,0.12622452,-1.0949341,-0.03717041,-0.02442627,111.0
37939,0.11539078,-0.70046234,0.34610748,-1.0949341,-0.03717041,-0.02442627,111.0
37940,0.11539078,-0.70046234,0.34610748,-0.92926025,0.12956543,-0.058410645,111.0
37941,0.1235261,-1.4945602,0.06626892,-0.92926025,0.12956543,-0.058410645,111.0
37942,0.1235261,-1.4945602,0.06626892,-0.36002198,0.115759276,-0.12956543,111.0
37943,-0.09546614,-1.4411545,-0.21614838,-0.36002198,0.115759276,-0.12956543,111.0
37944,-0.09546614,-1.4411545,-0.21614838,-0.20496826,0.02442627,-0.087084964,111.0
37945,-0.07394409,-0.7256546,-0.26909637,-0.20496826,0.02442627,-0.087084964,111.0
37946,-0.07394409,-0.7256546,-0.26909637,-0.09133301,0.1709839,0.047790527,111.0
37947,0.15216064,-0.5154495,-0.030376434,-0.09133301,0.1709839,0.047790527,111.0
37948,0.15216064,-0.5154495,-0.030376434,0.09664307,0.31435546,0.3802002,111.0
37949,0.249475,-0.958786,0.3175583,0.09664307,0.31435546,0.3802002,111.0
37950,0.249475,-0.958786,0.3175583,0.62552494,0.4428589,0.5649902,111.0
37951,-0.13477087,-0.40470886,0.13284302,0.62552494,0.4428589,0.5649902,111.0
37952,-0.13477087,-0.40470886,0.13284302,0.59047854,0.27399904,0.34940186,111.0
37953,-0.6381264,0.8278656,-0.32866287,0.59047854,0.27399904,0.34940186,111.0
37954,-0.6381264,0.8278656,-0.32866287,0.45666504,0.06903076,0.08071289,111.0
37955,-0.7207918,0.99832916,-0.19473267,0.45666504,0.06903076,0.08071289,111.0
37956,-0.7207918,0.99832916,-0.19473267,0.43011475,-0.070092775,-0.14337158,111.0
37957,-0.44438267,0.5983963,0.25690842,0.43011475,-0.070092775,-0.14337158,111.0
37958,-0.44438267,0.5983963,0.25690842,0.2166504,-0.14549561,-0.09239502,111.0
37959,-0.24265194,0.28172302,0.2503128,0.2166504,-0.14549561,-0.09239502,111.0
37960,-0.24265194,0.28172302,0.2503128,0.27612305,-0.42799073,-0.083898924,111.0
37961,-0.10957527,0.09336853,-0.1633606,0.27612305,-0.42799073,-0.083898924,111.0
37962,-0.10957527,0.09336853,-0.1633606,0.62127686,-0.6244629,-0.13275146,111.0
37963,0.5742779,0.7330704,-0.02867508,0.62127686,-0.6244629,-0.13275146,111.0
37964,0.5742779,0.7330704,-0.02867508,-0.38869628,0.0,-0.057348635,111.0
37965,0.94670296,1.1578445,-0.019268036,-0.38869628,0.0,-0.057348635,111.0
37966,0.94670296,1.1578445,-0.019268036,-0.59897465,0.50445557,0.11151123,111.0
37967,0.6242809,0.47549438,-0.057369232,-0.59897465,0.50445557,0.11151123,111.0
37968,0.6242809,0.47549438,-0.057369232,-0.121069334,0.39400634,0.11363526,111.0
37969,-0.39764595,-0.8387604,0.020866394,-0.121069334,0.39400634,0.11363526,111.0
37970,-0.39764595,-0.8387604,0.020866394,-0.06478272,0.026550293,0.08496094,111.0
37971,-0.5192394,-0.40354156,-0.17216492,-0.06478272,0.026550293,0.08496094,111.0
37972,-0.5192394,-0.40354156,-0.17216492,0.013806152,-0.18054199,0.0053100586,111.0
37973,-0.27518177,0.134758,0.074207306,0.013806152,-0.18054199,0.0053100586,111.0
37974,-0.27518177,0.134758,0.074207306,-0.16885987,-0.1996582,-0.008496094,111.0
37975,0.023848534,0.386055,0.30054092,-0.16885987,-0.1996582,-0.008496094,111.0
37976,0.023848534,0.386055,0.30054092,-0.62977296,-0.040356446,-0.039294433,111.0
37977,0.21632004,0.38874054,-0.0766449,-0.62977296,-0.040356446,-0.039294433,111.0
37978,0.21632004,0.38874054,-0.0766449,-0.63614506,0.039294433,-0.0010620117,111.0
37979,0.18937683,-0.44978333,-0.009887695,-0.63614506,0.039294433,-0.0010620117,111.0
37980,0.18937683,-0.44978333,-0.009887695,-0.40462646,0.10407715,0.1720459,111.0
37981,0.18937683,-0.44978333,-0.009887695,-0.40462646,0.10407715,0.1720459,111.0
37982,0.017297745,-1.6190643,-0.03816986,-0.40462646,0.10407715,0.1720459,111.0
37983,0.017297745,-1.6190643,-0.03816986,0.24001466,-0.015930176,-0.08283692,111.0
37984,-0.093437195,-1.0030899,-0.18098831,0.24001466,-0.015930176,-0.08283692,111.0
37985,-0.093437195,-1.0030899,-0.18098831,0.37489015,-0.07752686,-0.13275146,111.0
37986,-0.1534729,0.10469055,-0.20053864,0.37489015,-0.07752686,-0.13275146,111.0
37987,-0.1534729,0.10469055,-0.20053864,0.53737795,-0.3802002,-0.27293703,111.0
37988,-0.136487,0.14135742,-0.20885849,0.53737795,-0.3802002,-0.27293703,111.0
37989,-0.136487,0.14135742,-0.20885849,0.83898926,-0.52038574,-0.16248779,111.0
37990,0.18540287,1.2694244,0.5659561,0.83898926,-0.52038574,-0.16248779,111.0
37991,0.18540287,1.2694244,0.5659561,-0.6988037,-0.35683593,0.2623169,111.0
37992,0.53649426,1.5086441,0.6383476,-0.6988037,-0.35683593,0.2623169,111.0
37993,0.53649426,1.5086441,0.6383476,-1.0598878,-0.07965088,-0.11682129,111.0
37994,0.6953573,0.82489777,0.031211853,-1.0598878,-0.07965088,-0.11682129,111.0
37995,0.6953573,0.82489777,0.031211853,-0.60322267,0.14974366,-0.06796875,111.0
37996,0.09337044,-0.7159958,-0.44351196,-0.60322267,0.14974366,-0.06796875,111.0
37997,0.09337044,-0.7159958,-0.44351196,-0.41312256,-0.17629395,-0.05628662,111.0
37998,-0.07131195,-1.372818,-0.33119965,-0.41312256,-0.17629395,-0.05628662,111.0
37999,-0.07131195,-1.372818,-0.33119965,-0.06265869,-0.12000733,0.070092775,111.0
38000,0.18565083,-1.2194443,0.06737518,-0.06265869,-0.12000733,0.070092775,111.0
38001,0.18565083,-1.2194443,0.06737518,0.14337158,-0.015930176,-0.06478272,111.0
38002,0.37266588,-0.4760666,0.35243607,0.14337158,-0.015930176,-0.06478272,111.0
38003,0.37266588,-0.4760666,0.35243607,-0.05628662,0.18797608,0.09133301,111.0
38004,0.25747108,0.03126526,0.3863907,-0.05628662,0.18797608,0.09133301,111.0
38005,0.25747108,0.03126526,0.3863907,-0.16567384,0.13381349,0.18479005,111.0
38006,-0.20475292,0.081832886,-0.18151093,-0.16567384,0.13381349,0.18479005,111.0
38007,-0.20475292,0.081832886,-0.18151093,-0.04991455,-0.007434082,0.15611573,111.0
38008,-0.24775028,-0.066223145,-0.30513,-0.04991455,-0.007434082,0.15611573,111.0
38009,-0.24775028,-0.066223145,-0.30513,0.121069334,-0.052038576,0.050976563,111.0
38010,-0.18092728,-0.3207245,-0.24686432,0.121069334,-0.052038576,0.050976563,111.0
38011,-0.18092728,-0.3207245,-0.24686432,0.3536499,-0.12000733,-0.078588866,111.0
38012,0.015133858,-0.3014145,0.085861206,0.3536499,-0.12000733,-0.078588866,111.0
38013,0.015133858,-0.3014145,0.085861206,0.45666504,-0.18585205,-0.043542482,111.0
38014,0.07596207,-0.09819794,0.12923431,0.45666504,-0.18585205,-0.043542482,111.0
38015,0.07596207,-0.09819794,0.12923431,0.59260255,-0.26019287,0.014868164,111.0
38016,-0.011813164,0.14118195,-0.24856567,0.59260255,-0.26019287,0.014868164,111.0
38017,-0.011813164,0.14118195,-0.24856567,0.9600586,-0.42799073,-0.038232423,111.0
38018,0.2317481,0.64928436,0.02324295,0.9600586,-0.42799073,-0.038232423,111.0
38019,0.2317481,0.64928436,0.02324295,0.7890747,-0.3802002,0.009558106,111.0
38020,0.8102522,1.8905716,0.65657043,0.7890747,-0.3802002,0.009558106,111.0
38021,0.8102522,1.8905716,0.65657043,-0.8071289,0.09451904,0.0053100586,111.0
38022,0.684957,1.8580246,-0.07374573,-0.8071289,0.09451904,0.0053100586,111.0
38023,0.684957,1.8580246,-0.07374573,-0.8336792,0.12531738,0.009558106,111.0
38024,0.15895176,-0.0061836243,-0.91362,-0.8336792,0.12531738,0.009558106,111.0
38025,0.15895176,-0.0061836243,-0.91362,-0.22939454,0.057348635,0.05628662,111.0
38026,0.19600868,-1.2084732,-0.45365906,-0.22939454,0.057348635,0.05628662,111.0
38027,0.19600868,-1.2084732,-0.45365906,-0.13699952,0.38763428,0.24638672,111.0
38028,0.2923298,-1.3079758,0.32505035,-0.13699952,0.38763428,0.24638672,111.0
38029,0.2923298,-1.3079758,0.32505035,0.18054199,0.635083,0.36639404,111.0
38030,-0.005955696,-0.35434723,0.67860794,0.18054199,0.635083,0.36639404,111.0
38031,-0.005955696,-0.35434723,0.67860794,-0.0541626,0.8230591,0.2824951,111.0
38032,-0.52124405,0.9154358,0.41368866,-0.0541626,0.8230591,0.2824951,111.0
38033,-0.52124405,0.9154358,0.41368866,-0.72854006,0.6903076,0.011682129,111.0
38034,-1.4050565,0.13020325,-0.42312622,-0.72854006,0.6903076,0.011682129,111.0
38035,-1.4050565,0.13020325,-0.42312622,-0.2984253,0.083898924,-0.12956543,111.0
38036,-1.2822113,-0.7007904,-0.38357162,-0.2984253,0.083898924,-0.12956543,111.0
38037,-1.2822113,-0.7007904,-0.38357162,0.07646485,-0.08814698,-0.16567384,111.0
38038,-0.8508053,-1.7775421,-0.153965,0.07646485,-0.08814698,-0.16567384,111.0
38039,-0.8508053,-1.7775421,-0.153965,0.7625244,-0.32391357,-0.11469727,111.0
38040,-0.29351044,-1.0680084,0.0025100708,0.7625244,-0.32391357,-0.11469727,111.0
38041,-0.29351044,-1.0680084,0.0025100708,1.080066,-0.53950197,-0.115759276,111.0
38042,0.38572407,1.0770645,0.32369995,1.080066,-0.53950197,-0.115759276,111.0
38043,0.38572407,1.0770645,0.32369995,-0.012744141,-0.060534667,-0.0180542,111.0
38044,0.62840366,2.3232346,0.2568512,-0.012744141,-0.060534667,-0.0180542,111.0
38045,0.62840366,2.3232346,0.2568512,-0.6711914,0.2548828,0.08602295,111.0
38046,0.10666561,1.1037521,-0.22090149,-0.6711914,0.2548828,0.08602295,111.0
38047,0.10666561,1.1037521,-0.22090149,-0.35046387,-0.035046387,-0.059472658,111.0
38048,-0.029730797,-0.68107605,-0.16205978,-0.35046387,-0.035046387,-0.059472658,111.0
38049,-0.029730797,-0.68107605,-0.16205978,0.043542482,0.059472658,0.0180542,111.0
38050,0.10563421,-0.9713669,0.044036865,0.043542482,0.059472658,0.0180542,111.0
38051,0.10563421,-0.9713669,0.044036865,0.26975098,0.0180542,-0.21346436,111.0
38052,-0.12491655,-0.3120575,-0.036582947,0.26975098,0.0180542,-0.21346436,111.0
38053,-0.12491655,-0.3120575,-0.036582947,0.21134034,-0.24851075,-0.1359375,111.0
38054,-0.29973793,0.22724915,0.059577942,0.21134034,-0.24851075,-0.1359375,111.0
38055,-0.29973793,0.22724915,0.059577942,0.11257324,-0.22833252,-0.012744141,111.0
38056,0.09928417,0.6824951,0.29660034,0.11257324,-0.22833252,-0.012744141,111.0
38057,0.09928417,0.6824951,0.29660034,-0.540564,0.028674318,-0.08496094,111.0
38058,0.3734703,0.24308014,0.07295227,-0.540564,0.028674318,-0.08496094,111.0
38059,0.3734703,0.24308014,0.07295227,-0.11044922,0.17735596,-0.008496094,111.0
38060,0.1336031,-0.37309265,-0.24169922,-0.11044922,0.17735596,-0.008496094,111.0
38061,0.1336031,-0.37309265,-0.24169922,-0.07434082,0.059472658,-0.06903076,111.0
38062,-0.06513882,-0.2082901,-0.2793579,-0.07434082,0.059472658,-0.06903076,111.0
38063,-0.06513882,-0.2082901,-0.2793579,-0.050976563,-0.02442627,-0.08602295,111.0
38064,-0.0514884,-0.20104218,-0.11754227,-0.050976563,-0.02442627,-0.08602295,111.0
38065,-0.0514884,-0.20104218,-0.11754227,0.081774905,0.046728518,-0.090270996,111.0
38066,0.009041309,-0.2902298,0.09729767,0.081774905,0.046728518,-0.090270996,111.0
38067,0.009041309,-0.2902298,0.09729767,0.27612305,0.13912354,-0.035046387,111.0
38068,0.03866625,-0.20761871,0.35261917,0.27612305,0.13912354,-0.035046387,111.0
38069,0.03866625,-0.20761871,0.35261917,0.25806886,0.22302246,0.05522461,111.0
38070,-0.108080864,0.28538513,0.22451782,0.25806886,0.22302246,0.05522461,111.0
38071,-0.108080864,0.28538513,0.22451782,0.12319336,0.16461182,-0.013806152,111.0
38072,-0.46399117,0.5085678,-0.2572403,0.12319336,0.16461182,-0.013806152,111.0
38073,-0.46399117,0.5085678,-0.2572403,0.115759276,-0.1539917,-0.0722168,111.0
38074,-0.5441303,0.039848328,-0.4340973,0.115759276,-0.1539917,-0.0722168,111.0
38075,-0.5441303,0.039848328,-0.4340973,0.5872925,-0.50445557,-0.37489015,111.0
38076,-0.069740295,-0.12556458,-0.15618896,0.5872925,-0.50445557,-0.37489015,111.0
38077,-0.069740295,-0.12556458,-0.15618896,0.5872925,-0.50445557,-0.37489015,110.0
38078,-0.069740295,-0.12556458,-0.15618896,0.70305175,-0.5150757,-0.3058594,110.0
38079,0.65081215,0.58461,0.2682228,0.70305175,-0.5150757,-0.3058594,110.0
38080,0.65081215,0.58461,0.2682228,-0.057348635,0.13487549,-0.0361084,110.0
38081,0.55348635,1.1708374,0.117996216,-0.057348635,0.13487549,-0.0361084,110.0
38082,0.55348635,1.1708374,0.117996216,-0.29948732,0.18160401,0.14655761,110.0
38083,-0.12066269,1.0023346,-0.22916412,-0.29948732,0.18160401,0.14655761,110.0
38084,-0.12066269,1.0023346,-0.22916412,-0.48640138,-0.0722168,-0.045666505,110.0
38085,-0.16570759,0.42170334,0.014263153,-0.48640138,-0.0722168,-0.045666505,110.0
38086,-0.16570759,0.42170334,0.014263153,-0.84323734,-0.035046387,-0.033984374,110.0
38087,0.05006361,-0.38050842,0.30639267,-0.84323734,-0.035046387,-0.033984374,110.0
38088,0.05006361,-0.38050842,0.30639267,-0.84323734,-0.09133301,-0.057348635,110.0
38089,0.15715313,-1.0442734,0.23931503,-0.84323734,-0.09133301,-0.057348635,110.0
38090,0.15715313,-1.0442734,0.23931503,-0.59260255,-0.026550293,-0.03079834,110.0
38091,0.16704369,-1.1530075,-0.027614594,-0.59260255,-0.026550293,-0.03079834,110.0
38092,0.16704369,-1.1530075,-0.027614594,-0.33771974,0.09133301,-0.058410645,110.0
38093,0.061295986,-0.9445267,-0.14621353,-0.33771974,0.09133301,-0.058410645,110.0
38094,0.061295986,-0.9445267,-0.14621353,-0.19328614,0.115759276,0.0180542,110.0
38095,0.0072155,-0.7222595,-0.17720032,-0.19328614,0.115759276,0.0180542,110.0
38096,0.0072155,-0.7222595,-0.17720032,-0.039294433,0.15505372,0.06478272,110.0
38097,0.033982754,-0.51704407,-0.14715576,-0.039294433,0.15505372,0.06478272,110.0
38098,0.033982754,-0.51704407,-0.14715576,0.15186767,0.19222413,0.1444336,110.0
38099,0.10788727,-0.74861145,0.12939453,0.15186767,0.19222413,0.1444336,110.0
38100,0.10788727,-0.74861145,0.12939453,0.53950197,0.33028564,0.52250975,110.0
38101,-0.052191257,-0.526474,0.280468,0.53950197,0.33028564,0.52250975,110.0
38102,-0.052191257,-0.526474,0.280468,0.85491943,0.39613038,0.37489015,110.0
38103,-0.4238696,0.6324234,0.14291382,0.85491943,0.39613038,0.37489015,110.0
38104,-0.4238696,0.6324234,0.14291382,0.4163086,0.09664307,0.24213867,110.0
38105,-0.70639324,1.3041611,-0.11036301,0.4163086,0.09664307,0.24213867,110.0
38106,-0.70639324,1.3041611,-0.11036301,0.2623169,-0.20496826,-0.058410645,110.0
38107,-0.7071676,0.9276428,-0.39687347,0.2623169,-0.20496826,-0.058410645,110.0
38108,-0.7071676,0.9276428,-0.39687347,0.2803711,-0.635083,-0.3355957,110.0
38109,-0.068639755,0.36817932,-0.11220169,0.2803711,-0.635083,-0.3355957,110.0
38110,-0.068639755,0.36817932,-0.11220169,0.14124756,-0.3982544,-0.19434814,110.0
38111,0.8621292,0.32942963,0.36566162,0.14124756,-0.3982544,-0.19434814,110.0
38112,0.8621292,0.32942963,0.36566162,-0.33134767,0.36851808,0.08496094,110.0
38113,0.70339966,0.08065796,0.044589996,-0.33134767,0.36851808,0.08496094,110.0
38114,0.70339966,0.08065796,0.044589996,0.19753419,0.31860352,0.12319336,110.0
38115,-0.09774208,-0.012428284,-0.21232605,0.19753419,0.31860352,0.12319336,110.0
38116,-0.09774208,-0.012428284,-0.21232605,0.21558838,0.012744141,-0.06796875,110.0
38117,-0.38216114,0.33033752,-0.14585114,0.21558838,0.012744141,-0.06796875,110.0
38118,-0.38216114,0.33033752,-0.14585114,-0.0361084,-0.25700685,0.020178223,110.0
38119,-0.23706436,0.16777039,0.08753967,-0.0361084,-0.25700685,0.020178223,110.0
38120,-0.23706436,0.16777039,0.08753967,0.06796875,-0.3525879,0.014868164,110.0
38121,0.14748192,0.29963684,0.27172852,0.06796875,-0.3525879,0.014868164,110.0
38122,0.14748192,0.29963684,0.27172852,-0.41524658,0.0637207,-0.04141846,110.0
38123,0.15201855,0.47756195,-0.07292175,-0.41524658,0.0637207,-0.04141846,110.0
38124,0.15201855,0.47756195,-0.07292175,-0.5012695,-0.0021240234,-0.047790527,110.0
38125,-0.040164948,-0.28311157,-0.26644135,-0.5012695,-0.0021240234,-0.047790527,110.0
38126,-0.040164948,-0.28311157,-0.26644135,-0.1444336,-0.02442627,0.06690674,110.0
38127,0.05756569,-0.93546295,-0.038848877,-0.1444336,-0.02442627,0.06690674,110.0
38128,0.05756569,-0.93546295,-0.038848877,0.1444336,-0.046728518,0.21558838,110.0
38129,0.23339367,-0.43089294,0.23121262,0.1444336,-0.046728518,0.21558838,110.0
38130,0.23339367,-0.43089294,0.23121262,-0.09133301,-0.107263185,0.07646485,110.0
38131,0.34384394,0.31877136,0.21579361,-0.09133301,-0.107263185,0.07646485,110.0
38132,0.34384394,0.31877136,0.21579361,-0.33878174,-0.19328614,-0.13912354,110.0
38133,0.22174263,0.20965576,-0.17303085,-0.33878174,-0.19328614,-0.13912354,110.0
38134,0.22174263,0.20965576,-0.17303085,-0.095581055,-0.3536499,-0.18479005,110.0
38135,0.032447815,-0.7200546,-0.45600128,-0.095581055,-0.3536499,-0.18479005,110.0
38136,0.032447815,-0.7200546,-0.45600128,0.6680054,-0.4598511,-0.2357666,110.0
38137,-0.051739693,-1.480484,-0.27440643,0.6680054,-0.4598511,-0.2357666,110.0
38138,-0.051739693,-1.480484,-0.27440643,1.5823975,-0.5235718,-0.20178223,110.0
38139,0.61089087,1.5422287,0.58932495,1.5823975,-0.5235718,-0.20178223,110.0
38140,0.61089087,1.5422287,0.58932495,-0.35895997,-0.20709229,0.13912354,110.0
38141,0.86746025,2.2554283,0.44502258,-0.35895997,-0.20709229,0.13912354,110.0
38142,0.86746025,2.2554283,0.44502258,-0.6945557,0.25806886,0.10407715,110.0
38143,0.6695299,1.6358871,-0.090358734,-0.6945557,0.25806886,0.10407715,110.0
38144,0.6695299,1.6358871,-0.090358734,-0.5299439,0.13912354,-0.1083252,110.0
38145,-0.20931005,-0.26244354,-0.3780365,-0.5299439,0.13912354,-0.1083252,110.0
38146,-0.20931005,-0.26244354,-0.3780365,-0.39188233,-0.09770508,0.04248047,110.0
38147,-0.12246513,-1.0469055,-0.23614502,-0.39188233,-0.09770508,0.04248047,110.0
38148,-0.12246513,-1.0469055,-0.23614502,-0.33134767,-0.040356446,0.050976563,110.0
38149,0.32419586,-0.9630203,0.22047043,-0.33134767,-0.040356446,0.050976563,110.0
38150,0.32419586,-0.9630203,0.22047043,-0.3079834,0.14761963,-0.032922365,110.0
38151,0.29818726,-0.6443329,0.47569275,-0.3079834,0.14761963,-0.032922365,110.0
38152,0.29818726,-0.6443329,0.47569275,-0.20709229,0.22939454,0.03186035,110.0
38153,-0.031958103,-0.4498062,0.3824463,-0.20709229,0.22939454,0.03186035,110.0
38154,-0.031958103,-0.4498062,0.3824463,-0.26337892,0.18372802,0.20390625,110.0
38155,-0.28710222,-0.25253296,0.022132874,-0.26337892,0.18372802,0.20390625,110.0
38156,-0.28710222,-0.25253296,0.022132874,-0.23151855,0.1359375,0.1263794,110.0
38157,-0.35358334,-0.26595306,-0.2855034,-0.23151855,0.1359375,0.1263794,110.0
38158,-0.35358334,-0.26595306,-0.2855034,-0.0998291,0.025488282,0.043542482,110.0
38159,-0.19359636,-0.47694397,-0.17108154,-0.0998291,0.025488282,0.043542482,110.0
38160,-0.19359636,-0.47694397,-0.17108154,0.015930176,-0.012744141,0.047790527,110.0
38161,-0.005133629,-0.47586823,0.118019104,0.015930176,-0.012744141,0.047790527,110.0
38162,-0.005133629,-0.47586823,0.118019104,0.07540283,0.019116212,0.124255374,110.0
38163,0.034394264,-0.28701782,0.20029831,0.07540283,0.019116212,0.124255374,110.0
38164,0.034394264,-0.28701782,0.20029831,0.16354981,-0.015930176,0.11044922,110.0
38165,-0.014268875,0.0060653687,0.07820511,0.16354981,-0.015930176,0.11044922,110.0
38166,-0.014268875,0.0060653687,0.07820511,0.13699952,-0.08920898,-0.057348635,110.0
38167,-0.12453747,0.06806183,-0.203022,0.13699952,-0.08920898,-0.057348635,110.0
38168,-0.12453747,0.06806183,-0.203022,0.30161133,-0.24213867,-0.1444336,110.0
38169,-0.19053602,-0.045906067,-0.45609665,0.30161133,-0.24213867,-0.1444336,110.0
38170,-0.19053602,-0.045906067,-0.45609665,0.6159668,-0.4248047,-0.18479005,110.0
38171,0.29989052,0.41664124,0.22164536,0.6159668,-0.4248047,-0.18479005,110.0
38172,0.29989052,0.41664124,0.22164536,-0.04885254,-0.10938721,-0.027612304,110.0
38173,0.704793,0.9480438,0.60388184,-0.04885254,-0.10938721,-0.027612304,110.0
38174,0.704793,0.9480438,0.60388184,-0.5479981,0.3812622,0.1985962,110.0
38175,0.27909327,0.3341446,-0.21513367,-0.5479981,0.3812622,0.1985962,110.0
38176,0.27909327,0.3341446,-0.21513367,-0.013806152,0.18372802,0.13487549,110.0
38177,-0.060233593,-0.375412,-0.6296005,-0.013806152,0.18372802,0.13487549,110.0
38178,-0.060233593,-0.375412,-0.6296005,0.20603028,0.3058594,0.13381349,110.0
38179,-0.025249958,-0.13945007,-0.27050018,0.20603028,0.3058594,0.13381349,110.0
38180,-0.025249958,-0.13945007,-0.27050018,-0.0053100586,0.40462646,0.14549561,110.0
38181,-0.025249958,-0.13945007,-0.27050018,-0.0053100586,0.40462646,0.14549561,109.0
38182,-0.0136938095,-0.034225464,0.403656,-0.0053100586,0.40462646,0.14549561,109.0
38183,-0.0136938095,-0.034225464,0.403656,-0.095581055,0.5692383,0.23151855,109.0
38184,-0.11906052,-0.24188232,0.8294525,-0.095581055,0.5692383,0.23151855,109.0
38185,-0.11906052,-0.24188232,0.8294525,-0.07540283,0.6138428,0.28674316,109.0
38186,-0.62826824,0.105407715,0.3001938,-0.07540283,0.6138428,0.28674316,109.0
38187,-0.62826824,0.105407715,0.3001938,-0.34940186,0.27293703,0.16673584,109.0
38188,-1.2500267,0.046943665,-0.64571,-0.34940186,0.27293703,0.16673584,109.0
38189,-1.2500267,0.046943665,-0.64571,0.059472658,-0.20603028,-0.023364259,109.0
38190,-1.1213226,-0.7501373,-0.7696457,0.059472658,-0.20603028,-0.023364259,109.0
38191,-1.1213226,-0.7501373,-0.7696457,0.6701294,-0.7168579,-0.7168579,109.0
38192,0.03707218,-0.30918884,0.08784866,0.6701294,-0.7168579,-0.7168579,109.0
38193,0.03707218,-0.30918884,0.08784866,0.040356446,-0.31010744,-0.39613038,109.0
38194,1.007319,0.7326431,0.6176758,0.040356446,-0.31010744,-0.39613038,109.0
38195,1.007319,0.7326431,0.6176758,-0.6042847,0.24320069,0.15611573,109.0
38196,0.7384968,0.060264587,-0.12302017,-0.6042847,0.24320069,0.15611573,109.0
38197,0.7384968,0.060264587,-0.12302017,0.07752686,0.3069214,0.09239502,109.0
38198,-0.28654623,-0.9583206,-0.6532631,0.07752686,0.3069214,0.09239502,109.0
38199,-0.28654623,-0.9583206,-0.6532631,0.9717407,0.20709229,-0.7827026,109.0
38200,-0.83438873,0.01763153,-0.037635803,0.9717407,0.20709229,-0.7827026,109.0
38201,-0.83438873,0.01763153,-0.037635803,0.52675784,0.20496826,-1.0099732,109.0
38202,-0.69896793,1.7432938,0.6044388,0.52675784,0.20496826,-1.0099732,109.0
38203,-0.69896793,1.7432938,0.6044388,-0.6956177,0.09770508,-0.7742066,109.0
38204,-0.6129465,1.8158379,0.57008743,-0.6956177,0.09770508,-0.7742066,109.0
38205,-0.6129465,1.8158379,0.57008743,-1.357251,-0.2623169,-0.59897465,109.0
38206,-0.6491461,0.5704346,0.18866348,-1.357251,-0.2623169,-0.59897465,109.0
38207,-0.6491461,0.5704346,0.18866348,-1.5547851,-0.4800293,-0.4991455,109.0
38208,-0.09232712,-1.5296631,-0.18185425,-1.5547851,-0.4800293,-0.4991455,109.0
38209,-0.09232712,-1.5296631,-0.18185425,-0.60322267,-0.48321533,0.04141846,109.0
38210,0.7987089,-3.2891464,-0.5339966,-0.60322267,-0.48321533,0.04141846,109.0
38211,0.7987089,-3.2891464,-0.5339966,1.1076783,0.26550293,0.42161867,109.0
38212,0.854702,-1.9509201,-0.5301132,1.1076783,0.26550293,0.42161867,109.0
38213,0.854702,-1.9509201,-0.5301132,0.815625,0.23895264,0.53950197,109.0
38214,0.0869236,0.598053,-0.61764526,0.815625,0.23895264,0.53950197,109.0
38215,0.0869236,0.598053,-0.61764526,0.93350834,0.13381349,0.35789797,109.0
38216,-0.5309372,1.8287201,-0.41077805,0.93350834,0.13381349,0.35789797,109.0
38217,-0.5309372,1.8287201,-0.41077805,0.6605713,0.032922365,-0.18054199,109.0
38218,-0.42883968,1.9284744,0.47395325,0.6605713,0.032922365,-0.18054199,109.0
38219,-0.42883968,1.9284744,0.47395325,-0.058410645,0.1083252,-0.11044922,109.0
38220,-0.11137009,0.90782166,0.96302795,-0.058410645,0.1083252,-0.11044922,109.0
38221,-0.11137009,0.90782166,0.96302795,-0.29417726,0.11257324,-0.043542482,109.0
38222,-0.0037927628,-0.44982147,0.6084709,-0.29417726,0.11257324,-0.043542482,109.0
38223,-0.0037927628,-0.44982147,0.6084709,-0.11151123,0.070092775,0.035046387,109.0
38224,-0.10943031,-1.0131302,-0.18537903,-0.11151123,0.070092775,0.035046387,109.0
38225,-0.10943031,-1.0131302,-0.18537903,0.3355957,0.010620117,-0.016992187,109.0
38226,-0.20235157,-0.3337326,-0.50422287,0.3355957,0.010620117,-0.016992187,109.0
38227,-0.20235157,-0.3337326,-0.50422287,0.31223145,-0.09451904,0.0637207,109.0
38228,-0.048612595,0.4820404,-0.27993774,0.31223145,-0.09451904,0.0637207,109.0
38229,-0.048612595,0.4820404,-0.27993774,0.07646485,-0.10407715,0.06690674,109.0
38230,0.1903944,0.11910248,-0.01839447,0.07646485,-0.10407715,0.06690674,109.0
38231,0.1903944,0.11910248,-0.01839447,0.43754885,-0.026550293,0.21240234,109.0
38232,0.29353905,-0.11772919,0.19058228,0.43754885,-0.026550293,0.21240234,109.0
38233,0.29353905,-0.11772919,0.19058228,0.4715332,0.09770508,0.08283692,109.0
38234,0.16886425,0.8660736,0.26391602,0.4715332,0.09770508,0.08283692,109.0
38235,0.16886425,0.8660736,0.26391602,-0.17735596,0.11044922,-0.0010620117,109.0
38236,-0.069413185,1.3523712,0.22245789,-0.17735596,0.11044922,-0.0010620117,109.0
38237,-0.069413185,1.3523712,0.22245789,-0.51188964,0.0010620117,-0.07752686,109.0
38238,-0.2426281,0.46520996,0.04813385,-0.51188964,0.0010620117,-0.07752686,109.0
38239,-0.2426281,0.46520996,0.04813385,-0.48746338,-0.21452637,-0.03186035,109.0
38240,-0.30804253,-0.8231201,-0.554451,-0.48746338,-0.21452637,-0.03186035,109.0
38241,-0.30804253,-0.8231201,-0.554451,0.27612305,-0.5055176,-0.045666505,109.0
38242,0.15807056,-1.0441055,-0.4328308,0.27612305,-0.5055176,-0.045666505,109.0
38243,0.15807056,-1.0441055,-0.4328308,0.3727661,-0.28780517,-0.070092775,109.0
38244,0.6765051,0.23550415,0.29310608,0.3727661,-0.28780517,-0.070092775,109.0
38245,0.6765051,0.23550415,0.29310608,-0.49383545,0.16992188,-0.023364259,109.0
38246,0.3060484,1.1322174,0.2483635,-0.49383545,0.16992188,-0.023364259,109.0
38247,0.3060484,1.1322174,0.2483635,-0.81668705,0.03717041,-0.0053100586,109.0
38248,-0.18504429,0.66552734,0.13745117,-0.81668705,0.03717041,-0.0053100586,109.0
38249,-0.18504429,0.66552734,0.13745117,-1.2829102,-0.14974366,0.09664307,109.0
38250,-0.037207603,-0.3507309,0.16068268,-1.2829102,-0.14974366,0.09664307,109.0
38251,-0.037207603,-0.3507309,0.16068268,-1.2744141,-0.09664307,-0.07434082,109.0
38252,0.2646432,-1.9095993,0.04070282,-1.2744141,-0.09664307,-0.07434082,109.0
38253,0.2646432,-1.9095993,0.04070282,-0.43117675,0.06796875,-0.043542482,109.0
38254,0.23958302,-2.3344269,-0.038871765,-0.43117675,0.06796875,-0.043542482,109.0
38255,0.23958302,-2.3344269,-0.038871765,-0.04460449,0.046728518,-0.02442627,109.0
38256,0.11074591,-1.179306,-0.110832214,-0.04460449,0.046728518,-0.02442627,109.0
38257,0.11074591,-1.179306,-0.110832214,0.03079834,0.09770508,0.115759276,109.0
38258,0.021739006,-0.35623932,-0.11305618,0.03079834,0.09770508,0.115759276,109.0
38259,0.021739006,-0.35623932,-0.11305618,0.3717041,0.1359375,0.06478272,109.0
38260,0.02388525,-0.07564545,0.12205505,0.3717041,0.1359375,0.06478272,109.0
38261,0.02388525,-0.07564545,0.12205505,0.21877442,0.15080567,0.22727051,109.0
38262,0.1373334,-0.4014969,0.32348633,0.21877442,0.15080567,0.22727051,109.0
38263,0.1373334,-0.4014969,0.32348633,0.64782715,0.362146,0.34833986,109.0
38264,-0.0028653145,-0.37971497,0.33846283,0.64782715,0.362146,0.34833986,109.0
38265,-0.0028653145,-0.37971497,0.33846283,0.7657105,0.3175415,0.42055663,109.0
38266,-0.34289265,0.7877426,0.15138626,0.7657105,0.3175415,0.42055663,109.0
38267,-0.34289265,0.7877426,0.15138626,0.1731079,0.033984374,0.34940186,109.0
38268,-0.7487278,1.3263474,-0.42404175,0.1731079,0.033984374,0.34940186,109.0
38269,-0.7487278,1.3263474,-0.42404175,0.20603028,-0.3440918,-0.12956543,109.0
38270,-0.78471184,0.632843,-0.7200546,0.20603028,-0.3440918,-0.12956543,109.0
38271,-0.78471184,0.632843,-0.7200546,0.5734863,-0.7327881,-0.21027832,109.0
38272,0.28216648,0.3875122,0.11190796,0.5734863,-0.7327881,-0.21027832,109.0
38273,0.28216648,0.3875122,0.11190796,-0.12319336,-0.15186767,-0.093457036,109.0
38274,1.1053963,0.48036957,0.63645935,-0.12319336,-0.15186767,-0.093457036,109.0
38275,1.1053963,0.48036957,0.63645935,-0.31116945,0.5363159,0.20709229,109.0
38276,0.45594788,-0.029937744,0.28098297,-0.31116945,0.5363159,0.20709229,109.0
38277,0.45594788,-0.029937744,0.28098297,0.18797608,0.14018555,0.022302246,109.0
38278,-0.32694054,0.10473633,-0.2239685,0.18797608,0.14018555,0.022302246,109.0
38279,-0.32694054,0.10473633,-0.2239685,-0.14655761,-0.026550293,-0.04991455,109.0
38280,-0.55348396,0.5115204,-0.6856575,-0.14655761,-0.026550293,-0.04991455,109.0
38281,-0.55348396,0.5115204,-0.6856575,-0.14655761,-0.026550293,-0.04991455,108.0
38282,-0.55348396,0.5115204,-0.6856575,-0.20072022,-0.4630371,-0.08496094,108.0
38283,0.008885384,-0.042556763,-0.018203735,-0.20072022,-0.4630371,-0.08496094,108.0
38284,0.008885384,-0.042556763,-0.018203735,-0.26550293,-0.29311523,-0.11044922,108.0
38285,0.531034,-0.3167572,0.5554199,-0.26550293,-0.29311523,-0.11044922,108.0
38286,0.531034,-0.3167572,0.5554199,-0.37489015,0.23045655,0.15823975,108.0
38287,0.14146519,-0.20502472,-0.03801346,-0.37489015,0.23045655,0.15823975,108.0
38288,0.14146519,-0.20502472,-0.03801346,-0.16673584,-0.083898924,0.06159668,108.0
38289,-0.095873356,-0.39198303,-0.31571198,-0.16673584,-0.083898924,0.06159668,108.0
38290,-0.095873356,-0.39198303,-0.31571198,0.098767094,0.058410645,0.16992188,108.0
38291,0.17665815,-0.4966278,0.11002731,0.098767094,0.058410645,0.16992188,108.0
38292,0.17665815,-0.4966278,0.11002731,0.028674318,0.16673584,0.1709839,108.0
38293,0.3635068,-0.07563782,0.44639587,0.028674318,0.16673584,0.1709839,108.0
38294,0.3635068,-0.07563782,0.44639587,-0.2984253,0.20284425,-0.10620117,108.0
38295,0.10179138,0.3827362,0.14182281,-0.2984253,0.20284425,-0.10620117,108.0
38296,0.10179138,0.3827362,0.14182281,-0.3334717,-0.013806152,-0.26550293,108.0
38297,-0.36239052,0.028831482,-0.32523727,-0.3334717,-0.013806152,-0.26550293,108.0
38298,-0.36239052,0.028831482,-0.32523727,-0.0010620117,-0.3090454,-0.19647217,108.0
38299,-0.41017628,-0.82499695,-0.37957382,-0.0010620117,-0.3090454,-0.19647217,108.0
38300,-0.41017628,-0.82499695,-0.37957382,0.42799073,-0.45135498,-0.15930176,108.0
38301,1.18255615E-4,-1.300415,-0.2291336,0.42799073,-0.45135498,-0.15930176,108.0
38302,1.18255615E-4,-1.300415,-0.2291336,1.1236085,-0.4078125,-0.15717773,108.0
38303,0.22492361,-0.2395401,0.29065323,1.1236085,-0.4078125,-0.15717773,108.0
38304,0.22492361,-0.2395401,0.29065323,0.904834,-0.27399904,-0.087084964,108.0
38305,0.5747261,1.8771667,0.49767303,0.904834,-0.27399904,-0.087084964,108.0
38306,0.5747261,1.8771667,0.49767303,-0.30479738,-0.033984374,0.08602295,108.0
38307,0.6257963,2.2859955,0.005290985,-0.30479738,-0.033984374,0.08602295,108.0
38308,0.6257963,2.2859955,0.005290985,-0.6053467,0.11682129,-0.095581055,108.0
38309,0.14713383,0.7465668,-0.27589417,-0.6053467,0.11682129,-0.095581055,108.0
38310,0.14713383,0.7465668,-0.27589417,-0.6000366,-0.10089111,-0.121069334,108.0
38311,0.027692795,-0.64388275,-0.21683502,-0.6000366,-0.10089111,-0.121069334,108.0
38312,0.027692795,-0.64388275,-0.21683502,-0.45666504,-0.08602295,-0.081774905,108.0
38313,0.16545248,-1.2047043,-0.015548706,-0.45666504,-0.08602295,-0.081774905,108.0
38314,0.16545248,-1.2047043,-0.015548706,-0.13062744,-0.03079834,-0.04991455,108.0
38315,0.16859245,-0.90421295,0.14717102,-0.13062744,-0.03079834,-0.04991455,108.0
38316,0.16859245,-0.90421295,0.14717102,0.022302246,-0.0053100586,0.11682129,108.0
38317,-0.0068621635,-0.24134827,0.2214737,0.022302246,-0.0053100586,0.11682129,108.0
38318,-0.0068621635,-0.24134827,0.2214737,-0.043542482,-0.023364259,0.20603028,108.0
38319,-0.11922264,0.069885254,0.13015747,-0.043542482,-0.023364259,0.20603028,108.0
38320,-0.11922264,0.069885254,0.13015747,-0.040356446,-0.08814698,0.2984253,108.0
38321,-0.05320263,-0.18371582,-0.18044662,-0.040356446,-0.08814698,0.2984253,108.0
38322,-0.05320263,-0.18371582,-0.18044662,0.1985962,-0.16673584,0.36320803,108.0
38323,0.14243555,-0.5787201,-0.21339035,0.1985962,-0.16673584,0.36320803,108.0
38324,0.14243555,-0.5787201,-0.21339035,0.62764895,-0.21558838,0.11151123,108.0
38325,0.14739561,-0.14873505,-0.12585068,0.62764895,-0.21558838,0.11151123,108.0
38326,0.14739561,-0.14873505,-0.12585068,0.6818115,-0.19753419,0.010620117,108.0
38327,0.11126375,0.8212967,-0.14505386,0.6818115,-0.19753419,0.010620117,108.0
38328,0.11126375,0.8212967,-0.14505386,0.5140137,-0.43967286,-0.09239502,108.0
38329,0.6741066,1.3077469,0.27429962,0.5140137,-0.43967286,-0.09239502,108.0
38330,0.6741066,1.3077469,0.27429962,-0.24320069,0.033984374,0.05628662,108.0
38331,0.82187843,1.2995911,0.11201477,-0.24320069,0.033984374,0.05628662,108.0
38332,0.82187843,1.2995911,0.11201477,-0.7423462,0.29311523,0.16992188,108.0
38333,0.25476837,0.5857086,-0.51874924,-0.7423462,0.29311523,0.16992188,108.0
38334,0.25476837,0.5857086,-0.51874924,-0.6064087,0.1263794,0.1083252,108.0
38335,0.09575796,-0.46704102,-0.29024506,-0.6064087,0.1263794,0.1083252,108.0
38336,0.09575796,-0.46704102,-0.29024506,-0.39082032,0.4322388,0.2262085,108.0
38337,0.0726881,-1.0530243,0.27194214,-0.39082032,0.4322388,0.2262085,108.0
38338,0.0726881,-1.0530243,0.27194214,-0.26019287,0.634021,0.26656494,108.0
38339,-0.15908575,-1.2533188,0.60079193,-0.26019287,0.634021,0.26656494,108.0
38340,-0.15908575,-1.2533188,0.60079193,-0.16461182,0.7434082,0.2081543,108.0
38341,-0.61138725,-0.7433014,0.3703308,-0.16461182,0.7434082,0.2081543,108.0
38342,-0.61138725,-0.7433014,0.3703308,-0.17416993,0.4088745,-0.004248047,108.0
38343,-1.3000593,-0.18959045,-0.42467117,-0.17416993,0.4088745,-0.004248047,108.0
38344,-1.3000593,-0.18959045,-0.42467117,0.26762697,-0.20072022,-0.07540283,108.0
38345,-1.4717002,-0.2909546,-0.59674454,0.26762697,-0.20072022,-0.07540283,108.0
38346,-1.4717002,-0.2909546,-0.59674454,0.8326172,-0.7827026,-0.270813,108.0
38347,-0.07789707,0.22612,0.49230576,0.8326172,-0.7827026,-0.270813,108.0
38348,-0.07789707,0.22612,0.49230576,-0.2984253,-0.08071289,-0.06265869,108.0
38349,0.85070705,0.84737396,0.5987778,-0.2984253,-0.08071289,-0.06265869,108.0
38350,0.85070705,0.84737396,0.5987778,-0.38763428,0.37489015,0.06690674,108.0
38351,0.3056512,0.23550415,-0.28827667,-0.38763428,0.37489015,0.06690674,108.0
38352,0.3056512,0.23550415,-0.28827667,0.07646485,-0.19434814,-0.15930176,108.0
38353,-0.20119476,-0.29764557,-0.19573212,0.07646485,-0.19434814,-0.15930176,108.0
38354,-0.20119476,-0.29764557,-0.19573212,0.20178223,0.10513916,-0.028674318,108.0
38355,-0.09808922,0.10997009,0.20083618,0.20178223,0.10513916,-0.028674318,108.0
38356,-0.09808922,0.10997009,0.20083618,-0.6117188,0.05628662,-0.4067505,108.0
38357,0.15841818,0.2517929,0.17765045,-0.6117188,0.05628662,-0.4067505,108.0
38358,0.15841818,0.2517929,0.17765045,-0.61702883,0.30267334,-0.32497558,108.0
38359,-0.016990662,-0.1495285,0.027324677,-0.61702883,0.30267334,-0.32497558,108.0
38360,-0.016990662,-0.1495285,0.027324677,-0.5511841,0.23364258,-0.32497558,108.0
38361,-0.30447388,-0.61354065,-0.07102585,-0.5511841,0.23364258,-0.32497558,108.0
38362,-0.30447388,-0.61354065,-0.07102585,-0.43011475,0.21558838,-0.29099122,108.0
38363,-0.42023945,-1.1762238,-0.09650421,-0.43011475,0.21558838,-0.29099122,108.0
38364,-0.42023945,-1.1762238,-0.09650421,0.14124756,0.19434814,-0.25913087,108.0
38365,-0.29135513,-1.1154633,0.0063056946,0.14124756,0.19434814,-0.25913087,108.0
38366,-0.29135513,-1.1154633,0.0063056946,0.27293703,0.25700685,-0.15505372,108.0
38367,-0.11529875,-0.31331635,0.091789246,0.27293703,0.25700685,-0.15505372,108.0
38368,-0.11529875,-0.31331635,0.091789246,0.16992188,0.26019287,0.0541626,108.0
38369,-0.18277836,0.36621857,0.044303894,0.16992188,0.26019287,0.0541626,108.0
38370,-0.18277836,0.36621857,0.044303894,0.15186767,0.16992188,0.0998291,108.0
38371,-0.49043655,0.42716217,-0.07711792,0.15186767,0.16992188,0.0998291,108.0
38372,-0.49043655,0.42716217,-0.07711792,0.17841797,-0.053100586,0.04141846,108.0
38373,-0.66455364,0.054733276,-0.18303299,0.17841797,-0.053100586,0.04141846,108.0
38374,-0.66455364,0.054733276,-0.18303299,0.37701416,-0.22302246,-0.016992187,108.0
38375,-0.3900776,-0.19283295,-0.027008057,0.37701416,-0.22302246,-0.016992187,108.0
38376,-0.3900776,-0.19283295,-0.027008057,0.50445557,-0.23045655,-0.045666505,108.0
38377,0.097117424,0.11693573,0.1636467,0.50445557,-0.23045655,-0.045666505,108.0
38378,0.097117424,0.11693573,0.1636467,0.36533204,-0.24001466,-0.05522461,108.0
38379,0.17542362,0.5179367,-0.0059013367,0.36533204,-0.24001466,-0.05522461,108.0
38380,0.17542362,0.5179367,-0.0059013367,0.45347902,-0.4056885,-0.059472658,108.0
38381,0.0488348,0.554245,-0.28862,0.45347902,-0.4056885,-0.059472658,108.0
38382,0.0488348,0.554245,-0.28862,0.65632325,-0.6064087,-0.15823975,108.0
38383,0.4532156,0.83138275,0.02508545,0.65632325,-0.6064087,-0.15823975,108.0
38384,0.4532156,0.83138275,0.02508545,-0.0021240234,-0.1083252,-0.013806152,108.0
38385,0.7726798,1.1643372,0.19621658,-0.0021240234,-0.1083252,-0.013806152,108.0
38386,0.7726798,1.1643372,0.19621658,-0.41949463,0.22514649,0.03079834,108.0
38387,0.3806076,0.63762665,-0.09345245,-0.41949463,0.22514649,0.03079834,108.0
38388,0.3806076,0.63762665,-0.09345245,-0.3069214,0.09664307,-0.012744141,108.0
38389,0.024127007,-0.029922485,0.0038146973,-0.3069214,0.09664307,-0.012744141,108.0
38390,0.024127007,-0.029922485,0.0038146973,-0.44710693,0.16248779,-0.057348635,108.0
38391,0.024127007,-0.029922485,0.0038146973,-0.44710693,0.16248779,-0.057348635,108.0
38392,-0.031284332,-0.14359283,0.28679276,-0.44710693,0.16248779,-0.057348635,108.0
38393,-0.031284332,-0.14359283,0.28679276,-0.81668705,0.028674318,-0.078588866,108.0
38394,-0.21205139,-0.56838226,0.056793213,-0.81668705,0.028674318,-0.078588866,108.0
38395,-0.21205139,-0.56838226,0.056793213,-0.42905274,-0.09239502,0.0,108.0
38396,-0.27374268,-1.2090378,-0.350914,-0.42905274,-0.09239502,0.0,108.0
38397,-0.27374268,-1.2090378,-0.350914,0.16354981,-0.31860352,-0.0637207,108.0
38398,0.13482666,-1.3484039,-0.2443924,0.16354981,-0.31860352,-0.0637207,108.0
38399,0.13482666,-1.3484039,-0.2443924,0.71579593,0.039294433,0.08814698,108.0
38400,0.35791016,-0.19397736,-0.034576416,0.71579593,0.039294433,0.08814698,108.0
38401,0.35791016,-0.19397736,-0.034576416,0.41843262,0.0998291,0.16142578,108.0
38402,0.14195538,1.3521576,0.030128479,0.41843262,0.0998291,0.16142578,108.0
38403,0.14195538,1.3521576,0.030128479,-0.07434082,0.093457036,0.053100586,108.0
38404,0.020070553,1.4242783,0.062213898,-0.07434082,0.093457036,0.053100586,108.0
38405,0.020070553,1.4242783,0.062213898,-0.40144044,0.118945315,0.028674318,108.0
38406,0.073039055,0.19639587,0.12706757,-0.40144044,0.118945315,0.028674318,108.0
38407,0.073039055,0.19639587,0.12706757,-0.29205322,0.23895264,0.21452637,108.0
38408,0.15707588,-1.3383179,0.23169708,-0.29205322,0.23895264,0.21452637,108.0
38409,0.15707588,-1.3383179,0.23169708,0.34090576,0.41312256,0.30267334,108.0
38410,-0.048582554,-1.1735764,0.20593643,0.34090576,0.41312256,0.30267334,108.0
38411,-0.048582554,-1.1735764,0.20593643,0.32178956,0.2803711,0.28355715,108.0
38412,-0.63908577,0.33037567,-0.1907425,0.32178956,0.2803711,0.28355715,108.0
38413,-0.63908577,0.33037567,-0.1907425,0.16248779,-0.12000733,0.0,108.0
38414,-1.0652485,0.83348083,-0.6179962,0.16248779,-0.12000733,0.0,108.0
38415,-1.0652485,0.83348083,-0.6179962,0.4343628,-0.6265869,-0.26656494,108.0
38416,-0.33549976,0.5973358,-0.106407166,0.4343628,-0.6265869,-0.26656494,108.0
38417,-0.33549976,0.5973358,-0.106407166,0.026550293,-0.5256958,-0.098767094,108.0
38418,0.8941126,0.5379791,0.37781143,0.026550293,-0.5256958,-0.098767094,108.0
38419,0.8941126,0.5379791,0.37781143,-0.43861085,0.44179687,0.1178833,108.0
38420,0.87654495,-0.32951355,0.30659485,-0.43861085,0.44179687,0.1178833,108.0
38421,0.87654495,-0.32951355,0.30659485,0.4067505,0.41737062,0.23151855,108.0
38422,-0.002609253,-0.39630127,0.07075119,0.4067505,0.41737062,0.23151855,108.0
38423,-0.002609253,-0.39630127,0.07075119,0.1444336,0.16036378,0.14230958,108.0
38424,-0.5555544,0.6905594,-0.57419586,0.1444336,0.16036378,0.14230958,108.0
38425,-0.5555544,0.6905594,-0.57419586,-0.046728518,-0.24638672,-0.07540283,108.0
38426,-0.4481182,0.1018219,-0.47840118,-0.046728518,-0.24638672,-0.07540283,108.0
38427,-0.4481182,0.1018219,-0.47840118,0.55968016,-0.40250245,0.06690674,108.0
38428,0.18559742,-0.23807526,0.3229065,0.55968016,-0.40250245,0.06690674,108.0
38429,0.18559742,-0.23807526,0.3229065,0.107263185,-0.07540283,0.06584473,108.0
38430,0.34388828,0.85918427,0.3314438,0.107263185,-0.07540283,0.06584473,108.0
38431,0.34388828,0.85918427,0.3314438,-0.40250245,0.11682129,0.057348635,108.0
38432,0.0990119,1.0800018,-0.103767395,-0.40250245,0.11682129,0.057348635,108.0
38433,0.0990119,1.0800018,-0.103767395,-0.5798584,0.0722168,-0.09451904,108.0
38434,0.13318872,-0.05619049,0.054244995,-0.5798584,0.0722168,-0.09451904,108.0
38435,0.13318872,-0.05619049,0.054244995,-0.51082766,0.1539917,-0.052038576,108.0
38436,0.117586136,-1.0077667,0.1484375,-0.51082766,0.1539917,-0.052038576,108.0
38437,0.117586136,-1.0077667,0.1484375,-0.29311523,0.007434082,-0.13168946,108.0
38438,-0.072740555,-1.2374725,-0.10355377,-0.29311523,0.007434082,-0.13168946,108.0
38439,-0.072740555,-1.2374725,-0.10355377,0.22408448,-0.24957275,-0.2166504,108.0
38440,-0.2766862,-0.9376068,-0.3952713,0.22408448,-0.24957275,-0.2166504,108.0
38441,-0.2766862,-0.9376068,-0.3952713,0.6988037,-0.49383545,-0.16461182,108.0
38442,-0.22878361,0.013389587,-0.08476257,0.6988037,-0.49383545,-0.16461182,108.0
38443,-0.22878361,0.013389587,-0.08476257,0.65419924,-0.42692873,-0.16036378,108.0
38444,0.49446344,1.1334076,0.5427246,0.65419924,-0.42692873,-0.16036378,108.0
38445,0.49446344,1.1334076,0.5427246,-0.40993652,-0.11682129,-0.10513916,108.0
38446,0.8151388,1.109436,0.3284912,-0.40993652,-0.11682129,-0.10513916,108.0
38447,0.8151388,1.109436,0.3284912,-0.24532472,0.22408448,-0.05522461,108.0
38448,0.28611994,0.3472519,-0.23893738,-0.24532472,0.22408448,-0.05522461,108.0
38449,0.28611994,0.3472519,-0.23893738,-0.25913087,-0.0541626,-0.14549561,108.0
38450,-0.04450512,-0.017166138,-0.23561859,-0.25913087,-0.0541626,-0.14549561,108.0
38451,-0.04450512,-0.017166138,-0.23561859,-0.38975832,-0.022302246,0.014868164,108.0
38452,-0.009944916,-0.51496124,0.11405563,-0.38975832,-0.022302246,0.014868164,108.0
38453,-0.009944916,-0.51496124,0.11405563,-0.20603028,0.05628662,-0.07646485,108.0
38454,0.08528137,-0.8149185,0.21504974,-0.20603028,0.05628662,-0.07646485,108.0
38455,0.08528137,-0.8149185,0.21504974,-0.035046387,0.029736329,0.057348635,108.0
38456,-0.020898819,-0.6545868,0.10308075,-0.035046387,0.029736329,0.057348635,108.0
38457,-0.020898819,-0.6545868,0.10308075,0.13275146,0.008496094,0.20284425,108.0
38458,-0.20489025,-0.21028137,-0.09528351,0.13275146,0.008496094,0.20284425,108.0
38459,-0.20489025,-0.21028137,-0.09528351,0.25594482,-0.10407715,0.18372802,108.0
38460,-0.12649727,0.17767334,-0.15735626,0.25594482,-0.10407715,0.18372802,108.0
38461,-0.12649727,0.17767334,-0.15735626,0.22939454,-0.23045655,-0.028674318,108.0
38462,0.07612133,0.17734528,-0.19509888,0.22939454,-0.23045655,-0.028674318,108.0
38463,0.07612133,0.17734528,-0.19509888,0.3462158,-0.2793091,-0.095581055,108.0
38464,0.13898516,0.11077118,-0.25775146,0.3462158,-0.2793091,-0.095581055,108.0
38465,0.13898516,0.11077118,-0.25775146,0.5033936,-0.3802002,-0.1359375,108.0
38466,0.5049505,0.34890747,0.11180115,0.5033936,-0.3802002,-0.1359375,108.0
38467,0.5049505,0.34890747,0.11180115,0.37595215,-0.26019287,0.070092775,108.0
38468,0.6756034,0.7769623,0.26761627,0.37595215,-0.26019287,0.070092775,108.0
38469,0.6756034,0.7769623,0.26761627,-0.21027832,0.007434082,0.1178833,108.0
38470,0.65441084,1.3207397,0.06470108,-0.21027832,0.007434082,0.1178833,108.0
38471,0.65441084,1.3207397,0.06470108,-0.55968016,0.3090454,0.16248779,108.0
38472,0.31582594,0.54969406,-0.25416946,-0.55968016,0.3090454,0.16248779,108.0
38473,0.31582594,0.54969406,-0.25416946,-0.4163086,0.29311523,0.17416993,108.0
38474,0.031847954,-0.73349,-0.07952118,-0.4163086,0.29311523,0.17416993,108.0
38475,0.031847954,-0.73349,-0.07952118,-0.53100586,0.6467652,0.19434814,108.0
38476,-0.07039595,-0.7560425,0.16732788,-0.53100586,0.6467652,0.19434814,108.0
38477,-0.07039595,-0.7560425,0.16732788,-0.5809204,0.7083618,0.17735596,108.0
38478,-0.69657564,-1.0981827,0.07407379,-0.5809204,0.7083618,0.17735596,108.0
38479,-0.69657564,-1.0981827,0.07407379,-0.0053100586,0.4439209,0.21134034,108.0
38480,-0.9302826,-1.0290604,-0.13219452,-0.0053100586,0.4439209,0.21134034,108.0
38481,-0.9302826,-1.0290604,-0.13219452,0.32072756,0.2262085,0.11682129,108.0
38482,-1.3171878,-0.87329865,-0.28352737,0.32072756,0.2262085,0.11682129,108.0
38483,-1.3171878,-0.87329865,-0.28352737,1.0004151,-0.44816896,-0.10938721,108.0
38484,-0.9205713,-0.27467346,-0.15688705,1.0004151,-0.44816896,-0.10938721,108.0
38485,-0.9205713,-0.27467346,-0.15688705,1.0195312,-0.5872925,-0.1709839,108.0
38486,0.13981247,1.1886597,0.32580566,1.0195312,-0.5872925,-0.1709839,108.0
38487,0.13981247,1.1886597,0.32580566,-0.1359375,-0.0541626,-0.058410645,108.0
38488,0.826633,1.9021378,0.36932373,-0.1359375,-0.0541626,-0.058410645,108.0
38489,0.826633,1.9021378,0.36932373,-0.52038574,0.39082032,0.087084964,108.0
38490,0.826633,1.9021378,0.36932373,-0.52038574,0.39082032,0.087084964,107.0
38491,0.3274684,0.7300949,-0.09458923,-0.52038574,0.39082032,0.087084964,107.0
38492,0.3274684,0.7300949,-0.09458923,-0.20072022,0.1901001,-0.078588866,107.0
38493,-0.15341854,-0.2809372,-0.16591644,-0.20072022,0.1901001,-0.078588866,107.0
38494,-0.15341854,-0.2809372,-0.16591644,-0.2623169,0.24001466,-0.020178223,107.0
38495,-0.2249322,-0.45526886,0.045074463,-0.2623169,0.24001466,-0.020178223,107.0
38496,-0.2249322,-0.45526886,0.045074463,-0.35789797,0.23045655,0.009558106,107.0
38497,-0.18397427,-0.55519867,0.14949799,-0.35789797,0.23045655,0.009558106,107.0
38498,-0.18397427,-0.55519867,0.14949799,-0.23364258,0.29523927,0.0063720704,107.0
38499,-0.23616886,-0.48255157,0.06682587,-0.23364258,0.29523927,0.0063720704,107.0
38500,-0.23616886,-0.48255157,0.06682587,-0.12319336,0.24107666,-0.043542482,107.0
38501,-0.34821224,-0.4138031,0.004009247,-0.12319336,0.24107666,-0.043542482,107.0
38502,-0.34821224,-0.4138031,0.004009247,0.1274414,-0.007434082,-0.08602295,107.0
38503,-0.56826687,-4.325989,-14.749882,0.1274414,-0.007434082,-0.08602295,107.0
38504,-0.56826687,-4.325989,-14.749882,0.39400634,-0.5097656,-0.27612305,107.0
38505,-0.55490685,-3.3806,-11.806839,0.39400634,-0.5097656,-0.27612305,107.0
38506,-0.55490685,-3.3806,-11.806839,0.33134767,-0.5915405,-0.26656494,107.0
38507,-0.09884453,-2.8823242,-9.3282585,0.33134767,-0.5915405,-0.26656494,107.0
38508,-0.09884453,-2.8823242,-9.3282585,0.5979126,-0.4619751,-0.14018555,107.0
38509,0.28088474,-2.6786957,-7.231613,0.5979126,-0.4619751,-0.14018555,107.0
38510,0.28088474,-2.6786957,-7.231613,0.8973999,-0.32178956,-0.09770508,107.0
38511,0.3787117,-1.2176285,-5.548744,0.8973999,-0.32178956,-0.09770508,107.0
38512,0.3787117,-1.2176285,-5.548744,0.06584473,-0.13806152,-0.04141846,107.0
38513,0.4729519,0.21968079,-4.6146317,0.06584473,-0.13806152,-0.04141846,107.0
38514,0.4729519,0.21968079,-4.6146317,-0.41843262,0.1731079,-0.12956543,107.0
38515,0.29269218,0.1125412,-3.97464,-0.41843262,0.1731079,-0.12956543,107.0
38516,0.29269218,0.1125412,-3.97464,-0.635083,0.16461182,-0.21452637,107.0
38517,0.07903862,-0.65367126,-3.2432594,-0.635083,0.16461182,-0.21452637,107.0
38518,0.07903862,-0.65367126,-3.2432594,-0.74022216,0.1539917,-0.16885987,107.0
38519,0.05901909,-1.6354218,-2.5953674,-0.74022216,0.1539917,-0.16885987,107.0
38520,0.05901909,-1.6354218,-2.5953674,-0.23045655,0.17629395,-0.013806152,107.0
38521,0.077439785,-1.9157333,-1.9771461,-0.23045655,0.17629395,-0.013806152,107.0
38522,0.077439785,-1.9157333,-1.9771461,0.17629395,0.1901001,0.10195313,107.0
38523,11948.781,55.48072,-32.989223,0.17629395,0.1901001,0.10195313,107.0
38524,11948.781,55.48072,-32.989223,0.18903808,0.1359375,0.07540283,107.0
38525,-2389.9639,-11.533295,5.1348686,0.18903808,0.1359375,0.07540283,107.0
38526,-2389.9639,-11.533295,5.1348686,0.17947999,0.070092775,0.0031860352,107.0
38527,-1911.9918,-8.915272,4.127243,0.17947999,0.070092775,0.0031860352,107.0
38528,-1911.9918,-8.915272,4.127243,0.060534667,-0.013806152,-0.046728518,107.0
38529,-1529.579,-6.9471474,3.3286247,0.060534667,-0.013806152,-0.046728518,107.0
38530,-1529.579,-6.9471474,3.3286247,-0.16248779,-0.17947999,-0.08602295,107.0
38531,-1223.8031,-5.97427,2.4800377,-0.16248779,-0.17947999,-0.08602295,107.0
38532,-1223.8031,-5.97427,2.4800377,0.16779785,-0.4598511,-0.060534667,107.0
38533,-979.2136,-5.759262,1.6442108,0.16779785,-0.4598511,-0.060534667,107.0
38534,-979.2136,-5.759262,1.6442108,0.9505005,-0.67437744,-0.16248779,107.0
38535,-782.88025,-4.5008774,1.6588745,0.9505005,-0.67437744,-0.16248779,107.0
38536,-782.88025,-4.5008774,1.6588745,0.4800293,-0.22196046,-0.04991455,107.0
38537,-625.703,-2.1190948,1.7079964,0.4800293,-0.22196046,-0.04991455,107.0
38538,-625.703,-2.1190948,1.7079964,-0.21452637,0.34833986,0.07327881,107.0
38539,-500.9228,-1.014389,1.0876122,-0.21452637,0.34833986,0.07327881,107.0
38540,-500.9228,-1.014389,1.0876122,-0.36427003,0.11469727,-0.029736329,107.0
38541,-401.23508,-1.2178345,0.867466,-0.36427003,0.11469727,-0.029736329,107.0
38542,-401.23508,-1.2178345,0.867466,-0.7051758,-0.014868164,0.07115479,107.0
38543,-320.99634,-1.2775116,0.94929504,-0.7051758,-0.014868164,0.07115479,107.0
38544,-320.99634,-1.2775116,0.94929504,-1.1034302,-0.16142578,0.07327881,107.0
38545,-256.52942,-1.3770294,0.6763191,-1.1034302,-0.16142578,0.07327881,107.0
38546,-256.52942,-1.3770294,0.6763191,-0.7975708,0.03717041,-0.15611573,107.0
38547,-205.07722,-1.8563843,0.24680328,-0.7975708,0.03717041,-0.15611573,107.0
38548,-205.07722,-1.8563843,0.24680328,-0.270813,0.10620117,-0.0998291,107.0
38549,-164.17303,-1.8582153,0.04805374,-0.270813,0.10620117,-0.0998291,107.0
38550,-164.17303,-1.8582153,0.04805374,-0.047790527,0.028674318,-0.008496094,107.0
38551,-131.36288,-1.1829681,-0.01203537,-0.047790527,0.028674318,-0.008496094,107.0
38552,-131.36288,-1.1829681,-0.01203537,0.098767094,0.0998291,0.11469727,107.0
38553,-105.00973,-0.5746918,-0.025997162,0.098767094,0.0998291,0.11469727,107.0
38554,-105.00973,-0.5746918,-0.025997162,0.16567384,0.1274414,0.10195313,107.0
38555,-83.949554,-0.28649902,0.038967133,0.16567384,0.1274414,0.10195313,107.0
38556,-83.949554,-0.28649902,0.038967133,0.2548828,0.22833252,0.20496826,107.0
38557,-67.05369,-0.7634125,0.3702736,0.2548828,0.22833252,0.20496826,107.0
38558,-67.05369,-0.7634125,0.3702736,0.6149048,0.37489015,0.5097656,107.0
38559,-53.685905,-0.7338486,0.7016144,0.6149048,0.37489015,0.5097656,107.0
38560,-53.685905,-0.7338486,0.7016144,0.54906005,0.36427003,0.2824951,107.0
38561,-43.43885,0.43265533,0.3661499,0.54906005,0.36427003,0.2824951,107.0
38562,-43.43885,0.43265533,0.3661499,0.13912354,-0.011682129,0.015930176,107.0
38563,-35.383247,0.7650986,-0.32668686,0.13912354,-0.011682129,0.015930176,107.0
38564,-35.383247,0.7650986,-0.32668686,0.20603028,-0.5341919,-0.27612305,107.0
38565,-28.28974,0.1590805,-0.29642105,0.20603028,-0.5341919,-0.27612305,107.0
38566,-28.28974,0.1590805,-0.29642105,0.22833252,-0.7349121,-0.27718505,107.0
38567,-21.535515,0.10504913,0.22214127,0.22833252,-0.7349121,-0.27718505,107.0
38568,-21.535515,0.10504913,0.22214127,-0.4428589,0.16567384,-0.070092775,107.0
38569,-16.566963,-0.6000824,0.37150192,-0.4428589,0.16567384,-0.070092775,107.0
38570,-16.566963,-0.6000824,0.37150192,0.45347902,0.52038574,0.22514649,107.0
38571,-13.785334,-1.1222916,0.27254486,0.45347902,0.52038574,0.22514649,107.0
38572,-13.785334,-1.1222916,0.27254486,0.6202149,0.18479005,-0.046728518,107.0
38573,-11.808016,0.28526306,-0.2632141,0.6202149,0.18479005,-0.046728518,107.0
38574,-11.808016,0.28526306,-0.2632141,0.1178833,-0.26550293,0.11363526,107.0
38575,-9.687282,0.6270752,-0.38743973,0.1178833,-0.26550293,0.11363526,107.0
38576,-9.687282,0.6270752,-0.38743973,0.2824951,-0.49171144,0.025488282,107.0
38577,-7.205465,0.16453552,0.38468933,0.2824951,-0.49171144,0.025488282,107.0
38578,-7.205465,0.16453552,0.38468933,-0.1263794,-0.11363526,0.043542482,107.0
38579,-5.5072675,0.81497955,0.3497429,-0.1263794,-0.11363526,0.043542482,107.0
38580,-5.5072675,0.81497955,0.3497429,-0.75296634,0.10407715,-0.0637207,107.0
38581,-4.6279945,0.73908997,-0.19781876,-0.75296634,0.10407715,-0.0637207,107.0
38582,-4.6279945,0.73908997,-0.19781876,-0.7126099,-0.010620117,-0.03079834,107.0
38583,-3.6213775,-0.59767914,-0.017604828,-0.7126099,-0.010620117,-0.03079834,107.0
38584,-3.6213775,-0.59767914,-0.017604828,-0.2347046,0.12000733,-0.0541626,107.0
38585,-2.823103,-1.0985031,0.05853653,-0.2347046,0.12000733,-0.0541626,107.0
38586,-2.823103,-1.0985031,0.05853653,-0.1263794,-0.053100586,-0.15611573,107.0
38587,-2.4294662,-0.74661255,-0.31570816,-0.1263794,-0.053100586,-0.15611573,107.0
38588,-2.4294662,-0.74661255,-0.31570816,0.2516968,-0.33134767,-0.24213867,107.0
38589,-2.1282778,-0.5955353,-0.34060287,0.2516968,-0.33134767,-0.24213867,107.0
38590,-2.1282778,-0.5955353,-0.34060287,0.67650145,-0.4619751,-0.29311523,107.0
38591,-1.7128029,0.07116699,0.29867172,0.67650145,-0.4619751,-0.29311523,107.0
38592,-1.7128029,0.07116699,0.29867172,0.18691407,-0.3334717,-0.06584473,107.0
38593,-1.7128029,0.07116699,0.29867172,0.18691407,-0.3334717,-0.06584473,107.0
38594,-0.8793731,1.1360321,0.5442238,0.18691407,-0.3334717,-0.06584473,107.0
38595,-0.8793731,1.1360321,0.5442238,-0.56605226,0.07327881,-0.15186767,107.0
38596,-0.4790721,0.99196625,-0.0076522827,-0.56605226,0.07327881,-0.15186767,107.0
38597,-0.4790721,0.99196625,-0.0076522827,-0.45772704,0.12213135,-0.10407715,107.0
38598,-0.74713707,0.12073517,-0.3550949,-0.45772704,0.12213135,-0.10407715,107.0
38599,-0.74713707,0.12073517,-0.3550949,-0.45347902,-0.0021240234,-0.011682129,107.0
38600,-0.75209236,-0.49889374,-0.1843338,-0.45347902,-0.0021240234,-0.011682129,107.0
38601,-0.75209236,-0.49889374,-0.1843338,-0.22939454,-0.016992187,0.026550293,107.0
38602,-0.4825697,-0.53248596,0.13195038,-0.22939454,-0.016992187,0.026550293,107.0
38603,-0.4825697,-0.53248596,0.13195038,-0.14549561,0.0998291,-0.03079834,107.0
38604,-0.23167324,-0.19071198,0.22734833,-0.14549561,0.0998291,-0.03079834,107.0
38605,-0.23167324,-0.19071198,0.22734833,-0.18160401,0.14761963,0.11469727,107.0
38606,-0.2751336,-0.08141327,0.09305954,-0.18160401,0.14761963,0.11469727,107.0
38607,-0.2751336,-0.08141327,0.09305954,-0.060534667,0.118945315,0.13275146,107.0
38608,-0.48464584,-0.066459656,-0.20146942,-0.060534667,0.118945315,0.13275146,107.0
38609,-0.48464584,-0.066459656,-0.20146942,0.08496094,-0.052038576,0.07646485,107.0
38610,-0.4671111,-0.074798584,-0.3062935,0.08496094,-0.052038576,0.07646485,107.0
38611,-0.4671111,-0.074798584,-0.3062935,0.21346436,-0.124255374,0.0180542,107.0
38612,-0.24135256,-0.086265564,-0.13343811,0.21346436,-0.124255374,0.0180542,107.0
38613,-0.24135256,-0.086265564,-0.13343811,0.22833252,-0.10301514,-0.045666505,107.0
38614,-0.1384921,-0.0756073,0.14669037,0.22833252,-0.10301514,-0.045666505,107.0
38615,-0.1384921,-0.0756073,0.14669037,0.22302246,-0.09664307,0.010620117,107.0
38616,-0.065395355,-0.013511658,0.3325119,0.22302246,-0.09664307,0.010620117,107.0
38617,-0.065395355,-0.013511658,0.3325119,0.13168946,-0.06903076,0.087084964,107.0
38618,-0.052230835,0.058036804,0.16349411,0.13168946,-0.06903076,0.087084964,107.0
38619,-0.052230835,0.058036804,0.16349411,0.19116211,-0.1263794,0.010620117,107.0
38620,-0.19445801,-0.16877747,-0.21111298,0.19116211,-0.1263794,0.010620117,107.0
38621,-0.19445801,-0.16877747,-0.21111298,0.4364868,-0.30373535,-0.10301514,107.0
38622,-0.11224365,-0.4556427,-0.15963745,0.4364868,-0.30373535,-0.10301514,107.0
38623,-0.11224365,-0.4556427,-0.15963745,0.68074954,-0.31223145,-0.06903076,107.0
38624,0.36367226,0.44220734,0.23651123,0.68074954,-0.31223145,-0.06903076,107.0
38625,0.36367226,0.44220734,0.23651123,-0.18479005,0.12213135,0.011682129,107.0
38626,0.39231682,1.2795105,0.06223297,-0.18479005,0.12213135,0.011682129,107.0
38627,0.39231682,1.2795105,0.06223297,-0.5065796,0.24320069,0.09664307,107.0
38628,-0.0061903,0.55358124,-0.31639862,-0.5065796,0.24320069,0.09664307,107.0
38629,-0.0061903,0.55358124,-0.31639862,-0.19753419,0.18903808,0.078588866,107.0
38630,-0.0076498985,-0.26071167,-0.17554474,-0.19753419,0.18903808,0.078588866,107.0
38631,-0.0076498985,-0.26071167,-0.17554474,-0.16779785,0.35152587,0.13806152,107.0
38632,0.11808634,-0.3834076,0.1092453,-0.16779785,0.35152587,0.13806152,107.0
38633,0.11808634,-0.3834076,0.1092453,-0.21346436,0.44604492,0.23045655,107.0
38634,0.2160759,-0.23852539,0.31793976,-0.21346436,0.44604492,0.23045655,107.0
38635,0.2160759,-0.23852539,0.31793976,-0.26762697,0.6265869,0.18479005,107.0
38636,0.13322449,0.058639526,0.25626755,-0.26762697,0.6265869,0.18479005,107.0
38637,0.13322449,0.058639526,0.25626755,-0.47365722,0.58623046,0.16142578,107.0
38638,-0.3972292,0.08251953,-0.2356224,-0.47365722,0.58623046,0.16142578,107.0
38639,-0.3972292,0.08251953,-0.2356224,-0.26550293,0.24957275,0.15505372,107.0
38640,-0.83010006,-0.42583466,-0.5143051,-0.26550293,0.24957275,0.15505372,107.0
38641,-0.83010006,-0.42583466,-0.5143051,0.19434814,-0.06796875,-0.020178223,107.0
38642,-0.5937309,-0.79574585,-0.14725876,0.19434814,-0.06796875,-0.020178223,107.0
38643,-0.5937309,-0.79574585,-0.14725876,0.39613038,-0.1720459,-0.009558106,107.0
38644,-0.1802702,-0.48368073,0.26195145,0.39613038,-0.1720459,-0.009558106,107.0
38645,-0.1802702,-0.48368073,0.26195145,0.44604492,-0.22833252,-0.0722168,107.0
38646,0.020762444,0.37956238,0.302639,0.44604492,-0.22833252,-0.0722168,107.0
38647,0.020762444,0.37956238,0.302639,0.11682129,-0.29205322,-0.04885254,107.0
38648,0.26294804,0.8196182,0.13492203,0.11682129,-0.29205322,-0.04885254,107.0
38649,0.26294804,0.8196182,0.13492203,-0.16567384,0.016992187,-0.04885254,107.0
38650,0.36142063,0.6408615,-0.07671738,-0.16567384,0.016992187,-0.04885254,107.0
38651,0.36142063,0.6408615,-0.07671738,-0.31435546,0.16992188,-0.0063720704,107.0
38652,0.23924637,0.15705109,-0.17289734,-0.31435546,0.16992188,-0.0063720704,107.0
38653,0.23924637,0.15705109,-0.17289734,-0.20178223,0.14655761,-0.013806152,107.0
38654,0.17986155,-0.23847961,-0.039073944,-0.20178223,0.14655761,-0.013806152,107.0
38655,0.17986155,-0.23847961,-0.039073944,-0.22302246,0.2442627,-0.0180542,107.0
38656,0.06657028,-0.13108063,0.11432266,-0.22302246,0.2442627,-0.0180542,107.0
38657,0.06657028,-0.13108063,0.11432266,-0.30054933,0.1901001,-0.11151123,107.0
38658,-0.098757744,0.07688904,0.08061981,-0.30054933,0.1901001,-0.11151123,107.0
38659,-0.098757744,0.07688904,0.08061981,-0.35046387,0.08814698,-0.24213867,107.0
38660,-0.2011013,0.10072327,-0.08012009,-0.35046387,0.08814698,-0.24213867,107.0
38661,-0.2011013,0.10072327,-0.08012009,-0.31860352,-0.032922365,-0.25806886,107.0
38662,-0.22048855,-0.11556244,-0.17000198,-0.31860352,-0.032922365,-0.25806886,107.0
38663,-0.22048855,-0.11556244,-0.17000198,-0.29630128,-0.093457036,-0.08920898,107.0
38664,-0.03332424,-0.49530792,-0.089515686,-0.29630128,-0.093457036,-0.08920898,107.0
38665,-0.03332424,-0.49530792,-0.089515686,-0.050976563,-0.04460449,0.008496094,107.0
38666,0.20931435,-0.61001587,-0.030181885,-0.050976563,-0.04460449,0.008496094,107.0
38667,0.20931435,-0.61001587,-0.030181885,0.21558838,0.059472658,0.050976563,107.0
38668,0.23218536,-0.3095703,0.012561798,0.21558838,0.059472658,0.050976563,107.0
38669,0.23218536,-0.3095703,0.012561798,0.40250245,0.050976563,-0.011682129,107.0
38670,-0.057806015,0.21816254,0.0017356873,0.40250245,0.050976563,-0.011682129,107.0
38671,-0.057806015,0.21816254,0.0017356873,0.24851075,-0.16673584,-0.09133301,107.0
38672,-0.4075365,0.07028198,-0.12513733,0.24851075,-0.16673584,-0.09133301,107.0
38673,-0.4075365,0.07028198,-0.12513733,0.61065674,-0.44816896,-0.22939454,107.0
38674,-0.40256786,-0.5134125,-0.13269043,0.61065674,-0.44816896,-0.22939454,107.0
38675,-0.40256786,-0.5134125,-0.13269043,0.85598147,-0.42374268,-0.2984253,107.0
38676,0.09159279,0.36359406,0.32411957,0.85598147,-0.42374268,-0.2984253,107.0
38677,0.09159279,0.36359406,0.32411957,-0.13699952,-0.12956543,-0.045666505,107.0
38678,0.65321827,1.1736374,0.3956375,-0.13699952,-0.12956543,-0.045666505,107.0
38679,0.65321827,1.1736374,0.3956375,-0.3430298,0.30161133,-0.026550293,107.0
38680,0.51741123,0.4143753,-0.17103958,-0.3430298,0.30161133,-0.026550293,107.0
38681,0.51741123,0.4143753,-0.17103958,-0.008496094,0.25594482,-0.08920898,107.0
38682,-0.02905178,-0.048187256,-0.286808,-0.008496094,0.25594482,-0.08920898,107.0
38683,-0.02905178,-0.048187256,-0.286808,-0.18903808,0.16461182,-0.107263185,107.0
38684,-0.14772844,-0.120399475,-0.02683258,-0.18903808,0.16461182,-0.107263185,107.0
38685,-0.14772844,-0.120399475,-0.02683258,-0.3451538,0.15611573,0.0361084,107.0
38686,-0.009039879,-0.27145386,0.20446014,-0.3451538,0.15611573,0.0361084,107.0
38687,-0.009039879,-0.27145386,0.20446014,-0.20178223,0.11151123,0.11151123,107.0
38688,-0.043743134,-0.39515686,0.20183563,-0.20178223,0.11151123,0.11151123,107.0
38689,-0.043743134,-0.39515686,0.20183563,0.012744141,0.03079834,0.090270996,107.0
38690,-0.30824947,-0.4406128,0.02355194,0.012744141,0.03079834,0.090270996,107.0
38691,-0.30824947,-0.4406128,0.02355194,0.24851075,-0.16036378,-0.014868164,107.0
38692,-0.48425865,-0.22895813,-0.23712921,0.24851075,-0.16036378,-0.014868164,107.0
38693,-0.48425865,-0.22895813,-0.23712921,0.3982544,-0.362146,-0.13275146,107.0
38694,-0.3875904,-0.3250885,-0.3780594,0.3982544,-0.362146,-0.13275146,107.0
38695,-0.3875904,-0.3250885,-0.3780594,0.8358032,-0.59897465,-0.15930176,107.0
38696,0.027501106,-0.41587067,-0.04562378,0.8358032,-0.59897465,-0.15930176,107.0
38697,0.027501106,-0.41587067,-0.04562378,0.9303223,-0.5872925,-0.21983643,107.0
38698,0.73829746,0.6415329,0.4243889,0.9303223,-0.5872925,-0.21983643,107.0
38699,0.73829746,0.6415329,0.4243889,-0.05522461,0.18903808,0.025488282,107.0
38700,0.6431279,1.4927902,0.28575134,-0.05522461,0.18903808,0.025488282,107.0
38701,0.6431279,1.4927902,0.28575134,-0.05522461,0.18903808,0.025488282,107.0
38702,0.6431279,1.4927902,0.28575134,-0.42268068,0.29311523,0.07646485,107.0
38703,-0.136621,1.0853806,0.06428146,-0.42268068,0.29311523,0.07646485,107.0
38704,-0.136621,1.0853806,0.06428146,-0.80819094,0.0063720704,0.06265869,107.0
38705,-0.31040764,0.38778687,0.076667786,-0.80819094,0.0063720704,0.06265869,107.0
38706,-0.31040764,0.38778687,0.076667786,-1.0694458,-0.093457036,0.04248047,107.0
38707,3.7956238E-4,-0.58380127,-0.07992554,-1.0694458,-0.093457036,0.04248047,107.0
38708,3.7956238E-4,-0.58380127,-0.07992554,-0.5331299,0.06159668,-0.070092775,107.0
38709,0.05228138,-1.251503,-0.21350098,-0.5331299,0.06159668,-0.070092775,107.0
38710,0.05228138,-1.251503,-0.21350098,-0.040356446,0.060534667,-0.057348635,107.0
38711,-0.13119698,-0.8214569,-0.22039795,-0.040356446,0.060534667,-0.057348635,107.0
38712,-0.13119698,-0.8214569,-0.22039795,0.058410645,-0.05522461,0.04141846,107.0
38713,-0.07653999,-0.20995331,-0.18442535,0.058410645,-0.05522461,0.04141846,107.0
38714,-0.07653999,-0.20995331,-0.18442535,0.22514649,0.015930176,0.078588866,107.0
38715,0.10362339,0.28081512,-0.086688995,0.22514649,0.015930176,0.078588866,107.0
38716,0.10362339,0.28081512,-0.086688995,0.078588866,0.06478272,0.07434082,107.0
38717,0.3295784,0.22380829,0.14434433,0.078588866,0.06478272,0.07434082,107.0
38718,0.3295784,0.22380829,0.14434433,0.028674318,0.22196046,0.26868898,107.0
38719,0.33951712,-0.47317505,0.3323555,0.028674318,0.22196046,0.26868898,107.0
38720,0.33951712,-0.47317505,0.3323555,0.4439209,0.3462158,0.30479738,107.0
38721,-0.042339325,-0.3040619,0.24240875,0.4439209,0.3462158,0.30479738,107.0
38722,-0.042339325,-0.3040619,0.24240875,0.30479738,0.1901001,0.17735596,107.0
38723,-0.552927,0.56157684,-0.100688934,0.30479738,0.1901001,0.17735596,107.0
38724,-0.552927,0.56157684,-0.100688934,0.095581055,-0.15080567,-0.10407715,107.0
38725,-0.8238239,0.63617706,-0.4426384,0.095581055,-0.15080567,-0.10407715,107.0
38726,-0.8238239,0.63617706,-0.4426384,0.1444336,-0.5894165,-0.21346436,107.0
38727,-0.16182995,0.19913483,-0.0499115,0.1444336,-0.5894165,-0.21346436,107.0
38728,-0.16182995,0.19913483,-0.0499115,-0.2527588,-0.20072022,-0.058410645,107.0
38729,0.7493324,-0.053253174,0.33737946,-0.2527588,-0.20072022,-0.058410645,107.0
