,accx,accy,accz,gyrox,gyroy,gyroz,heart rate
34509,type,type,type,type,type,type,type
34510,0.08055085,-0.35694385,0.48019338,0.095581055,-0.0722168,0.009558106,100.0
34511,0.15720192,-0.55347514,0.45624942,0.095581055,-0.0722168,0.009558106,100.0
34512,0.059416324,-0.73987484,0.2613008,0.095581055,-0.0722168,0.009558106,100.0
34513,0.059416324,-0.73987484,0.2613008,0.52250975,-0.107263185,0.011682129,100.0
34514,-0.073438615,-0.579937,0.087776005,0.52250975,-0.107263185,0.011682129,100.0
34515,-0.073438615,-0.579937,0.087776005,0.6425171,-0.16779785,0.04991455,100.0
34516,-0.07690275,-0.061459303,-0.03224504,0.6425171,-0.16779785,0.04991455,100.0
34517,-0.07690275,-0.061459303,-0.03224504,0.22408448,-0.090270996,0.06690674,100.0
34518,-0.07690275,-0.061459303,-0.03224504,-0.06159668,-0.053100586,0.04991455,100.0
34519,-0.010447979,0.3175683,-0.12597916,-0.06159668,-0.053100586,0.04991455,100.0
34520,0.025479496,0.29068804,-0.1672262,-0.06159668,-0.053100586,0.04991455,100.0
34521,0.025479496,0.29068804,-0.1672262,-0.1539917,-0.047790527,0.035046387,100.0
34522,-0.003554374,0.060663223,-0.12690839,-0.1539917,-0.047790527,0.035046387,100.0
34523,-0.003554374,0.060663223,-0.12690839,-0.107263185,-0.0541626,0.047790527,100.0
34524,-0.056359112,-0.10120082,-0.045069188,-0.107263185,-0.0541626,0.047790527,100.0
34525,-0.056359112,-0.10120082,-0.045069188,-0.004248047,-0.06903076,0.06478272,100.0
34526,-0.07894957,-0.07501578,0.01363948,-0.004248047,-0.06903076,0.06478272,100.0
34527,-0.07894957,-0.07501578,0.01363948,-0.0063720704,-0.059472658,0.045666505,100.0
34528,-0.06146288,0.03324914,0.030528277,-0.0063720704,-0.059472658,0.045666505,100.0
34529,-0.06146288,0.03324914,0.030528277,-0.081774905,-0.028674318,0.011682129,100.0
34530,-0.0117435455,-0.0587523,0.04692018,-0.081774905,-0.028674318,0.011682129,100.0
34531,-0.0117435455,-0.0587523,0.04692018,-0.093457036,-0.019116212,-0.014868164,100.0
34532,0.01914519,-0.21853518,0.061364263,-0.093457036,-0.019116212,-0.014868164,100.0
34533,0.01914519,-0.21853518,0.061364263,-0.047790527,-0.022302246,-0.016992187,100.0
34534,0.03821653,-0.33023596,0.051654875,-0.047790527,-0.022302246,-0.016992187,100.0
34535,0.03821653,-0.33023596,0.051654875,0.0031860352,-0.02442627,-0.012744141,100.0
34536,0.06342232,-0.33291435,0.017276049,0.0031860352,-0.02442627,-0.012744141,100.0
34537,0.06342232,-0.33291435,0.017276049,-0.0053100586,-0.022302246,-0.010620117,100.0
34538,0.06721735,-0.29658055,-0.014670372,-0.0053100586,-0.022302246,-0.010620117,100.0
34539,0.06721735,-0.29658055,-0.014670372,-0.03079834,-0.019116212,-0.011682129,100.0
34540,0.026002884,-0.3205042,0.007221222,-0.03079834,-0.019116212,-0.011682129,100.0
34541,0.026002884,-0.3205042,0.007221222,0.0,-0.035046387,0.0053100586,100.0
34542,0.026002884,-0.3205042,0.007221222,0.0,-0.035046387,0.0053100586,100.0
34543,-0.0019760132,-0.3651681,0.037710577,0.0,-0.035046387,0.0053100586,100.0
34544,-0.0019760132,-0.3651681,0.037710577,0.032922365,-0.058410645,0.010620117,100.0
34545,-0.0019760132,-0.3651681,0.037710577,-0.015930176,-0.045666505,0.004248047,100.0
34546,0.041558832,-0.32891428,0.033781767,-0.015930176,-0.045666505,0.004248047,100.0
34547,0.11598635,-0.24538243,0.038548857,-0.015930176,-0.045666505,0.004248047,100.0
34548,0.11598635,-0.24538243,0.038548857,-0.087084964,-0.02442627,-0.011682129,100.0
34549,0.13121682,-0.23468494,0.058292687,-0.087084964,-0.02442627,-0.011682129,100.0
34550,0.13121682,-0.23468494,0.058292687,-0.070092775,-0.026550293,-0.023364259,100.0
34551,0.09984648,-0.27593148,0.08297449,-0.070092775,-0.026550293,-0.023364259,100.0
34552,0.09984648,-0.27593148,0.08297449,-0.040356446,-0.029736329,-0.012744141,100.0
34553,0.061920643,-0.30273986,0.079880565,-0.040356446,-0.029736329,-0.012744141,100.0
34554,0.061920643,-0.30273986,0.079880565,-0.026550293,-0.04141846,-0.010620117,100.0
34555,0.03514445,-0.28131545,0.045740366,-0.026550293,-0.04141846,-0.010620117,100.0
34556,0.03514445,-0.28131545,0.045740366,-0.043542482,-0.045666505,-0.015930176,100.0
34557,0.03793001,-0.24864852,0.0016069412,-0.043542482,-0.045666505,-0.015930176,100.0
34558,0.03793001,-0.24864852,0.0016069412,-0.06584473,-0.04460449,-0.043542482,100.0
34559,0.049802005,-0.25963652,-0.021651447,-0.06584473,-0.04460449,-0.043542482,100.0
34560,0.049802005,-0.25963652,-0.021651447,-0.06159668,-0.0541626,-0.046728518,100.0
34561,0.04438263,-0.2979802,-0.009850442,-0.06159668,-0.0541626,-0.046728518,100.0
34562,0.04438263,-0.2979802,-0.009850442,-0.04885254,-0.0637207,-0.0361084,100.0
34563,0.04619947,-0.2941581,-0.002423793,-0.04885254,-0.0637207,-0.0361084,100.0
34564,0.04619947,-0.2941581,-0.002423793,-0.06796875,-0.06159668,-0.04991455,100.0
34565,0.068002075,-0.23223811,-0.038401425,-0.06796875,-0.06159668,-0.04991455,100.0
34566,0.068002075,-0.23223811,-0.038401425,-0.12850343,-0.04460449,-0.0637207,100.0
34567,0.08684796,-0.22691602,-0.10415864,-0.12850343,-0.04460449,-0.0637207,100.0
34568,0.08684796,-0.22691602,-0.10415864,-0.18054199,-0.03079834,-0.08496094,100.0
34569,0.09660238,-0.2984395,-0.15931568,-0.18054199,-0.03079834,-0.08496094,100.0
34570,0.09660238,-0.2984395,-0.15931568,-0.2166504,-0.020178223,-0.07646485,100.0
34571,0.122862965,-0.3505314,-0.21795547,-0.2166504,-0.020178223,-0.07646485,100.0
34572,0.122862965,-0.3505314,-0.21795547,-0.2538208,-0.009558106,-0.09770508,100.0
34573,0.18611997,-0.3147757,-0.3568107,-0.2538208,-0.009558106,-0.09770508,100.0
34574,0.18611997,-0.3147757,-0.3568107,-0.40037844,0.028674318,-0.1359375,100.0
34575,0.25392526,-0.29282403,-0.5348382,-0.40037844,0.028674318,-0.1359375,100.0
34576,0.25392526,-0.29282403,-0.5348382,-0.62552494,0.070092775,-0.20921631,100.0
34577,0.25752255,-0.36235982,-0.6473652,-0.62552494,0.070092775,-0.20921631,100.0
34578,0.25752255,-0.36235982,-0.6473652,-0.8644776,0.10513916,-0.31860352,100.0
34579,0.090673804,-0.4323317,-0.6048062,-0.8644776,0.10513916,-0.31860352,100.0
34580,0.090673804,-0.4323317,-0.6048062,-1.0290893,0.04141846,-0.24957275,100.0
34581,-0.2766675,-0.48799184,-0.3785715,-1.0290893,0.04141846,-0.24957275,100.0
34582,-0.2766675,-0.48799184,-0.3785715,-0.8963379,-0.16036378,-0.009558106,100.0
34583,-0.53594583,-0.5329106,-0.13636553,-0.8963379,-0.16036378,-0.009558106,100.0
34584,-0.53594583,-0.5329106,-0.13636553,-0.5607422,-0.3727661,0.11363526,100.0
34585,-0.42247003,-0.3145853,0.07380557,-0.5607422,-0.3727661,0.11363526,100.0
34586,-0.42247003,-0.3145853,0.07380557,-0.53100586,-0.46516114,0.14761963,100.0
34587,-0.07966304,0.11699632,0.27388823,-0.53100586,-0.46516114,0.14761963,100.0
34588,-0.07966304,0.11699632,0.27388823,-0.5734863,-0.47896728,0.16567384,100.0
34589,-0.07966304,0.11699632,0.27388823,-0.77739257,-0.39506838,0.06690674,100.0
34590,0.2543604,0.50643885,0.36652267,-0.77739257,-0.39506838,0.06690674,100.0
34591,0.53215045,0.80155003,0.287786,-0.77739257,-0.39506838,0.06690674,100.0
34592,0.53215045,0.80155003,0.287786,-1.2287476,-0.24107666,-0.07965088,100.0
34593,0.7282472,0.88585675,0.04186213,-1.2287476,-0.24107666,-0.07965088,100.0
34594,0.7282472,0.88585675,0.04186213,-1.7735596,-0.045666505,-0.23151855,100.0
34595,0.7778615,0.5681581,-0.31886625,-1.7735596,-0.045666505,-0.23151855,100.0
34596,0.7778615,0.5681581,-0.31886625,-2.0942872,0.11363526,-0.34090576,100.0
34597,0.66133946,-0.0068627,-0.68172884,-2.0942872,0.11363526,-0.34090576,100.0
34598,0.66133946,-0.0068627,-0.68172884,-2.255713,0.20921631,-0.44073486,100.0
34599,0.45626885,-0.388498,-0.97590065,-2.255713,0.20921631,-0.44073486,100.0
34600,0.45626885,-0.388498,-0.97590065,-2.441565,0.2824951,-0.58304447,100.0
34601,0.25644577,-0.43961918,-1.1763992,-2.441565,0.2824951,-0.58304447,100.0
34602,0.25644577,-0.43961918,-1.1763992,-2.6571534,0.33984375,-0.68287355,100.0
34603,0.11595982,-0.35656595,-1.2105286,-2.6571534,0.33984375,-0.68287355,100.0
34604,0.11595982,-0.35656595,-1.2105286,-2.805835,0.32922363,-0.79013675,100.0
34605,0.05499935,-0.30726206,-1.060818,-2.805835,0.32922363,-0.79013675,100.0
34606,0.05499935,-0.30726206,-1.060818,-2.9502685,0.31116945,-0.904834,100.0
34607,0.114556134,-0.38118565,-0.764194,-2.9502685,0.31116945,-0.904834,100.0
34608,0.114556134,-0.38118565,-0.764194,-3.0224855,0.3419678,-1.0397094,100.0
34609,0.27476257,-0.55627906,-0.44785428,-3.0224855,0.3419678,-1.0397094,100.0
34610,0.27476257,-0.55627906,-0.44785428,-3.1063843,0.33771974,-1.171399,100.0
34611,0.41148484,-0.67550427,-0.20993137,-3.1063843,0.33771974,-1.171399,100.0
34612,0.41148484,-0.67550427,-0.20993137,-3.165857,0.32603762,-1.4379638,100.0
34613,0.49135828,-0.64512753,0.065526485,-3.165857,0.32603762,-1.4379638,100.0
34614,0.49135828,-0.64512753,0.065526485,-3.2104614,0.30479738,-1.6822265,100.0
34615,0.5779133,-0.6047983,0.5029094,-3.2104614,0.30479738,-1.6822265,100.0
34616,0.5779133,-0.6047983,0.5029094,-3.2444458,0.28780517,-1.8553345,100.0
34617,0.6332536,-0.5318367,1.0501058,-3.2444458,0.28780517,-1.8553345,100.0
34618,0.6332536,-0.5318367,1.0501058,-3.2476318,0.25913087,-2.0964112,100.0
34619,0.5766957,-0.2555719,1.4716154,-3.2476318,0.25913087,-2.0964112,100.0
34620,0.5766957,-0.2555719,1.4716154,-3.26781,0.26125488,-2.4351928,100.0
34621,0.48343897,0.06308401,1.5925268,-3.26781,0.26125488,-2.4351928,100.0
34622,0.48343897,0.06308401,1.5925268,-3.3602052,0.31010744,-2.7739747,100.0
34623,0.4418782,0.099087805,1.5118388,-3.3602052,0.31010744,-2.7739747,100.0
34624,0.4418782,0.099087805,1.5118388,-3.4685304,0.362146,-3.153113,100.0
34625,0.4521842,-0.13349831,1.3958236,-3.4685304,0.362146,-3.153113,100.0
34626,0.4521842,-0.13349831,1.3958236,-3.623584,0.45029297,-3.535437,100.0
34627,0.41694748,-0.5806878,1.3716882,-3.623584,0.45029297,-3.535437,100.0
34628,0.41694748,-0.5806878,1.3716882,-3.5747316,0.5331299,-3.8391724,100.0
34629,0.30039144,-1.3166132,1.5071772,-3.5747316,0.5331299,-3.8391724,100.0
34630,0.30039144,-1.3166132,1.5071772,-3.3240967,0.6085327,-3.98573,100.0
34631,0.09181452,-2.052314,1.6981002,-3.3240967,0.6085327,-3.98573,100.0
34632,0.09181452,-2.052314,1.6981002,-2.9460206,0.5607422,-3.9581177,100.0
34633,-0.29803276,-2.1438043,1.7772546,-2.9460206,0.5607422,-3.9581177,100.0
34634,-0.29803276,-2.1438043,1.7772546,-2.6401613,0.50233155,-3.9198854,100.0
34635,-0.29803276,-2.1438043,1.7772546,-2.6401613,0.50233155,-3.9198854,99.0
34636,-0.7998886,-1.5136397,1.7334735,-2.6401613,0.50233155,-3.9198854,99.0
34637,-0.7998886,-1.5136397,1.7334735,-2.5488281,0.46516114,-3.8487306,99.0
34638,-1.2225891,-0.87972283,1.6044424,-2.5488281,0.46516114,-3.8487306,99.0
34639,-1.2225891,-0.87972283,1.6044424,-2.5020998,0.4428589,-3.7265992,99.0
34640,-1.4880811,-0.6715028,1.3989224,-2.5020998,0.4428589,-3.7265992,99.0
34641,-1.4880811,-0.6715028,1.3989224,-2.3332398,0.38551027,-3.5057008,99.0
34642,-1.6735094,-0.6664624,1.0538304,-2.3332398,0.38551027,-3.5057008,99.0
34643,-1.6735094,-0.6664624,1.0538304,-2.1463258,0.31860352,-3.2274537,99.0
34644,-1.8350722,-0.64018893,0.57480264,-2.1463258,0.31860352,-3.2274537,99.0
34645,-1.8350722,-0.64018893,0.57480264,-1.8606446,0.24851075,-2.9269044,99.0
34646,-1.9329991,-0.56231,0.15975666,-1.8606446,0.24851075,-2.9269044,99.0
34647,-1.9329991,-0.56231,0.15975666,-1.4655762,0.16567384,-2.614673,99.0
34648,-1.9667363,-0.4007268,-0.03244853,-1.4655762,0.16567384,-2.614673,99.0
34649,-1.9667363,-0.4007268,-0.03244853,-1.1098022,0.087084964,-2.3289917,99.0
34650,-1.9288945,-0.19537401,-0.04861498,-1.1098022,0.087084964,-2.3289917,99.0
34651,-1.9288945,-0.19537401,-0.04861498,-0.8506714,0.08496094,-2.075171,99.0
34652,-1.8010013,0.016259432,-0.038098574,-0.8506714,0.08496094,-2.075171,99.0
34653,-1.8010013,0.016259432,-0.038098574,-0.6966797,0.1359375,-1.8351563,99.0
34654,-1.5856619,0.16525364,-0.05550313,-0.6966797,0.1359375,-1.8351563,99.0
34655,-1.5856619,0.16525364,-0.05550313,-0.6074707,0.26868898,-1.5877075,99.0
34656,-1.3240106,0.24593592,-0.094866276,-0.6074707,0.26868898,-1.5877075,99.0
34657,-1.3240106,0.24593592,-0.094866276,-0.5246338,0.38444826,-1.3338867,99.0
34658,-1.0630903,0.35232735,-0.17031455,-0.5246338,0.38444826,-1.3338867,99.0
34659,-1.0630903,0.35232735,-0.17031455,-0.53737795,0.50445557,-1.1151123,99.0
34660,-0.7838218,0.49579,-0.3192594,-0.53737795,0.50445557,-1.1151123,99.0
34661,-0.7838218,0.49579,-0.3192594,-0.6064087,0.6552612,-0.904834,99.0
34662,-0.46188402,0.5733166,-0.48945308,-0.6064087,0.6552612,-0.904834,99.0
34663,-0.46188402,0.5733166,-0.48945308,-0.6669434,0.76464844,-0.7062378,99.0
34664,-0.16092563,0.5062852,-0.5756812,-0.6669434,0.76464844,-0.7062378,99.0
34665,-0.16092563,0.5062852,-0.5756812,-0.632959,0.7688965,-0.5140137,99.0
34666,0.09483123,0.34466457,-0.60350156,-0.632959,0.7688965,-0.5140137,99.0
34667,0.09483123,0.34466457,-0.60350156,-0.5055176,0.727478,-0.33878174,99.0
34668,0.29948568,0.28701115,-0.6494639,-0.5055176,0.727478,-0.33878174,99.0
34669,0.29948568,0.28701115,-0.6494639,-0.38232422,0.6085327,-0.15717773,99.0
34670,0.40086794,0.5069649,-0.7719636,-0.38232422,0.6085327,-0.15717773,99.0
34671,0.40086794,0.5069649,-0.7719636,-0.40037844,0.4991455,0.015930176,99.0
34672,0.37717628,0.8352716,-0.9342457,-0.40037844,0.4991455,0.015930176,99.0
34673,0.37717628,0.8352716,-0.9342457,-0.4428589,0.3355957,0.15611573,99.0
34674,0.28795934,0.95885444,-1.0393766,-0.4428589,0.3355957,0.15611573,99.0
34675,0.28795934,0.95885444,-1.0393766,-0.42374268,0.1731079,0.26019287,99.0
34676,0.23796034,0.8008971,-0.98351544,-0.42374268,0.1731079,0.26019287,99.0
34677,0.23796034,0.8008971,-0.98351544,-0.20178223,-0.107263185,0.36427003,99.0
34678,0.2791865,0.5429394,-0.7550863,-0.20178223,-0.107263185,0.36427003,99.0
34679,0.2791865,0.5429394,-0.7550863,0.047790527,-0.4088745,0.44710693,99.0
34680,0.3933444,0.37484217,-0.37501633,0.047790527,-0.4088745,0.44710693,99.0
34681,0.3933444,0.37484217,-0.37501633,0.21983643,-0.65207523,0.51082766,99.0
34682,0.59321547,0.34248853,0.05540687,0.21983643,-0.65207523,0.51082766,99.0
34683,0.59321547,0.34248853,0.05540687,0.3993164,-0.8496094,0.55543214,99.0
34684,0.9252436,0.4134928,0.29767025,0.3993164,-0.8496094,0.55543214,99.0
34685,0.9252436,0.4134928,0.29767025,0.4715332,-0.92076415,0.55968016,99.0
34686,1.3351412,0.4564656,0.23280168,0.4715332,-0.92076415,0.55968016,99.0
34687,1.3351412,0.4564656,0.23280168,0.5171997,-0.88359374,0.59897465,99.0
34688,1.6224831,0.4686637,0.009581208,0.5171997,-0.88359374,0.59897465,99.0
34689,1.6224831,0.4686637,0.009581208,0.5501221,-0.8772217,0.66481936,99.0
34690,1.5912238,0.5717938,-0.24559432,0.5501221,-0.8772217,0.66481936,99.0
34691,1.5912238,0.5717938,-0.24559432,0.58198243,-0.8071289,0.66269535,99.0
34692,1.3044488,0.7004404,-0.4655307,0.58198243,-0.8071289,0.66269535,99.0
34693,1.3044488,0.7004404,-0.4655307,0.59260255,-0.75509036,0.6701294,99.0
34694,0.96583694,0.7639534,-0.6030886,0.59260255,-0.75509036,0.6701294,99.0
34695,0.96583694,0.7639534,-0.6030886,0.61915284,-0.6796875,0.6202149,99.0
34696,0.6871471,0.75369203,-0.574988,0.61915284,-0.6796875,0.6202149,99.0
34697,0.6871471,0.75369203,-0.574988,0.60322267,-0.60959476,0.5076416,99.0
34698,0.5067367,0.7263301,-0.38754165,0.60322267,-0.60959476,0.5076416,99.0
34699,0.5067367,0.7263301,-0.38754165,0.47471926,-0.58410645,0.3802002,99.0
34700,0.3481018,0.6960299,-0.31030187,0.47471926,-0.58410645,0.3802002,99.0
34701,0.3481018,0.6960299,-0.31030187,0.2357666,-0.5331299,0.27506104,99.0
34702,0.14413084,0.6114748,-0.4204217,0.2357666,-0.5331299,0.27506104,99.0
34703,0.14413084,0.6114748,-0.4204217,0.03186035,-0.54587406,0.17416993,99.0
34704,-0.032791033,0.43937516,-0.4748139,0.03186035,-0.54587406,0.17416993,99.0
34705,-0.032791033,0.43937516,-0.4748139,-0.046728518,-0.60322267,0.0637207,99.0
34706,-0.080688395,0.2592516,-0.2585621,-0.046728518,-0.60322267,0.0637207,99.0
34707,-0.080688395,0.2592516,-0.2585621,0.057348635,-0.6616333,-0.05522461,99.0
34708,-0.039477475,0.17804338,0.21262056,0.057348635,-0.6616333,-0.05522461,99.0
34709,-0.039477475,0.17804338,0.21262056,0.060534667,-0.6881836,-0.16461182,99.0
34710,-0.008803658,0.17001039,0.5090857,0.060534667,-0.6881836,-0.16461182,99.0
34711,-0.008803658,0.17001039,0.5090857,-0.027612304,-0.7083618,-0.26656494,99.0
34712,0.022778854,0.15096194,0.40223926,-0.027612304,-0.7083618,-0.26656494,99.0
34713,0.022778854,0.15096194,0.40223926,-0.19647217,-0.6903076,-0.3802002,99.0
34714,0.10619915,0.08477101,0.18181339,-0.19647217,-0.6903076,-0.3802002,99.0
34715,0.10619915,0.08477101,0.18181339,-0.31860352,-0.6680054,-0.47790527,99.0
34716,0.19715415,-0.006218821,0.10995267,-0.31860352,-0.6680054,-0.47790527,99.0
34717,0.19715415,-0.006218821,0.10995267,-0.34833986,-0.6573853,-0.57561034,99.0
34718,0.2635827,-0.102704555,0.1988386,-0.34833986,-0.6573853,-0.57561034,99.0
34719,0.2635827,-0.102704555,0.1988386,-0.3536499,-0.6531372,-0.6552612,99.0
34720,0.28172797,-0.23478816,0.30482286,-0.3536499,-0.6531372,-0.6552612,99.0
34721,0.28172797,-0.23478816,0.30482286,-0.29523927,-0.6467652,-0.71154785,99.0
34722,0.24044585,-0.339686,0.38699794,-0.29523927,-0.6467652,-0.71154785,99.0
34723,0.24044585,-0.339686,0.38699794,-0.26656494,-0.631897,-0.72323,99.0
34724,0.15536939,-0.3305623,0.46719113,-0.26656494,-0.631897,-0.72323,99.0
34725,0.15536939,-0.3305623,0.46719113,-0.3355957,-0.5628662,-0.71579593,99.0
34726,0.16492051,-0.3492399,0.4147197,-0.3355957,-0.5628662,-0.71579593,99.0
34727,0.16492051,-0.3492399,0.4147197,-0.36533204,-0.3993164,-0.6754395,99.0
34728,0.2645414,-0.56714827,0.32620937,-0.36533204,-0.3993164,-0.6754395,99.0
34729,0.2645414,-0.56714827,0.32620937,-0.2623169,-0.2814331,-0.5161377,99.0
34730,0.20861799,-0.7764725,0.30880684,-0.2623169,-0.2814331,-0.5161377,99.0
34731,0.20861799,-0.7764725,0.30880684,-0.25594482,-0.11151123,-0.35683593,99.0
34732,-0.08979505,-0.7122791,0.15129352,-0.25594482,-0.11151123,-0.35683593,99.0
34733,-0.08979505,-0.7122791,0.15129352,-0.3993164,0.008496094,-0.19541016,99.0
34734,-0.50363535,-0.45496732,-0.09749544,-0.3993164,0.008496094,-0.19541016,99.0
34735,-0.50363535,-0.45496732,-0.09749544,-0.6775635,0.14655761,-0.090270996,99.0
34736,-0.8650299,-0.24134207,-0.15916091,-0.6775635,0.14655761,-0.090270996,99.0
34737,-0.8650299,-0.24134207,-0.15916091,-0.81668705,0.2262085,-0.029736329,99.0
34738,-1.0164014,-0.15713614,-0.033334553,-0.81668705,0.2262085,-0.029736329,99.0
34739,-1.0164014,-0.15713614,-0.033334553,-0.8464233,0.27612305,-0.029736329,99.0
34740,-0.9188218,-0.15225917,0.039152622,-0.8464233,0.27612305,-0.029736329,99.0
34741,-0.9188218,-0.15225917,0.039152622,-0.8687256,0.32816163,-0.07540283,99.0
34742,-0.6435169,-0.091192126,0.08439827,-0.8687256,0.32816163,-0.07540283,99.0
34743,-0.6435169,-0.091192126,0.08439827,-0.8995239,0.45772704,-0.15505372,99.0
34744,-0.31453276,0.014619589,0.08590245,-0.8995239,0.45772704,-0.15505372,99.0
34745,-0.31453276,0.014619589,0.08590245,-0.89208984,0.57242435,-0.24213867,99.0
34746,0.06170392,0.014771819,-0.073734045,-0.89208984,0.57242435,-0.24213867,99.0
34747,0.06170392,0.014771819,-0.073734045,-0.6754395,0.6669434,-0.26019287,99.0
34748,0.36506134,-0.042992115,-0.085903764,-0.6754395,0.6669434,-0.26019287,99.0
34749,0.36506134,-0.042992115,-0.085903764,-0.75721437,0.7784546,-0.21558838,99.0
34750,0.43404126,-0.056647062,-0.055344105,-0.75721437,0.7784546,-0.21558838,99.0
34751,0.43404126,-0.056647062,-0.055344105,-0.7720825,0.7391602,-0.1178833,99.0
34752,0.26606846,-0.1517508,-0.2757572,-0.7720825,0.7391602,-0.1178833,99.0
34753,0.26606846,-0.1517508,-0.2757572,-0.5957886,0.60959476,-0.021240234,99.0
34754,-0.0041740537,-0.34839034,-0.47026396,-0.5957886,0.60959476,-0.021240234,99.0
34755,-0.0041740537,-0.34839034,-0.47026396,-0.14868164,0.4364868,0.11151123,99.0
34756,-0.4018622,-0.36995983,-0.22092554,-0.14868164,0.4364868,0.11151123,99.0
34757,-0.4018622,-0.36995983,-0.22092554,0.18479005,0.26019287,0.2803711,99.0
34758,-0.9246758,-0.048982978,-0.018232137,0.18479005,0.26019287,0.2803711,99.0
34759,-0.9246758,-0.048982978,-0.018232137,0.18479005,0.26019287,0.2803711,100.0
34760,-0.9246758,-0.048982978,-0.018232137,0.4630371,0.010620117,0.61065674,100.0
34761,-1.2022529,0.2508527,-0.36620924,0.4630371,0.010620117,0.61065674,100.0
34762,-1.2022529,0.2508527,-0.36620924,0.090270996,0.078588866,0.94731444,100.0
34763,-0.94203913,-0.09297013,-0.64877796,0.090270996,0.078588866,0.94731444,100.0
34764,-0.94203913,-0.09297013,-0.64877796,-0.12850343,0.057348635,1.0556396,100.0
34765,-0.46200538,-0.9807848,-0.64065325,-0.12850343,0.057348635,1.0556396,100.0
34766,-0.46200538,-0.9807848,-0.64065325,-0.050976563,-0.22939454,1.0290893,100.0
34767,-0.0617795,-1.2448573,-0.71606266,-0.050976563,-0.22939454,1.0290893,100.0
34768,-0.0617795,-1.2448573,-0.71606266,-0.115759276,-0.31860352,1.0110352,100.0
34769,0.28276634,-0.17874718,-0.55220807,-0.115759276,-0.31860352,1.0110352,100.0
34770,0.28276634,-0.17874718,-0.55220807,-0.4725952,-0.3695801,0.81031495,100.0
34771,0.6141037,1.3091264,-0.06253058,-0.4725952,-0.3695801,0.81031495,100.0
34772,0.6141037,1.3091264,-0.06253058,-0.68287355,-0.45454103,0.54906005,100.0
34773,1.0062366,1.9881704,0.31582028,-0.68287355,-0.45454103,0.54906005,100.0
34774,1.0062366,1.9881704,0.31582028,-1.2160034,-0.4163086,-0.02442627,100.0
34775,1.0445766,1.8739347,0.6159375,-1.2160034,-0.4163086,-0.02442627,100.0
34776,1.0445766,1.8739347,0.6159375,-1.7236451,-0.62127686,-0.31010744,100.0
34777,0.69847876,1.3403099,0.8491587,-1.7236451,-0.62127686,-0.31010744,100.0
34778,0.69847876,1.3403099,0.8491587,-1.6811646,-0.6775635,-0.43861085,100.0
34779,1.0276428,0.8048041,1.2014339,-1.6811646,-0.6775635,-0.43861085,100.0
34780,1.0276428,0.8048041,1.2014339,0.121069334,-0.95793456,-0.45454103,100.0
34781,1.8966504,0.7114947,1.7105124,0.121069334,-0.95793456,-0.45454103,100.0
34782,1.8966504,0.7114947,1.7105124,0.83898926,-0.817749,-0.5479981,100.0
34783,2.1470447,0.9148134,1.7265887,0.83898926,-0.817749,-0.5479981,100.0
34784,2.1470447,0.9148134,1.7265887,0.67437744,-0.5299439,-0.6988037,100.0
34785,1.6521327,1.0643947,1.2229459,0.67437744,-0.5299439,-0.6988037,100.0
34786,1.6521327,1.0643947,1.2229459,-0.043542482,-0.1444336,-0.8219971,100.0
34787,0.8502462,0.8060324,0.57921124,-0.043542482,-0.1444336,-0.8219971,100.0
34788,0.8502462,0.8060324,0.57921124,-0.4067505,0.107263185,-0.7434082,100.0
34789,-0.0161165,0.09134698,-0.1319679,-0.4067505,0.107263185,-0.7434082,100.0
34790,-0.0161165,0.09134698,-0.1319679,-0.33665773,0.21346436,-0.65207523,100.0
34791,-0.7056056,-0.56845075,-0.8041462,-0.33665773,0.21346436,-0.65207523,100.0
34792,-0.7056056,-0.56845075,-0.8041462,-0.2984253,0.2516968,-0.5798584,100.0
34793,-1.0975655,-0.8672484,-1.1902896,-0.2984253,0.2516968,-0.5798584,100.0
34794,-1.0975655,-0.8672484,-1.1902896,-0.36851808,0.271875,-0.5915405,100.0
34795,-1.2347785,-0.9625976,-1.1607888,-0.36851808,0.271875,-0.5915405,100.0
34796,-1.2347785,-0.9625976,-1.1607888,-0.32709962,0.21346436,-0.5607422,100.0
34797,-1.2666802,-0.975144,-0.86747384,-0.32709962,0.21346436,-0.5607422,100.0
34798,-1.2666802,-0.975144,-0.86747384,-0.16354981,0.14018555,-0.4980835,100.0
34799,-1.2477803,-0.89241993,-0.57095665,-0.16354981,0.14018555,-0.4980835,100.0
34800,-1.2477803,-0.89241993,-0.57095665,0.004248047,0.070092775,-0.41099855,100.0
34801,-1.0718204,-0.73175824,-0.40422627,0.004248047,0.070092775,-0.41099855,100.0
34802,-1.0718204,-0.73175824,-0.40422627,0.032922365,0.035046387,-0.31435546,100.0
34803,-0.7468118,-0.5520203,-0.29413298,0.032922365,0.035046387,-0.31435546,100.0
34804,-0.7468118,-0.5520203,-0.29413298,0.050976563,0.008496094,-0.22514649,100.0
34805,-0.34439772,-0.41296637,-0.13241333,0.050976563,0.008496094,-0.22514649,100.0
34806,-0.34439772,-0.41296637,-0.13241333,0.06265869,-0.0031860352,-0.15930176,100.0
34807,0.0020331144,-0.3341695,0.03537792,0.06265869,-0.0031860352,-0.15930176,100.0
34808,0.0020331144,-0.3341695,0.03537792,0.070092775,0.007434082,-0.11257324,100.0
34809,0.20249319,-0.18934488,0.13644445,0.070092775,0.007434082,-0.11257324,100.0
34810,0.20249319,-0.18934488,0.13644445,0.03186035,0.0722168,-0.09133301,100.0
34811,0.24337882,0.016553879,0.16308624,0.03186035,0.0722168,-0.09133301,100.0
34812,0.24337882,0.016553879,0.16308624,-0.05628662,0.16248779,-0.11257324,100.0
34813,0.21892181,0.15251315,0.0766848,-0.05628662,0.16248779,-0.11257324,100.0
34814,0.21892181,0.15251315,0.0766848,-0.14230958,0.24744873,-0.1901001,100.0
34815,0.17424634,0.14454469,-0.13810286,-0.14230958,0.24744873,-0.1901001,100.0
34816,0.17424634,0.14454469,-0.13810286,-0.22514649,0.29523927,-0.2814331,100.0
34817,0.101579696,0.092027366,-0.4021815,-0.22514649,0.29523927,-0.2814331,100.0
34818,0.101579696,0.092027366,-0.4021815,-0.35152587,0.3345337,-0.3717041,100.0
34819,-0.025181562,0.035743475,-0.6200118,-0.35152587,0.3345337,-0.3717041,100.0
34820,-0.025181562,0.035743475,-0.6200118,-0.5150757,0.34940186,-0.46728516,100.0
34821,-0.249259,-0.049945235,-0.6990856,-0.5150757,0.34940186,-0.46728516,100.0
34822,-0.249259,-0.049945235,-0.6990856,-0.64995116,0.33878174,-0.5501221,100.0
34823,-0.47958302,-0.17542982,-0.5648837,-0.64995116,0.33878174,-0.5501221,100.0
34824,-0.47958302,-0.17542982,-0.5648837,-0.7890747,0.3462158,-0.5692383,100.0
34825,-0.55882514,-0.40753138,-0.2863186,-0.7890747,0.3462158,-0.5692383,100.0
34826,-0.55882514,-0.40753138,-0.2863186,-0.72004396,0.3069214,-0.51082766,100.0
34827,-0.43814898,-0.6582883,-0.044020712,-0.72004396,0.3069214,-0.51082766,100.0
34828,-0.43814898,-0.6582883,-0.044020712,-0.42161867,0.20178223,-0.4163086,100.0
34829,-0.19852942,-0.60268044,0.05349192,-0.42161867,0.20178223,-0.4163086,100.0
34830,-0.19852942,-0.60268044,0.05349192,-0.45454103,0.22089843,-0.28780517,100.0
34831,-0.0074197054,-0.2334261,0.10794248,-0.45454103,0.22089843,-0.28780517,100.0
34832,-0.0074197054,-0.2334261,0.10794248,-0.6467652,0.35683593,-0.16567384,100.0
34833,0.011691213,0.18060535,0.23336326,-0.6467652,0.35683593,-0.16567384,100.0
34834,0.011691213,0.18060535,0.23336326,-0.84748536,0.5214478,-0.08283692,100.0
34835,-0.07229984,0.4539569,0.2251916,-0.84748536,0.5214478,-0.08283692,100.0
34836,-0.07229984,0.4539569,0.2251916,-1.1013062,0.70092773,-0.004248047,100.0
34837,-0.094448805,0.550397,-0.0553936,-1.1013062,0.70092773,-0.004248047,100.0
34838,-0.094448805,0.550397,-0.0553936,-1.2096313,0.8442993,0.03186035,100.0
34839,0.006044984,0.5832375,-0.3870761,-1.2096313,0.8442993,0.03186035,100.0
34840,0.006044984,0.5832375,-0.3870761,-1.2064453,0.97492677,0.009558106,100.0
34841,0.20200396,0.6220954,-0.5403738,-1.2064453,0.97492677,0.009558106,100.0
34842,0.20200396,0.6220954,-0.5403738,-1.175647,1.1204224,-0.09239502,100.0
34843,0.47540933,0.6073077,-0.5122673,-1.175647,1.1204224,-0.09239502,100.0
34844,0.47540933,0.6073077,-0.5122673,-1.2351197,1.264856,-0.26656494,100.0
34845,0.7701468,0.5055605,-0.40482116,-1.2351197,1.264856,-0.26656494,100.0
34846,0.7701468,0.5055605,-0.40482116,-1.4390259,1.4772583,-0.45666504,100.0
34847,0.7701468,0.5055605,-0.40482116,-1.4390259,1.4772583,-0.45666504,100.0
34848,0.9582927,0.26350603,-0.2843672,-1.4390259,1.4772583,-0.45666504,100.0
34849,0.9582927,0.26350603,-0.2843672,-1.3933594,1.6450561,-0.51826173,100.0
34850,1.0134115,0.05993813,-0.25251818,-1.3933594,1.6450561,-0.51826173,100.0
34851,1.0134115,0.05993813,-0.25251818,-1.350879,1.6907227,-0.53737795,100.0
34852,1.0214715,-0.028685238,-0.20657998,-1.350879,1.6907227,-0.53737795,100.0
34853,1.0214715,-0.028685238,-0.20657998,-1.7597535,1.7852417,-0.5140137,100.0
34854,0.82182807,-0.25207418,-0.0237723,-1.7597535,1.7852417,-0.5140137,100.0
34855,0.82182807,-0.25207418,-0.0237723,-2.1537597,1.812854,-0.42374268,100.0
34856,0.41354156,-0.551403,0.016895294,-2.1537597,1.812854,-0.42374268,100.0
34857,0.41354156,-0.551403,0.016895294,-2.0656128,1.6673584,-0.26550293,100.0
34858,0.122434795,-0.7078338,-0.0975678,-2.0656128,1.6673584,-0.26550293,100.0
34859,0.122434795,-0.7078338,-0.0975678,-1.5813354,1.5091187,-0.0998291,100.0
34860,-0.08662248,-0.5660107,0.015268564,-1.5813354,1.5091187,-0.0998291,100.0
34861,-0.08662248,-0.5660107,0.015268564,-1.0142212,1.3264526,-0.0021240234,100.0
34862,-0.35519886,-0.15546972,0.35386527,-1.0142212,1.3264526,-0.0021240234,100.0
34863,-0.35519886,-0.15546972,0.35386527,-0.7497803,1.2128174,0.08496094,100.0
34864,-0.6057289,0.2241472,0.6804799,-0.7497803,1.2128174,0.08496094,100.0
34865,-0.6057289,0.2241472,0.6804799,-0.79969484,1.176709,0.14655761,100.0
34866,-0.76211,0.32824355,0.72446203,-0.79969484,1.176709,0.14655761,100.0
34867,-0.76211,0.32824355,0.72446203,-0.91014403,1.1650269,0.13168946,100.0
34868,-0.83817923,0.26025108,0.42689633,-0.91014403,1.1650269,0.13168946,100.0
34869,-0.83817923,0.26025108,0.42689633,-0.94412845,1.1554688,0.022302246,100.0
34870,-0.9417592,0.1581276,0.20185642,-0.94412845,1.1554688,0.022302246,100.0
34871,-0.9417592,0.1581276,0.20185642,-0.77951664,1.0991821,0.093457036,100.0
34872,-1.1256609,-0.03608334,0.3862532,-0.77951664,1.0991821,0.093457036,100.0
34873,-1.1256609,-0.03608334,0.3862532,-0.3971924,1.0227174,0.26868898,100.0
34874,-1.3216225,-0.1737397,0.7821959,-0.3971924,1.0227174,0.26868898,100.0
34875,-1.3216225,-0.1737397,0.7821959,-0.2803711,1.0439576,0.40462646,100.0
34876,-1.5800153,-0.05134526,1.0001585,-0.2803711,1.0439576,0.40462646,100.0
34877,-1.5800153,-0.05134526,1.0001585,-0.46834716,1.1480347,0.5734863,100.0
34878,-1.8945177,0.14882857,0.9822802,-0.46834716,1.1480347,0.5734863,100.0
34879,-1.8945177,0.14882857,0.9822802,-0.42692873,1.359375,0.6966797,100.0
34880,-1.7596083,0.12489781,0.3527919,-0.42692873,1.359375,0.6966797,100.0
34881,-1.7596083,0.12489781,0.3527919,-0.053100586,1.6015137,0.7072998,100.0
34882,-0.41941762,-0.16263059,-0.8767753,-0.053100586,1.6015137,0.7072998,100.0
34883,-0.41941762,-0.16263059,-0.8767753,0.26656494,1.4804443,0.73809814,100.0
34884,1.2234626,-0.36983836,-1.4277508,0.26656494,1.4804443,0.73809814,100.0
34885,1.2234626,-0.36983836,-1.4277508,0.54375,1.4379638,0.91864014,100.0
34886,1.8642315,-0.16966218,-0.8928599,0.54375,1.4379638,0.91864014,100.0
34887,1.8642315,-0.16966218,-0.8928599,0.5787964,1.5898316,0.97492677,100.0
34888,1.8237948,0.249219,-0.17712969,0.5787964,1.5898316,0.97492677,100.0
34889,1.8237948,0.249219,-0.17712969,0.33134767,1.8287842,1.0120972,100.0
34890,1.5496609,0.59371114,0.12866978,0.33134767,1.8287842,1.0120972,100.0
34891,1.5496609,0.59371114,0.12866978,0.21877442,2.0241945,0.9866089,100.0
34892,1.138386,0.7453791,0.04165653,0.21877442,2.0241945,0.9866089,100.0
34893,1.138386,0.7453791,0.04165653,0.26337892,2.1495118,1.0418335,100.0
34894,0.7956575,0.4355489,-0.17178953,0.26337892,2.1495118,1.0418335,100.0
34895,0.7956575,0.4355489,-0.17178953,0.6053467,2.0390625,1.2468017,100.0
34896,0.27606457,0.39312905,0.0033032447,0.6053467,2.0390625,1.2468017,100.0
34897,0.27606457,0.39312905,0.0033032447,0.37382814,1.8213501,1.4400879,100.0
34898,-0.48628944,1.1592909,0.37473732,0.37382814,1.8213501,1.4400879,100.0
34899,-0.48628944,1.1592909,0.37473732,0.02442627,1.992334,1.5048707,100.0
34900,-0.8818538,0.8708409,0.53727764,0.02442627,1.992334,1.5048707,100.0
34901,-0.8818538,0.8708409,0.53727764,0.41843262,2.079419,1.6471802,100.0
34902,-0.8565329,-1.1630685,0.8116947,0.41843262,2.079419,1.6471802,100.0
34903,-0.8565329,-1.1630685,0.8116947,1.1310425,1.6439942,1.897815,100.0
34904,-0.5112517,-2.1206038,1.1474026,1.1310425,1.6439942,1.897815,100.0
34905,-0.5112517,-2.1206038,1.1474026,0.89846194,1.4337158,1.8298463,100.0
34906,0.3193434,-1.3246813,0.93717265,0.89846194,1.4337158,1.8298463,100.0
34907,0.3193434,-1.3246813,0.93717265,0.87403566,1.4846925,1.5526612,100.0
34908,1.189398,-0.87358785,0.14574641,0.87403566,1.4846925,1.5526612,100.0
34909,1.189398,-0.87358785,0.14574641,1.3710572,1.2138795,1.2011353,100.0
34910,1.4615283,-0.83626044,-0.3637129,1.3710572,1.2138795,1.2011353,100.0
34911,1.4615283,-0.83626044,-0.3637129,1.351941,0.9568726,0.6988037,100.0
34912,1.2016689,-0.73443806,-0.3924108,1.351941,0.9568726,0.6988037,100.0
34913,1.2016689,-0.73443806,-0.3924108,1.1140503,0.83049315,0.16992188,100.0
34914,1.04947,-1.1245866,-0.48096967,1.1140503,0.83049315,0.16992188,100.0
34915,1.04947,-1.1245866,-0.48096967,1.4241577,0.57242435,-0.4885254,100.0
34916,0.9508064,-2.0035388,-0.38338414,1.4241577,0.57242435,-0.4885254,100.0
34917,0.9508064,-2.0035388,-0.38338414,1.5654052,0.008496094,-0.80819094,100.0
34918,0.25894833,-2.2884023,0.38895917,1.5654052,0.008496094,-0.80819094,100.0
34919,0.25894833,-2.2884023,0.38895917,1.264856,-0.38551027,-0.7986328,100.0
34920,-0.95850295,-0.91303396,1.2915751,1.264856,-0.38551027,-0.7986328,100.0
34921,-0.95850295,-0.91303396,1.2915751,0.5299439,-0.48746338,-0.72216797,100.0
34922,-1.9379572,1.4125049,1.393758,0.5299439,-0.48746338,-0.72216797,100.0
34923,-1.9379572,1.4125049,1.393758,-0.13062744,-0.30373535,-0.52888185,100.0
34924,-2.2544062,2.9443107,0.48046064,-0.13062744,-0.30373535,-0.52888185,100.0
34925,-2.2544062,2.9443107,0.48046064,0.047790527,-0.29311523,-0.36639404,100.0
34926,-2.0168428,3.098991,-0.7911198,0.047790527,-0.29311523,-0.36639404,100.0
34927,-2.0168428,3.098991,-0.7911198,0.40356445,-0.2442627,-0.3355957,100.0
34928,-1.5793434,2.3536437,-1.57064,0.40356445,-0.2442627,-0.3355957,100.0
34929,-1.5793434,2.3536437,-1.57064,0.5384399,-0.18797608,-0.33028564,100.0
34930,-1.3260479,1.4573655,-1.737823,0.5384399,-0.18797608,-0.33028564,100.0
34931,-1.3260479,1.4573655,-1.737823,0.29417726,-0.15717773,-0.2888672,100.0
34932,-1.2856064,0.8084096,-1.6813717,0.29417726,-0.15717773,-0.2888672,100.0
34933,-1.2856064,0.8084096,-1.6813717,0.019116212,0.013806152,-0.26019287,100.0
34934,-0.9820862,0.35153723,-1.4580125,0.019116212,0.013806152,-0.26019287,100.0
34935,-0.9820862,0.35153723,-1.4580125,0.118945315,0.16673584,-0.26337892,100.0
34936,0.7341187,-0.9060139,-1.2725135,0.118945315,0.16673584,-0.26337892,100.0
34937,0.7341187,-0.9060139,-1.2725135,0.7041138,-0.040356446,-0.1731079,100.0
34938,1.245669,-0.95322907,-0.9042169,0.7041138,-0.040356446,-0.1731079,100.0
34939,1.245669,-0.95322907,-0.9042169,0.67650145,-0.08814698,-0.23258057,100.0
34940,1.245669,-0.95322907,-0.9042169,0.67650145,-0.08814698,-0.23258057,100.0
34941,1.8602315,-0.43068632,-0.043051243,0.67650145,-0.08814698,-0.23258057,100.0
34942,1.8602315,-0.43068632,-0.043051243,0.27718505,0.02442627,-0.30161133,100.0
34943,1.3975114,-0.25046948,0.22377431,0.27718505,0.02442627,-0.30161133,100.0
34944,1.3975114,-0.25046948,0.22377431,0.0998291,0.059472658,-0.26762697,100.0
34945,0.4674598,-0.12985557,0.7339999,0.0998291,0.059472658,-0.26762697,100.0
34946,0.4674598,-0.12985557,0.7339999,-0.2623169,0.2166504,-0.11363526,100.0
34947,0.19854057,-0.06797138,0.6523733,-0.2623169,0.2166504,-0.11363526,100.0
34948,0.19854057,-0.06797138,0.6523733,-0.25913087,0.23364258,-0.09239502,100.0
34949,-0.022087991,0.12866735,0.5395012,-0.25913087,0.23364258,-0.09239502,100.0
34950,-0.022087991,0.12866735,0.5395012,-0.31435546,0.22833252,-0.1178833,100.0
34951,0.030754924,0.17469902,0.4635712,-0.31435546,0.22833252,-0.1178833,100.0
34952,0.030754924,0.17469902,0.4635712,-0.34833986,0.22939454,-0.118945315,100.0
34953,0.20695257,-0.02930817,0.5441114,-0.34833986,0.22939454,-0.118945315,100.0
34954,0.20695257,-0.02930817,0.5441114,-0.42905274,0.2899292,-0.012744141,100.0
34955,0.27212942,-0.01853931,0.4620103,-0.42905274,0.2899292,-0.012744141,100.0
34956,0.27212942,-0.01853931,0.4620103,-0.46834716,0.29205322,0.019116212,100.0
34957,0.2789706,0.29855967,0.040384613,-0.46834716,0.29205322,0.019116212,100.0
34958,0.2789706,0.29855967,0.040384613,-0.81031495,0.40037844,-0.070092775,100.0
34959,0.28035426,0.41874275,-0.105289966,-0.81031495,0.40037844,-0.070092775,100.0
34960,0.28035426,0.41874275,-0.105289966,-0.8729736,0.4333008,-0.06584473,100.0
34961,0.35198116,0.32710847,-0.34233743,-0.8729736,0.4333008,-0.06584473,100.0
34962,0.35198116,0.32710847,-0.34233743,-0.92501223,0.42161867,0.0,100.0
34963,0.3503105,0.04896705,-0.3421561,-0.92501223,0.42161867,0.0,100.0
34964,0.3503105,0.04896705,-0.3421561,-0.96430665,0.36320803,0.12213135,100.0
34965,0.15132993,-0.2172961,-0.24773613,-0.96430665,0.36320803,0.12213135,100.0
34966,0.15132993,-0.2172961,-0.24773613,-0.7678345,0.32072756,0.2442627,100.0
34967,-0.03645557,-0.35179096,-0.14229292,-0.7678345,0.32072756,0.2442627,100.0
34968,-0.03645557,-0.35179096,-0.14229292,-0.541626,0.23045655,0.3536499,100.0
34969,-0.086098075,-0.3363156,0.020443022,-0.541626,0.23045655,0.3536499,100.0
34970,-0.086098075,-0.3363156,0.020443022,-0.19647217,0.107263185,0.45666504,100.0
34971,-0.30066556,-0.15795629,0.15260932,-0.19647217,0.107263185,0.45666504,100.0
34972,-0.30066556,-0.15795629,0.15260932,-0.04248047,-0.010620117,0.59472656,100.0
34973,-0.616863,-0.027842075,0.2209644,-0.04248047,-0.010620117,0.59472656,100.0
34974,-0.616863,-0.027842075,0.2209644,0.2166504,-0.011682129,0.58410645,100.0
34975,-0.53727704,-0.18561596,0.32668608,0.2166504,-0.011682129,0.58410645,100.0
34976,-0.53727704,-0.18561596,0.32668608,0.39613038,-0.0637207,0.5671143,100.0
34977,-0.14046615,-0.504108,0.4256189,0.39613038,-0.0637207,0.5671143,100.0
34978,-0.14046615,-0.504108,0.4256189,0.5129517,-0.06478272,0.6680054,100.0
34979,0.10150647,-0.6023098,0.35167676,0.5129517,-0.06478272,0.6680054,100.0
34980,0.10150647,-0.6023098,0.35167676,0.61065674,-0.07646485,0.7625244,100.0
34981,0.1512003,-0.2446897,0.09931015,0.61065674,-0.07646485,0.7625244,100.0
34982,0.1512003,-0.2446897,0.09931015,0.48427734,-0.07752686,0.8219971,100.0
34983,0.112903595,0.26354998,-0.17031994,0.48427734,-0.07752686,0.8219971,100.0
34984,0.112903595,0.26354998,-0.17031994,0.39082032,-0.09451904,0.8517334,100.0
34985,0.00668031,0.4697023,-0.30222276,0.39082032,-0.09451904,0.8517334,100.0
34986,0.00668031,0.4697023,-0.30222276,0.5171997,-0.11363526,0.8612915,100.0
34987,-0.063259244,0.35244644,-0.2714291,0.5171997,-0.11363526,0.8612915,100.0
34988,-0.063259244,0.35244644,-0.2714291,0.71791995,-0.12319336,0.8527954,100.0
34989,0.025283694,0.09772864,-0.011418164,0.71791995,-0.12319336,0.8527954,100.0
34990,0.025283694,0.09772864,-0.011418164,0.814563,-0.023364259,0.8326172,100.0
34991,0.086242616,-0.27595526,0.4336389,0.814563,-0.023364259,0.8326172,100.0
34992,0.086242616,-0.27595526,0.4336389,0.8379273,0.026550293,0.8867798,100.0
34993,-0.09875494,-0.503418,0.7474604,0.8379273,0.026550293,0.8867798,100.0
34994,-0.09875494,-0.503418,0.7474604,0.58410645,0.16779785,0.91757816,100.0
34995,-0.37025148,-0.5417969,0.8047799,0.58410645,0.16779785,0.91757816,100.0
34996,-0.37025148,-0.5417969,0.8047799,0.34833986,0.33028564,0.9483765,100.0
34997,-0.59059817,-0.4870875,0.7908088,0.34833986,0.33028564,0.9483765,100.0
34998,-0.59059817,-0.4870875,0.7908088,0.270813,0.45772704,0.9717407,100.0
34999,-0.69591606,-0.17928183,0.6556085,0.270813,0.45772704,0.9717407,100.0
35000,-0.69591606,-0.17928183,0.6556085,-0.081774905,0.6403931,0.92501223,100.0
35001,-0.6192572,0.057099402,0.29271185,-0.081774905,0.6403931,0.92501223,100.0
35002,-0.6192572,0.057099402,0.29271185,-0.2984253,0.7391602,0.8708496,100.0
35003,-0.38617718,-0.08319008,-0.06340134,-0.2984253,0.7391602,0.8708496,100.0
35004,-0.38617718,-0.08319008,-0.06340134,-0.24320069,0.76677245,0.95581055,100.0
35005,-0.1575135,-0.3832513,-0.24154139,-0.24320069,0.76677245,0.95581055,100.0
35006,-0.1575135,-0.3832513,-0.24154139,0.06478272,0.81031495,1.0630738,100.0
35007,-0.0057837963,-0.35595405,-0.38931465,0.06478272,0.81031495,1.0630738,100.0
35008,-0.0057837963,-0.35595405,-0.38931465,0.2793091,0.6467652,1.0949341,100.0
35009,0.19302917,0.49223876,-0.7164688,0.2793091,0.6467652,1.0949341,100.0
35010,0.19302917,0.49223876,-0.7164688,-0.23151855,0.5607422,1.0407715,100.0
35011,0.4812789,1.442961,-1.1071594,-0.23151855,0.5607422,1.0407715,100.0
35012,0.4812789,1.442961,-1.1071594,-0.95793456,0.7455322,0.8793457,100.0
35013,0.65719104,1.4514757,-1.2536231,-0.95793456,0.7455322,0.8793457,100.0
35014,0.65719104,1.4514757,-1.2536231,-1.0046631,0.71154785,0.72004396,100.0
35015,0.71073824,1.3155874,-0.9557793,-1.0046631,0.71154785,0.72004396,100.0
35016,0.71073824,1.3155874,-0.9557793,-1.4974365,0.7126099,0.41206056,100.0
35017,0.84765553,0.4216349,-0.70759225,-1.4974365,0.7126099,0.41206056,100.0
35018,0.84765553,0.4216349,-0.70759225,-2.090039,0.8262451,0.8867798,100.0
35019,0.7905512,-1.5885588,-0.8705416,-2.090039,0.8262451,0.8867798,100.0
35020,0.7905512,-1.5885588,-0.8705416,-1.178833,0.5692383,0.90695804,100.0
35021,0.7034371,-2.4110813,-0.9058449,-1.178833,0.5692383,0.90695804,100.0
35022,0.7034371,-2.4110813,-0.9058449,-0.095581055,0.28568116,0.90270996,100.0
35023,0.90833074,-1.7568924,-0.5231745,-0.095581055,0.28568116,0.90270996,100.0
35024,0.90833074,-1.7568924,-0.5231745,0.5787964,-0.023364259,0.98236084,100.0
35025,1.1814009,-0.76021373,0.14527881,0.5787964,-0.023364259,0.98236084,100.0
35026,1.1814009,-0.76021373,0.14527881,0.814563,-0.32072756,1.2138795,100.0
35027,1.3139318,0.039253354,0.71964103,0.814563,-0.32072756,1.2138795,100.0
35028,1.3139318,0.039253354,0.71964103,0.6510132,-0.61278075,1.3381348,100.0
35029,1.5765239,0.45259404,0.91353023,0.6510132,-0.61278075,1.3381348,100.0
35030,1.5765239,0.45259404,0.91353023,0.5671143,-0.8464233,1.3731812,100.0
35031,2.1870127,0.44144535,1.0828017,0.5671143,-0.8464233,1.3731812,100.0
35032,2.1870127,0.44144535,1.0828017,0.7614624,-1.0163453,1.4677002,100.0
35033,2.5714974,0.036164045,1.419281,0.7614624,-1.0163453,1.4677002,100.0
35034,2.5714974,0.036164045,1.419281,0.8071289,-1.2977784,1.6854126,100.0
35035,2.1764119,-0.4700067,1.3448119,0.8071289,-1.2977784,1.6854126,100.0
35036,2.1764119,-0.4700067,1.3448119,0.77739257,-1.6142578,1.7055908,100.0
35037,2.1764119,-0.4700067,1.3448119,0.77739257,-1.6142578,1.7055908,100.0
35038,1.3775063,-0.512419,0.706355,0.77739257,-1.6142578,1.7055908,100.0
35039,1.3775063,-0.512419,0.706355,0.4163086,-1.7756836,1.6609863,100.0
35040,0.65347004,-0.025975227,-0.13035059,0.4163086,-1.7756836,1.6609863,100.0
35041,0.65347004,-0.025975227,-0.13035059,-0.13381349,-1.9413575,1.3912354,100.0
35042,-0.080385685,0.6140832,-0.9737751,-0.13381349,-1.9413575,1.3912354,100.0
35043,-0.080385685,0.6140832,-0.9737751,-0.80181885,-2.264209,0.99298096,100.0
35044,-0.87653995,1.0734565,-1.7053506,-0.80181885,-2.264209,0.99298096,100.0
35045,-0.87653995,1.0734565,-1.7053506,-1.4315919,-2.536084,0.5235718,100.0
35046,-1.5269523,1.3685553,-2.1208968,-1.4315919,-2.536084,0.5235718,100.0
35047,-1.5269523,1.3685553,-2.1208968,-2.0252564,-2.7527344,-0.06796875,100.0
35048,-1.9239056,1.5222368,-1.9786389,-2.0252564,-2.7527344,-0.06796875,100.0
35049,-1.9239056,1.5222368,-1.9786389,-2.618921,-2.812207,-0.721106,100.0
35050,-2.2162974,1.3865395,-1.0592418,-2.618921,-2.812207,-0.721106,100.0
35051,-2.2162974,1.3865395,-1.0592418,-3.1594849,-2.907788,-1.2924683,100.0
35052,-2.572147,1.2065827,0.12381017,-3.1594849,-2.907788,-1.2924683,100.0
35053,-2.572147,1.2065827,0.12381017,-3.713855,-2.9364624,-1.8765748,100.0
35054,-2.7231472,0.9682935,1.3871219,-3.713855,-2.9364624,-1.8765748,100.0
35055,-2.7231472,0.9682935,1.3871219,-3.8784668,-2.5764406,-2.442627,100.0
35056,-2.5967796,0.5122081,2.9457693,-3.8784668,-2.5764406,-2.442627,100.0
35057,-2.5967796,0.5122081,2.9457693,-3.3952515,-2.0146363,-2.7760987,100.0
35058,-2.5478826,0.3382455,3.5329583,-3.3952515,-2.0146363,-2.7760987,100.0
35059,-2.5478826,0.3382455,3.5329583,-3.1095703,-1.3731812,-2.8504395,100.0
35060,-2.4768925,0.20356756,2.4282465,-3.1095703,-1.3731812,-2.8504395,100.0
35061,-2.4768925,0.20356756,2.4282465,-2.8706176,-0.9505005,-2.9428346,100.0
35062,-1.9261551,-0.82235104,0.9814888,-2.8706176,-0.9505005,-2.9428346,100.0
35063,-1.9261551,-0.82235104,0.9814888,-2.4192626,-0.74871826,-2.8334472,100.0
35064,-1.1198914,-2.438899,0.40030336,-2.4192626,-0.74871826,-2.8334472,100.0
35065,-1.1198914,-2.438899,0.40030336,-2.2185426,-0.6988037,-2.4702394,100.0
35066,-0.75305414,-3.0682456,0.4579258,-2.2185426,-0.6988037,-2.4702394,100.0
35067,-0.75305414,-3.0682456,0.4579258,-2.1187134,-0.7890747,-2.275891,100.0
35068,-0.7613909,-2.0697088,0.3549881,-2.1187134,-0.7890747,-2.275891,100.0
35069,-0.7613909,-2.0697088,0.3549881,-2.4691772,-0.8612915,-2.092163,100.0
35070,-0.4799502,-0.6617485,-0.004547119,-2.4691772,-0.8612915,-2.092163,100.0
35071,-0.4799502,-0.6617485,-0.004547119,-2.9173462,-0.98236084,-2.0114503,100.0
35072,0.14489722,0.16874576,-0.2306397,-2.9173462,-0.98236084,-2.0114503,100.0
35073,0.14489722,0.16874576,-0.2306397,-3.1255004,-1.1172364,-1.993396,100.0
35074,0.719934,0.47075105,-0.105581045,-3.1255004,-1.1172364,-1.993396,100.0
35075,0.719934,0.47075105,-0.105581045,-3.3400269,-1.2106934,-2.0560548,100.0
35076,1.0460644,0.3490007,0.04533255,-3.3400269,-1.2106934,-2.0560548,100.0
35077,1.0460644,0.3490007,0.04533255,-3.448352,-1.2202514,-2.0337524,100.0
35078,1.0551376,-0.08845079,-0.27871203,-3.448352,-1.2202514,-2.0337524,100.0
35079,1.0551376,-0.08845079,-0.27871203,-3.2954223,-1.3307008,-2.0061402,100.0
35080,1.0268128,-0.55341446,-0.96730554,-3.2954223,-1.3307008,-2.0061402,100.0
35081,1.0268128,-0.55341446,-0.96730554,-3.6904907,-1.3062744,-1.9264892,100.0
35082,1.4168359,-1.4778023,-0.992277,-3.6904907,-1.3062744,-1.9264892,100.0
35083,1.4168359,-1.4778023,-0.992277,-2.1845582,-0.99722904,-1.8255981,100.0
35084,1.7083101,-1.9990876,0.34236002,-2.1845582,-0.99722904,-1.8255981,100.0
35085,1.7083101,-1.9990876,0.34236002,-0.23364258,-0.9218262,-1.8893188,100.0
35086,1.4525979,-0.9563379,1.6809316,-0.23364258,-0.9218262,-1.8893188,100.0
35087,1.4525979,-0.9563379,1.6809316,0.053100586,-0.57454836,-1.7735596,100.0
35088,0.98026675,0.1898613,0.90725756,0.053100586,-0.57454836,-1.7735596,100.0
35089,0.98026675,0.1898613,0.90725756,0.28674316,-0.5097656,-1.6471802,100.0
35090,0.45719925,0.6220186,-1.7311519,0.28674316,-0.5097656,-1.6471802,100.0
35091,0.45719925,0.6220186,-1.7311519,0.8782837,-0.6881836,-1.5781494,100.0
35092,-0.050329477,1.1899,-3.4386568,0.8782837,-0.6881836,-1.5781494,100.0
35093,-0.050329477,1.1899,-3.4386568,1.0513916,-0.7954468,-1.4379638,100.0
35094,-0.79443836,1.5824255,-2.4837382,1.0513916,-0.7954468,-1.4379638,100.0
35095,-0.79443836,1.5824255,-2.4837382,0.84323734,-0.5979126,-1.1406006,100.0
35096,-1.7254066,1.7040751,-0.12334302,0.84323734,-0.5979126,-1.1406006,100.0
35097,-1.7254066,1.7040751,-0.12334302,0.42161867,-0.51826173,-1.4517701,100.0
35098,-1.667154,2.396048,1.5053173,0.42161867,-0.51826173,-1.4517701,100.0
35099,-1.667154,2.396048,1.5053173,-0.32603762,-0.25700685,-1.7576294,100.0
35100,-0.15023923,2.1969655,2.0275326,-0.32603762,-0.25700685,-1.7576294,100.0
35101,-0.15023923,2.1969655,2.0275326,-0.0021240234,0.11151123,-1.5940796,100.0
35102,1.5349234,0.37456462,2.3670824,-0.0021240234,0.11151123,-1.5940796,100.0
35103,1.5349234,0.37456462,2.3670824,1.264856,0.1444336,-1.5431031,100.0
35104,2.1682951,-1.1599064,1.9431777,1.264856,0.1444336,-1.5431031,100.0
35105,2.1682951,-1.1599064,1.9431777,0.68074954,0.13168946,-1.453894,100.0
35106,2.0821705,-0.9743118,0.12794304,0.68074954,0.13168946,-1.453894,100.0
35107,2.0821705,-0.9743118,0.12794304,0.16567384,0.50870365,-1.8202881,100.0
35108,1.7353653,0.5433166,-1.2117935,0.16567384,0.50870365,-1.8202881,100.0
35109,1.7353653,0.5433166,-1.2117935,0.2262085,0.09239502,-1.635498,100.0
35110,0.7790637,1.0068823,-0.8521985,0.2262085,0.09239502,-1.635498,100.0
35111,0.7790637,1.0068823,-0.8521985,0.2793091,0.14974366,-1.2935303,100.0
35112,-1.072623,0.022803225,-0.005086422,0.2793091,0.14974366,-1.2935303,100.0
35113,-1.072623,0.022803225,-0.005086422,-0.12531738,0.028674318,-1.3349488,100.0
35114,-2.7302787,-1.0601144,0.035164237,-0.12531738,0.028674318,-1.3349488,100.0
35115,-2.7302787,-1.0601144,0.035164237,-0.88253176,0.36002198,-0.70305175,100.0
35116,-2.6632147,-2.0145588,-0.22970545,-0.88253176,0.36002198,-0.70305175,100.0
35117,-2.6632147,-2.0145588,-0.22970545,-0.44498292,0.3971924,-0.30054933,100.0
35118,-0.8841851,-1.8173233,-0.012316585,-0.44498292,0.3971924,-0.30054933,100.0
35119,-0.8841851,-1.8173233,-0.012316585,0.5171997,0.24107666,-0.16142578,100.0
35120,1.0023932,-0.002003193,0.2604959,0.5171997,0.24107666,-0.16142578,100.0
35121,1.0023932,-0.002003193,0.2604959,0.5872925,0.13912354,-0.1359375,100.0
35122,1.51002,2.0902798,0.056272745,0.5872925,0.13912354,-0.1359375,100.0
35123,1.51002,2.0902798,0.056272745,0.0063720704,0.270813,-0.29417726,100.0
35124,1.0098227,2.4651804,-0.30048966,0.0063720704,0.270813,-0.29417726,100.0
35125,1.0098227,2.4651804,-0.30048966,-0.20496826,0.30267334,-0.11151123,100.0
35126,0.4002288,1.1630013,-0.660277,-0.20496826,0.30267334,-0.11151123,100.0
35127,0.4002288,1.1630013,-0.660277,-0.015930176,0.2177124,0.032922365,100.0
35128,0.1175341,-0.2229559,-0.9617909,-0.015930176,0.2177124,0.032922365,100.0
35129,0.1175341,-0.2229559,-0.9617909,0.0541626,0.15823975,0.3791382,100.0
35130,0.27143207,-0.97080857,-0.91602695,0.0541626,0.15823975,0.3791382,100.0
35131,0.27143207,-0.97080857,-0.91602695,0.1720459,0.25700685,0.80819094,100.0
35132,0.6472604,-1.0115833,-0.8909759,0.1720459,0.25700685,0.80819094,100.0
35133,0.6472604,-1.0115833,-0.8909759,0.22727051,0.30479738,1.2043213,100.0
35134,0.779637,-0.7174332,-1.2220947,0.22727051,0.30479738,1.2043213,100.0
35135,0.779637,-0.7174332,-1.2220947,0.25063476,0.40250245,1.3944215,100.0
35136,0.48078966,-0.65439093,-1.3636011,0.25063476,0.40250245,1.3944215,100.0
35137,0.48078966,-0.65439093,-1.3636011,0.39400634,0.39188233,1.630188,100.0
35138,0.051843643,-0.5755391,-1.0819819,0.39400634,0.39188233,1.630188,100.0
35139,0.051843643,-0.5755391,-1.0819819,0.21027832,0.7338501,1.898877,100.0
35140,-0.43860322,0.3391537,-0.7473726,0.21027832,0.7338501,1.898877,100.0
35141,-0.43860322,0.3391537,-0.7473726,0.14337158,1.2595459,1.9275513,100.0
35142,-0.7934119,1.2889743,-0.4852028,0.14337158,1.2595459,1.9275513,100.0
35143,-0.7934119,1.2889743,-0.4852028,-0.04991455,1.7278931,1.8659546,100.0
35144,-0.55506647,0.81011015,-0.16629946,-0.04991455,1.7278931,1.8659546,100.0
35145,-0.55506647,0.81011015,-0.16629946,-0.3536499,1.9848999,2.077295,100.0
35146,9.66385E-4,-0.17005152,-0.01413089,-0.3536499,1.9848999,2.077295,100.0
35147,9.66385E-4,-0.17005152,-0.01413089,-0.093457036,1.9997681,2.1410158,100.0
35148,0.3705119,0.04359746,0.040501893,-0.093457036,1.9997681,2.1410158,100.0
35149,0.3705119,0.04359746,0.040501893,-0.026550293,2.1548219,2.2121704,100.0
35150,0.55805504,0.97125494,0.3584025,-0.026550293,2.1548219,2.2121704,100.0
35151,0.55805504,0.97125494,0.3584025,0.19647217,2.1951783,2.2206666,100.0
35152,0.7040002,1.2141134,0.89857507,0.19647217,2.1951783,2.2206666,100.0
35153,0.7040002,1.2141134,0.89857507,0.42692873,2.2079225,1.989148,100.0
35154,1.1093305,0.45296794,1.677637,0.42692873,2.2079225,1.989148,100.0
35155,1.1093305,0.45296794,1.677637,0.53525394,2.1909301,1.7385132,100.0
35156,1.9141612,-0.8541174,1.7587478,0.53525394,2.1909301,1.7385132,100.0
35157,1.9141612,-0.8541174,1.7587478,0.59472656,1.6790406,1.5696534,100.0
35158,1.9141612,-0.8541174,1.7587478,0.59472656,1.6790406,1.5696534,99.0
35159,1.7309749,-1.4566338,0.5768347,0.59472656,1.6790406,1.5696534,99.0
35160,1.7309749,-1.4566338,0.5768347,0.4609131,1.1862671,1.3338867,99.0
35161,-0.34509075,-1.0089839,-0.11538774,0.4609131,1.1862671,1.3338867,99.0
35162,-0.34509075,-1.0089839,-0.11538774,0.029736329,1.2967163,1.3986695,99.0
35163,-2.6921005,-0.56985795,0.45390564,0.029736329,1.2967163,1.3986695,99.0
35164,-2.6921005,-0.56985795,0.45390564,-0.26656494,1.3487549,1.6089478,99.0
35165,-3.6565125,-0.49286145,0.9778462,-0.26656494,1.3487549,1.6089478,99.0
35166,-3.6565125,-0.49286145,0.9778462,0.9834229,1.0981201,1.7448853,99.0
35167,-3.0864527,-0.3301412,0.77480626,0.9834229,1.0981201,1.7448853,99.0
35168,-3.0864527,-0.3301412,0.77480626,1.7778076,0.88996583,1.9944581,99.0
35169,-1.7549899,-0.013868809,0.14378297,1.7778076,0.88996583,1.9944581,99.0
35170,-1.7549899,-0.013868809,0.14378297,1.7501954,0.90695804,2.1442018,99.0
35171,-0.42497587,0.018067598,-0.660291,1.7501954,0.90695804,2.1442018,99.0
35172,-0.42497587,0.018067598,-0.660291,1.5346069,1.0067872,2.1834962,99.0
35173,0.4764012,-0.45804346,-1.2285502,1.5346069,1.0067872,2.1834962,99.0
35174,0.4764012,-0.45804346,-1.2285502,1.8309082,1.2850342,2.18562,99.0
35175,-0.014045,-1.9807292,-0.84043294,1.8309082,1.2850342,2.18562,99.0
35176,-0.014045,-1.9807292,-0.84043294,2.9704468,1.3954834,2.631665,99.0
35177,-1.642547,-3.0350595,0.76672834,2.9704468,1.3954834,2.631665,99.0
35178,-1.642547,-3.0350595,0.76672834,4.087683,1.2988404,2.720874,99.0
35179,-2.2454097,-1.8627765,2.4666176,4.087683,1.2988404,2.720874,99.0
35180,-2.2454097,-1.8627765,2.4666176,3.4695923,1.6535523,2.6794555,99.0
35181,-1.2527733,-0.3025627,2.9139924,3.4695923,1.6535523,2.6794555,99.0
35182,-1.2527733,-0.3025627,2.9139924,1.8925049,2.356604,2.88761,99.0
35183,-0.22417927,-0.26112962,2.07365,1.8925049,2.356604,2.88761,99.0
35184,-0.22417927,-0.26112962,2.07365,1.5654052,2.4755495,3.173291,99.0
35185,0.12835932,-1.1025314,0.7173183,1.5654052,2.4755495,3.173291,99.0
35186,0.12835932,-1.1025314,0.7173183,2.0964112,2.348108,3.43667,99.0
35187,0.42262173,-1.3616881,-0.42156768,2.0964112,2.348108,3.43667,99.0
35188,0.42262173,-1.3616881,-0.42156768,2.4213867,2.1983643,3.5577393,99.0
35189,0.960058,-0.77625227,-1.0785995,2.4213867,2.1983643,3.5577393,99.0
35190,0.960058,-0.77625227,-1.0785995,2.267395,2.1240234,3.534375,99.0
35191,1.3267255,-0.059966564,-1.3793957,2.267395,2.1240234,3.534375,99.0
35192,1.3267255,-0.059966564,-1.3793957,2.1027832,1.9583496,3.4791505,99.0
35193,1.3499302,0.4397099,-1.5332285,2.1027832,1.9583496,3.4791505,99.0
35194,1.3499302,0.4397099,-1.5332285,2.1346436,1.7640015,3.2497559,99.0
35195,1.3526248,0.78707075,-1.6194539,2.1346436,1.7640015,3.2497559,99.0
35196,1.3526248,0.78707075,-1.6194539,2.2100465,1.539917,2.9300904,99.0
35197,1.4180617,1.0756526,-1.749567,2.2100465,1.539917,2.9300904,99.0
35198,1.4180617,1.0756526,-1.749567,2.1442018,1.2351197,2.5063477,99.0
35199,1.2661389,1.5342159,-1.9395585,2.1442018,1.2351197,2.5063477,99.0
35200,1.2661389,1.5342159,-1.9395585,1.5664673,1.0375855,1.9785279,99.0
35201,0.91786724,2.0978806,-2.0890126,1.5664673,1.0375855,1.9785279,99.0
35202,0.91786724,2.0978806,-2.0890126,1.1363525,0.817749,1.3487549,99.0
35203,0.6554242,2.2978845,-2.085126,1.1363525,0.817749,1.3487549,99.0
35204,0.6554242,2.2978845,-2.085126,0.98236084,0.45029297,0.84536135,99.0
35205,0.5426865,1.9944355,-1.8834573,0.98236084,0.45029297,0.84536135,99.0
35206,0.5426865,1.9944355,-1.8834573,1.0248413,-0.07752686,0.47684327,99.0
35207,0.47957158,1.4463786,-1.5891877,1.0248413,-0.07752686,0.47684327,99.0
35208,0.47957158,1.4463786,-1.5891877,1.2531738,-0.5915405,0.18479005,99.0
35209,0.5454981,0.9047225,-1.2830324,1.2531738,-0.5915405,0.18479005,99.0
35210,0.5454981,0.9047225,-1.2830324,1.4230957,-1.0290893,-0.050976563,99.0
35211,0.781418,0.47242302,-1.0077248,1.4230957,-1.0290893,-0.050976563,99.0
35212,0.781418,0.47242302,-1.0077248,1.5569092,-1.3965454,-0.16992188,99.0
35213,1.0111818,0.2449428,-0.591568,1.5569092,-1.3965454,-0.16992188,99.0
35214,1.0111818,0.2449428,-0.591568,1.6174439,-1.6556762,-0.23151855,99.0
35215,1.1298072,0.32490933,0.04230976,1.6174439,-1.6556762,-0.23151855,99.0
35216,1.1298072,0.32490933,0.04230976,1.4698242,-1.6631104,-0.38232422,99.0
35217,1.1810919,0.49341136,0.6178565,1.4698242,-1.6631104,-0.38232422,99.0
35218,1.1810919,0.49341136,0.6178565,1.2383057,-1.537793,-0.41843262,99.0
35219,1.0981084,0.49676767,0.86878467,1.2383057,-1.537793,-0.41843262,99.0
35220,1.0981084,0.49676767,0.86878467,0.99935305,-1.3731812,-0.44710693,99.0
35221,0.82206583,0.41494343,0.68608,0.99935305,-1.3731812,-0.44710693,99.0
35222,0.82206583,0.41494343,0.68608,0.73809814,-1.2340577,-0.45454103,99.0
35223,0.48780394,0.38733804,0.32149577,0.73809814,-1.2340577,-0.45454103,99.0
35224,0.48780394,0.38733804,0.32149577,0.4980835,-1.1299804,-0.4078125,99.0
35225,0.283041,0.458076,0.17814386,0.4980835,-1.1299804,-0.4078125,99.0
35226,0.283041,0.458076,0.17814386,0.19116211,-1.0471436,-0.48109132,99.0
35227,0.092436194,0.5015682,0.25933635,0.19116211,-1.0471436,-0.48109132,99.0
35228,0.092436194,0.5015682,0.25933635,0.42799073,-0.9589966,-0.23789063,99.0
35229,-0.42755246,0.61270475,0.48777914,0.42799073,-0.9589966,-0.23789063,99.0
35230,-0.42755246,0.61270475,0.48777914,0.081774905,-0.8517334,-0.058410645,99.0
35231,-1.1983042,0.4385891,0.6627208,0.081774905,-0.8517334,-0.058410645,99.0
35232,-1.1983042,0.4385891,0.6627208,0.16036378,-0.7625244,-0.271875,99.0
35233,-1.7979745,-0.098603845,0.56120694,0.16036378,-0.7625244,-0.271875,99.0
35234,-1.7979745,-0.098603845,0.56120694,0.53525394,-0.8708496,-0.28780517,99.0
35235,-2.0301278,-0.1368177,0.43096018,0.53525394,-0.8708496,-0.28780517,99.0
35236,-2.0301278,-0.1368177,0.43096018,0.45029297,-0.92713624,-0.29630128,99.0
35237,-2.1656306,0.33107322,0.4730519,0.45029297,-0.92713624,-0.29630128,99.0
35238,-2.1656306,0.33107322,0.4730519,-0.14337158,-0.84323734,-0.39082032,99.0
35239,-2.079123,0.5072292,0.64211345,-0.14337158,-0.84323734,-0.39082032,99.0
35240,-2.079123,0.5072292,0.64211345,-0.5787964,-0.75721437,-0.52675784,99.0
35241,-1.5814748,0.031393707,0.7948187,-0.5787964,-0.75721437,-0.52675784,99.0
35242,-1.5814748,0.031393707,0.7948187,-0.6680054,-0.68712157,-0.64570314,99.0
35243,-1.1320255,-0.5071971,0.7305449,-0.6680054,-0.68712157,-0.64570314,99.0
35244,-1.1320255,-0.5071971,0.7305449,-0.18372802,-0.6085327,-0.30267334,99.0
35245,-0.75104284,-0.3040365,0.48128653,-0.18372802,-0.6085327,-0.30267334,99.0
35246,-0.75104284,-0.3040365,0.48128653,-0.029736329,-0.6085327,-0.27293703,99.0
35247,-0.07465017,0.14284259,0.34499016,-0.029736329,-0.6085327,-0.27293703,99.0
35248,-0.07465017,0.14284259,0.34499016,-0.029736329,-0.6085327,-0.27293703,98.0
35249,-0.07465017,0.14284259,0.34499016,-0.4248047,-0.50870365,-0.41737062,98.0
35250,0.66962564,-0.21687824,0.44910005,-0.4248047,-0.50870365,-0.41737062,98.0
35251,0.66962564,-0.21687824,0.44910005,-0.06796875,-0.4980835,-0.4088745,98.0
35252,1.031892,-0.69982094,0.51661646,-0.06796875,-0.4980835,-0.4088745,98.0
35253,1.031892,-0.69982094,0.51661646,-0.452417,-0.3058594,-0.31223145,98.0
35254,0.9270639,-0.58744466,0.42536592,-0.452417,-0.3058594,-0.31223145,98.0
35255,0.9270639,-0.58744466,0.42536592,-0.30054933,-0.26125488,-0.12850343,98.0
35256,0.62952954,-0.3157321,0.25295144,-0.30054933,-0.26125488,-0.12850343,98.0
35257,0.62952954,-0.3157321,0.25295144,-0.22514649,-0.16779785,-0.03717041,98.0
35258,0.53517884,-0.38658226,0.12841097,-0.22514649,-0.16779785,-0.03717041,98.0
35259,0.53517884,-0.38658226,0.12841097,0.0010620117,-0.057348635,0.057348635,98.0
35260,0.74734473,-0.6563361,0.10067799,0.0010620117,-0.057348635,0.057348635,98.0
35261,0.74734473,-0.6563361,0.10067799,0.24107666,0.03186035,0.16992188,98.0
35262,1.1526976,-0.78517634,0.2564457,0.24107666,0.03186035,0.16992188,98.0
35263,1.1526976,-0.78517634,0.2564457,0.49383545,0.15930176,0.27293703,98.0
35264,1.5258934,-0.6798867,0.5292044,0.49383545,0.15930176,0.27293703,98.0
35265,1.5258934,-0.6798867,0.5292044,0.50445557,0.31223145,0.4991455,98.0
35266,1.6166499,-0.4851691,0.60253835,0.50445557,0.31223145,0.4991455,98.0
35267,1.6166499,-0.4851691,0.60253835,0.40462646,0.4248047,0.6074707,98.0
35268,1.3824679,-0.34954888,0.4561762,0.40462646,0.4248047,0.6074707,98.0
35269,1.3824679,-0.34954888,0.4561762,0.3440918,0.45454103,0.67331547,98.0
35270,0.9442799,-0.23076212,0.37033647,0.3440918,0.45454103,0.67331547,98.0
35271,0.9442799,-0.23076212,0.37033647,0.20284425,0.5511841,0.6223389,98.0
35272,0.5083537,-0.20414096,0.42894745,0.20284425,0.5511841,0.6223389,98.0
35273,0.5083537,-0.20414096,0.42894745,0.06690674,0.62977296,0.5968506,98.0
35274,0.15942955,-0.2822703,0.39603883,0.06690674,0.62977296,0.5968506,98.0
35275,0.15942955,-0.2822703,0.39603883,0.04460449,0.6435791,0.64782715,98.0
35276,-0.13692164,-0.28486168,0.15223145,0.04460449,0.6435791,0.64782715,98.0
35277,-0.13692164,-0.28486168,0.15223145,-0.050976563,0.6690674,0.6202149,98.0
35278,-0.4360144,-0.20564818,-0.06151563,-0.050976563,0.6690674,0.6202149,98.0
35279,-0.4360144,-0.20564818,-0.06151563,-0.03079834,0.63614506,0.6488892,98.0
35280,-0.7434038,-0.10880566,-0.11101675,-0.03079834,0.63614506,0.6488892,98.0
35281,-0.7434038,-0.10880566,-0.11101675,0.023364259,0.6117188,0.721106,98.0
35282,-0.93012345,-0.0633629,-0.15554923,0.023364259,0.6117188,0.721106,98.0
35283,-0.93012345,-0.0633629,-0.15554923,0.06690674,0.5809204,0.77102053,98.0
35284,-0.9399728,-0.023859262,-0.2635507,0.06690674,0.5809204,0.77102053,98.0
35285,-0.9399728,-0.023859262,-0.2635507,0.046728518,0.55968016,0.7678345,98.0
35286,-0.77102125,-0.07709527,-0.25526196,0.046728518,0.55968016,0.7678345,98.0
35287,-0.77102125,-0.07709527,-0.25526196,-0.019116212,0.62977296,0.76358646,98.0
35288,-0.59019345,-0.21238422,-0.1568585,-0.019116212,0.62977296,0.76358646,98.0
35289,-0.59019345,-0.21238422,-0.1568585,-0.16354981,0.6796875,0.7965088,98.0
35290,-0.5602041,-0.28509295,-0.13212746,-0.16354981,0.6796875,0.7965088,98.0
35291,-0.5602041,-0.28509295,-0.13212746,-0.13275146,0.69986576,0.8219971,98.0
35292,-0.5420231,-0.23576474,-0.19234747,-0.13275146,0.69986576,0.8219971,98.0
35293,-0.5420231,-0.23576474,-0.19234747,-0.095581055,0.67331547,0.8857178,98.0
35294,-0.5447391,-0.07832122,-0.27846295,-0.095581055,0.67331547,0.8857178,98.0
35295,-0.5447391,-0.07832122,-0.27846295,-0.19647217,0.6701294,0.90058595,98.0
35296,-0.6225711,-0.0066022873,-0.24846616,-0.19647217,0.6701294,0.90058595,98.0
35297,-0.6225711,-0.0066022873,-0.24846616,-0.08496094,0.631897,0.991919,98.0
35298,-0.55984885,-0.025875092,-0.08961767,-0.08496094,0.631897,0.991919,98.0
35299,-0.55984885,-0.025875092,-0.08961767,0.0031860352,0.61915284,1.1342286,98.0
35300,-0.4010285,0.095205665,-0.16977766,0.0031860352,0.61915284,1.1342286,98.0
35301,-0.4010285,0.095205665,-0.16977766,-0.035046387,0.5777344,1.2234375,98.0
35302,-0.33694834,0.3439746,-0.46853697,-0.035046387,0.5777344,1.2234375,98.0
35303,-0.33694834,0.3439746,-0.46853697,-0.20603028,0.6042847,1.2903442,98.0
35304,-0.36330867,0.46971095,-0.47895557,-0.20603028,0.6042847,1.2903442,98.0
35305,-0.36330867,0.46971095,-0.47895557,-0.3440918,0.68074954,1.3795532,98.0
35306,-0.4510473,0.35297823,-0.13653362,-0.3440918,0.68074954,1.3795532,98.0
35307,-0.4510473,0.35297823,-0.13653362,-0.41524658,0.70305175,1.5016845,98.0
35308,-0.5229594,0.2926243,0.05532389,-0.41524658,0.70305175,1.5016845,98.0
35309,-0.5229594,0.2926243,0.05532389,-0.12850343,0.60959476,1.6238159,98.0
35310,-0.43105066,0.60199493,-0.23778434,-0.12850343,0.60959476,1.6238159,98.0
35311,-0.43105066,0.60199493,-0.23778434,0.18266602,0.52675784,1.5165528,98.0
35312,-0.14897871,1.1170207,-0.63325727,0.18266602,0.52675784,1.5165528,98.0
35313,-0.14897871,1.1170207,-0.63325727,-0.06690674,0.5671143,1.4379638,98.0
35314,0.16338539,1.3808115,-0.7031878,-0.06690674,0.5671143,1.4379638,98.0
35315,0.16338539,1.3808115,-0.7031878,-0.4619751,0.6414551,1.2999023,98.0
35316,0.38045192,1.2765486,-0.6445083,-0.4619751,0.6414551,1.2999023,98.0
35317,0.38045192,1.2765486,-0.6445083,-0.9281983,0.7168579,1.1395386,98.0
35318,0.4112463,1.0083605,-0.7922912,-0.9281983,0.7168579,1.1395386,98.0
35319,0.4112463,1.0083605,-0.7922912,-1.4188477,0.6754395,0.97492677,98.0
35320,0.33405077,0.76298726,-0.9273877,-1.4188477,0.6754395,0.97492677,98.0
35321,0.33405077,0.76298726,-0.9273877,-2.1495118,0.6467652,0.8517334,98.0
35322,0.33826113,0.41338056,-0.82606554,-2.1495118,0.6467652,0.8517334,98.0
35323,0.33826113,0.41338056,-0.82606554,-2.3980224,0.50870365,0.815625,98.0
35324,0.27641946,-0.03244257,-0.74240756,-2.3980224,0.50870365,0.815625,98.0
35325,0.27641946,-0.03244257,-0.74240756,-1.9976441,0.1901001,0.7508423,98.0
35326,0.10703647,-0.26047552,-0.6853323,-1.9976441,0.1901001,0.7508423,98.0
35327,0.10703647,-0.26047552,-0.6853323,-1.7501954,-0.035046387,0.7147339,98.0
35328,0.09814137,-0.29285306,-0.5113274,-1.7501954,-0.035046387,0.7147339,98.0
35329,0.09814137,-0.29285306,-0.5113274,-1.4602661,-0.2262085,0.6701294,98.0
35330,0.3215307,-0.025005102,-0.16066098,-1.4602661,-0.2262085,0.6701294,98.0
35331,0.3215307,-0.025005102,-0.16066098,-1.4772583,-0.32603762,0.4598511,98.0
35332,0.60629684,0.8680941,0.6487417,-1.4772583,-0.32603762,0.4598511,98.0
35333,0.60629684,0.8680941,0.6487417,-2.7580445,-0.06159668,0.14124756,98.0
35334,0.78169274,1.3353689,1.575927,-2.7580445,-0.06159668,0.14124756,98.0
35335,0.78169274,1.3353689,1.575927,-3.4642823,0.22833252,0.10301514,98.0
35336,0.7505251,0.30843186,1.8133173,-3.4642823,0.22833252,0.10301514,98.0
35337,0.7505251,0.30843186,1.8133173,-2.3916504,0.21558838,0.11363526,98.0
35338,0.60016376,-1.2135451,1.5735054,-2.3916504,0.21558838,0.11363526,98.0
35339,0.60016376,-1.2135451,1.5735054,-1.0078491,0.050976563,0.20284425,98.0
35340,0.5657755,-1.2196765,1.5352448,-1.0078491,0.050976563,0.20284425,98.0
35341,0.5657755,-1.2196765,1.5352448,-1.6089478,0.20709229,0.16142578,98.0
35342,0.85661215,0.6887486,1.4992042,-1.6089478,0.20709229,0.16142578,98.0
35343,0.85661215,0.6887486,1.4992042,-3.6639404,0.72323,0.20709229,98.0
35344,1.1811272,0.9702127,0.9725567,-3.6639404,0.72323,0.20709229,98.0
35345,1.1811272,0.9702127,0.9725567,-4.0345826,1.1214844,0.8485474,98.0
35346,0.59851503,-2.039235,-0.014105499,-4.0345826,1.1214844,0.8485474,98.0
35347,0.59851503,-2.039235,-0.014105499,-2.0741088,0.5097656,1.354065,98.0
35348,-0.76490134,-4.1943645,-0.9559744,-2.0741088,0.5097656,1.354065,98.0
35349,-0.76490134,-4.1943645,-0.9559744,-0.6265869,-0.06690674,1.539917,98.0
35350,-1.4899362,-2.3298323,-1.236093,-0.6265869,-0.06690674,1.539917,98.0
35351,-1.4899362,-2.3298323,-1.236093,-1.1809571,-0.29523927,1.5494751,98.0
35352,-0.992596,1.0707167,-0.8544506,-1.1809571,-0.29523927,1.5494751,98.0
35353,-0.992596,1.0707167,-0.8544506,-2.3693483,-0.11044922,1.6461182,98.0
35354,-0.36786827,2.915973,0.042928793,-2.3693483,-0.11044922,1.6461182,98.0
35355,-0.36786827,2.915973,0.042928793,-1.7544434,-0.33665773,1.3211426,98.0
35356,0.03467267,3.7779443,1.4771287,-1.7544434,-0.33665773,1.3211426,98.0
35357,0.03467267,3.7779443,1.4771287,-1.7884277,0.06159668,0.6223389,98.0
35358,0.1668983,4.132658,2.6086316,-1.7884277,0.06159668,0.6223389,98.0
35359,0.1668983,4.132658,2.6086316,-0.89421386,0.15505372,0.045666505,98.0
35360,-0.18211856,3.5977771,2.44849,-0.89421386,0.15505372,0.045666505,98.0
35361,-0.18211856,3.5977771,2.44849,0.07965088,0.19753419,-0.42055663,98.0
35362,-0.18211856,3.5977771,2.44849,0.07965088,0.19753419,-0.42055663,98.0
35363,-0.42894682,2.4619987,1.2016143,0.07965088,0.19753419,-0.42055663,98.0
35364,-0.42894682,2.4619987,1.2016143,1.0875,0.14974366,-0.78376466,98.0
35365,-0.3956843,1.5310614,0.031066775,1.0875,0.14974366,-0.78376466,98.0
35366,-0.3956843,1.5310614,0.031066775,1.5091187,0.14549561,-1.2542359,98.0
35367,-0.14342733,1.079793,-0.48050547,1.5091187,0.14549561,-1.2542359,98.0
35368,-0.14342733,1.079793,-0.48050547,1.1968873,0.2442627,-1.5781494,98.0
35369,0.2738812,0.7638345,-0.59036136,1.1968873,0.2442627,-1.5781494,98.0
35370,0.2738812,0.7638345,-0.59036136,0.9260742,0.39400634,-1.9148072,98.0
35371,0.41471043,0.24816465,-0.5027945,0.9260742,0.39400634,-1.9148072,98.0
35372,0.41471043,0.24816465,-0.5027945,1.1151123,0.36745605,-2.0603027,98.0
35373,0.09705155,-0.46501827,-0.25814378,1.1151123,0.36745605,-2.0603027,98.0
35374,0.09705155,-0.46501827,-0.25814378,1.1883911,0.37595215,-2.2896974,98.0
35375,-0.24248816,-1.2222342,-0.18593395,1.1883911,0.37595215,-2.2896974,98.0
35376,-0.24248816,-1.2222342,-0.18593395,1.1013062,0.4078125,-2.3852785,98.0
35377,-0.35679573,-2.0365155,-0.37725067,1.1013062,0.4078125,-2.3852785,98.0
35378,-0.35679573,-2.0365155,-0.37725067,1.1544068,0.452417,-2.451123,98.0
35379,-0.37370563,-2.935145,-0.5668396,1.1544068,0.452417,-2.451123,98.0
35380,-0.37370563,-2.935145,-0.5668396,1.6631104,0.22939454,-2.3852785,98.0
35381,-0.37162077,-3.4286702,-0.6820361,1.6631104,0.22939454,-2.3852785,98.0
35382,-0.37162077,-3.4286702,-0.6820361,1.7034668,0.10301514,-2.4351928,98.0
35383,-0.19130296,-3.303361,-0.6764028,1.7034668,0.10301514,-2.4351928,98.0
35384,-0.19130296,-3.303361,-0.6764028,1.3965454,0.09239502,-2.4192626,98.0
35385,0.047934204,-2.89701,-0.6508757,1.3965454,0.09239502,-2.4192626,98.0
35386,0.047934204,-2.89701,-0.6508757,1.264856,-0.04991455,-2.3905885,98.0
35387,0.32634786,-2.3222468,-0.81625724,1.264856,-0.04991455,-2.3905885,98.0
35388,0.32634786,-2.3222468,-0.81625724,0.95581055,-0.11044922,-2.3098755,98.0
35389,0.6965519,-2.0124726,-0.86439496,0.95581055,-0.11044922,-2.3098755,98.0
35390,0.6965519,-2.0124726,-0.86439496,0.6403931,-0.078588866,-2.0231323,98.0
35391,0.9339017,-2.3364308,-0.50703114,0.6403931,-0.078588866,-2.0231323,98.0
35392,0.9339017,-2.3364308,-0.50703114,0.7582764,-0.04991455,-1.6397461,98.0
35393,0.86483383,-2.3020303,-0.25541738,0.7582764,-0.04991455,-1.6397461,98.0
35394,0.86483383,-2.3020303,-0.25541738,0.68074954,-0.035046387,-1.2956543,98.0
35395,0.6132904,-1.1906111,-0.6375004,0.68074954,-0.035046387,-1.2956543,98.0
35396,0.6132904,-1.1906111,-0.6375004,0.11682129,0.07434082,-1.1416626,98.0
35397,0.3558057,-0.15408802,-1.0255643,0.11682129,0.07434082,-1.1416626,98.0
35398,0.3558057,-0.15408802,-1.0255643,-0.5671143,0.26975098,-0.9260742,98.0
35399,-0.0030019283,-0.06351709,-0.7364671,-0.5671143,0.26975098,-0.9260742,98.0
35400,-0.0030019283,-0.06351709,-0.7364671,-0.7890747,0.34727785,-0.7455322,98.0
35401,-0.4316374,-0.13891196,-0.20699596,-0.7890747,0.34727785,-0.7455322,98.0
35402,-0.4316374,-0.13891196,-0.20699596,-0.92076415,0.4630371,-0.6223389,98.0
35403,-0.78743637,0.2313509,-3.1358004E-4,-0.92076415,0.4630371,-0.6223389,98.0
35404,-0.78743637,0.2313509,-3.1358004E-4,-0.72960204,0.44498292,-0.5320679,98.0
35405,-0.96657026,0.79379654,-0.0062201023,-0.72960204,0.44498292,-0.5320679,98.0
35406,-0.96657026,0.79379654,-0.0062201023,-0.42055663,0.3802002,-0.47578126,98.0
35407,-1.0339373,1.22753,0.13585645,-0.42055663,0.3802002,-0.47578126,98.0
35408,-1.0339373,1.22753,0.13585645,-0.03717041,0.20284425,-0.50445557,98.0
35409,-1.223561,0.5328907,1.0109068,-0.03717041,0.20284425,-0.50445557,98.0
35410,-1.223561,0.5328907,1.0109068,1.9286133,-0.20603028,-0.17416993,98.0
35411,-0.69757444,0.4437809,1.7928563,1.9286133,-0.20603028,-0.17416993,98.0
35412,-0.69757444,0.4437809,1.7928563,0.9515625,-0.22302246,-0.45560303,98.0
35413,0.17909867,1.7578568,1.1268754,0.9515625,-0.22302246,-0.45560303,98.0
35414,0.17909867,1.7578568,1.1268754,0.121069334,0.081774905,-0.36002198,98.0
35415,0.26234633,2.250939,0.020421237,0.121069334,0.081774905,-0.36002198,98.0
35416,0.26234633,2.250939,0.020421237,-0.2357666,0.124255374,-0.33665773,98.0
35417,0.091932714,1.590839,-0.35017914,-0.2357666,0.124255374,-0.33665773,98.0
35418,0.091932714,1.590839,-0.35017914,-0.542688,0.17735596,-0.28674316,98.0
35419,-0.040247798,0.6014432,-0.23485523,-0.542688,0.17735596,-0.28674316,98.0
35420,-0.040247798,0.6014432,-0.23485523,-0.6552612,0.22514649,-0.34833986,98.0
35421,-0.12730324,-0.0829812,-0.2384213,-0.6552612,0.22514649,-0.34833986,98.0
35422,-0.12730324,-0.0829812,-0.2384213,-0.46728516,0.19116211,-0.29417726,98.0
35423,-0.2213983,-0.336966,-0.4399558,-0.46728516,0.19116211,-0.29417726,98.0
35424,-0.2213983,-0.336966,-0.4399558,-0.0361084,0.045666505,-0.16673584,98.0
35425,-0.21268988,-0.24984625,-0.46812677,-0.0361084,0.045666505,-0.16673584,98.0
35426,-0.21268988,-0.24984625,-0.46812677,0.029736329,0.052038576,-0.15930176,98.0
35427,-0.11612356,-0.19382232,-0.3062397,0.029736329,0.052038576,-0.15930176,98.0
35428,-0.11612356,-0.19382232,-0.3062397,0.12850343,0.023364259,-0.093457036,98.0
35429,0.60302407,0.029524665,0.012649842,0.12850343,0.023364259,-0.093457036,98.0
35430,0.60302407,0.029524665,0.012649842,0.4630371,-0.08283692,-0.028674318,98.0
35431,0.3973851,0.06279209,0.048803955,0.4630371,-0.08283692,-0.028674318,98.0
35432,0.3973851,0.06279209,0.048803955,0.6117188,-0.13912354,-0.043542482,98.0
35433,0.27086216,0.37600273,0.18635762,0.6117188,-0.13912354,-0.043542482,98.0
35434,0.27086216,0.37600273,0.18635762,0.4895874,-0.14018555,-0.015930176,98.0
35435,0.19221464,0.41285053,0.19310465,0.4895874,-0.14018555,-0.015930176,98.0
35436,0.19221464,0.41285053,0.19310465,0.4439209,-0.16992188,0.059472658,98.0
35437,0.121569544,0.450715,0.2018348,0.4439209,-0.16992188,0.059472658,98.0
35438,0.121569544,0.450715,0.2018348,0.40144044,-0.2824951,0.0637207,98.0
35439,0.097402096,0.32293773,0.15606013,0.40144044,-0.2824951,0.0637207,98.0
35440,0.097402096,0.32293773,0.15606013,0.33028564,-0.27612305,0.10407715,98.0
35441,0.17782402,0.4696051,0.11124948,0.33028564,-0.27612305,0.10407715,98.0
35442,0.17782402,0.4696051,0.11124948,0.0180542,-0.20284425,0.07327881,98.0
35443,0.14166108,0.4188115,0.07114069,0.0180542,-0.20284425,0.07327881,98.0
35444,0.14166108,0.4188115,0.07114069,-0.057348635,-0.19116211,0.07327881,98.0
35445,0.13969605,0.05697304,0.040677205,-0.057348635,-0.19116211,0.07327881,98.0
35446,0.13969605,0.05697304,0.040677205,-0.04248047,-0.14549561,0.12531738,98.0
35447,0.11306299,-0.07777363,0.025400653,-0.04248047,-0.14549561,0.12531738,98.0
35448,0.11306299,-0.07777363,0.025400653,-0.0010620117,-0.13275146,0.16992188,98.0
35449,0.18241817,-0.2526608,0.037898645,-0.0010620117,-0.13275146,0.16992188,98.0
35450,0.18241817,-0.2526608,0.037898645,0.10407715,-0.03717041,0.19116211,98.0
35451,0.19559273,-0.27611545,0.059969783,0.10407715,-0.03717041,0.19116211,98.0
35452,0.19559273,-0.27611545,0.059969783,0.16673584,-0.008496094,0.21983643,98.0
35453,0.17350301,-0.22501832,0.06297827,0.16673584,-0.008496094,0.21983643,98.0
35454,0.17350301,-0.22501832,0.06297827,0.29736328,0.26868898,0.2538208,98.0
35455,0.20859,-0.14175785,0.043912888,0.29736328,0.26868898,0.2538208,98.0
35456,0.20859,-0.14175785,0.043912888,0.2814331,0.32922363,0.26019287,98.0
35457,0.46568793,-7.598102E-4,0.20458832,0.2814331,0.32922363,0.26019287,98.0
35458,0.46568793,-7.598102E-4,0.20458832,0.22939454,0.35789797,0.18585205,98.0
35459,0.75105375,-0.02907464,0.52426636,0.22939454,0.35789797,0.18585205,98.0
35460,0.75105375,-0.02907464,0.52426636,0.26762697,0.31223145,0.21452637,98.0
35461,0.75105375,-0.02907464,0.52426636,0.26762697,0.31223145,0.21452637,96.0
35462,0.6519172,0.021149486,0.6170449,0.26762697,0.31223145,0.21452637,96.0
35463,0.6519172,0.021149486,0.6170449,0.090270996,0.46622315,0.18266602,96.0
35464,0.25100154,0.2161017,0.2249226,0.090270996,0.46622315,0.18266602,96.0
35465,0.25100154,0.2161017,0.2249226,-0.0010620117,0.45560303,0.2262085,96.0
35466,-0.12549269,0.39574516,-0.35431486,-0.0010620117,0.45560303,0.2262085,96.0
35467,-0.12549269,0.39574516,-0.35431486,-0.0021240234,0.3993164,0.19541016,96.0
35468,-0.34101915,0.4663642,-0.7005906,-0.0021240234,0.3993164,0.19541016,96.0
35469,-0.34101915,0.4663642,-0.7005906,-0.035046387,0.3058594,0.19434814,96.0
35470,-0.46903116,0.41637748,-0.75341684,-0.035046387,0.3058594,0.19434814,96.0
35471,-0.46903116,0.41637748,-0.75341684,0.0031860352,0.18797608,0.1178833,96.0
35472,-0.50170195,0.38735008,-0.6769156,0.0031860352,0.18797608,0.1178833,96.0
35473,-0.50170195,0.38735008,-0.6769156,-0.081774905,0.08283692,0.052038576,96.0
35474,-0.39990896,0.2993942,-0.518803,-0.081774905,0.08283692,0.052038576,96.0
35475,-0.39990896,0.2993942,-0.518803,-0.1444336,0.03717041,-0.022302246,96.0
35476,-0.2040092,-0.07670778,-0.20677824,-0.1444336,0.03717041,-0.022302246,96.0
35477,-0.2040092,-0.07670778,-0.20677824,-0.0998291,0.03079834,-0.013806152,96.0
35478,0.07589176,-0.5638565,0.1059397,-0.0998291,0.03079834,-0.013806152,96.0
35479,0.07589176,-0.5638565,0.1059397,-0.15611573,0.03717041,-0.014868164,96.0
35480,0.117915556,-0.44897342,0.05394122,-0.15611573,0.03717041,-0.014868164,96.0
35481,0.117915556,-0.44897342,0.05394122,-0.15505372,0.022302246,-0.004248047,96.0
35482,0.14212298,-0.16777253,-0.19581187,-0.15505372,0.022302246,-0.004248047,96.0
35483,0.14212298,-0.16777253,-0.19581187,-0.24638672,0.022302246,-0.043542482,96.0
35484,0.08952847,0.029319584,-0.38383454,-0.24638672,0.022302246,-0.043542482,96.0
35485,0.08952847,0.029319584,-0.38383454,-0.23151855,-0.008496094,-0.03717041,96.0
35486,0.06478684,-0.08191544,-0.34758276,-0.23151855,-0.008496094,-0.03717041,96.0
35487,0.06478684,-0.08191544,-0.34758276,-0.057348635,-0.09451904,-0.009558106,96.0
35488,0.11934656,-0.12373549,-0.2224266,-0.057348635,-0.09451904,-0.009558106,96.0
35489,0.11934656,-0.12373549,-0.2224266,0.03186035,-0.20921631,-0.052038576,96.0
35490,0.22312617,0.17958826,-0.046520352,0.03186035,-0.20921631,-0.052038576,96.0
35491,0.22312617,0.17958826,-0.046520352,-0.07646485,-0.20603028,-0.14337158,96.0
35492,0.28946286,0.3360412,0.28365773,-0.07646485,-0.20603028,-0.14337158,96.0
35493,0.28946286,0.3360412,0.28365773,-0.11469727,-0.16992188,-0.1444336,96.0
35494,0.014919907,0.05501461,0.9849096,-0.11469727,-0.16992188,-0.1444336,96.0
35495,0.014919907,0.05501461,0.9849096,0.21240234,0.16567384,-0.012744141,96.0
35496,0.101950556,-0.3095162,1.9546025,0.21240234,0.16567384,-0.012744141,96.0
35497,0.101950556,-0.3095162,1.9546025,-0.06478272,0.31329346,-0.29736328,96.0
35498,0.42440712,-0.2051813,1.752537,-0.06478272,0.31329346,-0.29736328,96.0
35499,0.42440712,-0.2051813,1.752537,-0.5607422,0.37489015,-0.014868164,96.0
35500,-0.028528512,0.12800586,0.22241539,-0.5607422,0.37489015,-0.014868164,96.0
35501,-0.028528512,0.12800586,0.22241539,-0.52888185,0.27718505,-0.0722168,96.0
35502,-0.4255572,-0.27219248,-0.68533677,-0.52888185,0.27718505,-0.0722168,96.0
35503,-0.4255572,-0.27219248,-0.68533677,-0.16461182,0.16036378,0.047790527,96.0
35504,-0.29227683,-1.0375172,-0.48612344,-0.16461182,0.16036378,0.047790527,96.0
35505,-0.29227683,-1.0375172,-0.48612344,0.4598511,-0.11044922,0.16992188,96.0
35506,0.12707943,-1.1223843,0.0017018318,0.4598511,-0.11044922,0.16992188,96.0
35507,0.12707943,-1.1223843,0.0017018318,0.42055663,-0.2814331,0.2516968,96.0
35508,0.44628024,-0.50718486,0.29484296,0.42055663,-0.2814331,0.2516968,96.0
35509,0.44628024,-0.50718486,0.29484296,-0.5734863,0.36108398,0.4715332,96.0
35510,0.50195825,-0.03705892,0.21601355,-0.5734863,0.36108398,0.4715332,96.0
35511,0.50195825,-0.03705892,0.21601355,-1.1660889,0.45454103,0.68924564,96.0
35512,0.43188888,0.013126299,0.031624317,-1.1660889,0.45454103,0.68924564,96.0
35513,0.43188888,0.013126299,0.031624317,-1.7703736,0.6956177,0.811377,96.0
35514,0.20276213,0.06846003,0.11211586,-1.7703736,0.6956177,0.811377,96.0
35515,0.20276213,0.06846003,0.11211586,-2.622107,0.9281983,0.94731444,96.0
35516,0.057070553,0.2810986,0.3195389,-2.622107,0.9281983,0.94731444,96.0
35517,0.057070553,0.2810986,0.3195389,-3.4536622,1.1448487,1.0078491,96.0
35518,0.04847628,0.41529638,0.2647254,-3.4536622,1.1448487,1.0078491,96.0
35519,0.04847628,0.41529638,0.2647254,-4.448767,1.357251,1.0662597,96.0
35520,-0.0843513,0.32158035,-0.31251168,-4.448767,1.357251,1.0662597,96.0
35521,-0.0843513,0.32158035,-0.31251168,-5.1518188,1.1915772,1.2053833,96.0
35522,-0.5021124,0.22768666,-0.90630823,-5.1518188,1.1915772,1.2053833,96.0
35523,-0.5021124,0.22768666,-0.90630823,-5.977002,0.90802,1.1395386,96.0
35524,-0.92837447,0.5258139,-1.0086403,-5.977002,0.90802,1.1395386,96.0
35525,-0.92837447,0.5258139,-1.0086403,-6.806433,0.36639404,1.0768799,96.0
35526,-1.0737543,0.90557545,-0.98688054,-6.806433,0.36639404,1.0768799,96.0
35527,-1.0737543,0.90557545,-0.98688054,-7.1940675,-0.08496094,0.8581055,96.0
35528,-0.93529737,0.80451405,-0.7543482,-7.1940675,-0.08496094,0.8581055,96.0
35529,-0.93529737,0.80451405,-0.7543482,-6.7650146,-0.52038574,0.82836914,96.0
35530,-0.66371644,0.7906083,-0.20696978,-6.7650146,-0.52038574,0.82836914,96.0
35531,-0.66371644,0.7906083,-0.20696978,-7.0167117,-0.74659425,0.7519043,96.0
35532,-0.31706935,0.60474014,-0.056847796,-7.0167117,-0.74659425,0.7519043,96.0
35533,-0.31706935,0.60474014,-0.056847796,-6.594031,-0.88996583,0.5097656,96.0
35534,-0.006231159,-0.6559662,0.18243925,-6.594031,-0.88996583,0.5097656,96.0
35535,-0.006231159,-0.6559662,0.18243925,-4.790735,-1.0577637,0.3462158,96.0
35536,0.31925824,-1.6246753,1.1905315,-4.790735,-1.0577637,0.3462158,96.0
35537,0.31925824,-1.6246753,1.1905315,-3.6894288,-1.0970582,0.36639404,96.0
35538,0.74593395,-1.1531949,2.0675864,-3.6894288,-1.0970582,0.36639404,96.0
35539,0.74593395,-1.1531949,2.0675864,-3.906079,-0.78164065,0.24957275,96.0
35540,1.0084659,-0.45164526,1.9895062,-3.906079,-0.78164065,0.24957275,96.0
35541,1.0084659,-0.45164526,1.9895062,-3.8561647,-0.5894165,0.1985962,96.0
35542,0.87065214,-0.35534698,1.1027256,-3.8561647,-0.5894165,0.1985962,96.0
35543,0.87065214,-0.35534698,1.1027256,-3.0277956,-0.5809204,-0.022302246,96.0
35544,0.58093333,-0.520032,0.045925617,-3.0277956,-0.5809204,-0.022302246,96.0
35545,0.58093333,-0.520032,0.045925617,-1.9572877,-0.74022216,-0.31860352,96.0
35546,0.657691,-0.6570046,-0.52442896,-1.9572877,-0.74022216,-0.31860352,96.0
35547,0.657691,-0.6570046,-0.52442896,-0.18797608,-0.80181885,-0.58198243,96.0
35548,1.1953301,-0.72173405,-0.19897437,-0.18797608,-0.80181885,-0.58198243,96.0
35549,1.1953301,-0.72173405,-0.19897437,1.6153198,-0.7805786,-0.4970215,96.0
35550,1.6947529,-0.6099068,0.7975954,1.6153198,-0.7805786,-0.4970215,96.0
35551,1.6947529,-0.6099068,0.7975954,0.16992188,-0.37489015,-0.24001466,96.0
35552,1.1717448,-0.5416364,0.802969,0.16992188,-0.37489015,-0.24001466,96.0
35553,1.1717448,-0.5416364,0.802969,0.77951664,-0.3536499,-0.15611573,96.0
35554,-0.24710119,-0.06601179,-0.35995638,0.77951664,-0.3536499,-0.15611573,96.0
35555,-0.24710119,-0.06601179,-0.35995638,1.6046997,-0.54587406,-0.31010744,96.0
35556,-1.2004641,0.8631574,-1.2076428,1.6046997,-0.54587406,-0.31010744,96.0
35557,-1.2004641,0.8631574,-1.2076428,0.36108398,-0.51932377,-0.3812622,96.0
35558,-1.4037063,0.581334,-0.96131694,0.36108398,-0.51932377,-0.3812622,96.0
35559,-1.4037063,0.581334,-0.96131694,-0.26444092,-0.28461915,-0.18479005,96.0
35560,-1.2423253,-0.416903,0.19850016,-0.26444092,-0.28461915,-0.18479005,96.0
35561,-1.2423253,-0.416903,0.19850016,-0.17735596,-0.22408448,-0.13168946,96.0
35562,-1.2423253,-0.416903,0.19850016,-0.17735596,-0.22408448,-0.13168946,93.0
35563,-0.9212651,-0.6688984,1.1211536,-0.17735596,-0.22408448,-0.13168946,93.0
35564,-0.9212651,-0.6688984,1.1211536,-0.5320679,-0.052038576,0.070092775,93.0
35565,-0.62115514,-0.116454124,0.9523916,-0.5320679,-0.052038576,0.070092775,93.0
35566,-0.62115514,-0.116454124,0.9523916,-0.5161377,-0.0361084,0.009558106,93.0
35567,-0.33563262,0.5353768,0.17744064,-0.5161377,-0.0361084,0.009558106,93.0
35568,-0.33563262,0.5353768,0.17744064,-0.8028809,-0.083898924,-0.10195313,93.0
35569,-0.09097925,0.28888494,-0.7286408,-0.8028809,-0.083898924,-0.10195313,93.0
35570,-0.09097925,0.28888494,-0.7286408,0.059472658,-0.30161133,-0.23682861,93.0
35571,0.20164287,0.052885294,-0.8089746,0.059472658,-0.30161133,-0.23682861,93.0
35572,0.20164287,0.052885294,-0.8089746,0.27506104,-0.34090576,-0.3355957,93.0
35573,0.397264,0.5494493,0.015222549,0.27506104,-0.34090576,-0.3355957,93.0
35574,0.397264,0.5494493,0.015222549,-0.32709962,-0.26762697,-0.39082032,93.0
35575,0.17476922,0.4717128,0.62454367,-0.32709962,-0.26762697,-0.39082032,93.0
35576,0.17476922,0.4717128,0.62454367,-0.5564942,-0.124255374,-0.34727785,93.0
35577,-0.30548492,-0.45986122,0.38739133,-0.5564942,-0.124255374,-0.34727785,93.0
35578,-0.30548492,-0.45986122,0.38739133,-0.40037844,-0.025488282,-0.12319336,93.0
35579,-0.39098218,-1.0407649,-0.40366113,-0.40037844,-0.025488282,-0.12319336,93.0
35580,-0.39098218,-1.0407649,-0.40366113,0.26019287,-0.0063720704,0.0361084,93.0
35581,0.12803456,-0.539399,-0.7662151,0.26019287,-0.0063720704,0.0361084,93.0
35582,0.12803456,-0.539399,-0.7662151,0.20072022,0.023364259,0.050976563,93.0
35583,0.67516935,0.492199,-0.4960165,0.20072022,0.023364259,0.050976563,93.0
35584,0.67516935,0.492199,-0.4960165,-0.41524658,0.05628662,0.06584473,93.0
35585,0.8128406,1.0806855,-0.34406662,-0.41524658,0.05628662,0.06584473,93.0
35586,0.8128406,1.0806855,-0.34406662,-0.5246338,0.009558106,-0.0998291,93.0
35587,0.7730386,0.9865943,-0.5527557,-0.5246338,0.009558106,-0.0998291,93.0
35588,0.7730386,0.9865943,-0.5527557,-0.18372802,-0.14230958,-0.22514649,93.0
35589,0.6869856,0.3532281,-0.50814694,-0.18372802,-0.14230958,-0.22514649,93.0
35590,0.6869856,0.3532281,-0.50814694,-0.38232422,-0.16354981,-0.21877442,93.0
35591,0.30763292,-0.7028057,-0.10331929,-0.38232422,-0.16354981,-0.21877442,93.0
35592,0.30763292,-0.7028057,-0.10331929,-0.3334717,-0.0637207,0.03186035,93.0
35593,-0.3178829,-1.1080332,0.03503251,-0.3334717,-0.0637207,0.03186035,93.0
35594,-0.3178829,-1.1080332,0.03503251,0.1274414,-0.08602295,0.06796875,93.0
35595,-0.6797824,-0.32329178,-0.047547698,0.1274414,-0.08602295,0.06796875,93.0
35596,-0.6797824,-0.32329178,-0.047547698,0.1274414,-0.13806152,-0.04141846,93.0
35597,-0.38281518,0.23399353,0.020970643,0.1274414,-0.13806152,-0.04141846,93.0
35598,-0.38281518,0.23399353,0.020970643,0.55968016,-0.29311523,-0.2081543,93.0
35599,0.24214876,-0.39307863,-0.040694237,0.55968016,-0.29311523,-0.2081543,93.0
35600,0.24214876,-0.39307863,-0.040694237,1.2000732,-0.33134767,-0.023364259,93.0
35601,0.6726985,-1.0139014,-0.67026293,1.2000732,-0.33134767,-0.023364259,93.0
35602,0.6726985,-1.0139014,-0.67026293,3.071338,-0.44923097,-0.046728518,93.0
35603,0.7473141,-0.5863408,-1.186186,3.071338,-0.44923097,-0.046728518,93.0
35604,0.7473141,-0.5863408,-1.186186,4.0356445,-0.41206056,-0.1178833,93.0
35605,0.61292696,0.22230923,-0.86922467,4.0356445,-0.41206056,-0.1178833,93.0
35606,0.61292696,0.22230923,-0.86922467,3.538623,-0.24744873,0.12213135,93.0
35607,0.34445536,0.4353547,-0.4291688,3.538623,-0.24744873,0.12213135,93.0
35608,0.34445536,0.4353547,-0.4291688,3.9485595,-0.21452637,0.05628662,93.0
35609,-0.03285861,0.42960703,0.0640136,3.9485595,-0.21452637,0.05628662,93.0
35610,-0.03285861,0.42960703,0.0640136,4.1237917,-0.11151123,0.03079834,93.0
35611,-0.34723413,0.8280119,0.6459863,4.1237917,-0.11151123,0.03079834,93.0
35612,-0.34723413,0.8280119,0.6459863,3.5864136,0.2177124,0.070092775,93.0
35613,-0.7636516,0.9520701,0.91483593,3.5864136,0.2177124,0.070092775,93.0
35614,-0.7636516,0.9520701,0.91483593,3.2348878,0.40144044,0.11151123,93.0
35615,-1.4784751,0.50626063,0.8549034,3.2348878,0.40144044,0.11151123,93.0
35616,-1.4784751,0.50626063,0.8549034,3.2858644,0.30161133,0.11044922,93.0
35617,-2.0107465,0.19953974,0.7034784,3.2858644,0.30161133,0.11044922,93.0
35618,-2.0107465,0.19953974,0.7034784,3.079834,0.20709229,0.0637207,93.0
35619,-2.0154088,0.397852,0.68750197,3.079834,0.20709229,0.0637207,93.0
35620,-2.0154088,0.397852,0.68750197,2.5541382,0.1178833,0.08602295,93.0
35621,-1.6451516,0.91221476,0.7532487,2.5541382,0.1178833,0.08602295,93.0
35622,-1.6451516,0.91221476,0.7532487,1.4846925,0.16036378,0.07752686,93.0
35623,-1.0134846,1.3685658,0.6378772,1.4846925,0.16036378,0.07752686,93.0
35624,-1.0134846,1.3685658,0.6378772,0.56392825,0.3058594,-0.03079834,93.0
35625,-0.25151038,1.2393839,0.44059968,0.56392825,0.3058594,-0.03079834,93.0
35626,-0.25151038,1.2393839,0.44059968,-0.1709839,0.4163086,-0.04141846,93.0
35627,0.3365969,0.2621492,0.40666676,-0.1709839,0.4163086,-0.04141846,93.0
35628,0.3365969,0.2621492,0.40666676,-0.050976563,0.4248047,0.010620117,93.0
35629,0.5869411,-0.6113011,0.31478643,-0.050976563,0.4248047,0.010620117,93.0
35630,0.5869411,-0.6113011,0.31478643,0.4322388,0.50445557,-0.07646485,93.0
35631,0.77256805,-0.30298138,0.13090622,0.4322388,0.50445557,-0.07646485,93.0
35632,0.77256805,-0.30298138,0.13090622,0.18160401,0.76677245,-0.2177124,93.0
35633,0.9022585,0.3616554,0.12533045,0.18160401,0.76677245,-0.2177124,93.0
35634,0.9022585,0.3616554,0.12533045,-0.32709962,0.9505005,-0.3419678,93.0
35635,0.87955827,0.28855532,0.18069649,-0.32709962,0.9505005,-0.3419678,93.0
35636,0.87955827,0.28855532,0.18069649,-0.7943848,1.1597168,-0.29417726,93.0
35637,0.8873625,-0.6042144,0.2133683,-0.7943848,1.1597168,-0.29417726,93.0
35638,0.8873625,-0.6042144,0.2133683,-0.54375,1.3041505,-0.35046387,93.0
35639,0.903701,-1.6562841,0.22724986,-0.54375,1.3041505,-0.35046387,93.0
35640,0.903701,-1.6562841,0.22724986,0.06265869,1.26698,-0.090270996,93.0
35641,0.81057066,-1.9752593,-0.27402282,0.06265869,1.26698,-0.090270996,93.0
35642,0.81057066,-1.9752593,-0.27402282,1.2627319,1.0375855,0.023364259,93.0
35643,0.682563,-1.5701611,-0.99047077,1.2627319,1.0375855,0.023364259,93.0
35644,0.682563,-1.5701611,-0.99047077,2.1548219,0.90802,0.1709839,93.0
35645,0.4968561,-0.77346283,-1.1200255,2.1548219,0.90802,0.1709839,93.0
35646,0.4968561,-0.77346283,-1.1200255,2.8207033,0.62764895,0.004248047,93.0
35647,0.28167677,0.5012981,-0.7937865,2.8207033,0.62764895,0.004248047,93.0
35648,0.28167677,0.5012981,-0.7937865,2.9587648,0.46834716,-0.20284425,93.0
35649,0.14813197,1.6206064,-0.80103266,2.9587648,0.46834716,-0.20284425,93.0
35650,0.14813197,1.6206064,-0.80103266,2.8015869,0.3355957,-0.29099122,93.0
35651,0.012536347,1.81576,-1.0232847,2.8015869,0.3355957,-0.29099122,93.0
35652,0.012536347,1.81576,-1.0232847,2.9959352,0.11363526,-0.4991455,93.0
35653,-0.070818126,1.6659992,-0.90815413,2.9959352,0.11363526,-0.4991455,93.0
35654,-0.070818126,1.6659992,-0.90815413,2.992749,-0.1263794,-0.87191164,93.0
35655,0.12328935,1.6310537,-0.67504627,2.992749,-0.1263794,-0.87191164,93.0
35656,0.12328935,1.6310537,-0.67504627,2.7622926,-0.24851075,-1.1225464,93.0
35657,0.38264024,1.2956998,-0.63692427,2.7622926,-0.24851075,-1.1225464,93.0
35658,0.38264024,1.2956998,-0.63692427,2.6497192,-0.3695801,-1.2436157,93.0
35659,0.38264024,1.2956998,-0.63692427,2.6497192,-0.3695801,-1.2436157,89.0
35660,0.3246913,0.44230938,-0.8148372,2.6497192,-0.3695801,-1.2436157,89.0
35661,0.3246913,0.44230938,-0.8148372,2.7718506,-0.6510132,-1.2914063,89.0
35662,-0.07717323,-0.42094493,-0.91325897,2.7718506,-0.6510132,-1.2914063,89.0
35663,-0.07717323,-0.42094493,-0.91325897,2.7304323,-0.8527954,-1.4167236,89.0
35664,-0.51374054,-0.93474174,-0.59174,2.7304323,-0.8527954,-1.4167236,89.0
35665,-0.51374054,-0.93474174,-0.59174,2.4638672,-0.82836914,-1.4018555,89.0
35666,-0.84003294,-1.312747,-0.08038664,2.4638672,-0.82836914,-1.4018555,89.0
35667,-0.84003294,-1.312747,-0.08038664,2.2918212,-0.87615967,-1.3307008,89.0
35668,-1.0065234,-1.547854,0.21857643,2.2918212,-0.87615967,-1.3307008,89.0
35669,-1.0065234,-1.547854,0.21857643,1.7480713,-0.74871826,-1.2128174,89.0
35670,-0.9509341,-1.7460346,0.22276151,1.7480713,-0.74871826,-1.2128174,89.0
35671,-0.9509341,-1.7460346,0.22276151,1.351941,-0.71154785,-1.0131592,89.0
35672,-0.78309834,-1.7291031,0.00615108,1.351941,-0.71154785,-1.0131592,89.0
35673,-0.78309834,-1.7291031,0.00615108,1.1894531,-0.7890747,-0.8071289,89.0
35674,-0.5178117,-1.1094422,-0.3984605,1.1894531,-0.7890747,-0.8071289,89.0
35675,-0.5178117,-1.1094422,-0.3984605,1.0524536,-0.8708496,-0.6244629,89.0
35676,-0.21156381,-0.34523195,-0.5658387,1.0524536,-0.8708496,-0.6244629,89.0
35677,-0.21156381,-0.34523195,-0.5658387,0.9451904,-0.89846194,-0.40144044,89.0
35678,5.4875016E-4,-0.06517482,-0.17735356,0.9451904,-0.89846194,-0.40144044,89.0
35679,5.4875016E-4,-0.06517482,-0.17735356,1.0004151,-0.95368654,-0.19328614,89.0
35680,0.12678178,0.0048913956,0.35220897,1.0004151,-0.95368654,-0.19328614,89.0
35681,0.12678178,0.0048913956,0.35220897,0.8931519,-0.91120607,-0.098767094,89.0
35682,0.23604456,0.31266558,0.6504073,0.8931519,-0.91120607,-0.098767094,89.0
35683,0.23604456,0.31266558,0.6504073,0.6510132,-0.8007569,-0.06903076,89.0
35684,0.34877217,0.69833803,0.7175915,0.6510132,-0.8007569,-0.06903076,89.0
35685,0.34877217,0.69833803,0.7175915,0.49064943,-0.6786255,-0.046728518,89.0
35686,0.5004655,0.8661289,0.6940439,0.49064943,-0.6786255,-0.046728518,89.0
35687,0.5004655,0.8661289,0.6940439,0.3058594,-0.540564,-0.0180542,89.0
35688,0.6744325,0.796199,0.6309065,0.3058594,-0.540564,-0.0180542,89.0
35689,0.6744325,0.796199,0.6309065,0.16673584,-0.3971924,-0.020178223,89.0
35690,0.73211193,0.65434206,0.4996471,0.16673584,-0.3971924,-0.020178223,89.0
35691,0.73211193,0.65434206,0.4996471,0.025488282,-0.26337892,-0.0541626,89.0
35692,0.56731796,0.4930171,0.38311613,0.025488282,-0.26337892,-0.0541626,89.0
35693,0.56731796,0.4930171,0.38311613,-0.023364259,-0.1731079,-0.06265869,89.0
35694,0.25804138,0.37452844,0.28524047,-0.023364259,-0.1731079,-0.06265869,89.0
35695,0.25804138,0.37452844,0.28524047,0.0010620117,-0.15823975,-0.08602295,89.0
35696,0.022106886,0.37266964,0.13707909,0.0010620117,-0.15823975,-0.08602295,89.0
35697,0.022106886,0.37266964,0.13707909,-0.12213135,-0.09451904,-0.1083252,89.0
35698,-0.11122078,0.37895846,-0.018083304,-0.12213135,-0.09451904,-0.1083252,89.0
35699,-0.11122078,0.37895846,-0.018083304,-0.11151123,-0.087084964,-0.13168946,89.0
35700,-0.2084468,0.35793972,-0.084815755,-0.11151123,-0.087084964,-0.13168946,89.0
35701,-0.2084468,0.35793972,-0.084815755,-0.1274414,-0.08814698,-0.16992188,89.0
35702,-0.27068812,0.27204514,-0.08075544,-0.1274414,-0.08814698,-0.16992188,89.0
35703,-0.27068812,0.27204514,-0.08075544,-0.20603028,-0.07965088,-0.19328614,89.0
35704,-0.44424826,0.070382714,0.17587417,-0.20603028,-0.07965088,-0.19328614,89.0
35705,-0.44424826,0.070382714,0.17587417,-0.118945315,0.03186035,-0.24107666,89.0
35706,-0.32728583,-0.85739017,1.3838878,-0.118945315,0.03186035,-0.24107666,89.0
35707,-0.32728583,-0.85739017,1.3838878,-0.25594482,0.42905274,-0.027612304,89.0
35708,-0.063830614,-1.1649405,1.6260312,-0.25594482,0.42905274,-0.027612304,89.0
35709,-0.063830614,-1.1649405,1.6260312,-0.4598511,0.2262085,0.07327881,89.0
35710,-0.112258345,-0.009711146,-0.16351837,-0.4598511,0.2262085,0.07327881,89.0
35711,-0.112258345,-0.009711146,-0.16351837,-0.26550293,0.19753419,-0.1083252,89.0
35712,-0.12584183,0.78057337,-1.326469,-0.26550293,0.19753419,-0.1083252,89.0
35713,-0.12584183,0.78057337,-1.326469,-0.09664307,0.18054199,-0.070092775,89.0
35714,0.07916054,0.5967121,-0.9240171,-0.09664307,0.18054199,-0.070092775,89.0
35715,0.07916054,0.5967121,-0.9240171,-0.0637207,0.30161133,-0.06478272,89.0
35716,0.20261067,0.2085709,-0.13473365,-0.0637207,0.30161133,-0.06478272,89.0
35717,0.20261067,0.2085709,-0.13473365,-0.25063476,0.37807617,-0.04991455,89.0
35718,0.07596794,-0.113636464,0.104298025,-0.25063476,0.37807617,-0.04991455,89.0
35719,0.07596794,-0.113636464,0.104298025,-0.12319336,0.3164795,-0.0180542,89.0
35720,-0.07261187,-0.17667577,-0.008700252,-0.12319336,0.3164795,-0.0180542,89.0
35721,-0.07261187,-0.17667577,-0.008700252,0.05522461,0.3058594,-0.11044922,89.0
35722,-0.036397606,0.4525559,0.011338145,0.05522461,0.3058594,-0.11044922,89.0
35723,-0.036397606,0.4525559,0.011338145,-0.41099855,0.4991455,-0.29205322,89.0
35724,0.017598212,0.82214,0.09511787,-0.41099855,0.4991455,-0.29205322,89.0
35725,0.017598212,0.82214,0.09511787,-0.5522461,0.42692873,-0.33134767,89.0
35726,-0.14566264,0.49690878,-0.055436462,-0.5522461,0.42692873,-0.33134767,89.0
35727,-0.14566264,0.49690878,-0.055436462,-0.2177124,0.16779785,-0.39294434,89.0
35728,-0.35083187,0.124272645,-0.26096293,-0.2177124,0.16779785,-0.39294434,89.0
35729,-0.35083187,0.124272645,-0.26096293,-0.4800293,0.23045655,-0.29523927,89.0
35730,-0.3624404,-0.51260585,-0.25614586,-0.4800293,0.23045655,-0.29523927,89.0
35731,-0.3624404,-0.51260585,-0.25614586,-0.33984375,0.12956543,-0.12956543,89.0
35732,-0.23227412,-1.2563493,-0.25040007,-0.33984375,0.12956543,-0.12956543,89.0
35733,-0.23227412,-1.2563493,-0.25040007,0.24638672,-0.118945315,0.08920898,89.0
35734,-0.2502114,-1.1910658,-0.43017846,0.24638672,-0.118945315,0.08920898,89.0
35735,-0.2502114,-1.1910658,-0.43017846,0.69349366,-0.29523927,0.11469727,89.0
35736,-0.27280095,-0.412777,-0.40617892,0.69349366,-0.29523927,0.11469727,89.0
35737,-0.27280095,-0.412777,-0.40617892,0.81031495,-0.29948732,0.027612304,89.0
35738,-0.024588406,0.3237701,-0.013456315,0.81031495,-0.29948732,0.027612304,89.0
35739,-0.024588406,0.3237701,-0.013456315,0.6531372,-0.2548828,-0.032922365,89.0
35740,0.28240448,0.81725585,0.30874178,0.6531372,-0.2548828,-0.032922365,89.0
35741,0.28240448,0.81725585,0.30874178,0.2888672,-0.11044922,-0.06584473,89.0
35742,0.39408764,0.8762412,0.30849245,0.2888672,-0.11044922,-0.06584473,89.0
35743,0.39408764,0.8762412,0.30849245,-0.0031860352,0.020178223,-0.070092775,89.0
35744,0.33651036,0.4848919,0.2017256,-0.0031860352,0.020178223,-0.070092775,89.0
35745,0.33651036,0.4848919,0.2017256,-0.14868164,0.10407715,-0.06903076,89.0
35746,0.19052176,0.07033539,0.0846715,-0.14868164,0.10407715,-0.06903076,89.0
35747,0.19052176,0.07033539,0.0846715,-0.22302246,0.13912354,-0.05522461,89.0
35748,0.027881265,-0.15475464,-0.04868126,-0.22302246,0.13912354,-0.05522461,89.0
35749,0.027881265,-0.15475464,-0.04868126,-0.16461182,0.11682129,-0.03079834,89.0
35750,-0.10420865,-0.25933838,-0.13342744,-0.16461182,0.11682129,-0.03079834,89.0
35751,-0.10420865,-0.25933838,-0.13342744,-0.019116212,0.06159668,-0.008496094,89.0
35752,-0.15608421,-0.24567872,-0.1213904,-0.019116212,0.06159668,-0.008496094,89.0
35753,-0.15608421,-0.24567872,-0.1213904,0.09239502,0.014868164,-0.011682129,89.0
35754,-0.118434265,-0.13591066,-0.039434105,0.09239502,0.014868164,-0.011682129,89.0
35755,-0.118434265,-0.13591066,-0.039434105,0.1359375,-0.019116212,-0.0180542,89.0
35756,-0.07780405,-0.30374807,-0.09850285,0.1359375,-0.019116212,-0.0180542,89.0
35757,-0.07780405,-0.30374807,-0.09850285,0.17841797,-0.047790527,-0.012744141,89.0
35758,-0.044359945,-0.16863322,-0.09379251,0.17841797,-0.047790527,-0.012744141,89.0
35759,-0.044359945,-0.16863322,-0.09379251,0.18054199,-0.06584473,-0.013806152,89.0
35760,-0.020741865,-0.12222347,-0.075436845,0.18054199,-0.06584473,-0.013806152,89.0
35761,-0.020741865,-0.12222347,-0.075436845,0.18266602,-0.09133301,0.0,89.0
35762,-0.009684309,-0.120605916,-0.046543323,0.18266602,-0.09133301,0.0,89.0
35763,-0.009684309,-0.120605916,-0.046543323,0.18160401,-0.11044922,-0.019116212,89.0
35764,0.016239367,-0.028931022,-7.478446E-4,0.18160401,-0.11044922,-0.019116212,89.0
35765,0.016239367,-0.028931022,-7.478446E-4,0.08920898,-0.07540283,-0.04141846,89.0
35766,0.06468827,0.050097376,0.025671259,0.08920898,-0.07540283,-0.04141846,89.0
35767,0.06468827,0.050097376,0.025671259,-0.008496094,-0.038232423,-0.04141846,89.0
35768,0.06547132,-0.0061013103,-0.026081644,-0.008496094,-0.038232423,-0.04141846,89.0
35769,0.06547132,-0.0061013103,-0.026081644,0.016992187,-0.032922365,-0.03717041,89.0
35770,0.022762805,-0.11657539,-0.0680577,0.016992187,-0.032922365,-0.03717041,89.0
35771,0.022762805,-0.11657539,-0.0680577,0.058410645,-0.022302246,-0.02442627,89.0
35772,0.022762805,-0.11657539,-0.0680577,0.058410645,-0.022302246,-0.02442627,88.0
35773,-0.019460648,-0.095958054,-0.026443232,0.058410645,-0.022302246,-0.02442627,88.0
35774,-0.019460648,-0.095958054,-0.026443232,0.0021240234,-0.0021240234,-0.038232423,88.0
35775,-0.03979948,-0.10347542,-0.0022581033,0.0021240234,-0.0021240234,-0.038232423,88.0
35776,-0.03979948,-0.10347542,-0.0022581033,0.0021240234,-0.020178223,0.0021240234,88.0
35777,-0.062137432,-0.14586627,-0.052526698,0.0021240234,-0.020178223,0.0021240234,88.0
35778,-0.062137432,-0.14586627,-0.052526698,0.14549561,-0.07646485,-0.04460449,88.0
35779,-0.04336229,-0.017034814,-0.03387927,0.14549561,-0.07646485,-0.04460449,88.0
35780,-0.04336229,-0.017034814,-0.03387927,0.014868164,-0.016992187,-0.038232423,88.0
35781,0.01812999,0.014399484,0.035103615,0.014868164,-0.016992187,-0.038232423,88.0
35782,0.01812999,0.014399484,0.035103615,0.035046387,-0.02442627,-0.03186035,88.0
35783,0.043385826,-0.036905706,0.028656624,0.035046387,-0.02442627,-0.03186035,88.0
35784,0.043385826,-0.036905706,0.028656624,0.04991455,0.0,-0.020178223,88.0
35785,0.020975754,0.03141293,-0.010497551,0.04991455,0.0,-0.020178223,88.0
35786,0.020975754,0.03141293,-0.010497551,0.014868164,-0.0010620117,-0.03079834,88.0
35787,0.009566247,0.098921865,-0.023327239,0.014868164,-0.0010620117,-0.03079834,88.0
35788,0.009566247,0.098921865,-0.023327239,-0.04991455,0.019116212,-0.020178223,88.0
35789,0.021007486,0.015001744,0.00394563,-0.04991455,0.019116212,-0.020178223,88.0
35790,0.021007486,0.015001744,0.00394563,-0.010620117,0.025488282,-0.022302246,88.0
35791,0.0373016,-0.056260318,0.04774879,-0.010620117,0.025488282,-0.022302246,88.0
35792,0.0373016,-0.056260318,0.04774879,-0.08071289,0.053100586,-0.012744141,88.0
35793,-0.0039844066,-0.04908541,0.014505185,-0.08071289,0.053100586,-0.012744141,88.0
35794,-0.0039844066,-0.04908541,0.014505185,-0.06478272,0.03717041,-0.014868164,88.0
35795,-0.054273956,-0.083177015,-0.06492174,-0.06478272,0.03717041,-0.014868164,88.0
35796,-0.054273956,-0.083177015,-0.06492174,0.012744141,0.015930176,-0.020178223,88.0
35797,-0.046666235,-0.117908806,-0.06589003,0.012744141,0.015930176,-0.020178223,88.0
35798,-0.046666235,-0.117908806,-0.06589003,0.058410645,0.0010620117,-0.013806152,88.0
35799,-0.018399887,-0.058804587,-0.013551864,0.058410645,0.0010620117,-0.013806152,88.0
35800,-0.018399887,-0.058804587,-0.013551864,0.05628662,0.0,-0.015930176,88.0
35801,0.0011248142,0.05072245,0.018333314,0.05628662,0.0,-0.015930176,88.0
35802,0.0011248142,0.05072245,0.018333314,0.010620117,0.012744141,-0.019116212,88.0
35803,0.013924748,0.08531673,0.026165675,0.010620117,0.012744141,-0.019116212,88.0
35804,0.013924748,0.08531673,0.026165675,-0.025488282,0.0180542,-0.020178223,88.0
35805,0.007941559,0.02023092,0.012851484,-0.025488282,0.0180542,-0.020178223,88.0
35806,0.007941559,0.02023092,0.012851484,-0.010620117,0.010620117,-0.012744141,88.0
35807,-0.013800561,-0.05937679,-0.02242145,-0.010620117,0.010620117,-0.012744141,88.0
35808,-0.013800561,-0.05937679,-0.02242145,0.03717041,0.0010620117,-0.007434082,88.0
35809,-0.03447795,-0.073661104,-0.032524563,0.03717041,0.0010620117,-0.007434082,88.0
35810,-0.03447795,-0.073661104,-0.032524563,0.059472658,-0.0063720704,-0.010620117,88.0
35811,-0.024091154,-0.0118341595,-0.0010928921,0.059472658,-0.0063720704,-0.010620117,88.0
35812,-0.024091154,-0.0118341595,-0.0010928921,0.019116212,-0.0010620117,-0.019116212,88.0
35813,-0.0012675524,0.0593071,0.014128128,0.019116212,-0.0010620117,-0.019116212,88.0
35814,-0.0012675524,0.0593071,0.014128128,-0.021240234,0.007434082,-0.025488282,88.0
35815,0.011168577,0.06844178,0.0043078735,-0.021240234,0.007434082,-0.025488282,88.0
35816,0.011168577,0.06844178,0.0043078735,-0.04141846,0.012744141,-0.023364259,88.0
35817,0.0024651363,0.02895996,-0.014082999,-0.04141846,0.012744141,-0.023364259,88.0
35818,0.0024651363,0.02895996,-0.014082999,-0.0637207,0.019116212,-0.026550293,88.0
35819,-0.0167901,-0.04510595,-0.018651653,-0.0637207,0.019116212,-0.026550293,88.0
35820,-0.0167901,-0.04510595,-0.018651653,-0.013806152,0.0063720704,-0.019116212,88.0
35821,-0.03809028,-0.11790849,-0.012907163,-0.013806152,0.0063720704,-0.019116212,88.0
35822,-0.03809028,-0.11790849,-0.012907163,0.03186035,-0.020178223,-0.015930176,88.0
35823,-0.08137555,-0.0879059,-0.007994188,0.03186035,-0.020178223,-0.015930176,88.0
35824,-0.08137555,-0.0879059,-0.007994188,0.0541626,-0.10301514,-0.016992187,88.0
35825,-0.08129917,0.054541007,0.011439122,0.0541626,-0.10301514,-0.016992187,88.0
35826,-0.08129917,0.054541007,0.011439122,0.004248047,-0.11257324,-0.0063720704,88.0
35827,-0.001953397,0.17021972,0.051241145,0.004248047,-0.11257324,-0.0063720704,88.0
35828,-0.001953397,0.17021972,0.051241145,-0.10301514,-0.05522461,-0.012744141,88.0
35829,0.072814725,0.115277335,0.057631098,-0.10301514,-0.05522461,-0.012744141,88.0
35830,0.072814725,0.115277335,0.057631098,-0.11682129,-0.03079834,-0.0063720704,88.0
35831,0.06605207,0.026303902,0.022472069,-0.11682129,-0.03079834,-0.0063720704,88.0
35832,0.06605207,0.026303902,0.022472069,-0.15611573,-0.012744141,-0.011682129,88.0
35833,0.012350932,-0.057240576,0.008566037,-0.15611573,-0.012744141,-0.011682129,88.0
35834,0.012350932,-0.057240576,0.008566037,-0.1731079,0.0063720704,-0.035046387,88.0
35835,-0.007343374,-0.15466698,-0.011616409,-0.1731079,0.0063720704,-0.035046387,88.0
35836,-0.007343374,-0.15466698,-0.011616409,-0.11257324,-0.0010620117,-0.040356446,88.0
35837,0.009591609,-0.1992951,-0.041251138,-0.11257324,-0.0010620117,-0.040356446,88.0
35838,0.009591609,-0.1992951,-0.041251138,-0.04460449,0.016992187,-0.04248047,88.0
35839,0.019465283,-0.1683228,-0.080339774,-0.04460449,0.016992187,-0.04248047,88.0
35840,0.019465283,-0.1683228,-0.080339774,0.0541626,0.0063720704,-0.03079834,88.0
35841,-0.008390181,-0.09801273,-0.08352231,0.0541626,0.0063720704,-0.03079834,88.0
35842,-0.008390181,-0.09801273,-0.08352231,0.093457036,-0.009558106,-0.026550293,88.0
35843,-0.03958568,0.020747527,-0.014278786,0.093457036,-0.009558106,-0.026550293,88.0
35844,-0.03958568,0.020747527,-0.014278786,0.08920898,-0.014868164,-0.021240234,88.0
35845,-0.044974208,0.13035534,0.059560858,0.08920898,-0.014868164,-0.021240234,88.0
35846,-0.044974208,0.13035534,0.059560858,0.009558106,-0.016992187,-0.028674318,88.0
35847,-0.020317744,0.14084433,0.06171119,0.009558106,-0.016992187,-0.028674318,88.0
35848,-0.020317744,0.14084433,0.06171119,-0.015930176,-0.0180542,-0.027612304,88.0
35849,0.020196002,0.087138355,0.0378211,-0.015930176,-0.0180542,-0.027612304,88.0
35850,0.020196002,0.087138355,0.0378211,-0.04460449,-0.004248047,-0.026550293,88.0
35851,0.03787311,0.04388061,0.0045000426,-0.04460449,-0.004248047,-0.026550293,88.0
35852,0.03787311,0.04388061,0.0045000426,-0.06265869,0.0053100586,-0.020178223,88.0
35853,0.036145657,-0.012014657,-0.013282292,-0.06265869,0.0053100586,-0.020178223,88.0
35854,0.036145657,-0.012014657,-0.013282292,-0.06796875,0.026550293,-0.021240234,88.0
35855,0.024705097,-0.09563468,-0.013116067,-0.06796875,0.026550293,-0.021240234,88.0
35856,0.024705097,-0.09563468,-0.013116067,-0.016992187,0.02442627,-0.011682129,88.0
35857,-0.015782796,-0.09673479,-0.014008479,-0.016992187,0.02442627,-0.011682129,88.0
35858,-0.015782796,-0.09673479,-0.014008479,0.0031860352,0.015930176,-0.011682129,88.0
35859,-0.048234146,0.017668322,0.017089115,0.0031860352,0.015930176,-0.011682129,88.0
35860,-0.048234146,0.017668322,0.017089115,-0.050976563,0.02442627,-0.028674318,88.0
35861,-0.034558997,0.102269426,0.05336856,-0.050976563,0.02442627,-0.028674318,88.0
35862,-0.034558997,0.102269426,0.05336856,-0.13381349,0.032922365,-0.0361084,88.0
35863,-0.034558997,0.102269426,0.05336856,-0.13381349,0.032922365,-0.0361084,88.0
35864,-0.027830303,0.018998161,0.019757837,-0.13381349,0.032922365,-0.0361084,88.0
35865,-0.027830303,0.018998161,0.019757837,-0.08920898,-0.010620117,-0.0361084,88.0
35866,-0.04119735,-0.13856125,-0.03963807,-0.08920898,-0.010620117,-0.0361084,88.0
35867,-0.04119735,-0.13856125,-0.03963807,0.011682129,-0.059472658,-0.016992187,88.0
35868,-0.042100944,-0.20362243,-0.030416511,0.011682129,-0.059472658,-0.016992187,88.0
35869,-0.042100944,-0.20362243,-0.030416511,0.09664307,-0.10407715,-0.008496094,88.0
35870,-0.07025302,-0.15430419,0.0031081978,0.09664307,-0.10407715,-0.008496094,88.0
35871,-0.07025302,-0.15430419,0.0031081978,0.15080567,-0.15611573,-0.0031860352,88.0
35872,-0.102662385,0.0019350601,0.050338123,0.15080567,-0.15611573,-0.0031860352,88.0
35873,-0.102662385,0.0019350601,0.050338123,0.07752686,-0.16248779,-0.023364259,88.0
35874,-0.043067407,0.066147655,0.11641796,0.07752686,-0.16248779,-0.023364259,88.0
35875,-0.043067407,0.066147655,0.11641796,-0.013806152,-0.11151123,0.070092775,88.0
35876,0.008893244,-0.04014828,0.050373137,-0.013806152,-0.11151123,0.070092775,88.0
35877,0.008893244,-0.04014828,0.050373137,-0.08602295,-0.06478272,0.16461182,88.0
35878,-0.10879117,-0.041383762,-0.18033138,-0.08602295,-0.06478272,0.16461182,88.0
35879,-0.10879117,-0.041383762,-0.18033138,-0.36745605,0.07327881,0.3090454,88.0
35880,-0.28128344,-0.12854157,-0.30514157,-0.36745605,0.07327881,0.3090454,88.0
35881,-0.28128344,-0.12854157,-0.30514157,-0.28780517,-0.007434082,0.32816163,88.0
35882,-0.31339344,-0.3469495,-0.11471872,-0.28780517,-0.007434082,0.32816163,88.0
35883,-0.31339344,-0.3469495,-0.11471872,0.03186035,-0.14018555,0.3462158,88.0
35884,-0.18113467,-0.19150001,0.1538305,0.03186035,-0.14018555,0.3462158,88.0
35885,-0.18113467,-0.19150001,0.1538305,0.24320069,-0.15186767,0.29630128,88.0
35886,0.047389627,0.3020246,0.23134077,0.24320069,-0.15186767,0.29630128,88.0
35887,0.047389627,0.3020246,0.23134077,0.06690674,-0.0053100586,0.21983643,88.0
35888,0.21744052,0.60858744,0.14381285,0.06690674,-0.0053100586,0.21983643,88.0
35889,0.21744052,0.60858744,0.14381285,0.013806152,0.06478272,0.12956543,88.0
35890,0.27767557,0.56962144,0.02206932,0.013806152,0.06478272,0.12956543,88.0
35891,0.27767557,0.56962144,0.02206932,0.0031860352,0.124255374,0.039294433,88.0
35892,0.30924982,0.3689784,-0.02603351,0.0031860352,0.124255374,0.039294433,88.0
35893,0.30924982,0.3689784,-0.02603351,-0.028674318,0.18266602,-0.023364259,88.0
35894,0.35081783,0.18397668,-0.018641751,-0.028674318,0.18266602,-0.023364259,88.0
35895,0.35081783,0.18397668,-0.018641751,0.021240234,0.19434814,-0.09770508,88.0
35896,0.42285398,0.18474239,-0.08344367,0.021240234,0.19434814,-0.09770508,88.0
35897,0.42285398,0.18474239,-0.08344367,-0.025488282,0.16673584,-0.17416993,88.0
35898,0.54707223,0.3155185,-0.2116524,-0.025488282,0.16673584,-0.17416993,88.0
35899,0.54707223,0.3155185,-0.2116524,-0.20390625,0.16992188,-0.22727051,88.0
35900,0.534545,0.17609644,-0.30970278,-0.20390625,0.16992188,-0.22727051,88.0
35901,0.534545,0.17609644,-0.30970278,-0.20178223,0.107263185,-0.270813,88.0
35902,0.34147882,-0.19708672,-0.31447366,-0.20178223,0.107263185,-0.270813,88.0
35903,0.34147882,-0.19708672,-0.31447366,-0.09239502,0.009558106,-0.27399904,88.0
35904,-0.06345022,-0.40250582,-0.24011654,-0.09239502,0.009558106,-0.27399904,88.0
35905,-0.06345022,-0.40250582,-0.24011654,-0.043542482,-0.033984374,-0.22302246,88.0
35906,-0.5083407,-0.40894315,0.15614897,-0.043542482,-0.033984374,-0.22302246,88.0
35907,-0.5083407,-0.40894315,0.15614897,-0.56392825,0.41843262,-0.16567384,88.0
35908,-0.64442897,-0.7376892,0.7011765,-0.56392825,0.41843262,-0.16567384,88.0
35909,-0.64442897,-0.7376892,0.7011765,-0.17629395,0.2081543,0.020178223,88.0
35910,-0.4109045,-0.77750486,0.68668586,-0.17629395,0.2081543,0.020178223,88.0
35911,-0.4109045,-0.77750486,0.68668586,-0.11363526,0.035046387,-0.021240234,88.0
35912,-0.23389938,-0.27174756,0.117427304,-0.11363526,0.035046387,-0.021240234,88.0
35913,-0.23389938,-0.27174756,0.117427304,-0.07327881,-0.0063720704,0.0031860352,88.0
35914,-0.22142127,0.050619528,-0.33114362,-0.07327881,-0.0063720704,0.0031860352,88.0
35915,-0.22142127,0.050619528,-0.33114362,0.14549561,-0.083898924,-0.047790527,88.0
35916,-0.10079424,0.20300783,-0.35210973,0.14549561,-0.083898924,-0.047790527,88.0
35917,-0.10079424,0.20300783,-0.35210973,0.16461182,-0.0637207,-0.050976563,88.0
35918,0.088554054,0.35189602,-0.10919021,0.16461182,-0.0637207,-0.050976563,88.0
35919,0.088554054,0.35189602,-0.10919021,0.02442627,0.010620117,-0.059472658,88.0
35920,0.19340184,0.34704417,0.12878552,0.02442627,0.010620117,-0.059472658,88.0
35921,0.19340184,0.34704417,0.12878552,-0.11044922,0.07327881,-0.047790527,88.0
35922,0.14732403,0.14068465,0.15420029,-0.11044922,0.07327881,-0.047790527,88.0
35923,0.14732403,0.14068465,0.15420029,-0.13912354,0.083898924,-0.025488282,88.0
35924,0.016492024,-0.079114884,0.014327034,-0.13912354,0.083898924,-0.025488282,88.0
35925,0.016492024,-0.079114884,0.014327034,-0.06690674,0.05628662,-0.012744141,88.0
35926,-0.067262925,-0.19322355,-0.056446087,-0.06690674,0.05628662,-0.012744141,88.0
35927,-0.067262925,-0.19322355,-0.056446087,0.0053100586,0.012744141,-0.0031860352,88.0
35928,-0.061757118,-0.12105834,-0.023745738,0.0053100586,0.012744141,-0.0031860352,88.0
35929,-0.061757118,-0.12105834,-0.023745738,0.0180542,-0.014868164,0.0063720704,88.0
35930,-0.025870536,0.09194728,-0.0031884834,0.0180542,-0.014868164,0.0063720704,88.0
35931,-0.025870536,0.09194728,-0.0031884834,-0.039294433,-0.008496094,0.022302246,88.0
35932,0.001166366,0.21436593,-0.030431645,-0.039294433,-0.008496094,0.022302246,88.0
35933,0.001166366,0.21436593,-0.030431645,-0.07327881,0.009558106,0.03079834,88.0
35934,0.033940908,0.15323102,-0.007475199,-0.07327881,0.009558106,0.03079834,88.0
35935,0.033940908,0.15323102,-0.007475199,-0.1178833,0.0361084,0.020178223,88.0
35936,0.04668398,0.09195739,0.036512516,-0.1178833,0.0361084,0.020178223,88.0
35937,0.04668398,0.09195739,0.036512516,-0.15930176,0.04885254,0.015930176,88.0
35938,-0.052057117,-0.008270025,0.027647514,-0.15930176,0.04885254,0.015930176,88.0
35939,-0.052057117,-0.008270025,0.027647514,-0.22833252,0.019116212,-0.020178223,88.0
35940,-0.091364935,-0.06854229,-0.0127941,-0.22833252,0.019116212,-0.020178223,88.0
35941,-0.091364935,-0.06854229,-0.0127941,-0.16779785,0.0,-0.016992187,88.0
35942,-0.113314115,-0.46754137,-0.0998471,-0.16779785,0.0,-0.016992187,88.0
35943,-0.113314115,-0.46754137,-0.0998471,0.15823975,-0.10620117,-0.022302246,88.0
35944,-0.074623466,-0.43770498,-0.08727514,0.15823975,-0.10620117,-0.022302246,88.0
35945,-0.074623466,-0.43770498,-0.08727514,0.2166504,-0.12850343,-0.004248047,88.0
35946,0.02246676,-0.0063895583,-0.06308183,0.2166504,-0.12850343,-0.004248047,88.0
35947,0.02246676,-0.0063895583,-0.06308183,0.2262085,-0.14018555,-0.023364259,88.0
35948,0.010014423,0.11384588,-0.065651014,0.2262085,-0.14018555,-0.023364259,88.0
35949,0.010014423,0.11384588,-0.065651014,0.22408448,-0.13487549,-0.021240234,88.0
35950,0.015933901,0.16435552,-0.05803839,0.22408448,-0.13487549,-0.021240234,88.0
35951,0.015933901,0.16435552,-0.05803839,0.29099122,-0.118945315,-0.035046387,88.0
35952,0.019863822,0.06797123,-0.028742723,0.29099122,-0.118945315,-0.035046387,88.0
35953,0.019863822,0.06797123,-0.028742723,0.29948732,-0.0998291,-0.045666505,88.0
35954,0.110666454,0.17283402,0.13385397,0.29948732,-0.0998291,-0.045666505,88.0
35955,0.110666454,0.17283402,0.13385397,0.107263185,0.0031860352,-0.06584473,88.0
35956,0.09237838,0.2099347,0.12481999,0.107263185,0.0031860352,-0.06584473,88.0
35957,0.09237838,0.2099347,0.12481999,0.015930176,0.022302246,-0.058410645,88.0
35958,-0.046959113,0.13290137,0.0034326508,0.015930176,0.022302246,-0.058410645,88.0
35959,-0.046959113,0.13290137,0.0034326508,-0.007434082,0.007434082,-0.08071289,88.0
35960,-0.067364655,0.016721487,-0.02517136,-0.007434082,0.007434082,-0.08071289,88.0
35961,-0.067364655,0.016721487,-0.02517136,0.007434082,0.0053100586,-0.08602295,88.0
35962,-0.05502698,-0.14228687,-0.0115921665,0.007434082,0.0053100586,-0.08602295,88.0
35963,-0.05502698,-0.14228687,-0.0115921665,0.04991455,-0.014868164,-0.087084964,88.0
35964,-0.04382627,-0.16810197,0.015323435,0.04991455,-0.014868164,-0.087084964,88.0
35965,-0.04382627,-0.16810197,0.015323435,0.090270996,-0.06159668,-0.07646485,88.0
35966,-0.056862775,-0.086776495,-0.0043916428,0.090270996,-0.06159668,-0.07646485,88.0
35967,-0.056862775,-0.086776495,-0.0043916428,0.12531738,-0.10938721,-0.07115479,88.0
35968,-0.04984813,0.01900654,-0.009128548,0.12531738,-0.10938721,-0.07115479,88.0
35969,-0.04984813,0.01900654,-0.009128548,0.107263185,-0.1444336,-0.078588866,88.0
35970,0.009962803,0.07074723,0.003085345,0.107263185,-0.1444336,-0.078588866,88.0
35971,0.009962803,0.07074723,0.003085345,0.08814698,-0.14761963,-0.04991455,88.0
35972,0.05209866,0.0613219,-0.0011816262,0.08814698,-0.14761963,-0.04991455,88.0
35973,0.05209866,0.0613219,-0.0011816262,0.06265869,-0.14018555,-0.02442627,88.0
35974,0.049344946,0.031015527,-0.0040580938,0.06265869,-0.14018555,-0.02442627,88.0
35975,0.049344946,0.031015527,-0.0040580938,0.0637207,-0.12000733,-0.03186035,88.0
35976,0.049344946,0.031015527,-0.0040580938,0.0637207,-0.12000733,-0.03186035,88.0
35977,0.038059942,0.074641526,0.0055303806,0.0637207,-0.12000733,-0.03186035,88.0
35978,0.038059942,0.074641526,0.0055303806,-0.007434082,-0.081774905,-0.033984374,88.0
35979,0.023697466,0.06844125,0.015032215,-0.007434082,-0.081774905,-0.033984374,88.0
35980,0.023697466,0.06844125,0.015032215,-0.043542482,-0.06903076,-0.022302246,88.0
35981,-0.05472367,-0.18041545,0.030079972,-0.043542482,-0.06903076,-0.022302246,88.0
35982,-0.05472367,-0.18041545,0.030079972,0.10089111,-0.14124756,0.0031860352,88.0
35983,-0.11067347,-0.391598,0.11488429,0.10089111,-0.14124756,0.0031860352,88.0
35984,-0.11067347,-0.391598,0.11488429,0.25594482,-0.24744873,0.016992187,88.0
35985,0.012742963,0.059695236,0.28057933,0.25594482,-0.24744873,0.016992187,88.0
35986,0.012742963,0.059695236,0.28057933,-0.040356446,-0.13912354,-0.032922365,88.0
35987,0.204335,0.89588857,0.40653133,-0.040356446,-0.13912354,-0.032922365,88.0
35988,0.204335,0.89588857,0.40653133,-0.7869507,0.09133301,-0.1263794,88.0
35989,0.1507971,1.1943598,0.27692184,-0.7869507,0.09133301,-0.1263794,88.0
35990,0.1507971,1.1943598,0.27692184,-1.3933594,0.20072022,-0.28780517,88.0
35991,-0.32074416,0.6087349,-0.24832337,-1.3933594,0.20072022,-0.28780517,88.0
35992,-0.32074416,0.6087349,-0.24832337,-1.4050416,0.13381349,-0.4980835,88.0
35993,-0.8377477,-0.21176696,-0.75655663,-1.4050416,0.13381349,-0.4980835,88.0
35994,-0.8377477,-0.21176696,-0.75655663,-0.9568726,0.06478272,-0.4725952,88.0
35995,-0.7039628,-0.64647657,-0.7638635,-0.9568726,0.06478272,-0.4725952,88.0
35996,-0.7039628,-0.64647657,-0.7638635,-0.43967286,-0.22089843,-0.51826173,88.0
35997,0.020728707,-0.8875304,-0.35573193,-0.43967286,-0.22089843,-0.51826173,88.0
35998,0.020728707,-0.8875304,-0.35573193,-0.008496094,-0.32072756,-0.46409914,88.0
35999,0.4768613,-1.0954857,0.118771374,-0.008496094,-0.32072756,-0.46409914,88.0
36000,0.4768613,-1.0954857,0.118771374,0.43967286,-0.44923097,-0.13806152,88.0
36001,0.37838846,-0.6918671,0.34281984,0.43967286,-0.44923097,-0.13806152,88.0
36002,0.37838846,-0.6918671,0.34281984,0.52888185,-0.49489745,-0.17523193,88.0
36003,0.18513265,0.1456274,0.3600591,0.52888185,-0.49489745,-0.17523193,88.0
36004,0.18513265,0.1456274,0.3600591,0.21240234,-0.42905274,-0.19647217,88.0
36005,0.21544011,0.6543437,0.21401164,0.21240234,-0.42905274,-0.19647217,88.0
36006,0.21544011,0.6543437,0.21401164,0.052038576,-0.25700685,-0.11151123,88.0
36007,0.45033062,0.5882577,-0.004913735,0.052038576,-0.25700685,-0.11151123,88.0
36008,0.45033062,0.5882577,-0.004913735,0.026550293,-0.1359375,0.0021240234,88.0
36009,0.82900226,0.22973701,0.19971892,0.026550293,-0.1359375,0.0021240234,88.0
36010,0.82900226,0.22973701,0.19971892,-0.3175415,0.14018555,0.046728518,88.0
36011,0.91671747,0.2263067,0.27156714,-0.3175415,0.14018555,0.046728518,88.0
36012,0.91671747,0.2263067,0.27156714,-0.62977296,0.53525394,0.053100586,88.0
36013,0.6492431,0.23349899,-0.252717,-0.62977296,0.53525394,0.053100586,88.0
36014,0.6492431,0.23349899,-0.252717,-0.45666504,0.7317261,0.12850343,88.0
36015,0.33866942,-0.2989308,-0.44752273,-0.45666504,0.7317261,0.12850343,88.0
36016,0.33866942,-0.2989308,-0.44752273,-0.19434814,0.7083618,0.50233155,88.0
36017,-0.1475581,-0.78562903,-0.26042297,-0.19434814,0.7083618,0.50233155,88.0
36018,-0.1475581,-0.78562903,-0.26042297,0.23789063,0.68074954,0.62340087,88.0
36019,-0.5872115,-0.66131574,-0.19687597,0.23789063,0.68074954,0.62340087,88.0
36020,-0.5872115,-0.66131574,-0.19687597,0.48427734,0.56180423,0.6754395,88.0
36021,-0.92592156,-0.79328597,-0.044182897,0.48427734,0.56180423,0.6754395,88.0
36022,-0.92592156,-0.79328597,-0.044182897,1.0375855,0.24213867,0.73703617,88.0
36023,-1.1861718,-0.80054677,0.11788854,1.0375855,0.24213867,0.73703617,88.0
36024,-1.1861718,-0.80054677,0.11788854,1.3158325,-0.32391357,0.23045655,88.0
36025,-1.0869502,0.24303424,-0.06593087,1.3158325,-0.32391357,0.23045655,88.0
36026,-1.0869502,0.24303424,-0.06593087,1.1193603,-0.44816896,0.115759276,88.0
36027,-0.56995076,1.2869201,0.16903265,1.1193603,-0.44816896,0.115759276,88.0
36028,-0.56995076,1.2869201,0.16903265,0.7455322,-0.5809204,-0.19328614,88.0
36029,0.5676234,1.9607495,0.8292447,0.7455322,-0.5809204,-0.19328614,88.0
36030,0.5676234,1.9607495,0.8292447,-0.91014403,0.038232423,-0.23151855,88.0
36031,1.1337496,1.5501792,0.5739915,-0.91014403,0.038232423,-0.23151855,88.0
