,accx,accy,accz,gyrox,gyroy,gyroz,heart rate
28413,type,type,type,type,type,type,type
28414,0.04204884,-0.2932977,0.52047896,-0.13699952,0.14868164,-0.08283692,108.0
28415,0.04204884,-0.2932977,0.52047896,0.028674318,0.07646485,0.03186035,108.0
28416,-0.033157796,-0.05803901,0.24234752,0.028674318,0.07646485,0.03186035,108.0
28417,-0.033157796,-0.05803901,0.24234752,-0.1083252,0.10938721,-0.019116212,108.0
28418,-0.081921756,0.05836618,-0.07754532,-0.1083252,0.10938721,-0.019116212,108.0
28419,-0.081921756,0.05836618,-0.07754532,-0.04991455,0.090270996,0.0021240234,108.0
28420,-0.096885085,0.04441023,-0.14232191,-0.04991455,0.090270996,0.0021240234,108.0
28421,-0.096885085,0.04441023,-0.14232191,-0.0021240234,0.07327881,-0.0031860352,108.0
28422,-0.05220291,0.07555503,0.0014744997,-0.0021240234,0.07327881,-0.0031860352,108.0
28423,-0.05220291,0.07555503,0.0014744997,-0.10407715,0.09451904,-0.026550293,108.0
28424,-0.026308209,0.14555144,0.10081339,-0.10407715,0.09451904,-0.026550293,108.0
28425,-0.026308209,0.14555144,0.10081339,-0.14124756,0.10301514,0.004248047,108.0
28426,-0.056153983,0.1418562,0.035618976,-0.14124756,0.10301514,0.004248047,108.0
28427,-0.056153983,0.1418562,0.035618976,-0.124255374,0.08602295,0.016992187,108.0
28428,-0.07613656,0.089473724,-0.10616058,-0.124255374,0.08602295,0.016992187,108.0
28429,-0.07613656,0.089473724,-0.10616058,0.014868164,0.04885254,0.010620117,108.0
28430,-0.049044013,0.10330504,-0.18243824,0.014868164,0.04885254,0.010620117,108.0
28431,-0.049044013,0.10330504,-0.18243824,-0.013806152,0.035046387,0.011682129,108.0
28432,0.013657838,0.11106202,-0.1794711,-0.013806152,0.035046387,0.011682129,108.0
28433,0.013657838,0.11106202,-0.1794711,0.033984374,0.020178223,-0.0031860352,108.0
28434,0.04076025,0.040180206,-0.12857445,0.033984374,0.020178223,-0.0031860352,108.0
28435,0.04076025,0.040180206,-0.12857445,-0.022302246,0.0063720704,-0.021240234,108.0
28436,0.020804018,-0.041928083,-0.05671698,-0.022302246,0.0063720704,-0.021240234,108.0
28437,0.020804018,-0.041928083,-0.05671698,-0.009558106,-0.020178223,-0.009558106,108.0
28438,9.2056394E-4,-0.0780859,0.022692826,-0.009558106,-0.020178223,-0.009558106,108.0
28439,9.2056394E-4,-0.0780859,0.022692826,0.05628662,-0.029736329,0.0021240234,108.0
28440,9.2056394E-4,-0.0780859,0.022692826,0.057348635,-0.027612304,0.021240234,108.0
28441,0.021879017,-0.0705986,0.07069333,0.057348635,-0.027612304,0.021240234,108.0
28442,0.04108721,-0.021456927,0.06707712,0.057348635,-0.027612304,0.021240234,108.0
28443,0.04108721,-0.021456927,0.06707712,0.047790527,-0.027612304,0.028674318,108.0
28444,0.034529924,0.0062475502,0.06010701,0.047790527,-0.027612304,0.028674318,108.0
28445,0.034529924,0.0062475502,0.06010701,0.05522461,-0.022302246,0.03717041,108.0
28446,0.018554121,-0.048773944,0.08517057,0.05522461,-0.022302246,0.03717041,108.0
28447,0.018554121,-0.048773944,0.08517057,0.0722168,-0.010620117,0.060534667,108.0
28448,0.03279984,-0.07900941,0.12865892,0.0722168,-0.010620117,0.060534667,108.0
28449,0.03279984,-0.07900941,0.12865892,0.1083252,0.009558106,0.07434082,108.0
28450,0.03279984,-0.07900941,0.12865892,0.07327881,0.045666505,0.07327881,108.0
28451,0.059845835,-0.010473132,0.15689442,0.07327881,0.045666505,0.07327881,108.0
28452,0.04893866,0.05468303,0.13858926,0.07327881,0.045666505,0.07327881,108.0
28453,0.04893866,0.05468303,0.13858926,0.028674318,0.07646485,0.060534667,108.0
28454,0.010757387,0.028597474,0.106403634,0.028674318,0.07646485,0.060534667,108.0
28455,0.010757387,0.028597474,0.106403634,0.0180542,0.10407715,0.06478272,108.0
28456,0.0071288645,-0.06896773,0.15354332,0.0180542,0.10407715,0.06478272,108.0
28457,0.0071288645,-0.06896773,0.15354332,0.08071289,0.1444336,0.08602295,108.0
28458,0.0071288645,-0.06896773,0.15354332,0.095581055,0.19753419,0.11151123,108.0
28459,0.04715818,-0.091429055,0.25055683,0.095581055,0.19753419,0.11151123,108.0
28460,0.06751168,0.038673162,0.2499694,0.095581055,0.19753419,0.11151123,108.0
28461,0.06751168,0.038673162,0.2499694,0.004248047,0.24744873,0.10301514,108.0
28462,0.050273985,0.16414165,0.11999503,0.004248047,0.24744873,0.10301514,108.0
28463,0.050273985,0.16414165,0.11999503,-0.053100586,0.2888672,0.09451904,108.0
28464,0.029074162,0.12774888,0.01097405,-0.053100586,0.2888672,0.09451904,108.0
28465,0.029074162,0.12774888,0.01097405,-0.0541626,0.33665773,0.10938721,108.0
28466,0.012773484,-0.007651955,-0.030380934,-0.0541626,0.33665773,0.10938721,108.0
28467,0.012773484,-0.007651955,-0.030380934,-0.0063720704,0.37595215,0.14124756,108.0
28468,-0.006248504,-0.050603986,-0.06521049,-0.0063720704,0.37595215,0.14124756,108.0
28469,-0.006248504,-0.050603986,-0.06521049,0.06584473,0.40037844,0.1539917,108.0
28470,-0.017156988,0.094563186,-0.1091142,0.06584473,0.40037844,0.1539917,108.0
28471,-0.017156988,0.094563186,-0.1091142,0.019116212,0.41843262,0.1274414,108.0
28472,-0.008732915,0.24802604,-0.15887338,0.019116212,0.41843262,0.1274414,108.0
28473,-0.008732915,0.24802604,-0.15887338,-0.07752686,0.43011475,0.08071289,108.0
28474,0.011434078,0.19724895,-0.16966462,-0.07752686,0.43011475,0.08071289,108.0
28475,0.011434078,0.19724895,-0.16966462,-0.083898924,0.4333008,0.059472658,108.0
28476,-0.012898624,0.07339975,-0.14096852,-0.083898924,0.4333008,0.059472658,108.0
28477,-0.012898624,0.07339975,-0.14096852,-0.04991455,0.41949463,0.060534667,108.0
28478,-0.04956451,0.02411288,-0.15720841,-0.04991455,0.41949463,0.060534667,108.0
28479,-0.04956451,0.02411288,-0.15720841,-0.016992187,0.40250245,0.059472658,108.0
28480,-0.043777585,0.04333815,-0.22696301,-0.016992187,0.40250245,0.059472658,108.0
28481,-0.043777585,0.04333815,-0.22696301,-0.03186035,0.3802002,0.06690674,108.0
28482,-0.034436136,0.047597766,-0.28487852,-0.03186035,0.3802002,0.06690674,108.0
28483,-0.034436136,0.047597766,-0.28487852,-0.026550293,0.33665773,0.087084964,108.0
28484,-0.034436136,0.047597766,-0.28487852,0.043542482,0.2803711,0.087084964,108.0
28485,-0.0057715774,0.011503503,-0.27272704,0.043542482,0.2803711,0.087084964,108.0
28486,0.07355657,-0.0047254115,-0.18362352,0.043542482,0.2803711,0.087084964,108.0
28487,0.07355657,-0.0047254115,-0.18362352,0.04991455,0.2442627,0.08283692,108.0
28488,0.16735354,0.019059032,-0.09211367,0.04991455,0.2442627,0.08283692,108.0
28489,0.16735354,0.019059032,-0.09211367,0.035046387,0.23151855,0.083898924,108.0
28490,0.16770852,0.04189518,-0.081186056,0.035046387,0.23151855,0.083898924,108.0
28491,0.16770852,0.04189518,-0.081186056,-0.0063720704,0.23258057,0.08602295,108.0
28492,0.06581962,0.10150932,-0.2853712,-0.0063720704,0.23258057,0.08602295,108.0
28493,0.06581962,0.10150932,-0.2853712,0.0031860352,0.20390625,0.115759276,108.0
28494,0.06581962,0.10150932,-0.2853712,0.0031860352,0.20390625,0.115759276,108.0
28495,0.02966988,0.09314594,-0.33556014,0.0031860352,0.20390625,0.115759276,108.0
28496,0.02966988,0.09314594,-0.33556014,0.04248047,0.19328614,0.1274414,108.0
28497,-0.09832221,0.11104019,-0.48845544,0.04248047,0.19328614,0.1274414,108.0
28498,-0.09832221,0.11104019,-0.48845544,0.058410645,0.13912354,0.1359375,108.0
28499,-0.0971148,0.11307532,-0.4193288,0.058410645,0.13912354,0.1359375,108.0
28500,-0.0971148,0.11307532,-0.4193288,0.038232423,0.12319336,0.13699952,108.0
28501,-0.16669333,0.24531867,-0.26284343,0.038232423,0.12319336,0.13699952,108.0
28502,-0.16669333,0.24531867,-0.26284343,-0.10938721,0.14655761,0.14655761,108.0
28503,-0.14988297,0.23580572,-0.16707408,-0.10938721,0.14655761,0.14655761,108.0
28504,-0.14988297,0.23580572,-0.16707408,-0.090270996,0.16461182,0.16142578,108.0
28505,-0.18357825,0.24306352,-0.1583541,-0.090270996,0.16461182,0.16142578,108.0
28506,-0.18357825,0.24306352,-0.1583541,-0.04460449,0.2262085,0.20921631,108.0
28507,-0.18955061,0.20028579,-0.2034899,-0.04460449,0.2262085,0.20921631,108.0
28508,-0.18955061,0.20028579,-0.2034899,-0.035046387,0.2262085,0.21027832,108.0
28509,-0.2660692,0.15870276,-0.38106585,-0.035046387,0.2262085,0.21027832,108.0
28510,-0.2660692,0.15870276,-0.38106585,-0.090270996,0.17629395,0.15823975,108.0
28511,-0.18300918,0.13677666,-0.3079533,-0.090270996,0.17629395,0.15823975,108.0
28512,-0.18300918,0.13677666,-0.3079533,-0.1529297,0.15930176,0.121069334,108.0
28513,-0.067537725,0.058432564,-0.061413944,-0.1529297,0.15930176,0.121069334,108.0
28514,-0.067537725,0.058432564,-0.061413944,-0.3802002,0.1274414,0.0541626,108.0
28515,-0.075551175,0.038298786,-0.01932156,-0.3802002,0.1274414,0.0541626,108.0
28516,-0.075551175,0.038298786,-0.01932156,-0.41843262,0.0998291,0.04141846,108.0
28517,-0.19192287,-0.033997208,-0.07571113,-0.41843262,0.0998291,0.04141846,108.0
28518,-0.19192287,-0.033997208,-0.07571113,-0.4056885,0.004248047,0.0180542,108.0
28519,-0.29997385,-0.11800587,-0.16941905,-0.4056885,0.004248047,0.0180542,108.0
28520,-0.29997385,-0.11800587,-0.16941905,-0.37382814,-0.11469727,-0.03079834,108.0
28521,-0.31335557,-0.22342081,-0.08409476,-0.37382814,-0.11469727,-0.03079834,108.0
28522,-0.31335557,-0.22342081,-0.08409476,-0.3345337,-0.22408448,-0.06478272,108.0
28523,-0.2339608,-0.28198373,0.14670128,-0.3345337,-0.22408448,-0.06478272,108.0
28524,-0.2339608,-0.28198373,0.14670128,-0.36320803,-0.29948732,-0.115759276,108.0
28525,-0.062510446,-0.30639753,0.3239894,-0.36320803,-0.29948732,-0.115759276,108.0
28526,-0.062510446,-0.30639753,0.3239894,-0.42268068,-0.35895997,-0.1731079,108.0
28527,0.20832905,-0.37085044,0.36290246,-0.42268068,-0.35895997,-0.1731079,108.0
28528,0.20832905,-0.37085044,0.36290246,-0.4694092,-0.40037844,-0.23682861,108.0
28529,0.50432193,-0.40623847,0.2596823,-0.4694092,-0.40037844,-0.23682861,108.0
28530,0.50432193,-0.40623847,0.2596823,-0.62127686,-0.3982544,-0.31860352,108.0
28531,0.63514704,-0.36318657,0.01721853,-0.62127686,-0.3982544,-0.31860352,108.0
28532,0.63514704,-0.36318657,0.01721853,-0.85704345,-0.37382814,-0.38657227,108.0
28533,0.44566643,-0.29050043,-0.25033653,-0.85704345,-0.37382814,-0.38657227,108.0
28534,0.44566643,-0.29050043,-0.25033653,-1.0375855,-0.40144044,-0.42692873,108.0
28535,0.070058525,-0.14682904,-0.43795234,-1.0375855,-0.40144044,-0.42692873,108.0
28536,0.070058525,-0.14682904,-0.43795234,-1.3434448,-0.43117675,-0.47790527,108.0
28537,-0.24945855,-0.071662456,-0.5770098,-1.3434448,-0.43117675,-0.47790527,108.0
28538,-0.24945855,-0.071662456,-0.5770098,-1.7841797,-0.45666504,-0.53737795,108.0
28539,-0.46852437,-0.2197445,-0.65876365,-1.7841797,-0.45666504,-0.53737795,108.0
28540,-0.46852437,-0.2197445,-0.65876365,-2.0125122,-0.5256958,-0.60322267,108.0
28541,-0.58310807,-0.52046114,-0.5288664,-2.0125122,-0.5256958,-0.60322267,108.0
28542,-0.58310807,-0.52046114,-0.5288664,-1.8457764,-0.60959476,-0.64995116,108.0
28543,-0.5781442,-0.6585564,-0.15318346,-1.8457764,-0.60959476,-0.64995116,108.0
28544,-0.5781442,-0.6585564,-0.15318346,-1.634436,-0.6616333,-0.62977296,108.0
28545,-0.49284983,-0.4743061,0.18773162,-1.634436,-0.6616333,-0.62977296,108.0
28546,-0.49284983,-0.4743061,0.18773162,-1.5664673,-0.7051758,-0.6552612,108.0
28547,-0.39132577,-0.13988185,0.30638647,-1.5664673,-0.7051758,-0.6552612,108.0
28548,-0.39132577,-0.13988185,0.30638647,-1.7342652,-0.7327881,-0.71791995,108.0
28549,-0.2529532,0.08506715,0.37342942,-1.7342652,-0.7327881,-0.71791995,108.0
28550,-0.2529532,0.08506715,0.37342942,-1.7947998,-0.7434082,-0.7869507,108.0
28551,-0.095160425,0.12728226,0.5953988,-1.7947998,-0.7434082,-0.7869507,108.0
28552,-0.095160425,0.12728226,0.5953988,-1.809668,-0.7625244,-0.815625,108.0
28553,0.0037178397,0.07570279,0.8376716,-1.809668,-0.7625244,-0.815625,108.0
28554,0.0037178397,0.07570279,0.8376716,-1.8383423,-0.7805786,-0.82836914,108.0
28555,0.03535953,0.04145825,0.9579669,-1.8383423,-0.7805786,-0.82836914,108.0
28556,0.03535953,0.04145825,0.9579669,-1.7884277,-0.7848267,-0.83474123,108.0
28557,0.0369668,0.009082139,1.0555336,-1.7884277,-0.7848267,-0.83474123,108.0
28558,0.0369668,0.009082139,1.0555336,-1.4815063,-0.7508423,-0.811377,108.0
28559,0.038374722,0.091579676,1.1800715,-1.4815063,-0.7508423,-0.811377,108.0
28560,0.038374722,0.091579676,1.1800715,-1.2892822,-0.6796875,-0.75296634,108.0
28561,-0.020911545,0.3598848,1.237966,-1.2892822,-0.6796875,-0.75296634,108.0
28562,-0.020911545,0.3598848,1.237966,-1.183081,-0.6074707,-0.7083618,108.0
28563,-0.13980052,0.6487111,1.140568,-1.183081,-0.6074707,-0.7083618,108.0
28564,-0.13980052,0.6487111,1.140568,-1.0662597,-0.57561034,-0.6818115,108.0
28565,-0.18215293,0.7653922,0.92823815,-1.0662597,-0.57561034,-0.6818115,108.0
28566,-0.18215293,0.7653922,0.92823815,-0.94412845,-0.5235718,-0.68287355,108.0
28567,-0.14573455,0.6547576,0.7573,-0.94412845,-0.5235718,-0.68287355,108.0
28568,-0.14573455,0.6547576,0.7573,-0.84536135,-0.4715332,-0.7072998,108.0
28569,-0.06955397,0.47751704,0.66997576,-0.84536135,-0.4715332,-0.7072998,108.0
28570,-0.06955397,0.47751704,0.66997576,-0.9165161,-0.3525879,-0.7423462,108.0
28571,0.021761596,0.38482127,0.5116031,-0.9165161,-0.3525879,-0.7423462,108.0
28572,0.021761596,0.38482127,0.5116031,-1.1161743,-0.23045655,-0.77314454,108.0
28573,0.07805383,0.3668536,0.19097197,-1.1161743,-0.23045655,-0.77314454,108.0
28574,0.07805383,0.3668536,0.19097197,-1.4369019,-0.09239502,-0.8326172,108.0
28575,0.07358807,0.27602684,-0.19612384,-1.4369019,-0.09239502,-0.8326172,108.0
28576,0.07358807,0.27602684,-0.19612384,-1.6811646,0.010620117,-0.8644776,108.0
28577,-0.06556803,0.051302418,-0.55379856,-1.6811646,0.010620117,-0.8644776,108.0
28578,-0.06556803,0.051302418,-0.55379856,-1.8340943,0.046728518,-0.89102787,108.0
28579,-0.2808724,-0.24732476,-0.81299734,-1.8340943,0.046728518,-0.89102787,108.0
28580,-0.2808724,-0.24732476,-0.81299734,-2.0273805,0.107263185,-0.89846194,108.0
28581,-0.42125553,-0.6028403,-0.88366205,-2.0273805,0.107263185,-0.89846194,108.0
28582,-0.42125553,-0.6028403,-0.88366205,-2.1314576,0.17523193,-0.88253176,108.0
28583,-0.48708987,-0.93031913,-0.72044283,-2.1314576,0.17523193,-0.88253176,108.0
28584,-0.48708987,-0.93031913,-0.72044283,-2.1261475,0.21346436,-0.8464233,108.0
28585,-0.56097317,-1.0819262,-0.48450857,-2.1261475,0.21346436,-0.8464233,108.0
28586,-0.56097317,-1.0819262,-0.48450857,-2.1272094,0.16779785,-0.7582764,108.0
28587,-0.6166862,-0.96931297,-0.42593697,-2.1272094,0.16779785,-0.7582764,108.0
28588,-0.6166862,-0.96931297,-0.42593697,-2.1877441,0.22089843,-0.68924564,108.0
28589,-0.7003802,-0.70147574,-0.45444587,-2.1877441,0.22089843,-0.68924564,108.0
28590,-0.7003802,-0.70147574,-0.45444587,-1.9254273,0.15080567,-0.61278075,108.0
28591,-0.76772606,-0.3857777,-0.36453325,-1.9254273,0.15080567,-0.61278075,108.0
28592,-0.76772606,-0.3857777,-0.36453325,-1.7809937,0.081774905,-0.5883545,108.0
28593,-0.64330673,-0.13754058,-0.25229555,-1.7809937,0.081774905,-0.5883545,108.0
28594,-0.64330673,-0.13754058,-0.25229555,-1.7406372,0.045666505,-0.5543701,108.0
28595,-0.43116152,0.021486044,-0.252813,-1.7406372,0.045666505,-0.5543701,108.0
28596,-0.43116152,0.021486044,-0.252813,-1.6705445,-0.0637207,-0.541626,108.0
28597,-0.2818067,0.23717177,-0.4351972,-1.6705445,-0.0637207,-0.541626,108.0
28598,-0.2818067,0.23717177,-0.4351972,-1.8340943,-0.13062744,-0.5533081,108.0
28599,-0.21453226,0.4690709,-0.66837263,-1.8340943,-0.13062744,-0.5533081,108.0
28600,-0.21453226,0.4690709,-0.66837263,-1.7926759,-0.22939454,-0.56605226,108.0
28601,-0.20495105,0.65325963,-0.6768734,-1.7926759,-0.22939454,-0.56605226,108.0
28602,-0.20495105,0.65325963,-0.6768734,-1.4135376,-0.3791382,-0.5872925,108.0
28603,-0.19618726,0.8001712,-0.5042306,-1.4135376,-0.3791382,-0.5872925,108.0
28604,-0.19618726,0.8001712,-0.5042306,-1.3317627,-0.49383545,-0.58623046,108.0
28605,-0.19618726,0.8001712,-0.5042306,-1.3317627,-0.49383545,-0.58623046,108.0
28606,-0.070414305,0.59738797,-0.3294099,-1.3317627,-0.49383545,-0.58623046,108.0
28607,-0.070414305,0.59738797,-0.3294099,-0.8464233,-0.54587406,-0.632959,108.0
28608,0.19014072,0.07251486,0.08992672,-0.8464233,-0.54587406,-0.632959,108.0
28609,0.19014072,0.07251486,0.08992672,-0.08602295,-0.6425171,-0.4959595,108.0
28610,0.5775399,-0.1117391,0.69977343,-0.08602295,-0.6425171,-0.4959595,108.0
28611,0.5775399,-0.1117391,0.69977343,-0.18903808,-0.46834716,-0.3982544,108.0
28612,0.9166584,0.19122398,0.90195745,-0.18903808,-0.46834716,-0.3982544,108.0
28613,0.9166584,0.19122398,0.90195745,-0.3812622,-0.2984253,-0.29523927,108.0
28614,1.0063859,0.61488104,0.6032798,-0.3812622,-0.2984253,-0.29523927,108.0
28615,1.0063859,0.61488104,0.6032798,-0.51188964,-0.078588866,-0.24320069,108.0
28616,0.8902284,1.017149,0.3901312,-0.51188964,-0.078588866,-0.24320069,108.0
28617,0.8902284,1.017149,0.3901312,-0.81668705,0.16779785,-0.20496826,108.0
28618,0.70417494,1.2993637,0.38098925,-0.81668705,0.16779785,-0.20496826,108.0
28619,0.70417494,1.2993637,0.38098925,-0.94731444,0.38869628,-0.2623169,108.0
28620,0.9146461,1.0516248,0.15763563,-0.94731444,0.38869628,-0.2623169,108.0
28621,0.9146461,1.0516248,0.15763563,-1.2584839,0.89102787,-0.32709962,108.0
28622,1.5656769,0.6331089,-0.2625878,-1.2584839,0.89102787,-0.32709962,108.0
28623,1.5656769,0.6331089,-0.2625878,-1.081128,1.0174073,-0.46834716,108.0
28624,2.2431664,0.2029959,-0.64210147,-1.081128,1.0174073,-0.46834716,108.0
28625,2.2431664,0.2029959,-0.64210147,-1.1469727,1.0524536,-0.43754885,108.0
28626,2.8516378,-0.298199,-0.9637544,-1.1469727,1.0524536,-0.43754885,108.0
28627,2.8516378,-0.298199,-0.9637544,-1.3338867,1.0004151,-0.5161377,108.0
28628,3.0992913,-0.44089073,-1.3395216,-1.3338867,1.0004151,-0.5161377,108.0
28629,3.0992913,-0.44089073,-1.3395216,-1.5420411,0.93350834,-0.270813,108.0
28630,2.4905536,-0.73368186,-2.0471787,-1.5420411,0.93350834,-0.270813,108.0
28631,2.4905536,-0.73368186,-2.0471787,-0.7147339,0.4609131,0.004248047,108.0
28632,1.2826529,-1.8279,-1.3189565,-0.7147339,0.4609131,0.004248047,108.0
28633,1.2826529,-1.8279,-1.3189565,0.5384399,-0.28355715,0.58410645,108.0
28634,-1.3887825,-0.9465608,2.251622,0.5384399,-0.28355715,0.58410645,108.0
28635,-1.3887825,-0.9465608,2.251622,1.088562,0.0053100586,-0.043542482,108.0
28636,-3.1496859,1.5060815,4.8158727,1.088562,0.0053100586,-0.043542482,108.0
28637,-3.1496859,1.5060815,4.8158727,0.44073486,0.6446411,-0.25700685,108.0
28638,-1.458213,0.38953316,4.4899664,0.44073486,0.6446411,-0.25700685,108.0
28639,-1.458213,0.38953316,4.4899664,-0.63614506,0.9685547,0.012744141,108.0
28640,0.66204286,-2.9786322,3.5177422,-0.63614506,0.9685547,0.012744141,108.0
28641,0.66204286,-2.9786322,3.5177422,0.093457036,0.76677245,0.44604492,108.0
28642,1.1198564,-2.3187823,1.8644745,0.093457036,0.76677245,0.44604492,108.0
28643,1.1198564,-2.3187823,1.8644745,-0.66481936,1.0174073,0.058410645,108.0
28644,0.2630359,0.93313336,-0.67674303,-0.66481936,1.0174073,0.058410645,108.0
28645,0.2630359,0.93313336,-0.67674303,-0.7168579,0.9696167,0.087084964,108.0
28646,-0.9757407,1.6027689,-2.1818,-0.7168579,0.9696167,0.087084964,108.0
28647,-0.9757407,1.6027689,-2.1818,-0.3536499,0.87615967,0.32603762,108.0
28648,-1.4103777,1.0090706,-1.9899468,-0.3536499,0.87615967,0.32603762,108.0
28649,-1.4103777,1.0090706,-1.9899468,-0.42374268,0.9717407,0.3525879,108.0
28650,-0.9713686,0.6482355,-1.2584126,-0.42374268,0.9717407,0.3525879,108.0
28651,-0.9713686,0.6482355,-1.2584126,-0.29630128,0.99722904,0.52250975,108.0
28652,-0.6128004,0.30685747,-0.9883951,-0.29630128,0.99722904,0.52250975,108.0
28653,-0.6128004,0.30685747,-0.9883951,-0.32178956,0.9197022,0.6223389,108.0
28654,-0.5662291,-0.2617406,-0.94811356,-0.32178956,0.9197022,0.6223389,108.0
28655,-0.5662291,-0.2617406,-0.94811356,0.0010620117,0.86766356,0.631897,108.0
28656,-0.45358142,-0.6312797,-0.79240197,0.0010620117,0.86766356,0.631897,108.0
28657,-0.45358142,-0.6312797,-0.79240197,0.06903076,0.8336792,0.54693604,108.0
28658,-0.32221574,-0.3665228,-0.72003,0.06903076,0.8336792,0.54693604,108.0
28659,-0.32221574,-0.3665228,-0.72003,-0.0053100586,0.7763306,0.5957886,108.0
28660,-0.25140053,-0.06462936,-0.4277696,-0.0053100586,0.7763306,0.5957886,108.0
28661,-0.25140053,-0.06462936,-0.4277696,0.81243896,0.630835,0.6573853,108.0
28662,0.033083677,0.2631769,0.20039907,0.81243896,0.630835,0.6573853,108.0
28663,0.033083677,0.2631769,0.20039907,0.90270996,0.541626,0.5033936,108.0
28664,0.21064663,0.38540724,0.5216596,0.90270996,0.541626,0.5033936,108.0
28665,0.21064663,0.38540724,0.5216596,0.34727785,0.5129517,0.35152587,108.0
28666,-0.034265906,-0.0068353415,0.13464946,0.34727785,0.5129517,0.35152587,108.0
28667,-0.034265906,-0.0068353415,0.13464946,0.4970215,0.39082032,0.24638672,108.0
28668,-0.30951723,-0.30051222,-0.4888869,0.4970215,0.39082032,0.24638672,108.0
28669,-0.30951723,-0.30051222,-0.4888869,0.6064087,0.4056885,0.18054199,108.0
28670,-0.3609927,-0.3843307,-0.7133508,0.6064087,0.4056885,0.18054199,108.0
28671,-0.3609927,-0.3843307,-0.7133508,0.94412845,0.38551027,0.12956543,108.0
28672,-0.2883181,-0.30884394,-0.47866398,0.94412845,0.38551027,0.12956543,108.0
28673,-0.2883181,-0.30884394,-0.47866398,1.0343994,0.36427003,0.026550293,108.0
28674,-0.19090839,-0.14954096,-0.21108061,1.0343994,0.36427003,0.026550293,108.0
28675,-0.19090839,-0.14954096,-0.21108061,1.173523,0.31329346,-0.02442627,108.0
28676,-0.15972134,-0.14512104,-0.16237035,1.173523,0.31329346,-0.02442627,108.0
28677,-0.15972134,-0.14512104,-0.16237035,1.3296387,0.26975098,-0.12956543,108.0
28678,-0.16962278,-0.3471271,-0.1918958,1.3296387,0.26975098,-0.12956543,108.0
28679,-0.16962278,-0.3471271,-0.1918958,1.5569092,0.23364258,-0.3175415,108.0
28680,-0.12589598,-0.51612943,-0.12575784,1.5569092,0.23364258,-0.3175415,108.0
28681,-0.12589598,-0.51612943,-0.12575784,1.6503662,0.18054199,-0.6223389,108.0
28682,-0.070394516,-0.43784255,0.0024576858,1.6503662,0.18054199,-0.6223389,108.0
28683,-0.070394516,-0.43784255,0.0024576858,1.355127,0.18266602,-1.0397094,108.0
28684,-0.083171085,-0.45330143,-0.018419594,1.355127,0.18266602,-1.0397094,108.0
28685,-0.083171085,-0.45330143,-0.018419594,1.7066529,0.12531738,-1.3391968,108.0
28686,-0.13028198,-0.52110064,-0.15633725,1.7066529,0.12531738,-1.3391968,108.0
28687,-0.13028198,-0.52110064,-0.15633725,2.095349,0.22408448,-1.7363892,108.0
28688,-0.21373487,-0.89587224,-0.23990135,2.095349,0.22408448,-1.7363892,108.0
28689,-0.21373487,-0.89587224,-0.23990135,2.6093628,0.33134767,-2.075171,108.0
28690,-0.36016026,-2.1821275,-0.054347843,2.6093628,0.33134767,-2.075171,108.0
28691,-0.36016026,-2.1821275,-0.054347843,3.163733,0.68499756,-2.2440307,108.0
28692,-1.6239681,-3.715331,0.4276765,3.163733,0.68499756,-2.2440307,108.0
28693,-1.6239681,-3.715331,0.4276765,1.0322754,0.724292,-1.4167236,108.0
28694,-2.5936081,-3.7905998,2.0077052,1.0322754,0.724292,-1.4167236,108.0
28695,-2.5936081,-3.7905998,2.0077052,-0.20072022,2.348108,-1.2351197,108.0
28696,-1.7007045,-1.6606903,3.9618406,-0.20072022,2.348108,-1.2351197,108.0
28697,-1.7007045,-1.6606903,3.9618406,1.1225464,2.6677735,-0.48533937,108.0
28698,-0.8919723,1.937854,3.7488792,1.1225464,2.6677735,-0.48533937,108.0
28699,-0.8919723,1.937854,3.7488792,1.7799317,2.896106,-0.41099855,108.0
28700,-1.1668983,4.849331,0.9416814,1.7799317,2.896106,-0.41099855,108.0
28701,-1.1668983,4.849331,0.9416814,2.2281005,2.355542,-0.3982544,108.0
28702,-1.3402324,6.48447,-2.294836,2.2281005,2.355542,-0.3982544,108.0
28703,-1.3402324,6.48447,-2.294836,0.6881836,2.4553711,-0.6669434,108.0
28704,-1.3402324,6.48447,-2.294836,0.6881836,2.4553711,-0.6669434,108.0
28705,-1.1217098,6.4882965,-3.482573,0.6881836,2.4553711,-0.6669434,108.0
28706,-1.1217098,6.4882965,-3.482573,-0.15505372,2.2546508,-0.7434082,108.0
28707,-0.9455004,4.9263425,-2.4547474,-0.15505372,2.2546508,-0.7434082,108.0
28708,-0.9455004,4.9263425,-2.4547474,0.004248047,2.0486207,-1.0715698,108.0
28709,-0.608927,2.9069066,-1.1272745,0.004248047,2.0486207,-1.0715698,108.0
28710,-0.608927,2.9069066,-1.1272745,0.29099122,1.7693115,-1.1618408,108.0
28711,0.120914936,1.293848,-1.069471,0.29099122,1.7693115,-1.1618408,108.0
28712,0.120914936,1.293848,-1.069471,0.53525394,1.5802735,-1.5059327,108.0
28713,1.0420079,0.42808366,-1.9035382,0.53525394,1.5802735,-1.5059327,108.0
28714,1.0420079,0.42808366,-1.9035382,0.5734863,1.4645141,-1.906311,108.0
28715,1.8588383,0.2097888,-2.419071,0.5734863,1.4645141,-1.906311,108.0
28716,1.8588383,0.2097888,-2.419071,0.015930176,1.3328247,-2.3183715,108.0
28717,2.5377421,0.3268764,-2.2820096,0.015930176,1.3328247,-2.3183715,108.0
28718,2.5377421,0.3268764,-2.2820096,-1.1321045,1.1724609,-2.636975,108.0
28719,3.2246761,0.040834665,-1.6892309,-1.1321045,1.1724609,-2.636975,108.0
28720,3.2246761,0.040834665,-1.6892309,-2.262085,1.084314,-2.7867188,108.0
28721,3.8735397,-1.1617169,-0.73741984,-2.262085,1.084314,-2.7867188,108.0
28722,3.8735397,-1.1617169,-0.73741984,-2.5711305,0.904834,-2.5615723,108.0
28723,4.0970984,-2.7816563,0.5728326,-2.5711305,0.904834,-2.5615723,108.0
28724,4.0970984,-2.7816563,0.5728326,-2.267395,0.57561034,-2.0263183,108.0
28725,3.7376275,-3.3112748,1.5875629,-2.267395,0.57561034,-2.0263183,108.0
28726,3.7376275,-3.3112748,1.5875629,-2.34917,0.4428589,-1.4528321,108.0
28727,2.898757,-2.4501307,1.651105,-2.34917,0.4428589,-1.4528321,108.0
28728,2.898757,-2.4501307,1.651105,-2.0029542,0.37807617,-1.1575928,108.0
28729,1.6702018,-1.4306123,1.2226052,-2.0029542,0.37807617,-1.1575928,108.0
28730,1.6702018,-1.4306123,1.2226052,-1.09281,0.19753419,-0.72323,108.0
28731,0.42609072,-0.6799147,1.084029,-1.09281,0.19753419,-0.72323,108.0
28732,0.42609072,-0.6799147,1.084029,-0.43754885,0.04460449,-0.5331299,108.0
28733,-0.21639061,-0.1535509,1.3387442,-0.43754885,0.04460449,-0.5331299,108.0
28734,-0.21639061,-0.1535509,1.3387442,-0.34940186,0.052038576,-0.40462646,108.0
28735,-0.1565597,0.007383883,1.4678582,-0.34940186,0.052038576,-0.40462646,108.0
28736,-0.1565597,0.007383883,1.4678582,-0.10938721,0.057348635,-0.2527588,108.0
28737,-0.073587656,-0.037562132,1.2158759,-0.10938721,0.057348635,-0.2527588,108.0
28738,-0.073587656,-0.037562132,1.2158759,0.38763428,0.07752686,-0.29523927,108.0
28739,-0.26269078,-0.0729208,1.0087969,0.38763428,0.07752686,-0.29523927,108.0
28740,-0.26269078,-0.0729208,1.0087969,0.8729736,0.19434814,-0.34727785,108.0
28741,-0.5412319,-0.13056564,1.1185489,0.8729736,0.19434814,-0.34727785,108.0
28742,-0.5412319,-0.13056564,1.1185489,0.50020754,0.30373535,-0.2782471,108.0
28743,-0.9616232,-0.654245,1.7126248,0.50020754,0.30373535,-0.2782471,108.0
28744,-0.9616232,-0.654245,1.7126248,0.070092775,0.47471926,-0.2803711,108.0
28745,-1.3280144,-1.4988965,2.5874581,0.070092775,0.47471926,-0.2803711,108.0
28746,-1.3280144,-1.4988965,2.5874581,-0.26868898,0.721106,-0.15186767,108.0
28747,-1.4406098,-1.154586,2.0310507,-0.26868898,0.721106,-0.15186767,108.0
28748,-1.4406098,-1.154586,2.0310507,-0.34727785,0.71367186,0.13275146,108.0
28749,-1.5225562,-0.07303402,-0.5943732,-0.34727785,0.71367186,0.13275146,108.0
28750,-1.5225562,-0.07303402,-0.5943732,-0.48215333,0.59897465,0.1731079,108.0
28751,-1.520169,0.21928275,-3.1750104,-0.48215333,0.59897465,0.1731079,108.0
28752,-1.520169,0.21928275,-3.1750104,0.12213135,0.23151855,0.1539917,108.0
28753,-1.2801733,0.23487443,-3.8439634,0.12213135,0.23151855,0.1539917,108.0
28754,-1.2801733,0.23487443,-3.8439634,0.4322388,-0.040356446,0.009558106,108.0
28755,-0.9275444,0.32192054,-2.872534,0.4322388,-0.040356446,0.009558106,108.0
28756,-0.9275444,0.32192054,-2.872534,0.39082032,-0.19116211,-0.04460449,108.0
28757,-0.61362976,-0.08961934,-1.5592699,0.39082032,-0.19116211,-0.04460449,108.0
28758,-0.61362976,-0.08961934,-1.5592699,0.4078125,-0.2177124,-0.107263185,108.0
28759,-0.30005908,-0.79700065,-0.41720355,0.4078125,-0.2177124,-0.107263185,108.0
28760,-0.30005908,-0.79700065,-0.41720355,0.7327881,-0.24957275,-0.09451904,108.0
28761,1.3828278E-4,-0.7158354,0.72498965,0.7327881,-0.24957275,-0.09451904,108.0
28762,1.3828278E-4,-0.7158354,0.72498965,0.7678345,-0.1359375,-0.1996582,108.0
28763,0.1467781,0.08626723,1.457543,0.7678345,-0.1359375,-0.1996582,108.0
28764,0.1467781,0.08626723,1.457543,0.34833986,0.04460449,-0.12319336,108.0
28765,-0.025180042,0.5866407,1.2552068,0.34833986,0.04460449,-0.12319336,108.0
28766,-0.025180042,0.5866407,1.2552068,0.1709839,0.090270996,-0.032922365,108.0
28767,-0.3721338,0.6410045,0.45876747,0.1709839,0.090270996,-0.032922365,108.0
28768,-0.3721338,0.6410045,0.45876747,0.20921631,0.04141846,0.05522461,108.0
28769,-0.60344434,0.5921371,-0.19222674,0.20921631,0.04141846,0.05522461,108.0
28770,-0.60344434,0.5921371,-0.19222674,0.33771974,-0.05628662,0.093457036,108.0
28771,-0.54573154,0.46841186,-0.38124722,0.33771974,-0.05628662,0.093457036,108.0
28772,-0.54573154,0.46841186,-0.38124722,0.29099122,-0.09451904,0.0998291,108.0
28773,-0.26877517,0.105198234,-0.24712425,0.29099122,-0.09451904,0.0998291,108.0
28774,-0.26877517,0.105198234,-0.24712425,0.65207523,-0.16992188,0.10938721,108.0
28775,0.026679076,0.03420742,0.001824528,0.65207523,-0.16992188,0.10938721,108.0
28776,0.026679076,0.03420742,0.001824528,0.2516968,-0.08071289,0.08814698,108.0
28777,0.18231738,0.12405783,0.096235014,0.2516968,-0.08071289,0.08814698,108.0
28778,0.18231738,0.12405783,0.096235014,-0.045666505,-0.027612304,0.078588866,108.0
28779,0.19935733,-0.022982739,-0.014283961,-0.045666505,-0.027612304,0.078588866,108.0
28780,0.19935733,-0.022982739,-0.014283961,-0.0998291,-0.0021240234,0.0722168,108.0
28781,0.14643654,-0.2736352,-0.18481585,-0.0998291,-0.0021240234,0.0722168,108.0
28782,0.14643654,-0.2736352,-0.18481585,0.03186035,-0.04248047,0.04885254,108.0
28783,0.025413401,-0.4408198,-0.2733898,0.03186035,-0.04248047,0.04885254,108.0
28784,0.025413401,-0.4408198,-0.2733898,0.03186035,-0.052038576,0.057348635,108.0
28785,-0.06613168,-0.37285846,-0.20201261,0.03186035,-0.052038576,0.057348635,108.0
28786,-0.06613168,-0.37285846,-0.20201261,0.10301514,-0.081774905,0.09770508,108.0
28787,-0.049963452,-0.1137653,-0.07136351,0.10301514,-0.081774905,0.09770508,108.0
28788,-0.049963452,-0.1137653,-0.07136351,0.0637207,-0.07327881,0.11363526,108.0
28789,-0.019011289,0.09886813,-0.0957993,0.0637207,-0.07327881,0.11363526,108.0
28790,-0.019011289,0.09886813,-0.0957993,0.118945315,-0.13912354,0.1178833,108.0
28791,-0.030541062,0.18153591,-0.12892215,0.118945315,-0.13912354,0.1178833,108.0
28792,-0.030541062,0.18153591,-0.12892215,0.12319336,-0.15823975,0.0722168,108.0
28793,-0.019012928,0.28947923,0.08481395,0.12319336,-0.15823975,0.0722168,108.0
28794,-0.019012928,0.28947923,0.08481395,0.07646485,-0.13912354,0.06690674,108.0
28795,0.076012805,0.32180554,0.39239952,0.07646485,-0.13912354,0.06690674,108.0
28796,0.076012805,0.32180554,0.39239952,-0.015930176,-0.033984374,0.046728518,108.0
28797,0.13438202,0.33492246,0.44365594,-0.015930176,-0.033984374,0.046728518,108.0
28798,0.13438202,0.33492246,0.44365594,-0.13062744,0.040356446,0.0,108.0
28799,0.04697095,0.28267187,0.109197214,-0.13062744,0.040356446,0.0,108.0
28800,0.04697095,0.28267187,0.109197214,-0.20284425,0.053100586,-0.03079834,108.0
28801,-0.04787246,0.09636454,-0.20785707,-0.20284425,0.053100586,-0.03079834,108.0
28802,-0.04787246,0.09636454,-0.20785707,-0.24107666,0.06584473,-0.06796875,108.0
28803,-0.034452755,-0.04944645,-0.17663723,-0.24107666,0.06584473,-0.06796875,108.0
28804,-0.034452755,-0.04944645,-0.17663723,-0.2166504,0.070092775,-0.078588866,108.0
28805,-0.034452755,-0.04944645,-0.17663723,-0.2166504,0.070092775,-0.078588866,107.0
28806,0.008448537,-0.1368472,-0.013880581,-0.2166504,0.070092775,-0.078588866,107.0
28807,0.008448537,-0.1368472,-0.013880581,-0.22939454,0.083898924,-0.0722168,107.0
28808,-0.014273886,-0.1626516,0.035440944,-0.22939454,0.083898924,-0.0722168,107.0
28809,-0.014273886,-0.1626516,0.035440944,-0.2177124,0.07434082,-0.045666505,107.0
28810,-0.13098699,-0.1641911,5.695522E-4,-0.2177124,0.07434082,-0.045666505,107.0
28811,-0.13098699,-0.1641911,5.695522E-4,-0.1731079,0.039294433,-0.019116212,107.0
28812,-0.20974565,-0.11987828,-0.0020223856,-0.1731079,0.039294433,-0.019116212,107.0
28813,-0.20974565,-0.11987828,-0.0020223856,-0.16992188,0.029736329,-0.007434082,107.0
28814,-0.18411732,-0.0903118,0.015850354,-0.16992188,0.029736329,-0.007434082,107.0
28815,-0.18411732,-0.0903118,0.015850354,-0.15505372,0.012744141,-0.010620117,107.0
28816,-0.1123085,-0.13056242,-0.098257214,-0.15505372,0.012744141,-0.010620117,107.0
28817,-0.1123085,-0.13056242,-0.098257214,-0.033984374,-0.043542482,0.007434082,107.0
28818,-0.036111444,-0.13928881,-0.23723614,-0.033984374,-0.043542482,0.007434082,107.0
28819,-0.036111444,-0.13928881,-0.23723614,-0.03079834,-0.0722168,0.016992187,107.0
28820,0.009697273,-0.026335835,-0.18552867,-0.03079834,-0.0722168,0.016992187,107.0
28821,0.009697273,-0.026335835,-0.18552867,-0.0541626,-0.08814698,-0.0010620117,107.0
28822,0.039056644,0.11754218,0.008583903,-0.0541626,-0.08814698,-0.0010620117,107.0
28823,0.039056644,0.11754218,0.008583903,-0.19753419,-0.0722168,-0.0361084,107.0
28824,0.102216996,0.08450005,0.10329047,-0.19753419,-0.0722168,-0.0361084,107.0
28825,0.102216996,0.08450005,0.10329047,-0.1539917,-0.070092775,-0.0063720704,107.0
28826,0.18911003,0.02312982,0.02068168,-0.1539917,-0.070092775,-0.0063720704,107.0
28827,0.18911003,0.02312982,0.02068168,-0.16248779,-0.0541626,0.007434082,107.0
28828,0.21364154,0.035227492,-0.07678962,-0.16248779,-0.0541626,0.007434082,107.0
28829,0.21364154,0.035227492,-0.07678962,-0.1996582,-0.03717041,-0.015930176,107.0
28830,0.20836441,-0.038627088,-0.0077207536,-0.1996582,-0.03717041,-0.015930176,107.0
28831,0.20836441,-0.038627088,-0.0077207536,-0.12531738,-0.016992187,0.010620117,107.0
28832,0.25189662,-0.082879215,0.24080826,-0.12531738,-0.016992187,0.010620117,107.0
28833,0.25189662,-0.082879215,0.24080826,-0.09133301,0.070092775,0.0361084,107.0
28834,0.26777706,0.058281586,0.30247328,-0.09133301,0.070092775,0.0361084,107.0
28835,0.26777706,0.058281586,0.30247328,-0.2516968,0.14974366,0.059472658,107.0
28836,0.15518844,0.15413259,0.01435411,-0.2516968,0.14974366,0.059472658,107.0
28837,0.15518844,0.15413259,0.01435411,-0.17735596,0.13275146,0.07540283,107.0
28838,-0.018964484,0.076797284,-0.20062609,-0.17735596,0.13275146,0.07540283,107.0
28839,-0.018964484,0.076797284,-0.20062609,-0.14868164,0.11469727,0.05628662,107.0
28840,-0.13314034,-0.0502443,-0.1329496,-0.14868164,0.11469727,0.05628662,107.0
28841,-0.13314034,-0.0502443,-0.1329496,-0.10301514,0.10620117,0.050976563,107.0
28842,-0.15234968,-0.11308363,0.014050476,-0.10301514,0.10620117,0.050976563,107.0
28843,-0.15234968,-0.11308363,0.014050476,-0.06159668,0.10938721,0.04248047,107.0
28844,-0.119731314,-0.05366271,0.046640776,-0.06159668,0.10938721,0.04248047,107.0
28845,-0.119731314,-0.05366271,0.046640776,-0.057348635,0.09770508,0.03079834,107.0
28846,-0.09904433,-0.039036125,-0.024650276,-0.057348635,0.09770508,0.03079834,107.0
28847,-0.09904433,-0.039036125,-0.024650276,-0.019116212,0.06478272,0.013806152,107.0
28848,-0.06646691,-0.08891934,-0.04111916,-0.019116212,0.06478272,0.013806152,107.0
28849,-0.06646691,-0.08891934,-0.04111916,0.007434082,0.07327881,0.03186035,107.0
28850,-0.0034665018,-0.084746316,0.041054875,0.007434082,0.07327881,0.03186035,107.0
28851,-0.0034665018,-0.084746316,0.041054875,0.03079834,0.08283692,0.057348635,107.0
28852,0.024546139,-0.010424003,0.07169888,0.03079834,0.08283692,0.057348635,107.0
28853,0.024546139,-0.010424003,0.07169888,0.019116212,0.083898924,0.06796875,107.0
28854,-0.015360653,0.039109528,9.87038E-4,0.019116212,0.083898924,0.06796875,107.0
28855,-0.015360653,0.039109528,9.87038E-4,0.0180542,0.08283692,0.039294433,107.0
28856,-0.11045747,0.047205582,-0.078470625,0.0180542,0.08283692,0.039294433,107.0
28857,-0.11045747,0.047205582,-0.078470625,0.08071289,0.06903076,0.019116212,107.0
28858,-0.23481373,0.116731755,-0.107661754,0.08071289,0.06903076,0.019116212,107.0
28859,-0.23481373,0.116731755,-0.107661754,0.06159668,0.03079834,-0.0180542,107.0
28860,-0.28116155,0.15096597,-0.10013087,0.06159668,0.03079834,-0.0180542,107.0
28861,-0.28116155,0.15096597,-0.10013087,0.10195313,-0.021240234,-0.016992187,107.0
28862,-0.2514185,0.050094068,0.00931181,0.10195313,-0.021240234,-0.016992187,107.0
28863,-0.2514185,0.050094068,0.00931181,0.06690674,-0.07115479,0.019116212,107.0
28864,-0.14905961,-0.19505659,0.23393871,0.06690674,-0.07115479,0.019116212,107.0
28865,-0.14905961,-0.19505659,0.23393871,0.022302246,-0.060534667,0.06159668,107.0
28866,0.044363156,-0.3026517,0.12328378,0.022302246,-0.060534667,0.06159668,107.0
28867,0.044363156,-0.3026517,0.12328378,0.1709839,-0.115759276,0.19222413,107.0
28868,0.064750776,-0.13484599,-0.060516044,0.1709839,-0.115759276,0.19222413,107.0
28869,0.064750776,-0.13484599,-0.060516044,0.081774905,-0.070092775,0.095581055,107.0
28870,-0.0685485,0.08112468,0.06296412,0.081774905,-0.070092775,0.095581055,107.0
28871,-0.0685485,0.08112468,0.06296412,0.019116212,-0.059472658,0.04991455,107.0
28872,-0.26339594,0.18776351,-0.013263956,0.019116212,-0.059472658,0.04991455,107.0
28873,-0.26339594,0.18776351,-0.013263956,0.046728518,-0.1178833,-0.020178223,107.0
28874,-0.45583394,0.32212245,-0.4415804,0.046728518,-0.1178833,-0.020178223,107.0
28875,-0.45583394,0.32212245,-0.4415804,0.009558106,-0.21452637,-0.0722168,107.0
28876,-0.33428383,0.42748556,-0.28907976,0.009558106,-0.21452637,-0.0722168,107.0
28877,-0.33428383,0.42748556,-0.28907976,-0.40037844,-0.2262085,-0.08602295,107.0
28878,-0.08811799,0.16754997,0.31116784,-0.40037844,-0.2262085,-0.08602295,107.0
28879,-0.08811799,0.16754997,0.31116784,-0.18691407,-0.13487549,-0.07752686,107.0
28880,-0.007945567,-0.100859925,0.11661005,-0.18691407,-0.13487549,-0.07752686,107.0
28881,-0.007945567,-0.100859925,0.11661005,0.1274414,-0.14761963,-0.13806152,107.0
28882,0.3987217,-0.10224556,-0.41425592,0.1274414,-0.14761963,-0.13806152,107.0
28883,0.3987217,-0.10224556,-0.41425592,0.15611573,-0.29311523,-0.45560303,107.0
28884,1.1299881,-0.3080904,-0.14814058,0.15611573,-0.29311523,-0.45560303,107.0
28885,1.1299881,-0.3080904,-0.14814058,0.14230958,-0.32497558,-0.36002198,107.0
28886,1.6167957,-0.21906754,0.750909,0.14230958,-0.32497558,-0.36002198,107.0
28887,1.6167957,-0.21906754,0.750909,-0.15611573,0.045666505,-0.083898924,107.0
28888,1.4009194,0.19387439,1.1255319,-0.15611573,0.045666505,-0.083898924,107.0
28889,1.4009194,0.19387439,1.1255319,-0.42905274,0.49171144,0.2442627,107.0
28890,0.6183308,0.21752627,0.46196115,-0.42905274,0.49171144,0.2442627,107.0
28891,0.6183308,0.21752627,0.46196115,-0.18054199,0.6510132,0.28780517,107.0
28892,0.20344144,-0.21076903,-0.38748676,-0.18054199,0.6510132,0.28780517,107.0
28893,0.20344144,-0.21076903,-0.38748676,1.0471436,0.38763428,0.08814698,107.0
28894,0.023409903,-0.08371532,-0.52288,1.0471436,0.38763428,0.08814698,107.0
28895,0.023409903,-0.08371532,-0.52288,0.2548828,0.41737062,0.035046387,107.0
28896,-0.46865004,0.30559856,0.074701354,0.2548828,0.41737062,0.035046387,107.0
28897,-0.46865004,0.30559856,0.074701354,-0.1996582,0.4704712,-0.047790527,107.0
28898,-0.95750064,-0.1180944,0.6531571,-0.1996582,0.4704712,-0.047790527,107.0
28899,-0.95750064,-0.1180944,0.6531571,-0.49383545,0.5012695,0.020178223,107.0
28900,-1.3972261,-0.7997978,-0.015889853,-0.49383545,0.5012695,0.020178223,107.0
28901,-1.3972261,-0.7997978,-0.015889853,0.04248047,0.22833252,0.2166504,107.0
28902,-1.833235,-0.35788023,-1.3592939,0.04248047,0.22833252,0.2166504,107.0
28903,-1.833235,-0.35788023,-1.3592939,0.16461182,-0.012744141,0.11469727,107.0
28904,-1.6986071,0.76655227,-1.5008873,0.16461182,-0.012744141,0.11469727,107.0
28905,-1.6986071,0.76655227,-1.5008873,-0.25700685,-0.10301514,-0.087084964,107.0
28906,-1.6986071,0.76655227,-1.5008873,-0.25700685,-0.10301514,-0.087084964,106.0
28907,-0.8577504,0.8076266,-0.40230894,-0.25700685,-0.10301514,-0.087084964,106.0
28908,-0.8577504,0.8076266,-0.40230894,-0.35152587,-0.15080567,-0.09451904,106.0
28909,-0.02175939,0.0154005885,0.31019628,-0.35152587,-0.15080567,-0.09451904,106.0
28910,-0.02175939,0.0154005885,0.31019628,-0.08496094,-0.2527588,-0.087084964,106.0
28911,0.46873754,-0.32862192,0.31763947,-0.08496094,-0.2527588,-0.087084964,106.0
28912,0.46873754,-0.32862192,0.31763947,-0.17841797,-0.3175415,-0.09239502,106.0
28913,0.75803447,-0.36323935,0.4008157,-0.17841797,-0.3175415,-0.09239502,106.0
28914,0.75803447,-0.36323935,0.4008157,-0.6903076,-0.31010744,-0.078588866,106.0
28915,0.5967963,-0.7308991,0.27530345,-0.6903076,-0.31010744,-0.078588866,106.0
28916,0.5967963,-0.7308991,0.27530345,-0.17523193,-0.39082032,0.0541626,106.0
28917,-0.018607914,-0.67564946,-0.3598842,-0.17523193,-0.39082032,0.0541626,106.0
28918,-0.018607914,-0.67564946,-0.3598842,0.3695801,-0.3727661,0.16461182,106.0
28919,0.102618575,-0.060832083,-0.48424524,0.3695801,-0.3727661,0.16461182,106.0
28920,0.102618575,-0.060832083,-0.48424524,0.77314454,-0.5246338,-0.43754885,106.0
28921,0.8082179,0.23437876,0.20841679,0.77314454,-0.5246338,-0.43754885,106.0
28922,0.8082179,0.23437876,0.20841679,0.7189819,-0.40356445,-0.2888672,106.0
28923,1.0907516,0.48060605,0.67093265,0.7189819,-0.40356445,-0.2888672,106.0
28924,1.0907516,0.48060605,0.67093265,0.4630371,-0.3069214,-0.13912354,106.0
28925,1.2210021,0.8725097,1.2092681,0.4630371,-0.3069214,-0.13912354,106.0
28926,1.2210021,0.8725097,1.2092681,-0.24851075,0.08920898,0.023364259,106.0
28927,0.94107175,0.87337404,1.6004834,-0.24851075,0.08920898,0.023364259,106.0
28928,0.94107175,0.87337404,1.6004834,-1.0205933,0.4885254,0.52038574,106.0
28929,0.14021093,0.29597706,0.5367466,-1.0205933,0.4885254,0.52038574,106.0
28930,0.14021093,0.29597706,0.5367466,-0.5331299,0.49489745,0.5501221,106.0
28931,-0.26504076,-0.4624005,-1.0201876,-0.5331299,0.49489745,0.5501221,106.0
28932,-0.26504076,-0.4624005,-1.0201876,0.40037844,0.098767094,0.118945315,106.0
28933,-0.27810925,-0.5487778,-1.4686037,0.40037844,0.098767094,0.118945315,106.0
28934,-0.27810925,-0.5487778,-1.4686037,0.270813,0.06159668,0.1178833,106.0
28935,-0.3354879,-0.3142664,-0.76676536,0.270813,0.06159668,0.1178833,106.0
28936,-0.3354879,-0.3142664,-0.76676536,0.21877442,0.0180542,0.18479005,106.0
28937,-0.36325115,-0.23675248,0.32207358,0.21877442,0.0180542,0.18479005,106.0
28938,-0.36325115,-0.23675248,0.32207358,0.9228882,0.0031860352,0.21240234,106.0
28939,-0.40589634,0.102492556,0.9683156,0.9228882,0.0031860352,0.21240234,106.0
28940,-0.40589634,0.102492556,0.9683156,0.1263794,0.18054199,0.20390625,106.0
28941,-0.34075713,0.22435245,0.60231364,0.1263794,0.18054199,0.20390625,106.0
28942,-0.34075713,0.22435245,0.60231364,-0.19753419,0.25700685,0.1263794,106.0
28943,-0.04655589,0.03935744,-0.45925018,-0.19753419,0.25700685,0.1263794,106.0
28944,-0.04655589,0.03935744,-0.45925018,0.027612304,0.21558838,0.0541626,106.0
28945,0.26304826,0.06433508,-0.99392605,0.027612304,0.21558838,0.0541626,106.0
28946,0.26304826,0.06433508,-0.99392605,-0.08814698,0.27612305,-0.04248047,106.0
28947,0.2887223,-0.009835649,-0.53609544,-0.08814698,0.27612305,-0.04248047,106.0
28948,0.2887223,-0.009835649,-0.53609544,0.095581055,0.3079834,-0.10089111,106.0
28949,0.13222295,0.16860853,-0.16261661,0.095581055,0.3079834,-0.10089111,106.0
28950,0.13222295,0.16860853,-0.16261661,0.0180542,0.2442627,-0.18054199,106.0
28951,0.10331255,0.7657218,-0.34012747,0.0180542,0.2442627,-0.18054199,106.0
28952,0.10331255,0.7657218,-0.34012747,0.16779785,0.1444336,-0.3812622,106.0
28953,0.2966515,0.90165216,-0.3370678,0.16779785,0.1444336,-0.3812622,106.0
28954,0.2966515,0.90165216,-0.3370678,-0.24320069,0.060534667,-0.35789797,106.0
28955,0.47154975,0.2056357,0.10797027,-0.24320069,0.060534667,-0.35789797,106.0
28956,0.47154975,0.2056357,0.10797027,-0.28355715,0.023364259,-0.26975098,106.0
28957,0.26460552,-0.6099788,1.2263298,-0.28355715,0.023364259,-0.26975098,106.0
28958,0.26460552,-0.6099788,1.2263298,0.033984374,0.13275146,-0.12956543,106.0
28959,-0.18696064,-1.1157418,1.8677949,0.033984374,0.13275146,-0.12956543,106.0
28960,-0.18696064,-1.1157418,1.8677949,-0.2262085,0.29311523,0.03079834,106.0
28961,-0.564632,-1.4257722,0.8907081,-0.2262085,0.29311523,0.03079834,106.0
28962,-0.564632,-1.4257722,0.8907081,-0.33771974,0.4088745,0.25063476,106.0
28963,-0.90684474,-0.94310796,-0.8035224,-0.33771974,0.4088745,0.25063476,106.0
28964,-0.90684474,-0.94310796,-0.8035224,0.43011475,0.1274414,0.24213867,106.0
28965,-1.112512,0.8362485,-1.913399,0.43011475,0.1274414,0.24213867,106.0
28966,-1.112512,0.8362485,-1.913399,-0.26550293,0.047790527,-0.09451904,106.0
28967,-0.8551707,1.7786303,-1.4273013,-0.26550293,0.047790527,-0.09451904,106.0
28968,-0.8551707,1.7786303,-1.4273013,-0.7784546,0.059472658,-0.28780517,106.0
28969,-0.33142662,0.563346,-0.14247578,-0.7784546,0.059472658,-0.28780517,106.0
28970,-0.33142662,0.563346,-0.14247578,-0.33134767,0.06903076,-0.2824951,106.0
28971,0.13993683,-0.65468204,0.56141,-0.33134767,0.06903076,-0.2824951,106.0
28972,0.13993683,-0.65468204,0.56141,-0.16673584,0.16779785,-0.23151855,106.0
28973,0.49455446,-0.72221977,0.47881553,-0.16673584,0.16779785,-0.23151855,106.0
28974,0.49455446,-0.72221977,0.47881553,-0.107263185,0.20072022,-0.14974366,106.0
28975,0.59683985,-0.21222407,0.10672185,-0.107263185,0.20072022,-0.14974366,106.0
28976,0.59683985,-0.21222407,0.10672185,-0.1539917,0.17416993,-0.087084964,106.0
28977,0.3469299,0.20774761,-0.07570651,-0.1539917,0.17416993,-0.087084964,106.0
28978,0.3469299,0.20774761,-0.07570651,-0.30479738,0.1539917,-0.118945315,106.0
28979,-0.23321047,0.16564876,0.07052609,-0.30479738,0.1539917,-0.118945315,106.0
28980,-0.23321047,0.16564876,0.07052609,-0.44604492,0.12531738,-0.1083252,106.0
28981,-0.9079185,-0.049500033,0.21091306,-0.44604492,0.12531738,-0.1083252,106.0
28982,-0.9079185,-0.049500033,0.21091306,-0.2538208,0.033984374,-0.0998291,106.0
28983,-1.1867474,0.4001949,0.21310303,-0.2538208,0.033984374,-0.0998291,106.0
28984,-1.1867474,0.4001949,0.21310303,-0.2527588,0.0031860352,-0.16673584,106.0
28985,-0.73518896,1.0808249,0.18478906,-0.2527588,0.0031860352,-0.16673584,106.0
28986,-0.73518896,1.0808249,0.18478906,-0.6881836,0.025488282,-0.3175415,106.0
28987,0.005525589,0.7867668,-0.10236406,-0.6881836,0.025488282,-0.3175415,106.0
28988,0.005525589,0.7867668,-0.10236406,-0.7699585,-0.098767094,-0.22939454,106.0
28989,0.36930084,-0.3804132,-0.5378361,-0.7699585,-0.098767094,-0.22939454,106.0
28990,0.36930084,-0.3804132,-0.5378361,-0.38763428,-0.28568116,-0.31116945,106.0
28991,0.54917604,-1.2068208,-0.44849396,-0.38763428,-0.28568116,-0.31116945,106.0
28992,0.54917604,-1.2068208,-0.44849396,0.25913087,-0.4163086,-0.17947999,106.0
28993,0.88038087,-0.611172,0.11469117,0.25913087,-0.4163086,-0.17947999,106.0
28994,0.88038087,-0.611172,0.11469117,-0.19116211,-0.42055663,-0.2262085,106.0
28995,1.2946856,0.005801171,0.6870288,-0.19116211,-0.42055663,-0.2262085,106.0
28996,1.2946856,0.005801171,0.6870288,-0.9122681,-0.11469727,-0.34833986,106.0
28997,1.4346864,-0.96337664,0.8896866,-0.9122681,-0.11469727,-0.34833986,106.0
28998,1.4346864,-0.96337664,0.8896866,0.15505372,-0.0361084,0.20921631,106.0
28999,1.1471754,-1.347691,0.6960632,0.15505372,-0.0361084,0.20921631,106.0
29000,1.1471754,-1.347691,0.6960632,0.4800293,0.019116212,0.31116945,106.0
29001,0.2807653,-0.27324563,-0.022531748,0.4800293,0.019116212,0.31116945,106.0
29002,0.2807653,-0.27324563,-0.022531748,0.41737062,0.14230958,0.18797608,106.0
29003,-0.029574752,0.42752165,-0.38636038,0.41737062,0.14230958,0.18797608,106.0
29004,-0.029574752,0.42752165,-0.38636038,0.20390625,0.1083252,0.078588866,106.0
29005,-0.78116715,1.0677742,-0.8213442,0.20390625,0.1083252,0.078588866,106.0
29006,-0.78116715,1.0677742,-0.8213442,0.20390625,0.1083252,0.078588866,105.0
29007,-0.78116715,1.0677742,-0.8213442,0.06159668,-0.0021240234,-0.038232423,105.0
29008,-0.82445765,0.5256915,-0.40171647,0.06159668,-0.0021240234,-0.038232423,105.0
29009,-0.82445765,0.5256915,-0.40171647,0.2803711,-0.021240234,0.022302246,105.0
29010,-1.1432942,-0.22153664,0.7246351,0.2803711,-0.021240234,0.022302246,105.0
29011,-1.1432942,-0.22153664,0.7246351,0.4970215,0.060534667,0.21240234,105.0
29012,-1.0195304,-0.02343291,0.5280968,0.4970215,0.060534667,0.21240234,105.0
29013,-1.0195304,-0.02343291,0.5280968,0.271875,0.058410645,0.06903076,105.0
29014,-0.5493279,0.62596804,-0.6345782,0.271875,0.058410645,0.06903076,105.0
29015,-0.5493279,0.62596804,-0.6345782,0.12531738,-0.11257324,0.019116212,105.0
29016,-0.20949405,0.6163018,-0.8724698,0.12531738,-0.11257324,0.019116212,105.0
29017,-0.20949405,0.6163018,-0.8724698,0.0637207,-0.14761963,0.010620117,105.0
29018,0.3970288,0.6579706,-1.0874412,0.0637207,-0.14761963,0.010620117,105.0
29019,0.3970288,0.6579706,-1.0874412,-0.26868898,-0.20072022,-0.23045655,105.0
29020,0.35078955,0.4605684,-0.64999443,-0.26868898,-0.20072022,-0.23045655,105.0
29021,0.35078955,0.4605684,-0.64999443,-0.33878174,-0.2081543,-0.28674316,105.0
29022,0.25182307,-0.31190416,0.7071895,-0.33878174,-0.2081543,-0.28674316,105.0
29023,0.25182307,-0.31190416,0.7071895,-0.36427003,-0.26125488,-0.24320069,105.0
29024,0.16311616,-0.34147888,0.80710906,-0.36427003,-0.26125488,-0.24320069,105.0
29025,0.16311616,-0.34147888,0.80710906,-0.32709962,-0.29417726,-0.2538208,105.0
29026,0.37167946,-0.6456075,0.7482019,-0.32709962,-0.29417726,-0.2538208,105.0
29027,0.37167946,-0.6456075,0.7482019,-0.2888672,-0.24213867,-0.30267334,105.0
29028,0.676262,-0.9024723,0.6596577,-0.2888672,-0.24213867,-0.30267334,105.0
29029,0.676262,-0.9024723,0.6596577,0.14868164,-0.03186035,-0.0031860352,105.0
29030,0.6769105,-0.46101594,0.5685709,0.14868164,-0.03186035,-0.0031860352,105.0
29031,0.6769105,-0.46101594,0.5685709,-0.24213867,0.2548828,0.04991455,105.0
29032,0.56115735,0.27109203,-0.0026261806,-0.24213867,0.2548828,0.04991455,105.0
29033,0.56115735,0.27109203,-0.0026261806,0.19434814,0.22833252,0.083898924,105.0
29034,0.4147706,0.6353917,-0.68164194,0.19434814,0.22833252,0.083898924,105.0
29035,0.4147706,0.6353917,-0.68164194,0.081774905,0.21452637,-0.11044922,105.0
29036,0.26833993,0.23408242,-0.61834824,0.081774905,0.21452637,-0.11044922,105.0
29037,0.26833993,0.23408242,-0.61834824,0.14868164,0.29948732,-0.20709229,105.0
29038,0.075377524,-0.22136444,0.5555167,0.14868164,0.29948732,-0.20709229,105.0
29039,0.075377524,-0.22136444,0.5555167,-0.12531738,0.49064943,-0.19222413,105.0
29040,-0.37834543,-0.2561565,1.0432415,-0.12531738,0.49064943,-0.19222413,105.0
29041,-0.37834543,-0.2561565,1.0432415,0.083898924,0.4609131,0.026550293,105.0
29042,-1.4315581,0.09124179,-0.76462555,0.083898924,0.4609131,0.026550293,105.0
29043,-1.4315581,0.09124179,-0.76462555,0.05522461,0.16142578,-0.04141846,105.0
29044,-1.3418407,0.037202418,-1.0648621,0.05522461,0.16142578,-0.04141846,105.0
29045,-1.3418407,0.037202418,-1.0648621,0.3058594,0.052038576,-0.027612304,105.0
29046,-0.63771826,0.11267209,-0.7737403,0.3058594,0.052038576,-0.027612304,105.0
29047,-0.63771826,0.11267209,-0.7737403,-0.1178833,-0.040356446,-0.07115479,105.0
29048,-0.19175422,0.061316878,-0.3948589,-0.1178833,-0.040356446,-0.07115479,105.0
29049,-0.19175422,0.061316878,-0.3948589,-0.0031860352,-0.07434082,-0.081774905,105.0
29050,0.61975336,-0.6136052,0.11023593,-0.0031860352,-0.07434082,-0.081774905,105.0
29051,0.61975336,-0.6136052,0.11023593,-0.0031860352,-0.1274414,0.047790527,105.0
29052,0.61521184,-0.78778356,0.13174343,-0.0031860352,-0.1274414,0.047790527,105.0
29053,0.61521184,-0.78778356,0.13174343,0.25594482,-0.14018555,0.11257324,105.0
29054,0.5477725,-0.9363914,0.016759515,0.25594482,-0.14018555,0.11257324,105.0
29055,0.5477725,-0.9363914,0.016759515,0.7582764,-0.13487549,0.31010744,105.0
29056,0.34512722,-0.7453289,0.004020393,0.7582764,-0.13487549,0.31010744,105.0
29057,0.34512722,-0.7453289,0.004020393,0.70198977,-0.07646485,0.2527588,105.0
29058,-0.038827434,-0.63525236,0.38593116,0.70198977,-0.07646485,0.2527588,105.0
29059,-0.038827434,-0.63525236,0.38593116,0.8326172,0.009558106,0.42055663,105.0
29060,-0.39040035,-0.8904773,0.5860643,0.8326172,0.009558106,0.42055663,105.0
29061,-0.39040035,-0.8904773,0.5860643,1.4613281,-0.0031860352,0.5214478,105.0
29062,-0.42425877,0.23672712,0.29010385,1.4613281,-0.0031860352,0.5214478,105.0
29063,-0.42425877,0.23672712,0.29010385,1.6705445,0.07327881,0.34727785,105.0
29064,-0.034267843,2.732558,-0.08368839,1.6705445,0.07327881,0.34727785,105.0
29065,-0.034267843,2.732558,-0.08368839,1.2329956,0.095581055,0.058410645,105.0
29066,0.042336702,4.1775746,-0.58257574,1.2329956,0.095581055,0.058410645,105.0
29067,0.042336702,4.1775746,-0.58257574,-0.04141846,-0.12213135,-0.2177124,105.0
29068,-0.17253932,2.7570133,-0.60143656,-0.04141846,-0.12213135,-0.2177124,105.0
29069,-0.17253932,2.7570133,-0.60143656,-0.994043,-0.11469727,-0.21346436,105.0
29070,-0.19893235,-1.1301925,0.33861396,-0.994043,-0.11469727,-0.21346436,105.0
29071,-0.19893235,-1.1301925,0.33861396,0.5076416,-0.12956543,0.1539917,105.0
29072,-0.1081205,-3.3313148,1.1872486,0.5076416,-0.12956543,0.1539917,105.0
29073,-0.1081205,-3.3313148,1.1872486,1.0089111,-0.0053100586,0.33240968,105.0
29074,0.05451922,-1.7595831,0.7091129,1.0089111,-0.0053100586,0.33240968,105.0
29075,0.05451922,-1.7595831,0.7091129,0.17947999,0.1444336,0.29205322,105.0
29076,0.10645719,0.19494584,-0.7096751,0.17947999,0.1444336,0.29205322,105.0
29077,0.10645719,0.19494584,-0.7096751,-0.24957275,0.1083252,0.2527588,105.0
29078,-0.06783718,0.44993863,-1.5296663,-0.24957275,0.1083252,0.2527588,105.0
29079,-0.06783718,0.44993863,-1.5296663,0.13806152,-0.10407715,0.25063476,105.0
29080,-0.27835423,0.21566379,-1.0318019,0.13806152,-0.10407715,0.25063476,105.0
29081,-0.27835423,0.21566379,-1.0318019,0.06265869,-0.1444336,0.24320069,105.0
29082,-0.3869656,0.32570487,0.05397737,0.06265869,-0.1444336,0.24320069,105.0
29083,-0.3869656,0.32570487,0.05397737,-0.15717773,-0.18797608,0.2442627,105.0
29084,-0.42690647,0.74274164,0.6663997,-0.15717773,-0.18797608,0.2442627,105.0
29085,-0.42690647,0.74274164,0.6663997,-0.69136965,-0.21134034,0.19222413,105.0
29086,-0.30929863,1.2659218,0.3804098,-0.69136965,-0.21134034,0.19222413,105.0
29087,-0.30929863,1.2659218,0.3804098,-1.4761963,-0.2899292,0.08283692,105.0
29088,-0.09898919,1.2966975,-0.2832088,-1.4761963,-0.2899292,0.08283692,105.0
29089,-0.09898919,1.2966975,-0.2832088,-2.077295,-0.34833986,-0.08920898,105.0
29090,0.09118217,-0.2364701,-0.34327847,-2.077295,-0.34833986,-0.08920898,105.0
29091,0.09118217,-0.2364701,-0.34327847,-1.4868164,-0.44923097,-0.14761963,105.0
29092,0.45057026,-1.9808265,0.69227177,-1.4868164,-0.44923097,-0.14761963,105.0
29093,0.45057026,-1.9808265,0.69227177,-0.41949463,-0.35471192,-0.115759276,105.0
29094,0.9934152,-1.6029108,1.5676725,-0.41949463,-0.35471192,-0.115759276,105.0
29095,0.9934152,-1.6029108,1.5676725,-0.09451904,-0.14124756,-0.020178223,105.0
29096,1.1987239,-0.008305192,1.0535765,-0.09451904,-0.14124756,-0.020178223,105.0
29097,1.1987239,-0.008305192,1.0535765,-0.27612305,-0.008496094,-0.08920898,105.0
29098,0.9107735,0.5312098,0.08877179,-0.27612305,-0.008496094,-0.08920898,105.0
29099,0.9107735,0.5312098,0.08877179,-0.3430298,0.04460449,-0.059472658,105.0
29100,0.4662165,0.068168566,-0.0074859858,-0.3430298,0.04460449,-0.059472658,105.0
29101,0.4662165,0.068168566,-0.0074859858,0.053100586,0.1359375,0.013806152,105.0
29102,0.11579549,-0.020782527,0.2687915,0.053100586,0.1359375,0.013806152,105.0
29103,0.11579549,-0.020782527,0.2687915,0.009558106,0.2623169,0.022302246,105.0
29104,-0.093569666,0.29838863,0.020599604,0.009558106,0.2623169,0.022302246,105.0
29105,-0.093569666,0.29838863,0.020599604,-0.10513916,0.27399904,-0.03186035,105.0
29106,-0.3089622,0.3625024,-0.5494261,-0.10513916,0.27399904,-0.03186035,105.0
29107,-0.3089622,0.3625024,-0.5494261,-0.10513916,0.27399904,-0.03186035,105.0
29108,-0.3089622,0.3625024,-0.5494261,-0.050976563,0.16673584,-0.043542482,105.0
29109,-0.52933526,0.14267527,-0.81240463,-0.050976563,0.16673584,-0.043542482,105.0
29110,-0.52933526,0.14267527,-0.81240463,-0.019116212,0.08283692,-0.11363526,105.0
29111,-0.630292,-0.19523479,-0.60173035,-0.019116212,0.08283692,-0.11363526,105.0
29112,-0.630292,-0.19523479,-0.60173035,-0.016992187,0.014868164,-0.07327881,105.0
29113,-0.5754982,-0.41292614,-0.22944337,-0.016992187,0.014868164,-0.07327881,105.0
29114,-0.5754982,-0.41292614,-0.22944337,0.070092775,-0.023364259,-0.06265869,105.0
29115,-0.42076236,-0.43803135,0.19271484,0.070092775,-0.023364259,-0.06265869,105.0
29116,-0.42076236,-0.43803135,0.19271484,0.21983643,-0.10938721,0.047790527,105.0
29117,-0.26568705,-0.5146463,0.5624971,0.21983643,-0.10938721,0.047790527,105.0
29118,-0.26568705,-0.5146463,0.5624971,-0.060534667,-0.08071289,0.17416993,105.0
29119,-0.29245687,-0.62061596,0.46226573,-0.060534667,-0.08071289,0.17416993,105.0
29120,-0.29245687,-0.62061596,0.46226573,0.098767094,-0.06584473,0.28568116,105.0
29121,-0.45000553,-0.2786583,0.11984922,0.098767094,-0.06584473,0.28568116,105.0
29122,-0.45000553,-0.2786583,0.11984922,0.33240968,-0.053100586,0.14124756,105.0
29123,-0.3894844,0.42375305,-0.3568794,0.33240968,-0.053100586,0.14124756,105.0
29124,-0.3894844,0.42375305,-0.3568794,0.32285157,-0.081774905,-0.014868164,105.0
29125,-0.0036773682,0.98095804,-1.2577691,0.32285157,-0.081774905,-0.014868164,105.0
29126,-0.0036773682,0.98095804,-1.2577691,-0.019116212,-0.18054199,-0.14230958,105.0
29127,0.3959595,1.2121835,-1.6009053,-0.019116212,-0.18054199,-0.14230958,105.0
29128,0.3959595,1.2121835,-1.6009053,-0.38657227,-0.29205322,-0.32497558,105.0
29129,0.599043,0.62146795,-0.6737907,-0.38657227,-0.29205322,-0.32497558,105.0
29130,0.599043,0.62146795,-0.6737907,-0.3334717,-0.35046387,-0.36745605,105.0
29131,0.5508164,-0.28649265,0.23372138,-0.3334717,-0.35046387,-0.36745605,105.0
29132,0.5508164,-0.28649265,0.23372138,0.18266602,-0.4630371,-0.29099122,105.0
29133,0.59103155,-0.5241771,0.72335404,0.18266602,-0.4630371,-0.29099122,105.0
29134,0.59103155,-0.5241771,0.72335404,0.1901001,-0.45666504,-0.4088745,105.0
29135,0.8148907,-0.66078454,1.7458098,0.1901001,-0.45666504,-0.4088745,105.0
29136,0.8148907,-0.66078454,1.7458098,-0.012744141,-0.019116212,0.029736329,105.0
29137,0.83317477,-0.48290008,2.2152758,-0.012744141,-0.019116212,0.029736329,105.0
29138,0.83317477,-0.48290008,2.2152758,-0.4067505,0.54375,0.3334717,105.0
29139,0.6830926,0.100923575,0.88680804,-0.4067505,0.54375,0.3334717,105.0
29140,0.6830926,0.100923575,0.88680804,0.40462646,0.45454103,-0.29099122,105.0
29141,0.39967227,0.48836827,-0.8292743,0.40462646,0.45454103,-0.29099122,105.0
29142,0.39967227,0.48836827,-0.8292743,0.22408448,0.3982544,0.04141846,105.0
29143,0.0766958,0.4872278,-1.3751137,0.22408448,0.3982544,0.04141846,105.0
29144,0.0766958,0.4872278,-1.3751137,0.115759276,0.3154175,-0.24957275,105.0
29145,-0.17630208,0.0072016865,-0.5119807,0.115759276,0.3154175,-0.24957275,105.0
29146,-0.17630208,0.0072016865,-0.5119807,-0.16036378,0.32816163,-0.14655761,105.0
29147,-0.6349016,-0.60405314,0.47055462,-0.16036378,0.32816163,-0.14655761,105.0
29148,-0.6349016,-0.60405314,0.47055462,-0.4991455,0.38232422,-0.0053100586,105.0
29149,-1.3193104,-1.2705228,0.15679038,-0.4991455,0.38232422,-0.0053100586,105.0
29150,-1.3193104,-1.2705228,0.15679038,-0.1444336,0.22408448,0.17947999,105.0
29151,-1.9685344,-0.96977514,-0.79525864,-0.1444336,0.22408448,0.17947999,105.0
29152,-1.9685344,-0.96977514,-0.79525864,0.6680054,-0.0541626,0.18903808,105.0
29153,-1.9900496,0.6204201,-1.0584848,0.6680054,-0.0541626,0.18903808,105.0
29154,-1.9900496,0.6204201,-1.0584848,-0.008496094,-0.107263185,-0.019116212,105.0
29155,-1.1750354,1.4163435,-0.55607736,-0.008496094,-0.107263185,-0.019116212,105.0
29156,-1.1750354,1.4163435,-0.55607736,-0.118945315,-0.21558838,-0.087084964,105.0
29157,-0.20411515,0.7603575,-0.07125345,-0.118945315,-0.21558838,-0.087084964,105.0
29158,-0.20411515,0.7603575,-0.07125345,0.015930176,-0.33028564,-0.115759276,105.0
29159,0.44790173,-0.096084125,0.22456461,0.015930176,-0.33028564,-0.115759276,105.0
29160,0.44790173,-0.096084125,0.22456461,-0.058410645,-0.32178956,-0.040356446,105.0
29161,0.82282335,-0.64377403,0.37535483,-0.058410645,-0.32178956,-0.040356446,105.0
29162,0.82282335,-0.64377403,0.37535483,-0.08814698,-0.36002198,0.12956543,105.0
29163,0.9091865,-0.66884005,0.12997139,-0.08814698,-0.36002198,0.12956543,105.0
29164,0.9091865,-0.66884005,0.12997139,0.21027832,-0.47471926,0.03717041,105.0
29165,0.65216607,-0.18697634,-0.33456048,0.21027832,-0.47471926,0.03717041,105.0
29166,0.65216607,-0.18697634,-0.33456048,-0.035046387,-0.4428589,-0.1083252,105.0
29167,0.5355512,-0.22063822,-0.27402046,-0.035046387,-0.4428589,-0.1083252,105.0
29168,0.5355512,-0.22063822,-0.27402046,1.1809571,-0.58623046,-0.53950197,105.0
29169,0.7048448,-0.26741636,0.36902827,1.1809571,-0.58623046,-0.53950197,105.0
29170,0.7048448,-0.26741636,0.36902827,0.9866089,-0.34727785,-0.17523193,105.0
29171,0.8713832,0.40276614,0.65321827,0.9866089,-0.34727785,-0.17523193,105.0
29172,0.8713832,0.40276614,0.65321827,0.6467652,-0.22089843,-0.021240234,105.0
29173,1.044421,1.2991782,0.9349037,0.6467652,-0.22089843,-0.021240234,105.0
29174,1.044421,1.2991782,0.9349037,0.06796875,0.1274414,0.06265869,105.0
29175,0.7023703,1.6762811,1.4067975,0.06796875,0.1274414,0.06265869,105.0
29176,0.7023703,1.6762811,1.4067975,-0.9345703,0.45666504,0.26868898,105.0
29177,-0.100908935,0.7153169,0.8746079,-0.9345703,0.45666504,0.26868898,105.0
29178,-0.100908935,0.7153169,0.8746079,-0.814563,0.37807617,0.36851808,105.0
29179,-0.62339073,-0.74188226,-0.64760375,-0.814563,0.37807617,0.36851808,105.0
29180,-0.62339073,-0.74188226,-0.64760375,1.1448487,0.026550293,0.07646485,105.0
29181,-0.6703923,-0.7403198,-1.6660688,1.1448487,0.026550293,0.07646485,105.0
29182,-0.6703923,-0.7403198,-1.6660688,-0.0021240234,-0.15186767,0.16673584,105.0
29183,-0.41783237,-0.25011718,-0.9032042,-0.0021240234,-0.15186767,0.16673584,105.0
29184,-0.41783237,-0.25011718,-0.9032042,-0.24213867,-0.081774905,0.11363526,105.0
29185,-0.064197555,-0.61239845,0.4816969,-0.24213867,-0.081774905,0.11363526,105.0
29186,-0.064197555,-0.61239845,0.4816969,0.3069214,-0.010620117,0.08814698,105.0
29187,0.1211151,-0.52340263,0.82402945,0.3069214,-0.010620117,0.08814698,105.0
29188,0.1211151,-0.52340263,0.82402945,0.65632325,0.06796875,0.12850343,105.0
29189,0.048393548,0.1526402,0.44185293,0.65632325,0.06796875,0.12850343,105.0
29190,0.048393548,0.1526402,0.44185293,-0.10407715,0.2357666,0.032922365,105.0
29191,0.013360828,0.058367044,-0.29473543,-0.10407715,0.2357666,0.032922365,105.0
29192,0.013360828,0.058367044,-0.29473543,0.20603028,0.22727051,0.03186035,105.0
29193,0.16189715,-0.12598702,-0.71575665,0.20603028,0.22727051,0.03186035,105.0
29194,0.16189715,-0.12598702,-0.71575665,0.1529297,0.24851075,0.011682129,105.0
29195,0.3301647,0.03470842,-0.18338412,0.1529297,0.24851075,0.011682129,105.0
29196,0.3301647,0.03470842,-0.18338412,-0.1178833,0.51932377,-0.11363526,105.0
29197,0.40769866,0.2834186,0.36463305,-0.1178833,0.51932377,-0.11363526,105.0
29198,0.40769866,0.2834186,0.36463305,-0.06690674,0.5384399,-0.1985962,105.0
29199,0.38004076,0.7489151,-0.15739024,-0.06690674,0.5384399,-0.1985962,105.0
29200,0.38004076,0.7489151,-0.15739024,-0.20496826,0.49171144,-0.4428589,105.0
29201,0.38004076,0.7489151,-0.15739024,-0.20496826,0.49171144,-0.4428589,104.0
29202,0.21136904,0.64857054,-0.94801915,-0.20496826,0.49171144,-0.4428589,104.0
29203,0.21136904,0.64857054,-0.94801915,-0.28355715,0.31966552,-0.36108398,104.0
29204,-0.1568447,-0.25215188,-0.66479963,-0.28355715,0.31966552,-0.36108398,104.0
29205,-0.1568447,-0.25215188,-0.66479963,-0.1985962,0.19222413,-0.24001466,104.0
29206,-0.68029755,-1.0232548,0.875692,-0.1985962,0.19222413,-0.24001466,104.0
29207,-0.68029755,-1.0232548,0.875692,-0.15823975,0.2347046,-0.0722168,104.0
29208,-1.0963743,-1.5205935,1.7402143,-0.15823975,0.2347046,-0.0722168,104.0
29209,-1.0963743,-1.5205935,1.7402143,-0.32709962,0.2984253,0.24851075,104.0
29210,-1.1793089,-1.3253493,0.33026958,-0.32709962,0.2984253,0.24851075,104.0
29211,-1.1793089,-1.3253493,0.33026958,0.49064943,0.07540283,0.3419678,104.0
29212,-0.964309,0.42740357,-1.2386408,0.49064943,0.07540283,0.3419678,104.0
29213,-0.964309,0.42740357,-1.2386408,-0.16673584,0.17523193,0.032922365,104.0
29214,-0.42064154,1.7649698,-1.3050485,-0.16673584,0.17523193,0.032922365,104.0
29215,-0.42064154,1.7649698,-1.3050485,-0.71579593,0.19541016,-0.10089111,104.0
29216,0.06296188,1.0356697,-0.86806214,-0.71579593,0.19541016,-0.10089111,104.0
29217,0.06296188,1.0356697,-0.86806214,-0.3462158,0.0361084,-0.14230958,104.0
29218,0.26278406,-0.15082218,-0.61204004,-0.3462158,0.0361084,-0.14230958,104.0
29219,0.26278406,-0.15082218,-0.61204004,-0.093457036,-0.078588866,-0.121069334,104.0
29220,0.32667014,-0.25448343,-0.43422437,-0.093457036,-0.078588866,-0.121069334,104.0
29221,0.32667014,-0.25448343,-0.43422437,-0.24107666,-0.19116211,-0.098767094,104.0
29222,0.2298908,0.4117453,0.09579682,-0.24107666,-0.19116211,-0.098767094,104.0
29223,0.2298908,0.4117453,0.09579682,-0.6595093,-0.15611573,-0.12850343,104.0
29224,0.03379056,0.4878313,0.9733416,-0.6595093,-0.15611573,-0.12850343,104.0
29225,0.03379056,0.4878313,0.9733416,-0.48321533,-0.12850343,-0.16354981,104.0
29226,-0.049993932,-0.0653868,1.5714834,-0.48321533,-0.12850343,-0.16354981,104.0
29227,-0.049993932,-0.0653868,1.5714834,-0.31329346,-0.057348635,-0.14761963,104.0
29228,0.11743891,-0.30925524,1.2239103,-0.31329346,-0.057348635,-0.14761963,104.0
29229,0.11743891,-0.30925524,1.2239103,-0.24851075,-0.05522461,-0.12956543,104.0
29230,0.35304537,-0.15438662,0.026406094,-0.24851075,-0.05522461,-0.12956543,104.0
29231,0.35304537,-0.15438662,0.026406094,-0.13275146,-0.16248779,-0.09664307,104.0
29232,0.528823,0.14431298,-0.78721255,-0.13275146,-0.16248779,-0.09664307,104.0
29233,0.528823,0.14431298,-0.78721255,-0.21134034,-0.21027832,-0.17947999,104.0
29234,0.66632015,0.10706416,-0.32775587,-0.21134034,-0.21027832,-0.17947999,104.0
29235,0.66632015,0.10706416,-0.32775587,-0.31860352,-0.15930176,-0.19541016,104.0
29236,0.7330927,-0.56948787,0.84615713,-0.31860352,-0.15930176,-0.19541016,104.0
29237,0.7330927,-0.56948787,0.84615713,-0.18054199,0.10938721,-0.07327881,104.0
29238,0.53349566,-1.2234125,1.1136322,-0.18054199,0.10938721,-0.07327881,104.0
29239,0.53349566,-1.2234125,1.1136322,0.24107666,0.21346436,0.17523193,104.0
29240,0.09847623,-0.6983712,0.1843018,0.24107666,0.21346436,0.17523193,104.0
29241,0.09847623,-0.6983712,0.1843018,0.30054933,0.1709839,0.090270996,104.0
29242,-0.21511549,0.6028509,-0.6794995,0.30054933,0.1709839,0.090270996,104.0
29243,-0.21511549,0.6028509,-0.6794995,-0.078588866,0.1178833,-0.009558106,104.0
29244,-0.27345958,1.1915703,-0.95979834,-0.078588866,0.1178833,-0.009558106,104.0
29245,-0.27345958,1.1915703,-0.95979834,-0.22408448,0.08071289,-0.10301514,104.0
29246,-0.28723693,0.71576846,-0.92092705,-0.22408448,0.08071289,-0.10301514,104.0
29247,-0.28723693,0.71576846,-0.92092705,0.23895264,-0.06796875,-0.14549561,104.0
29248,-0.33964062,0.2552442,-0.47597504,0.23895264,-0.06796875,-0.14549561,104.0
29249,-0.33964062,0.2552442,-0.47597504,0.3993164,-0.10407715,-0.22408448,104.0
29250,-0.37521592,0.19196391,0.40016478,0.3993164,-0.10407715,-0.22408448,104.0
29251,-0.37521592,0.19196391,0.40016478,0.050976563,0.013806152,-0.19541016,104.0
29252,-0.57199895,-0.3959406,0.90711915,0.050976563,0.013806152,-0.19541016,104.0
29253,-0.57199895,-0.3959406,0.90711915,-0.2262085,0.06265869,-0.022302246,104.0
29254,-0.69129056,-1.2469771,0.77521926,-0.2262085,0.06265869,-0.022302246,104.0
29255,-0.69129056,-1.2469771,0.77521926,0.22514649,0.05628662,0.081774905,104.0
29256,-0.47056174,-0.88740104,0.20959193,0.22514649,0.05628662,0.081774905,104.0
29257,-0.47056174,-0.88740104,0.20959193,0.22408448,0.06903076,0.14761963,104.0
29258,-0.13921794,0.32269636,-0.84544903,0.22408448,0.06903076,0.14761963,104.0
29259,-0.13921794,0.32269636,-0.84544903,-0.14761963,-0.081774905,-0.022302246,104.0
29260,0.19573015,0.9219266,-1.6649213,-0.14761963,-0.081774905,-0.022302246,104.0
29261,0.19573015,0.9219266,-1.6649213,-0.16248779,-0.15717773,-0.23258057,104.0
29262,0.4252853,0.5982103,-1.1462314,-0.16248779,-0.15717773,-0.23258057,104.0
29263,0.4252853,0.5982103,-1.1462314,-0.20072022,-0.1985962,-0.29205322,104.0
29264,0.49714965,-0.17567985,0.3650217,-0.20072022,-0.1985962,-0.29205322,104.0
29265,0.49714965,-0.17567985,0.3650217,-0.16779785,-0.06265869,-0.19647217,104.0
29266,0.38819826,-0.49878365,1.0571296,-0.16779785,-0.06265869,-0.19647217,104.0
29267,0.38819826,-0.49878365,1.0571296,-0.1359375,-0.10407715,-0.17947999,104.0
29268,0.14327344,-0.87684673,0.45123354,-0.1359375,-0.10407715,-0.17947999,104.0
29269,0.14327344,-0.87684673,0.45123354,0.41418457,-0.31010744,-0.22089843,104.0
29270,0.09529503,-1.1293827,0.12089893,0.41418457,-0.31010744,-0.22089843,104.0
29271,0.09529503,-1.1293827,0.12089893,0.8931519,-0.2516968,0.0021240234,104.0
29272,0.20292059,0.09174526,0.28540325,0.8931519,-0.2516968,0.0021240234,104.0
29273,0.20292059,0.09174526,0.28540325,0.20284425,-0.07540283,0.06584473,104.0
29274,0.289607,1.3508865,0.09023665,0.20284425,-0.07540283,0.06584473,104.0
29275,0.289607,1.3508865,0.09023665,-0.04141846,-0.027612304,-0.07115479,104.0
29276,0.32366556,1.1189783,0.18079528,-0.04141846,-0.027612304,-0.07115479,104.0
29277,0.32366556,1.1189783,0.18079528,-0.18479005,0.07115479,-0.0063720704,104.0
29278,0.21237485,0.11779001,0.5251294,-0.18479005,0.07115479,-0.0063720704,104.0
29279,0.21237485,0.11779001,0.5251294,-0.23364258,0.1720459,0.17416993,104.0
29280,0.11789793,-0.30576798,0.40004736,-0.23364258,0.1720459,0.17416993,104.0
29281,0.11789793,-0.30576798,0.40004736,-0.44816896,0.21134034,0.081774905,104.0
29282,0.15165478,-0.08034438,-0.19255976,-0.44816896,0.21134034,0.081774905,104.0
29283,0.15165478,-0.08034438,-0.19255976,-0.15717773,0.107263185,-0.04991455,104.0
29284,0.25845763,0.19695497,-0.54566157,-0.15717773,0.107263185,-0.04991455,104.0
29285,0.25845763,0.19695497,-0.54566157,-0.25806886,0.2166504,-0.107263185,104.0
29286,0.33463478,-0.21761914,-0.16528903,-0.25806886,0.2166504,-0.107263185,104.0
29287,0.33463478,-0.21761914,-0.16528903,-0.2527588,0.29417726,-0.027612304,104.0
29288,0.21803743,-0.75082874,0.4828933,-0.2527588,0.29417726,-0.027612304,104.0
29289,0.21803743,-0.75082874,0.4828933,0.1444336,0.33984375,0.08920898,104.0
29290,-0.12237182,-0.2107826,0.7400256,0.1444336,0.33984375,0.08920898,104.0
29291,-0.12237182,-0.2107826,0.7400256,-0.04248047,0.4895874,0.057348635,104.0
29292,-0.49157423,0.57188904,0.18298727,-0.04248047,0.4895874,0.057348635,104.0
29293,-0.49157423,0.57188904,0.18298727,-0.24957275,0.46516114,0.057348635,104.0
29294,-0.74195325,0.53834623,-0.83664244,-0.24957275,0.46516114,0.057348635,104.0
29295,-0.74195325,0.53834623,-0.83664244,-0.1720459,0.2538208,0.035046387,104.0
29296,-0.8364215,0.085718475,-1.1343408,-0.1720459,0.2538208,0.035046387,104.0
29297,-0.8364215,0.085718475,-1.1343408,-0.05522461,0.10301514,0.008496094,104.0
29298,-0.82582664,-0.14477971,-0.5315815,-0.05522461,0.10301514,0.008496094,104.0
29299,-0.82582664,-0.14477971,-0.5315815,0.11151123,0.03079834,0.013806152,104.0
29300,-0.68531954,0.058724567,-0.20585608,0.11151123,0.03079834,0.013806152,104.0
29301,-0.68531954,0.058724567,-0.20585608,0.11044922,-0.059472658,-0.0010620117,104.0
29302,-0.3931775,0.2624948,-0.17165509,0.11044922,-0.059472658,-0.0010620117,104.0
29303,-0.3931775,0.2624948,-0.17165509,-0.06478272,-0.121069334,-0.03186035,104.0
29304,0.05411035,-0.15842457,0.17100114,-0.06478272,-0.121069334,-0.03186035,104.0
29305,0.05411035,-0.15842457,0.17100114,0.19222413,-0.124255374,-0.028674318,104.0
29306,0.41718963,-0.6369936,0.4588468,0.19222413,-0.124255374,-0.028674318,104.0
29307,0.41718963,-0.6369936,0.4588468,0.124255374,-0.08071289,0.07327881,104.0
29308,0.53173757,-0.50769055,0.42401105,0.124255374,-0.08071289,0.07327881,104.0
29309,0.53173757,-0.50769055,0.42401105,0.124255374,-0.08071289,0.07327881,104.0
29310,0.53173757,-0.50769055,0.42401105,0.19222413,-0.028674318,0.053100586,104.0
29311,0.47685492,-0.056115836,0.38872057,0.19222413,-0.028674318,0.053100586,104.0
29312,0.47685492,-0.056115836,0.38872057,0.15930176,0.058410645,0.032922365,104.0
29313,0.22871293,0.18844475,0.24869618,0.15930176,0.058410645,0.032922365,104.0
29314,0.22871293,0.18844475,0.24869618,0.09239502,0.059472658,0.019116212,104.0
29315,-0.017322622,0.038829535,-0.15543759,0.09239502,0.059472658,0.019116212,104.0
29316,-0.017322622,0.038829535,-0.15543759,0.18691407,0.025488282,0.029736329,104.0
29317,-0.016738959,0.2895475,-0.17499705,0.18691407,0.025488282,0.029736329,104.0
29318,-0.016738959,0.2895475,-0.17499705,0.04248047,-0.021240234,-0.059472658,104.0
29319,0.17449945,0.7696019,-0.062373128,0.04248047,-0.021240234,-0.059472658,104.0
29320,0.17449945,0.7696019,-0.062373128,-0.26125488,-0.0361084,-0.1178833,104.0
29321,0.33489987,0.4034867,-0.19500348,-0.26125488,-0.0361084,-0.1178833,104.0
29322,0.33489987,0.4034867,-0.19500348,-0.15930176,0.026550293,-0.1444336,104.0
29323,0.25926512,-0.40313837,-0.071078464,-0.15930176,0.026550293,-0.1444336,104.0
29324,0.25926512,-0.40313837,-0.071078464,-0.4067505,0.15080567,-0.03186035,104.0
29325,0.020510234,-0.7058847,0.2316016,-0.4067505,0.15080567,-0.03186035,104.0
29326,0.020510234,-0.7058847,0.2316016,-0.57242435,0.21877442,0.03079834,104.0
29327,-0.18823048,-0.3666487,0.25956106,-0.57242435,0.21877442,0.03079834,104.0
29328,-0.18823048,-0.3666487,0.25956106,-0.26550293,0.20178223,-0.029736329,104.0
29329,-0.2691757,0.27891004,-0.022124102,-0.26550293,0.20178223,-0.029736329,104.0
29330,-0.2691757,0.27891004,-0.022124102,-0.24744873,0.21134034,-0.12319336,104.0
29331,-0.29865354,0.7084796,-0.23444733,-0.24744873,0.21134034,-0.12319336,104.0
29332,-0.29865354,0.7084796,-0.23444733,-0.22089843,0.15186767,-0.25913087,104.0
29333,-0.42666698,0.73698634,-0.12694997,-0.22089843,0.15186767,-0.25913087,104.0
29334,-0.42666698,0.73698634,-0.12694997,-0.004248047,0.06584473,-0.28674316,104.0
29335,-0.539295,0.67935956,0.13491464,-0.004248047,0.06584473,-0.28674316,104.0
29336,-0.539295,0.67935956,0.13491464,-0.07965088,0.025488282,-0.35152587,104.0
29337,-0.39211714,0.676703,0.29612753,-0.07965088,0.025488282,-0.35152587,104.0
29338,-0.39211714,0.676703,0.29612753,-0.2623169,-0.023364259,-0.3791382,104.0
29339,-0.042392433,0.62501717,0.3283327,-0.2623169,-0.023364259,-0.3791382,104.0
29340,-0.042392433,0.62501717,0.3283327,-0.38232422,-0.016992187,-0.4800293,104.0
29341,0.3111544,0.17099762,0.1804518,-0.38232422,-0.016992187,-0.4800293,104.0
29342,0.3111544,0.17099762,0.1804518,-0.51082766,-0.046728518,-0.40250245,104.0
29343,0.48687518,-0.7251282,-0.07590224,-0.51082766,-0.046728518,-0.40250245,104.0
29344,0.48687518,-0.7251282,-0.07590224,-0.28461915,-0.17523193,-0.29630128,104.0
29345,0.5621564,-0.94801027,-0.12327062,-0.28461915,-0.17523193,-0.29630128,104.0
29346,0.5621564,-0.94801027,-0.12327062,-0.4364868,-0.1274414,-0.2793091,104.0
29347,0.51455665,-0.91330326,0.059488967,-0.4364868,-0.1274414,-0.2793091,104.0
29348,0.51455665,-0.91330326,0.059488967,-0.40462646,0.0063720704,-0.10938721,104.0
29349,0.24080795,-1.4051788,0.15846765,-0.40462646,0.0063720704,-0.10938721,104.0
29350,0.24080795,-1.4051788,0.15846765,0.30479738,-0.0063720704,-0.0031860352,104.0
29351,0.055085316,-1.0315527,-0.25735673,0.30479738,-0.0063720704,-0.0031860352,104.0
29352,0.055085316,-1.0315527,-0.25735673,0.08814698,0.032922365,-0.009558106,104.0
29353,-0.014598742,0.37329304,-0.99442303,0.08814698,0.032922365,-0.009558106,104.0
29354,-0.014598742,0.37329304,-0.99442303,-0.46516114,0.020178223,-0.19541016,104.0
29355,-0.08555595,0.7426286,-0.97145396,-0.46516114,0.020178223,-0.19541016,104.0
29356,-0.08555595,0.7426286,-0.97145396,-0.46409914,-0.012744141,-0.271875,104.0
29357,-1.4194092,-4.4380503,-1.0776271,-0.46409914,-0.012744141,-0.271875,104.0
29358,-1.4194092,-4.4380503,-1.0776271,0.19541016,-0.046728518,0.0180542,104.0
29359,-1.3041552,-4.570948,-0.09956503,0.19541016,-0.046728518,0.0180542,104.0
29360,-1.3041552,-4.570948,-0.09956503,0.41843262,-0.0361084,0.09664307,104.0
29361,-1.1408706,-3.1773028,-0.41649282,0.41843262,-0.0361084,0.09664307,104.0
29362,-1.1408706,-3.1773028,-0.41649282,-0.1274414,-0.07752686,0.22939454,104.0
29363,-0.76501584,-1.2392423,-1.1531284,-0.1274414,-0.07752686,0.22939454,104.0
29364,-0.76501584,-1.2392423,-1.1531284,-0.10089111,-0.21240234,-0.11151123,104.0
29365,-0.3151133,-0.3650875,-1.0558889,-0.10089111,-0.21240234,-0.11151123,104.0
29366,-0.3151133,-0.3650875,-1.0558889,0.3451538,-0.2262085,-0.07965088,104.0
29367,-0.11310136,-0.5529587,-0.0846647,0.3451538,-0.2262085,-0.07965088,104.0
29368,-0.11310136,-0.5529587,-0.0846647,0.38869628,-0.13806152,-0.0063720704,104.0
29369,-0.26477313,-0.79153705,0.4231496,0.38869628,-0.13806152,-0.0063720704,104.0
29370,-0.26477313,-0.79153705,0.4231496,-0.028674318,-0.07434082,-0.038232423,104.0
29371,-0.31545615,-0.5311909,0.55584145,-0.028674318,-0.07434082,-0.038232423,104.0
29372,-0.31545615,-0.5311909,0.55584145,-0.3419678,0.11469727,-0.046728518,104.0
29373,-0.15760171,-0.09043121,0.55424345,-0.3419678,0.11469727,-0.046728518,104.0
29374,-0.15760171,-0.09043121,0.55424345,-0.63720703,0.26975098,-0.05522461,104.0
29375,-0.1703074,-0.17052603,-0.12024057,-0.63720703,0.26975098,-0.05522461,104.0
29376,-0.1703074,-0.17052603,-0.12024057,-0.30267334,0.19328614,-0.107263185,104.0
29377,-0.21306467,-0.5220165,-0.5788951,-0.30267334,0.19328614,-0.107263185,104.0
29378,-0.21306467,-0.5220165,-0.5788951,-0.052038576,0.07646485,-0.093457036,104.0
29379,-0.11858404,-0.2726426,-0.70805025,-0.052038576,0.07646485,-0.093457036,104.0
29380,-0.11858404,-0.2726426,-0.70805025,-0.44073486,0.016992187,-0.20284425,104.0
29381,0.022601008,-0.3174305,-0.6844089,-0.44073486,0.016992187,-0.20284425,104.0
29382,0.022601008,-0.3174305,-0.6844089,-0.3462158,0.032922365,-0.053100586,104.0
29383,0.035195112,-1.1853042,-0.04605007,-0.3462158,0.032922365,-0.053100586,104.0
29384,0.035195112,-1.1853042,-0.04605007,0.2888672,0.0541626,0.11257324,104.0
29385,-0.13899481,-1.2056532,0.31894612,0.2888672,0.0541626,0.11257324,104.0
29386,-0.13899481,-1.2056532,0.31894612,0.2623169,0.12319336,-0.023364259,104.0
29387,-0.17688179,-0.078633785,-0.16621768,0.2623169,0.12319336,-0.023364259,104.0
29388,-0.17688179,-0.078633785,-0.16621768,-0.08283692,0.06903076,-0.022302246,104.0
29389,-0.038526893,0.70794296,-0.6884062,-0.08283692,0.06903076,-0.022302246,104.0
29390,-0.038526893,0.70794296,-0.6884062,-0.0180542,0.014868164,-0.083898924,104.0
29391,0.08547497,0.35446453,-0.32465076,-0.0180542,0.014868164,-0.083898924,104.0
29392,0.08547497,0.35446453,-0.32465076,-0.026550293,0.07327881,-0.039294433,104.0
29393,0.08145368,-0.54936314,0.6022179,-0.026550293,0.07327881,-0.039294433,104.0
29394,0.08145368,-0.54936314,0.6022179,0.1444336,0.15505372,0.11363526,104.0
29395,0.048439264,-0.5768442,0.71187687,0.1444336,0.15505372,0.11363526,104.0
29396,0.048439264,-0.5768442,0.71187687,0.028674318,0.17841797,0.12531738,104.0
29397,0.03827524,-0.113904476,0.010504961,0.028674318,0.17841797,0.12531738,104.0
29398,0.03827524,-0.113904476,0.010504961,0.0063720704,0.124255374,0.059472658,104.0
29399,-0.09514892,0.013381004,-0.48175716,0.0063720704,0.124255374,0.059472658,104.0
29400,-0.09514892,0.013381004,-0.48175716,0.095581055,0.058410645,0.032922365,104.0
29401,-0.21764755,0.15006018,-0.2128228,0.095581055,0.058410645,0.032922365,104.0
29402,-0.21764755,0.15006018,-0.2128228,-0.046728518,0.08071289,-0.045666505,104.0
29403,-0.22889102,0.5444255,0.18628478,-0.046728518,0.08071289,-0.045666505,104.0
29404,-0.22889102,0.5444255,0.18628478,-0.14549561,0.08920898,-0.12319336,104.0
29405,-0.19677246,1.0317197,-0.08822799,-0.14549561,0.08920898,-0.12319336,104.0
29406,-0.19677246,1.0317197,-0.08822799,-0.30054933,-0.032922365,-0.2782471,104.0
29407,-0.12420273,1.2082248,-0.61750627,-0.30054933,-0.032922365,-0.2782471,104.0
29408,-0.12420273,1.2082248,-0.61750627,-0.7434082,-0.1709839,-0.4078125,104.0
29409,0.20329893,0.097243786,-0.2503283,-0.7434082,-0.1709839,-0.4078125,104.0
29410,0.20329893,0.097243786,-0.2503283,-0.59472656,-0.13699952,-0.15717773,104.0
29411,0.45732915,-1.6203861,0.68939805,-0.59472656,-0.13699952,-0.15717773,104.0
29412,0.45732915,-1.6203861,0.68939805,-0.035046387,-0.025488282,0.12850343,104.0
29413,0.25540185,-1.574544,0.6388353,-0.035046387,-0.025488282,0.12850343,104.0
29414,0.25540185,-1.574544,0.6388353,0.16885987,0.06584473,0.04141846,104.0
29415,0.015967011,-0.08076525,-0.11348009,0.16885987,0.06584473,0.04141846,104.0
29416,0.015967011,-0.08076525,-0.11348009,0.007434082,0.13168946,-0.08496094,104.0
29417,-0.006647706,0.6415281,-0.55692184,0.007434082,0.13168946,-0.08496094,104.0
29418,-0.006647706,0.6415281,-0.55692184,-0.18266602,0.14761963,-0.04460449,104.0
29419,-0.033553123,0.12927485,-0.5145072,-0.18266602,0.14761963,-0.04460449,104.0
29420,-0.033553123,0.12927485,-0.5145072,0.098767094,0.07646485,0.0021240234,104.0
29421,-0.13243341,-0.3249979,-0.21305835,0.098767094,0.07646485,0.0021240234,104.0
29422,-0.13243341,-0.3249979,-0.21305835,0.17416993,0.040356446,0.004248047,104.0
29423,-0.16445506,-0.01672411,-0.021276832,0.17416993,0.040356446,0.004248047,104.0
29424,-0.16445506,-0.01672411,-0.021276832,-0.0010620117,0.010620117,-0.0361084,104.0
29425,-0.09743309,0.39854717,0.067768574,-0.0010620117,0.010620117,-0.0361084,104.0
29426,-0.09743309,0.39854717,0.067768574,-0.15186767,-0.0063720704,-0.08920898,104.0
29427,-0.0048263073,0.306118,0.108902454,-0.15186767,-0.0063720704,-0.08920898,104.0
29428,-0.0048263073,0.306118,0.108902454,-0.22408448,-0.029736329,-0.08920898,104.0
29429,0.07715702,-0.07330608,0.10313749,-0.22408448,-0.029736329,-0.08920898,104.0
29430,0.07715702,-0.07330608,0.10313749,-0.13699952,-0.046728518,-0.05522461,104.0
29431,0.07715702,-0.07330608,0.10313749,-0.13699952,-0.046728518,-0.05522461,104.0
29432,0.124494195,-0.27754116,0.14099395,-0.13699952,-0.046728518,-0.05522461,104.0
29433,0.124494195,-0.27754116,0.14099395,-0.19116211,-0.010620117,-0.0541626,104.0
29434,0.150401,-0.044091225,0.03017807,-0.19116211,-0.010620117,-0.0541626,104.0
29435,0.150401,-0.044091225,0.03017807,-0.270813,-0.05628662,-0.06584473,104.0
29436,0.18269873,0.11523962,-0.25165105,-0.270813,-0.05628662,-0.06584473,104.0
29437,0.18269873,0.11523962,-0.25165105,0.0031860352,-0.15930176,0.16142578,104.0
29438,0.15353203,-0.28896046,-0.23847902,0.0031860352,-0.15930176,0.16142578,104.0
29439,0.15353203,-0.28896046,-0.23847902,0.42161867,-0.0637207,0.24744873,104.0
29440,0.012742519,-0.55201817,0.08693898,0.42161867,-0.0637207,0.24744873,104.0
29441,0.012742519,-0.55201817,0.08693898,0.25700685,0.043542482,0.15930176,104.0
29442,0.0354259,-0.37457323,0.2777543,0.25700685,0.043542482,0.15930176,104.0
29443,0.0354259,-0.37457323,0.2777543,-0.28674316,0.20178223,0.18903808,104.0
29444,0.0908041,-0.29587412,0.2617054,-0.28674316,0.20178223,0.18903808,104.0
29445,0.0908041,-0.29587412,0.2617054,-0.007434082,0.22196046,0.3154175,104.0
29446,-0.05308914,0.0020947456,0.09503329,-0.007434082,0.22196046,0.3154175,104.0
29447,-0.05308914,0.0020947456,0.09503329,0.07434082,0.26125488,0.2888672,104.0
29448,-0.27330625,0.57626057,-0.12584102,0.07434082,0.26125488,0.2888672,104.0
29449,-0.27330625,0.57626057,-0.12584102,-0.0180542,0.24320069,0.2262085,104.0
29450,-0.4427905,0.8145366,-0.23778224,-0.0180542,0.24320069,0.2262085,104.0
29451,-0.4427905,0.8145366,-0.23778224,0.027612304,0.1444336,0.21134034,104.0
29452,-0.41919827,0.62440777,-0.34700072,0.027612304,0.1444336,0.21134034,104.0
29453,-0.41919827,0.62440777,-0.34700072,-0.004248047,0.004248047,0.2538208,104.0
29454,-0.35421848,0.10127163,-0.57432914,-0.004248047,0.004248047,0.2538208,104.0
29455,-0.35421848,0.10127163,-0.57432914,0.20709229,-0.21134034,0.21877442,104.0
29456,-0.31055975,-0.33104324,-0.71557903,0.20709229,-0.21134034,0.21877442,104.0
29457,-0.31055975,-0.33104324,-0.71557903,0.33878174,-0.39294434,0.19753419,104.0
29458,-0.17352104,-0.2757597,-0.36863017,0.33878174,-0.39294434,0.19753419,104.0
29459,-0.17352104,-0.2757597,-0.36863017,0.36002198,-0.47471926,0.16354981,104.0
29460,0.06750631,-0.024074554,0.3273127,0.36002198,-0.47471926,0.16354981,104.0
29461,0.06750631,-0.024074554,0.3273127,0.48746338,-0.45772704,0.14761963,104.0
29462,0.23492551,0.028017998,0.76291215,0.48746338,-0.45772704,0.14761963,104.0
29463,0.23492551,0.028017998,0.76291215,0.4885254,-0.39082032,0.1529297,104.0
29464,0.2249155,-0.07217789,0.71800804,0.4885254,-0.39082032,0.1529297,104.0
29465,0.2249155,-0.07217789,0.71800804,0.4343628,-0.3069214,0.14761963,104.0
29466,0.11439288,-0.08908987,0.5412277,0.4343628,-0.3069214,0.14761963,104.0
29467,0.11439288,-0.08908987,0.5412277,0.47578126,-0.19434814,0.11257324,104.0
29468,-0.055995464,0.14320564,0.550194,0.47578126,-0.19434814,0.11257324,104.0
29469,-0.055995464,0.14320564,0.550194,0.51826173,-0.10620117,0.06796875,104.0
29470,-0.17665672,0.42312145,0.64535546,0.51826173,-0.10620117,0.06796875,104.0
29471,-0.17665672,0.42312145,0.64535546,0.36002198,0.010620117,0.04885254,104.0
29472,-0.16978002,0.58077,0.6093142,0.36002198,0.010620117,0.04885254,104.0
29473,-0.16978002,0.58077,0.6093142,0.07540283,0.08814698,-0.010620117,104.0
29474,-0.14491832,0.55952597,0.2491945,0.07540283,0.08814698,-0.010620117,104.0
29475,-0.14491832,0.55952597,0.2491945,-0.11044922,0.093457036,-0.07115479,104.0
29476,-0.22336876,0.28244734,-0.20351315,-0.11044922,0.093457036,-0.07115479,104.0
29477,-0.22336876,0.28244734,-0.20351315,-0.10407715,0.029736329,-0.087084964,104.0
29478,-0.38223505,0.07605553,-0.3317436,-0.10407715,0.029736329,-0.087084964,104.0
29479,-0.38223505,0.07605553,-0.3317436,-0.06478272,-0.06584473,-0.13275146,104.0
29480,-0.40864444,0.066850185,-0.28470635,-0.06478272,-0.06584473,-0.13275146,104.0
29481,-0.40864444,0.066850185,-0.28470635,-0.10089111,-0.1731079,-0.17735596,104.0
29482,-0.03924465,0.004603386,-0.27466452,-0.10089111,-0.1731079,-0.17735596,104.0
29483,-0.03924465,0.004603386,-0.27466452,-0.3440918,-0.2824951,-0.31116945,104.0
29484,0.49160218,-0.5203042,-0.22896004,-0.3440918,-0.2824951,-0.31116945,104.0
29485,0.49160218,-0.5203042,-0.22896004,-0.71154785,-0.31966552,-0.32709962,104.0
29486,0.5383501,-1.4536214,-0.04043114,-0.71154785,-0.31966552,-0.32709962,104.0
29487,0.5383501,-1.4536214,-0.04043114,0.043542482,-0.35577393,-0.16567384,104.0
29488,0.3866005,-1.6616397,0.3339393,0.043542482,-0.35577393,-0.16567384,104.0
29489,0.3866005,-1.6616397,0.3339393,0.5055176,-0.17841797,-0.052038576,104.0
29490,0.48168027,-0.41236877,0.63872135,0.5055176,-0.17841797,-0.052038576,104.0
29491,0.48168027,-0.41236877,0.63872135,-0.032922365,0.22514649,0.087084964,104.0
29492,0.3453051,0.8790283,0.37853074,-0.032922365,0.22514649,0.087084964,104.0
29493,0.3453051,0.8790283,0.37853074,-0.07965088,0.43011475,0.26550293,104.0
29494,0.3535024,1.013989,-0.26487565,-0.07965088,0.43011475,0.26550293,104.0
29495,0.3535024,1.013989,-0.26487565,0.010620117,0.24213867,-0.23258057,104.0
29496,0.47090006,0.86116695,-0.6148546,0.010620117,0.24213867,-0.23258057,104.0
29497,0.47090006,0.86116695,-0.6148546,-0.115759276,0.23364258,-0.25913087,104.0
29498,0.31536746,0.6347709,-0.32447636,-0.115759276,0.23364258,-0.25913087,104.0
29499,0.31536746,0.6347709,-0.32447636,-0.24107666,0.3706421,-0.39082032,104.0
29500,0.117699265,-0.045271397,0.498268,-0.24107666,0.3706421,-0.39082032,104.0
29501,0.117699265,-0.045271397,0.498268,-0.27506104,0.5033936,-0.23258057,104.0
29502,-0.17150211,-0.8405018,0.6021179,-0.27506104,0.5033936,-0.23258057,104.0
29503,-0.17150211,-0.8405018,0.6021179,0.0180542,0.36320803,-0.046728518,104.0
29504,-0.5640938,-1.0742445,-0.37184572,0.0180542,0.36320803,-0.046728518,104.0
29505,-0.5640938,-1.0742445,-0.37184572,0.0361084,0.20496826,0.0063720704,104.0
29506,-0.8763484,-0.6588955,-1.0630283,0.0361084,0.20496826,0.0063720704,104.0
29507,-0.8763484,-0.6588955,-1.0630283,0.21134034,0.03079834,0.078588866,104.0
29508,-0.8155074,-0.38817596,-0.95323026,0.21134034,0.03079834,0.078588866,104.0
29509,-0.8155074,-0.38817596,-0.95323026,0.22514649,-0.021240234,0.0998291,104.0
29510,-0.43410754,0.11881733,-0.31418324,0.22514649,-0.021240234,0.0998291,104.0
29511,-0.43410754,0.11881733,-0.31418324,0.12319336,-0.1539917,0.03717041,104.0
29512,-0.43410754,0.11881733,-0.31418324,0.12319336,-0.1539917,0.03717041,104.0
29513,-0.14154863,0.13616705,-0.09396124,0.12319336,-0.1539917,0.03717041,104.0
29514,-0.14154863,0.13616705,-0.09396124,0.16673584,-0.17841797,0.038232423,104.0
29515,0.55693936,-0.3081684,0.23221624,0.16673584,-0.17841797,0.038232423,104.0
29516,0.55693936,-0.3081684,0.23221624,0.1731079,-0.10089111,0.22833252,104.0
29517,0.5688547,-0.49470377,0.27462804,0.1731079,-0.10089111,0.22833252,104.0
29518,0.5688547,-0.49470377,0.27462804,0.1529297,-0.08496094,0.2803711,104.0
29519,0.37907052,-0.7056751,0.22917509,0.1529297,-0.08496094,0.2803711,104.0
29520,0.37907052,-0.7056751,0.22917509,0.32709962,-0.1178833,0.4630371,104.0
29521,0.13080776,-0.5285535,0.05976832,0.32709962,-0.1178833,0.4630371,104.0
29522,0.13080776,-0.5285535,0.05976832,0.39294434,-0.14974366,0.49064943,104.0
29523,-0.5464647,0.41508484,-0.06348896,0.39294434,-0.14974366,0.49064943,104.0
29524,-0.5464647,0.41508484,-0.06348896,0.40144044,-0.20496826,0.42799073,104.0
29525,-0.64394665,0.6342287,0.067922235,0.40144044,-0.20496826,0.42799073,104.0
29526,-0.64394665,0.6342287,0.067922235,0.36108398,-0.2177124,0.43117675,104.0
29527,-0.79662704,1.149302,0.20767033,0.36108398,-0.2177124,0.43117675,104.0
29528,-0.79662704,1.149302,0.20767033,0.32391357,-0.3971924,0.4258667,104.0
29529,-0.7217865,1.1557212,0.14496922,0.32391357,-0.3971924,0.4258667,104.0
29530,-0.7217865,1.1557212,0.14496922,0.34727785,-0.4630371,0.36533204,104.0
29531,-0.3020141,1.0396037,0.13831425,0.34727785,-0.4630371,0.36533204,104.0
29532,-0.3020141,1.0396037,0.13831425,-0.21346436,-0.33665773,0.3355957,104.0
29533,-0.11635494,0.07849693,0.311921,-0.21346436,-0.33665773,0.3355957,104.0
29534,-0.11635494,0.07849693,0.311921,0.31116945,-0.34833986,0.33878174,104.0
29535,0.19995809,-1.4776201,1.0519538,0.31116945,-0.34833986,0.33878174,104.0
29536,0.19995809,-1.4776201,1.0519538,1.0407715,-0.2899292,0.44816896,104.0
29537,0.4767511,-0.8254795,1.3015362,1.0407715,-0.2899292,0.44816896,104.0
29538,0.4767511,-0.8254795,1.3015362,0.45029297,-0.035046387,0.4364868,104.0
29539,0.54641557,0.6916065,0.47865576,0.45029297,-0.035046387,0.4364868,104.0
29540,0.54641557,0.6916065,0.47865576,-0.16248779,0.08814698,0.3462158,104.0
29541,0.3287096,1.106142,-0.47536397,-0.16248779,0.08814698,0.3462158,104.0
29542,0.3287096,1.106142,-0.47536397,-0.20390625,0.11044922,0.19541016,104.0
29543,0.020621538,0.5779309,-0.47763002,-0.20390625,0.11044922,0.19541016,104.0
29544,0.020621538,0.5779309,-0.47763002,0.1709839,0.10301514,0.11682129,104.0
29545,-0.1450262,0.5147619,0.13150686,0.1709839,0.10301514,0.11682129,104.0
29546,-0.1450262,0.5147619,0.13150686,0.0722168,0.16673584,0.0010620117,104.0
29547,-0.14850402,0.9363823,0.41693646,0.0722168,0.16673584,0.0010620117,104.0
29548,-0.14850402,0.9363823,0.41693646,-0.32816163,0.1529297,-0.05522461,104.0
29549,-0.19370556,0.9101286,0.013163447,-0.32816163,0.1529297,-0.05522461,104.0
29550,-0.19370556,0.9101286,0.013163447,-0.4067505,0.020178223,-0.1444336,104.0
29551,-0.41350937,-0.2383523,-0.7250161,-0.4067505,0.020178223,-0.1444336,104.0
29552,-0.41350937,-0.2383523,-0.7250161,-0.27293703,-0.21346436,-0.16673584,104.0
29553,-0.39394236,-0.5030966,-0.5228596,-0.27293703,-0.21346436,-0.16673584,104.0
29554,-0.39394236,-0.5030966,-0.5228596,-0.14868164,-0.24638672,-0.15505372,104.0
29555,-0.24757576,-0.3681512,0.055638075,-0.14868164,-0.24638672,-0.15505372,104.0
29556,-0.24757576,-0.3681512,0.055638075,-0.27612305,-0.20390625,-0.21240234,104.0
29557,-0.07889557,-0.0014300346,0.2998327,-0.27612305,-0.20390625,-0.21240234,104.0
29558,-0.07889557,-0.0014300346,0.2998327,-0.54375,-0.15930176,-0.18479005,104.0
29559,-0.10172725,-0.49027967,0.03165078,-0.54375,-0.15930176,-0.18479005,104.0
29560,-0.10172725,-0.49027967,0.03165078,-0.21134034,-0.2548828,-0.13699952,104.0
29561,-0.055332184,-0.8136473,-0.067233086,-0.21134034,-0.2548828,-0.13699952,104.0
29562,-0.055332184,-0.8136473,-0.067233086,0.03079834,-0.31010744,-0.16354981,104.0
29563,0.32214046,-0.41158676,0.22417986,0.03079834,-0.31010744,-0.16354981,104.0
29564,0.32214046,-0.41158676,0.22417986,-0.4800293,-0.14655761,-0.16248779,104.0
29565,0.7204809,-0.38785076,0.34090394,-0.4800293,-0.14655761,-0.16248779,104.0
29566,0.7204809,-0.38785076,0.34090394,-0.0541626,-0.107263185,-0.05628662,104.0
29567,0.7749443,-0.6281638,0.054668903,-0.0541626,-0.107263185,-0.05628662,104.0
29568,0.7749443,-0.6281638,0.054668903,-0.0021240234,-0.0053100586,-0.009558106,104.0
29569,0.5345185,-0.54958916,-0.13794214,-0.0021240234,-0.0053100586,-0.009558106,104.0
29570,0.5345185,-0.54958916,-0.13794214,0.24638672,0.019116212,0.057348635,104.0
29571,0.18512201,-0.06630707,-0.13111788,0.24638672,0.019116212,0.057348635,104.0
29572,0.18512201,-0.06630707,-0.13111788,0.23364258,0.058410645,0.060534667,104.0
29573,-0.123069406,0.41189575,-0.053575993,0.23364258,0.058410645,0.060534667,104.0
29574,-0.123069406,0.41189575,-0.053575993,0.20390625,0.07752686,0.02442627,104.0
29575,-0.28533304,0.52017784,-0.02302432,0.20390625,0.07752686,0.02442627,104.0
29576,-0.28533304,0.52017784,-0.02302432,0.08602295,0.081774905,0.025488282,104.0
29577,-0.33645725,0.27144003,0.0023690462,0.08602295,0.081774905,0.025488282,104.0
29578,-0.33645725,0.27144003,0.0023690462,0.22833252,0.06478272,-0.019116212,104.0
29579,-0.3314216,-0.06838274,0.02140212,0.22833252,0.06478272,-0.019116212,104.0
29580,-0.3314216,-0.06838274,0.02140212,0.3727661,0.028674318,0.0063720704,104.0
29581,-0.36389208,-0.2147646,-0.08163321,0.3727661,0.028674318,0.0063720704,104.0
29582,-0.36389208,-0.2147646,-0.08163321,0.3164795,-0.0010620117,0.03079834,104.0
29583,-0.42451215,-0.17856216,-0.16362202,0.3164795,-0.0010620117,0.03079834,104.0
29584,-0.42451215,-0.17856216,-0.16362202,0.31860352,-0.059472658,0.040356446,104.0
29585,-0.3965068,-0.115762234,0.008128285,0.31860352,-0.059472658,0.040356446,104.0
29586,-0.3965068,-0.115762234,0.008128285,0.21983643,-0.057348635,0.03717041,104.0
29587,-0.21771812,-0.022419453,0.20985961,0.21983643,-0.057348635,0.03717041,104.0
29588,-0.21771812,-0.022419453,0.20985961,0.31223145,-0.029736329,0.08071289,104.0
29589,-0.21436,-0.1615634,0.16255325,0.31223145,-0.029736329,0.08071289,104.0
29590,-0.21436,-0.1615634,0.16255325,0.362146,-0.039294433,0.06903076,104.0
29591,-0.3772254,-0.18188763,-0.15744519,0.362146,-0.039294433,0.06903076,104.0
29592,-0.3772254,-0.18188763,-0.15744519,0.39188233,-0.18372802,0.08814698,104.0
29593,-0.41930962,0.27284908,-0.5872599,0.39188233,-0.18372802,0.08814698,104.0
29594,-0.41930962,0.27284908,-0.5872599,0.3727661,-0.271875,-0.025488282,104.0
29595,-0.14714193,0.95092106,-0.45497632,0.3727661,-0.271875,-0.025488282,104.0
29596,-0.14714193,0.95092106,-0.45497632,-0.11682129,-0.24957275,-0.121069334,104.0
29597,0.2730825,0.9733834,0.41443694,-0.11682129,-0.24957275,-0.121069334,104.0
29598,0.2730825,0.9733834,0.41443694,-0.3706421,-0.22196046,-0.0998291,104.0
29599,0.46197176,0.34318447,0.6888372,-0.3706421,-0.22196046,-0.0998291,104.0
29600,0.46197176,0.34318447,0.6888372,-0.29523927,-0.26125488,-0.10407715,104.0
29601,0.39323473,-0.28667068,0.053340197,-0.29523927,-0.26125488,-0.10407715,104.0
29602,0.39323473,-0.28667068,0.053340197,-0.2357666,-0.34940186,-0.16248779,104.0
29603,0.63230014,-0.6747589,-0.110269666,-0.2357666,-0.34940186,-0.16248779,104.0
29604,0.63230014,-0.6747589,-0.110269666,0.29099122,-0.50020754,-0.42161867,104.0
29605,0.94556165,-0.531775,0.36654496,0.29099122,-0.50020754,-0.42161867,104.0
29606,0.94556165,-0.531775,0.36654496,0.040356446,-0.18903808,-0.16354981,104.0
29607,0.9103677,-0.107036114,0.70920277,0.040356446,-0.18903808,-0.16354981,104.0
29608,0.9103677,-0.107036114,0.70920277,0.04885254,-0.040356446,0.05628662,104.0
29609,0.6733625,0.028995037,0.7524086,0.04885254,-0.040356446,0.05628662,104.0
29610,0.6733625,0.028995037,0.7524086,-0.19222413,0.32178956,0.22408448,104.0
29611,0.33743274,0.049599648,0.35584536,-0.19222413,0.32178956,0.22408448,104.0
29612,0.33743274,0.049599648,0.35584536,-0.18160401,0.42374268,0.28568116,104.0
29613,0.27894282,0.0722723,-0.25756,-0.18160401,0.42374268,0.28568116,104.0
29614,0.27894282,0.0722723,-0.25756,0.3079834,0.3355957,-0.045666505,104.0
29615,0.19228268,0.04893112,-0.43992257,0.3079834,0.3355957,-0.045666505,104.0
29616,0.19228268,0.04893112,-0.43992257,0.098767094,0.3058594,0.05522461,104.0
29617,-0.22119832,-0.04070139,-0.16204548,0.098767094,0.3058594,0.05522461,104.0
29618,-0.22119832,-0.04070139,-0.16204548,-0.1529297,0.29736328,0.07434082,104.0
29619,-0.6646662,-0.03501463,0.07481921,-0.1529297,0.29736328,0.07434082,104.0
29620,-0.6646662,-0.03501463,0.07481921,-0.1529297,0.29736328,0.07434082,104.0
29621,-0.6646662,-0.03501463,0.07481921,-0.5012695,0.39188233,0.07965088,104.0
29622,-1.0624092,-0.021395683,-0.13269836,-0.5012695,0.39188233,0.07965088,104.0
29623,-1.0624092,-0.021395683,-0.13269836,-0.29205322,0.29311523,0.12000733,104.0
29624,-1.5553107,-0.2422018,-0.53490627,-0.29205322,0.29311523,0.12000733,104.0
29625,-1.5553107,-0.2422018,-0.53490627,0.21983643,0.07434082,0.121069334,104.0
29626,-1.706712,-0.07968664,-0.75296164,0.21983643,0.07434082,0.121069334,104.0
29627,-1.706712,-0.07968664,-0.75296164,0.25063476,-0.0722168,0.04460449,104.0
29628,-1.1695442,0.58149004,-0.5168469,0.25063476,-0.0722168,0.04460449,104.0
29629,-1.1695442,0.58149004,-0.5168469,-0.12956543,-0.13699952,-0.03079834,104.0
29630,-0.4440217,0.80205727,-0.10366309,-0.12956543,-0.13699952,-0.03079834,104.0
29631,-0.4440217,0.80205727,-0.10366309,-0.1444336,-0.21346436,-0.14549561,104.0
29632,0.12053943,0.20441437,0.044596434,-0.1444336,-0.21346436,-0.14549561,104.0
29633,0.12053943,0.20441437,0.044596434,-0.12850343,-0.33240968,-0.10620117,104.0
29634,0.6761191,-0.39730835,0.15598965,-0.12850343,-0.33240968,-0.10620117,104.0
29635,0.6761191,-0.39730835,0.15598965,-0.23151855,-0.40250245,-0.10089111,104.0
29636,1.0645037,-0.4656005,0.2964226,-0.23151855,-0.40250245,-0.10089111,104.0
29637,1.0645037,-0.4656005,0.2964226,-0.45560303,-0.3164795,-0.058410645,104.0
29638,0.6939614,-0.6438184,-0.022700787,-0.45560303,-0.3164795,-0.058410645,104.0
29639,0.6939614,-0.6438184,-0.022700787,0.25806886,-0.36533204,0.14868164,104.0
29640,0.23160934,-0.77228117,-0.40236473,0.25806886,-0.36533204,0.14868164,104.0
29641,0.23160934,-0.77228117,-0.40236473,0.6595093,-0.38869628,0.15080567,104.0
29642,0.33084416,-0.10699749,-0.30212855,0.6595093,-0.38869628,0.15080567,104.0
29643,0.33084416,-0.10699749,-0.30212855,0.58623046,-0.41418457,0.09664307,104.0
29644,0.67029047,0.45785904,0.11889291,0.58623046,-0.41418457,0.09664307,104.0
29645,0.67029047,0.45785904,0.11889291,0.89421386,-0.47578126,-0.33878174,104.0
29646,0.89709663,0.5150299,0.75498974,0.89421386,-0.47578126,-0.33878174,104.0
29647,0.89709663,0.5150299,0.75498974,0.72854006,-0.38869628,-0.050976563,104.0
29648,0.81820226,0.44815683,1.6097047,0.72854006,-0.38869628,-0.050976563,104.0
29649,0.81820226,0.44815683,1.6097047,-0.045666505,0.0722168,0.19434814,104.0
29650,0.34681034,0.61716795,1.7101637,-0.045666505,0.0722168,0.19434814,104.0
29651,0.34681034,0.61716795,1.7101637,-0.996167,0.4078125,0.58623046,104.0
29652,-0.13989782,0.34716463,0.45735216,-0.996167,0.4078125,0.58623046,104.0
29653,-0.13989782,0.34716463,0.45735216,-0.10620117,0.24107666,-0.0053100586,104.0
29654,-0.2874676,-0.20744896,-0.9533688,-0.10620117,0.24107666,-0.0053100586,104.0
29655,-0.2874676,-0.20744896,-0.9533688,0.49277344,0.047790527,0.22727051,104.0
29656,-0.37695897,0.05370617,-1.5321286,0.49277344,0.047790527,0.22727051,104.0
29657,-0.37695897,0.05370617,-1.5321286,-0.0021240234,0.0,0.025488282,104.0
29658,-0.42260003,0.116060734,-1.0277414,-0.0021240234,0.0,0.025488282,104.0
29659,-0.42260003,0.116060734,-1.0277414,0.18585205,-0.05522461,0.0063720704,104.0
29660,-0.44124174,-0.20549107,0.14604414,0.18585205,-0.05522461,0.0063720704,104.0
29661,-0.44124174,-0.20549107,0.14604414,0.89846194,-0.14337158,0.10407715,104.0
29662,-0.39807415,-0.11573553,0.9673114,0.89846194,-0.14337158,0.10407715,104.0
29663,-0.39807415,-0.11573553,0.9673114,0.028674318,0.014868164,0.09664307,104.0
29664,-0.25449467,0.103505135,0.8795986,0.028674318,0.014868164,0.09664307,104.0
29665,-0.25449467,0.103505135,0.8795986,-0.4258667,0.08283692,0.10195313,104.0
29666,-0.091095686,-0.057820797,0.1323654,-0.4258667,0.08283692,0.10195313,104.0
29667,-0.091095686,-0.057820797,0.1323654,-0.46728516,0.16248779,0.026550293,104.0
29668,0.058336973,-0.18931103,-0.63518435,-0.46728516,0.16248779,0.026550293,104.0
29669,0.058336973,-0.18931103,-0.63518435,-0.058410645,0.12213135,-0.011682129,104.0
29670,0.18520713,0.009085655,-0.71798635,-0.058410645,0.12213135,-0.011682129,104.0
29671,0.18520713,0.009085655,-0.71798635,0.21877442,0.078588866,-0.07540283,104.0
29672,0.26686692,0.5647392,-0.23859811,0.21877442,0.078588866,-0.07540283,104.0
29673,0.26686692,0.5647392,-0.23859811,0.10195313,0.1444336,-0.2824951,104.0
29674,0.2790208,0.7695527,0.17776167,0.10195313,0.1444336,-0.2824951,104.0
29675,0.2790208,0.7695527,0.17776167,-0.2262085,0.16992188,-0.23789063,104.0
29676,0.18001604,0.34359646,0.27801257,-0.2262085,0.16992188,-0.23789063,104.0
29677,0.18001604,0.34359646,0.27801257,-0.18266602,0.14230958,-0.26444092,104.0
29678,-0.011333942,0.10983801,0.15224409,-0.18266602,0.14230958,-0.26444092,104.0
29679,-0.011333942,0.10983801,0.15224409,-0.42799073,0.17629395,-0.35471192,104.0
29680,-0.22015119,-0.21811104,0.12199056,-0.42799073,0.17629395,-0.35471192,104.0
29681,-0.22015119,-0.21811104,0.12199056,-0.44923097,0.20390625,-0.40144044,104.0
29682,-0.35143828,-0.6620865,0.31874722,-0.44923097,0.20390625,-0.40144044,104.0
29683,-0.35143828,-0.6620865,0.31874722,-0.26125488,0.23895264,-0.37489015,104.0
29684,-0.32776928,-0.33997202,0.41743675,-0.26125488,0.23895264,-0.37489015,104.0
29685,-0.32776928,-0.33997202,0.41743675,-0.19647217,0.28355715,-0.4088745,104.0
29686,-0.19766474,0.41482687,0.15567791,-0.19647217,0.28355715,-0.4088745,104.0
29687,-0.19766474,0.41482687,0.15567791,-0.4439209,0.31116945,-0.5033936,104.0
29688,-0.03550005,0.58547497,-0.11433706,-0.4439209,0.31116945,-0.5033936,104.0
29689,-0.03550005,0.58547497,-0.11433706,-0.38444826,0.29417726,-0.4970215,104.0
29690,0.25175142,0.2944541,-0.1851098,-0.38444826,0.29417726,-0.4970215,104.0
29691,0.25175142,0.2944541,-0.1851098,-0.56817627,0.29630128,-0.5161377,104.0
29692,0.48229718,-0.13526201,-0.35663277,-0.56817627,0.29630128,-0.5161377,104.0
29693,0.48229718,-0.13526201,-0.35663277,-0.9526245,0.26444092,-0.46409914,104.0
29694,0.54376006,-0.289948,-0.9200963,-0.9526245,0.26444092,-0.46409914,104.0
29695,0.54376006,-0.289948,-0.9200963,-1.2255615,0.1731079,-0.41312256,104.0
29696,0.39131916,-0.9057379,-1.3101249,-1.2255615,0.1731079,-0.41312256,104.0
29697,0.39131916,-0.9057379,-1.3101249,-1.0577637,0.10513916,-0.10407715,104.0
29698,-0.037994385,-2.2342463,-0.80703545,-1.0577637,0.10513916,-0.10407715,104.0
29699,-0.037994385,-2.2342463,-0.80703545,0.20390625,-0.014868164,0.10195313,104.0
29700,-0.37679434,-1.7920113,-0.13521576,0.20390625,-0.014868164,0.10195313,104.0
29701,-0.37679434,-1.7920113,-0.13521576,0.22089843,0.043542482,0.012744141,104.0
29702,-0.3478222,0.20896912,0.07854617,0.22089843,0.043542482,0.012744141,104.0
29703,-0.3478222,0.20896912,0.07854617,-0.23789063,0.10089111,-0.16142578,104.0
29704,-0.09377289,1.0661378,0.019379854,-0.23789063,0.10089111,-0.16142578,104.0
29705,-0.09377289,1.0661378,0.019379854,-0.17416993,0.07434082,-0.21558838,104.0
29706,0.13775015,0.51630116,0.072693825,-0.17416993,0.07434082,-0.21558838,104.0
29707,0.13775015,0.51630116,0.072693825,0.023364259,0.07434082,-0.14655761,104.0
29708,0.16356921,0.17374659,0.24932933,0.023364259,0.07434082,-0.14655761,104.0
29709,0.16356921,0.17374659,0.24932933,0.12850343,0.1274414,-0.010620117,104.0
29710,0.2697959,0.4711995,-0.023412585,0.12850343,0.1274414,-0.010620117,104.0
29711,0.2697959,0.4711995,-0.023412585,-0.23364258,0.07965088,-0.15930176,104.0
29712,0.5360272,0.46644926,-0.47899616,-0.23364258,0.07965088,-0.15930176,104.0
29713,0.5360272,0.46644926,-0.47899616,-0.124255374,-0.026550293,-0.0021240234,104.0
29714,0.48486423,-0.3977146,-0.2174865,-0.124255374,-0.026550293,-0.0021240234,104.0
29715,0.48486423,-0.3977146,-0.2174865,0.4715332,-0.038232423,0.1444336,104.0
29716,0.0749886,-0.60541534,0.18796158,0.4715332,-0.038232423,0.1444336,104.0
29717,0.0749886,-0.60541534,0.18796158,0.3462158,-0.028674318,0.10195313,104.0
29718,-0.28093934,0.2171812,-0.037448168,0.3462158,-0.028674318,0.10195313,104.0
29719,-0.28093934,0.2171812,-0.037448168,-0.11682129,-0.010620117,-0.06478272,104.0
29720,-0.22575247,0.5161643,-0.07234144,-0.11682129,-0.010620117,-0.06478272,104.0
29721,-0.22575247,0.5161643,-0.07234144,-0.010620117,0.028674318,-0.09239502,104.0
29722,-0.22575247,0.5161643,-0.07234144,-0.010620117,0.028674318,-0.09239502,105.0
29723,-0.001414895,0.37168407,0.2864505,-0.010620117,0.028674318,-0.09239502,105.0
29724,-0.001414895,0.37168407,0.2864505,-0.07434082,0.11469727,-0.045666505,105.0
29725,0.038711786,0.2036581,0.42704868,-0.07434082,0.11469727,-0.045666505,105.0
29726,0.038711786,0.2036581,0.42704868,-0.18479005,0.118945315,-0.058410645,105.0
29727,-0.017431498,-0.058802128,0.26861644,-0.18479005,0.118945315,-0.058410645,105.0
29728,-0.017431498,-0.058802128,0.26861644,0.045666505,0.032922365,-0.07646485,105.0
29729,0.012922525,-0.015376568,-0.13756049,0.045666505,0.032922365,-0.07646485,105.0
29730,0.012922525,-0.015376568,-0.13756049,-0.045666505,0.014868164,-0.18903808,105.0
29731,0.10256219,-0.14891005,-0.4241109,-0.045666505,0.014868164,-0.18903808,105.0
29732,0.10256219,-0.14891005,-0.4241109,0.039294433,-0.012744141,0.05628662,105.0
29733,0.115106344,-0.6758299,-0.22943759,0.039294433,-0.012744141,0.05628662,105.0
29734,0.115106344,-0.6758299,-0.22943759,0.6435791,-0.06903076,0.14018555,105.0
29735,-0.0022507906,-0.54996586,-0.023320675,0.6435791,-0.06903076,0.14018555,105.0
29736,-0.0022507906,-0.54996586,-0.023320675,0.3440918,-0.04885254,0.09664307,105.0
29737,-0.046136618,0.06317711,-0.08923757,0.3440918,-0.04885254,0.09664307,105.0
29738,-0.046136618,0.06317711,-0.08923757,-0.27612305,0.045666505,0.0637207,105.0
29739,2.3663044E-4,0.052348137,-0.012491107,-0.27612305,0.045666505,0.0637207,105.0
29740,2.3663044E-4,0.052348137,-0.012491107,0.36851808,0.022302246,0.1274414,105.0
29741,-0.06469107,-0.056424618,0.3398118,0.36851808,0.022302246,0.1274414,105.0
29742,-0.06469107,-0.056424618,0.3398118,0.68499756,0.033984374,0.1263794,105.0
29743,-0.37445796,0.35301733,0.5623157,0.68499756,0.033984374,0.1263794,105.0
29744,-0.37445796,0.35301733,0.5623157,0.19328614,0.012744141,0.09239502,105.0
29745,-0.6378722,0.75544834,0.37226462,0.19328614,0.012744141,0.09239502,105.0
29746,-0.6378722,0.75544834,0.37226462,-0.27399904,-0.115759276,0.027612304,105.0
29747,-0.29154778,0.8523812,-0.31693435,-0.27399904,-0.115759276,0.027612304,105.0
29748,-0.29154778,0.8523812,-0.31693435,-0.8442993,-0.14549561,-0.1539917,105.0
29749,0.4938979,-0.08505058,-0.72721696,-0.8442993,-0.14549561,-0.1539917,105.0
29750,0.4938979,-0.08505058,-0.72721696,0.43117675,-0.2347046,0.118945315,105.0
29751,0.86554074,-1.2738633,-0.0976671,0.43117675,-0.2347046,0.118945315,105.0
29752,0.86554074,-1.2738633,-0.0976671,1.4039795,-0.23151855,0.1985962,105.0
29753,0.5923594,-0.71735764,0.49139762,1.4039795,-0.23151855,0.1985962,105.0
29754,0.5923594,-0.71735764,0.49139762,0.13381349,0.010620117,0.21558838,105.0
29755,0.18271327,0.3030305,0.44646287,0.13381349,0.010620117,0.21558838,105.0
29756,0.18271327,0.3030305,0.44646287,0.083898924,0.050976563,0.15186767,105.0
29757,-6.1893463E-4,0.43715096,0.31307852,0.083898924,0.050976563,0.15186767,105.0
29758,-6.1893463E-4,0.43715096,0.31307852,0.16248779,0.090270996,0.124255374,105.0
29759,0.03774953,0.22652721,0.080931544,0.16248779,0.090270996,0.124255374,105.0
29760,0.03774953,0.22652721,0.080931544,-0.06903076,0.1274414,0.118945315,105.0
29761,0.09755802,-0.101419926,-0.07161951,-0.06903076,0.1274414,0.118945315,105.0
29762,0.09755802,-0.101419926,-0.07161951,-0.13487549,0.13275146,0.24320069,105.0
29763,0.059247613,-0.34994698,0.18240166,-0.13487549,0.13275146,0.24320069,105.0
29764,0.059247613,-0.34994698,0.18240166,-0.06584473,0.18266602,0.3154175,105.0
29765,-0.1384418,-0.12498951,0.14593351,-0.06584473,0.18266602,0.3154175,105.0
29766,-0.1384418,-0.12498951,0.14593351,-0.39294434,0.08814698,0.41949463,105.0
29767,-0.588207,0.12583828,-0.6565076,-0.39294434,0.08814698,0.41949463,105.0
29768,-0.588207,0.12583828,-0.6565076,-0.18266602,-0.1720459,0.36108398,105.0
29769,-1.056967,0.041051388,-0.9438096,-0.18266602,-0.1720459,0.36108398,105.0
29770,-1.056967,0.041051388,-0.9438096,0.5851685,-0.31435546,0.28780517,105.0
29771,-1.0823412,0.063224316,0.099102736,0.5851685,-0.31435546,0.28780517,105.0
29772,-1.0823412,0.063224316,0.099102736,0.7327881,-0.2166504,0.1996582,105.0
29773,-0.60417867,0.3076353,1.0380347,0.7327881,-0.2166504,0.1996582,105.0
29774,-0.60417867,0.3076353,1.0380347,0.40356445,-0.093457036,0.16248779,105.0
29775,-9.088516E-4,0.487185,0.6795611,0.40356445,-0.093457036,0.16248779,105.0
29776,-9.088516E-4,0.487185,0.6795611,0.05628662,-0.0361084,0.10407715,105.0
29777,0.35188532,0.33432817,-0.3292393,0.05628662,-0.0361084,0.10407715,105.0
29778,0.35188532,0.33432817,-0.3292393,-0.028674318,-0.10620117,0.045666505,105.0
29779,0.34587598,0.029852867,-0.69342077,-0.028674318,-0.10620117,0.045666505,105.0
29780,0.34587598,0.029852867,-0.69342077,0.19116211,-0.107263185,-0.033984374,105.0
29781,0.15613198,-0.007367611,-0.030261517,0.19116211,-0.107263185,-0.033984374,105.0
29782,0.15613198,-0.007367611,-0.030261517,0.37807617,-0.1178833,-0.06796875,105.0
29783,0.040469646,0.16151285,0.8323948,0.37807617,-0.1178833,-0.06796875,105.0
29784,0.040469646,0.16151285,0.8323948,0.010620117,0.04460449,-0.0180542,105.0
29785,-0.0040011406,0.08795023,1.00355,0.010620117,0.04460449,-0.0180542,105.0
29786,-0.0040011406,0.08795023,1.00355,0.08920898,0.087084964,-0.0063720704,105.0
29787,-0.0207057,0.09299183,0.38064772,0.08920898,0.087084964,-0.0063720704,105.0
29788,-0.0207057,0.09299183,0.38064772,-0.040356446,0.098767094,-0.03079834,105.0
29789,-0.016015291,0.17818975,-0.3819809,-0.040356446,0.098767094,-0.03079834,105.0
29790,-0.016015291,0.17818975,-0.3819809,-0.3058594,0.05628662,-0.10938721,105.0
29791,-0.047333717,0.0081887245,-0.700177,-0.3058594,0.05628662,-0.10938721,105.0
29792,-0.047333717,0.0081887245,-0.700177,-0.1996582,-0.10301514,-0.1444336,105.0
29793,-0.12314534,-0.39175224,-0.42165285,-0.1996582,-0.10301514,-0.1444336,105.0
29794,-0.12314534,-0.39175224,-0.42165285,-0.013806152,-0.14655761,-0.11363526,105.0
29795,-0.22550607,-0.5329943,0.21444774,-0.013806152,-0.14655761,-0.11363526,105.0
29796,-0.22550607,-0.5329943,0.21444774,-0.05628662,-0.087084964,0.0053100586,105.0
29797,-0.24617624,-0.20860958,0.6422125,-0.05628662,-0.087084964,0.0053100586,105.0
29798,-0.24617624,-0.20860958,0.6422125,-0.014868164,0.045666505,0.011682129,105.0
29799,-0.17083025,0.10822201,0.3497808,-0.014868164,0.045666505,0.011682129,105.0
29800,-0.17083025,0.10822201,0.3497808,0.058410645,0.0021240234,0.045666505,105.0
29801,-0.19398832,0.048552513,-0.27741414,0.058410645,0.0021240234,0.045666505,105.0
29802,-0.19398832,0.048552513,-0.27741414,0.087084964,-0.050976563,-0.025488282,105.0
29803,-0.23657489,-0.2556162,-0.4815749,0.087084964,-0.050976563,-0.025488282,105.0
29804,-0.23657489,-0.2556162,-0.4815749,0.016992187,0.011682129,-0.012744141,105.0
29805,-0.14001656,-0.1729865,-0.42787468,0.016992187,0.011682129,-0.012744141,105.0
29806,-0.14001656,-0.1729865,-0.42787468,0.14337158,-0.22514649,0.053100586,105.0
29807,2.9158592E-4,0.34360552,-0.11836171,0.14337158,-0.22514649,0.053100586,105.0
29808,2.9158592E-4,0.34360552,-0.11836171,-0.3982544,-0.10513916,-0.06584473,105.0
29809,0.041261196,0.3050604,0.25213683,-0.3982544,-0.10513916,-0.06584473,105.0
29810,0.041261196,0.3050604,0.25213683,-0.0722168,-0.18266602,-0.0637207,105.0
29811,0.022620916,-0.096784115,0.089758754,-0.0722168,-0.18266602,-0.0637207,105.0
29812,0.022620916,-0.096784115,0.089758754,0.043542482,-0.23151855,-0.023364259,105.0
29813,0.13267207,-0.09129429,0.039543808,0.043542482,-0.23151855,-0.023364259,105.0
29814,0.13267207,-0.09129429,0.039543808,-0.33240968,-0.19116211,-0.047790527,105.0
29815,0.13267207,-0.09129429,0.039543808,-0.33240968,-0.19116211,-0.047790527,104.0
29816,0.48991466,0.05133009,0.3032415,-0.33240968,-0.19116211,-0.047790527,104.0
29817,0.48991466,0.05133009,0.3032415,-0.39613038,-0.14337158,-0.06159668,104.0
29818,0.8521123,-0.077148914,0.07662642,-0.39613038,-0.14337158,-0.06159668,104.0
29819,0.8521123,-0.077148914,0.07662642,-0.14761963,-0.1901001,-0.07434082,104.0
29820,1.0676762,-0.4646001,-0.28562272,-0.14761963,-0.1901001,-0.07434082,104.0
29821,1.0676762,-0.4646001,-0.28562272,0.5809204,-0.27612305,-0.18903808,104.0
29822,1.0228422,-0.2491827,-0.1835885,0.5809204,-0.27612305,-0.18903808,104.0
29823,1.0228422,-0.2491827,-0.1835885,0.37595215,-0.19541016,0.23045655,104.0
29824,0.7310667,0.25003147,0.46583676,0.37595215,-0.19541016,0.23045655,104.0
29825,0.7310667,0.25003147,0.46583676,-0.15611573,0.13806152,0.3079834,104.0
29826,0.47191393,0.17058182,0.94975686,-0.15611573,0.13806152,0.3079834,104.0
29827,0.47191393,0.17058182,0.94975686,0.0,0.16142578,0.24213867,104.0
29828,0.2519331,-0.07505798,0.6094149,0.0,0.16142578,0.24213867,104.0
29829,0.2519331,-0.07505798,0.6094149,0.3791382,0.26019287,0.2516968,104.0
29830,0.05194938,0.096447945,-0.17712873,0.3791382,0.26019287,0.2516968,104.0
29831,0.05194938,0.096447945,-0.17712873,0.25594482,0.25806886,0.2081543,104.0
29832,-0.33184135,0.29123306,-0.49717176,0.25594482,0.25806886,0.2081543,104.0
29833,-0.33184135,0.29123306,-0.49717176,-0.10407715,0.26019287,0.1901001,104.0
29834,-1.0124092,-0.12519217,0.08307314,-0.10407715,0.26019287,0.1901001,104.0
29835,-1.0124092,-0.12519217,0.08307314,-0.1359375,0.29417726,0.18372802,104.0
29836,-1.5321443,-0.5799265,0.3049717,-0.1359375,0.29417726,0.18372802,104.0
29837,-1.5321443,-0.5799265,0.3049717,0.04248047,0.27718505,0.34727785,104.0
29838,-1.728926,-0.24449539,-0.6447067,0.04248047,0.27718505,0.34727785,104.0
29839,-1.728926,-0.24449539,-0.6447067,0.27612305,0.012744141,0.35471192,104.0
29840,-1.69807,0.78506756,-1.4237976,0.27612305,0.012744141,0.35471192,104.0
29841,-1.69807,0.78506756,-1.4237976,0.07752686,-0.12000733,0.045666505,104.0
29842,-1.3038418,1.5169945,-0.9026489,0.07752686,-0.12000733,0.045666505,104.0
29843,-1.3038418,1.5169945,-0.9026489,-0.23045655,-0.18160401,-0.11257324,104.0
29844,-0.6327219,1.0326629,0.12680662,-0.23045655,-0.18160401,-0.11257324,104.0
29845,-0.6327219,1.0326629,0.12680662,-0.42799073,-0.16885987,-0.2177124,104.0
29846,-0.02852869,-0.2125783,0.679021,-0.42799073,-0.16885987,-0.2177124,104.0
29847,-0.02852869,-0.2125783,0.679021,-0.090270996,-0.19222413,-0.090270996,104.0
29848,0.4582317,-0.7710271,0.77212304,-0.090270996,-0.19222413,-0.090270996,104.0
29849,0.4582317,-0.7710271,0.77212304,-0.22514649,-0.1359375,-0.07752686,104.0
29850,0.79236674,-0.65726376,0.31906563,-0.22514649,-0.1359375,-0.07752686,104.0
29851,0.79236674,-0.65726376,0.31906563,-0.087084964,-0.21877442,0.124255374,104.0
29852,0.83147645,-0.47481012,-0.6385708,-0.087084964,-0.21877442,0.124255374,104.0
29853,0.83147645,-0.47481012,-0.6385708,-0.14337158,-0.31860352,-0.0010620117,104.0
29854,0.6593461,-0.28778267,-1.1242844,-0.14337158,-0.31860352,-0.0010620117,104.0
29855,0.6593461,-0.28778267,-1.1242844,-0.1083252,-0.45029297,-0.12319336,104.0
29856,0.5180042,-0.029530525,-0.67559934,-0.1083252,-0.45029297,-0.12319336,104.0
29857,0.5180042,-0.029530525,-0.67559934,0.09133301,-0.5777344,-0.17735596,104.0
29858,0.6899159,0.5935874,0.13218892,0.09133301,-0.5777344,-0.17735596,104.0
29859,0.6899159,0.5935874,0.13218892,-0.09133301,-0.6223389,-0.32603762,104.0
29860,1.0788615,0.28136396,1.1618913,-0.09133301,-0.6223389,-0.32603762,104.0
29861,1.0788615,0.28136396,1.1618913,0.40356445,-0.6064087,-0.29099122,104.0
29862,0.99343586,-0.7216377,2.2384486,0.40356445,-0.6064087,-0.29099122,104.0
29863,0.99343586,-0.7216377,2.2384486,0.3695801,-0.14230958,0.2782471,104.0
29864,0.44386983,-0.504581,2.0425777,0.3695801,-0.14230958,0.2782471,104.0
29865,0.44386983,-0.504581,2.0425777,-0.1996582,0.22302246,0.5033936,104.0
29866,-0.036554575,0.28072214,0.3895676,-0.1996582,0.22302246,0.5033936,104.0
29867,-0.036554575,0.28072214,0.3895676,-0.57454836,0.27399904,0.41524658,104.0
29868,-0.30635548,0.24126482,-1.2875648,-0.57454836,0.27399904,0.41524658,104.0
29869,-0.30635548,0.24126482,-1.2875648,0.6180908,-0.007434082,0.2803711,104.0
29870,-0.5614052,0.23988676,-1.9350078,0.6180908,-0.007434082,0.2803711,104.0
29871,-0.5614052,0.23988676,-1.9350078,0.14974366,-0.08814698,0.05522461,104.0
29872,-0.64668274,0.2944851,-1.1171225,0.14974366,-0.08814698,0.05522461,104.0
29873,-0.64668274,0.2944851,-1.1171225,-0.039294433,-0.08071289,-0.04460449,104.0
29874,-0.54411626,-0.33405304,0.52600414,-0.039294433,-0.08071289,-0.04460449,104.0
29875,-0.54411626,-0.33405304,0.52600414,0.7455322,-0.038232423,0.10620117,104.0
29876,-0.43867445,-0.54611206,1.454275,0.7455322,-0.038232423,0.10620117,104.0
29877,-0.43867445,-0.54611206,1.454275,0.6085327,0.09451904,0.16673584,104.0
29878,-0.265002,0.07635498,0.8693282,0.6085327,0.09451904,0.16673584,104.0
29879,-0.265002,0.07635498,0.8693282,-0.31010744,0.21983643,0.14655761,104.0
29880,-0.083949804,0.35578632,-0.35276744,-0.31010744,0.21983643,0.14655761,104.0
29881,-0.083949804,0.35578632,-0.35276744,-0.25913087,0.18691407,0.058410645,104.0
29882,0.1536777,0.24781275,-1.0960811,-0.25913087,0.18691407,0.058410645,104.0
29883,0.1536777,0.24781275,-1.0960811,0.13168946,0.13168946,-0.10301514,104.0
29884,0.3566823,0.19551611,-0.90641814,0.13168946,0.13168946,-0.10301514,104.0
29885,0.3566823,0.19551611,-0.90641814,0.15823975,0.11257324,-0.083898924,104.0
29886,0.50059247,0.37922764,0.2701658,0.15823975,0.11257324,-0.083898924,104.0
29887,0.50059247,0.37922764,0.2701658,0.25700685,0.3069214,-0.24213867,104.0
29888,0.535789,0.70656824,1.1313792,0.25700685,0.3069214,-0.24213867,104.0
29889,0.535789,0.70656824,1.1313792,-0.14974366,0.45666504,-0.3451538,104.0
29890,0.5523373,0.63423634,0.419349,-0.14974366,0.45666504,-0.3451538,104.0
29891,0.5523373,0.63423634,0.419349,-0.045666505,0.3430298,-0.3164795,104.0
29892,0.5713254,0.174613,-0.81225026,-0.045666505,0.3430298,-0.3164795,104.0
29893,0.5713254,0.174613,-0.81225026,-0.16142578,0.21558838,-0.29630128,104.0
29894,0.32875228,-0.42411566,-0.6690019,-0.16142578,0.21558838,-0.29630128,104.0
29895,0.32875228,-0.42411566,-0.6690019,-0.06690674,0.1529297,-0.2166504,104.0
29896,-0.19149041,-1.0869246,0.9968542,-0.06690674,0.1529297,-0.2166504,104.0
29897,-0.19149041,-1.0869246,0.9968542,-0.5065796,0.3982544,-0.0998291,104.0
29898,-0.6842226,-1.662777,1.6932597,-0.5065796,0.3982544,-0.0998291,104.0
29899,-0.6842226,-1.662777,1.6932597,-0.016992187,0.46516114,0.17629395,104.0
29900,-1.1404934,-1.3471651,-0.053509884,-0.016992187,0.46516114,0.17629395,104.0
29901,-1.1404934,-1.3471651,-0.053509884,0.2899292,0.22833252,0.31966552,104.0
29902,-1.4062059,0.11407709,-1.7857889,0.2899292,0.22833252,0.31966552,104.0
29903,-1.4062059,0.11407709,-1.7857889,-0.16461182,0.16142578,0.10938721,104.0
29904,-1.0629163,1.352138,-1.7236263,-0.16461182,0.16142578,0.10938721,104.0
29905,-1.0629163,1.352138,-1.7236263,-0.5320679,0.16354981,-0.09239502,104.0
29906,-0.4583776,1.2159514,-0.8748971,-0.5320679,0.16354981,-0.09239502,104.0
29907,-0.4583776,1.2159514,-0.8748971,-0.4258667,0.1083252,-0.1274414,104.0
29908,-0.0029447079,0.35377932,-0.30040598,-0.4258667,0.1083252,-0.1274414,104.0
