,accx,accy,accz,gyrox,gyroy,gyroz,heart rate
28365,type,type,type,type,type,type,type
28366,0.09353566,-0.44617462,0.26042938,0.452417,-0.06796875,0.33134767,92.0
28367,0.09353566,-0.44617462,0.26042938,0.85598147,-0.083898924,0.3079834,92.0
28368,0.062120914,-7.6293945E-4,-0.025260925,0.85598147,-0.083898924,0.3079834,92.0
28369,0.062120914,-7.6293945E-4,-0.025260925,0.86978763,-0.12213135,0.35895997,92.0
28370,-0.10583305,0.5579605,-0.11727905,0.86978763,-0.12213135,0.35895997,92.0
28371,-0.10583305,0.5579605,-0.11727905,-0.06690674,-0.078588866,0.057348635,92.0
28372,-0.19931483,0.74031067,-0.007946014,-0.06690674,-0.078588866,0.057348635,92.0
28373,-0.19931483,0.74031067,-0.007946014,-0.541626,0.038232423,-0.05522461,92.0
28374,-0.09140992,0.35661316,0.14090729,-0.541626,0.038232423,-0.05522461,92.0
28375,-0.09140992,0.35661316,0.14090729,-0.4364868,0.04885254,0.053100586,92.0
28376,0.007877827,-0.01550293,0.14277649,-0.4364868,0.04885254,0.053100586,92.0
28377,0.007877827,-0.01550293,0.14277649,-0.26019287,0.052038576,0.08920898,92.0
28378,-0.02890277,-0.12324524,-0.012901306,-0.26019287,0.052038576,0.08920898,92.0
28379,-0.02890277,-0.12324524,-0.012901306,-0.08602295,0.039294433,0.1274414,92.0
28380,-0.061623096,-0.10119629,-0.16942596,-0.08602295,0.039294433,0.1274414,92.0
28381,-0.061623096,-0.10119629,-0.16942596,0.02442627,0.015930176,0.118945315,92.0
28382,-0.061623096,-0.10119629,-0.16942596,0.098767094,0.023364259,0.057348635,92.0
28383,-0.042901993,-0.046791077,-0.17601776,0.098767094,0.023364259,0.057348635,92.0
28384,0.018107653,-0.03087616,-0.084220886,0.098767094,0.023364259,0.057348635,92.0
28385,0.018107653,-0.03087616,-0.084220886,0.12319336,0.040356446,0.0180542,92.0
28386,0.018107653,-0.03087616,-0.084220886,0.12319336,0.040356446,0.0180542,92.0
28387,0.11072636,-0.028335571,-0.044425964,0.12319336,0.040356446,0.0180542,92.0
28388,0.11072636,-0.028335571,-0.044425964,-0.013806152,0.047790527,-0.029736329,92.0
28389,0.16435003,-0.039779663,-0.07733917,-0.013806152,0.047790527,-0.029736329,92.0
28390,0.16435003,-0.039779663,-0.07733917,-0.04991455,0.04991455,-0.06159668,92.0
28391,0.15855527,-0.096328735,-0.104766846,-0.04991455,0.04991455,-0.06159668,92.0
28392,0.15855527,-0.096328735,-0.104766846,0.013806152,0.027612304,-0.046728518,92.0
28393,0.12913918,-0.14710999,-0.092453,0.013806152,0.027612304,-0.046728518,92.0
28394,0.12913918,-0.14710999,-0.092453,0.08602295,0.012744141,-0.047790527,92.0
28395,0.08285236,-0.13645935,-0.08268738,0.08602295,0.012744141,-0.047790527,92.0
28396,0.08285236,-0.13645935,-0.08268738,0.09239502,0.004248047,-0.06159668,92.0
28397,0.03737569,-0.0797348,-0.103588104,0.09239502,0.004248047,-0.06159668,92.0
28398,0.03737569,-0.0797348,-0.103588104,0.004248047,0.004248047,-0.04991455,92.0
28399,7.379055E-4,-0.044296265,-0.13824081,0.004248047,0.004248047,-0.04991455,92.0
28400,7.379055E-4,-0.044296265,-0.13824081,-0.08071289,-0.010620117,-0.014868164,92.0
28401,-0.033015728,-0.018562317,-0.18158722,-0.08071289,-0.010620117,-0.014868164,92.0
28402,-0.033015728,-0.018562317,-0.18158722,-0.20178223,-0.010620117,0.015930176,92.0
28403,-0.081759214,0.014862061,-0.23667526,-0.20178223,-0.010620117,0.015930176,92.0
28404,-0.081759214,0.014862061,-0.23667526,-0.26975098,-0.0010620117,0.04248047,92.0
28405,-0.13280249,0.03792572,-0.3247795,-0.26975098,-0.0010620117,0.04248047,92.0
28406,-0.13280249,0.03792572,-0.3247795,-0.39613038,0.020178223,0.09451904,92.0
28407,-0.1710124,0.04714966,-0.41524124,-0.39613038,0.020178223,0.09451904,92.0
28408,-0.1710124,0.04714966,-0.41524124,-0.544812,0.04248047,0.1539917,92.0
28409,-0.1710124,0.04714966,-0.41524124,-0.75721437,0.040356446,0.28355715,92.0
28410,-0.19598961,0.06048584,-0.48524475,-0.75721437,0.040356446,0.28355715,92.0
28411,-0.2511642,0.050582886,-0.5341644,-0.75721437,0.040356446,0.28355715,92.0
28412,-0.2511642,0.050582886,-0.5341644,-0.7434082,0.020178223,0.39506838,92.0
28413,-0.40493536,-0.050559998,-0.5490837,-0.7434082,0.020178223,0.39506838,92.0
28414,-0.40493536,-0.050559998,-0.5490837,-0.3419678,-0.09664307,0.10089111,92.0
28415,-0.44468784,0.029327393,-0.54013443,-0.3419678,-0.09664307,0.10089111,92.0
28416,-0.44468784,0.029327393,-0.54013443,-0.28674316,-0.121069334,0.11151123,92.0
28417,-0.24091864,0.3485489,-0.54756165,-0.28674316,-0.121069334,0.11151123,92.0
28418,-0.24091864,0.3485489,-0.54756165,-0.44816896,-0.14124756,0.17416993,92.0
28419,-0.11623335,0.5023346,-0.5371971,-0.44816896,-0.14124756,0.17416993,92.0
28420,-0.11623335,0.5023346,-0.5371971,-0.40462646,-0.18054199,0.18797608,92.0
28421,-0.2076106,0.35961914,-0.47878265,-0.40462646,-0.18054199,0.18797608,92.0
28422,-0.2076106,0.35961914,-0.47878265,-0.19647217,-0.24638672,0.17947999,92.0
28423,-0.28773165,0.14078522,-0.3278389,-0.19647217,-0.24638672,0.17947999,92.0
28424,-0.28773165,0.14078522,-0.3278389,-0.0541626,-0.2793091,0.045666505,92.0
28425,-0.1811986,0.04244995,-0.15680313,-0.0541626,-0.2793091,0.045666505,92.0
28426,-0.1811986,0.04244995,-0.15680313,-0.23789063,-0.2516968,-0.12531738,92.0
28427,-0.1811986,0.04244995,-0.15680313,-0.5894165,-0.19328614,-0.28355715,92.0
28428,0.09670353,0.024551392,-0.095401764,-0.5894165,-0.19328614,-0.28355715,92.0
28429,0.39446497,-0.02357483,-0.21378708,-0.5894165,-0.19328614,-0.28355715,92.0
28430,0.39446497,-0.02357483,-0.21378708,-0.86553955,-0.16354981,-0.39400634,92.0
28431,0.5539143,-0.12635803,-0.50445557,-0.86553955,-0.16354981,-0.39400634,92.0
28432,0.5539143,-0.12635803,-0.50445557,-1.0057251,-0.20603028,-0.5150757,92.0
28433,0.58705235,-0.21819305,-0.84246826,-1.0057251,-0.20603028,-0.5150757,92.0
28434,0.58705235,-0.21819305,-0.84246826,-1.0875,-0.2814331,-0.6860596,92.0
28435,0.6417,-0.20038605,-1.0821304,-1.0875,-0.2814331,-0.6860596,92.0
28436,0.6417,-0.20038605,-1.0821304,-1.359375,-0.3355957,-0.89102787,92.0
28437,0.79529357,-0.09630585,-1.1919861,-1.359375,-0.3355957,-0.89102787,92.0
28438,0.79529357,-0.09630585,-1.1919861,-1.8617066,-0.3536499,-1.0875,92.0
28439,0.9280318,-0.053604126,-1.2834473,-1.8617066,-0.3536499,-1.0875,92.0
28440,0.9280318,-0.053604126,-1.2834473,-2.4521852,-0.36002198,-1.2574219,92.0
28441,0.89367056,-0.14404297,-1.4737778,-2.4521852,-0.36002198,-1.2574219,92.0
28442,0.89367056,-0.14404297,-1.4737778,-2.969385,-0.3982544,-1.4177856,92.0
28443,0.66385007,-0.22483063,-1.6563644,-2.969385,-0.3982544,-1.4177856,92.0
28444,0.66385007,-0.22483063,-1.6563644,-3.2911744,-0.48640138,-1.5654052,92.0
28445,0.38773298,-0.23729706,-1.5797424,-3.2911744,-0.48640138,-1.5654052,92.0
28446,0.38773298,-0.23729706,-1.5797424,-3.3878174,-0.5649902,-1.7555054,92.0
28447,0.25912428,-0.20850372,-1.2243538,-3.3878174,-0.5649902,-1.7555054,92.0
28448,0.25912428,-0.20850372,-1.2243538,-3.341089,-0.62977296,-2.0072021,92.0
28449,0.30012167,-0.036872864,-0.8300667,-3.341089,-0.62977296,-2.0072021,92.0
28450,0.30012167,-0.036872864,-0.8300667,-3.445166,-0.6467652,-2.3162477,92.0
28451,0.40654016,0.24598694,-0.522377,-3.445166,-0.6467652,-2.3162477,92.0
28452,0.40654016,0.24598694,-0.522377,-3.805188,-0.6149048,-2.6072388,92.0
28453,0.51379406,0.19649506,-0.22639847,-3.805188,-0.6149048,-2.6072388,92.0
28454,0.51379406,0.19649506,-0.22639847,-4.009094,-0.5533081,-2.7442384,92.0
28455,0.73280036,-0.4158783,0.17107773,-4.009094,-0.5533081,-2.7442384,92.0
28456,0.73280036,-0.4158783,0.17107773,-3.6936767,-0.5278198,-3.0426636,92.0
28457,1.0998145,-0.96364594,0.66897964,-3.6936767,-0.5278198,-3.0426636,92.0
28458,1.0998145,-0.96364594,0.66897964,-3.3655152,-0.49064943,-3.4090576,92.0
28459,1.4402399,-0.9583435,1.1337318,-3.3655152,-0.49064943,-3.4090576,92.0
28460,1.4402399,-0.9583435,1.1337318,-3.530127,-0.28568116,-3.5471191,92.0
28461,1.5247749,-0.67061615,1.4357452,-3.530127,-0.28568116,-3.5471191,92.0
28462,1.5247749,-0.67061615,1.4357452,-3.967676,0.0053100586,-3.435608,92.0
28463,1.2094562,-0.42185974,1.4880867,-3.967676,0.0053100586,-3.435608,92.0
28464,1.2094562,-0.42185974,1.4880867,-4.1046753,0.29630128,-3.2019653,92.0
28465,0.60333157,-0.28205872,1.2402,-4.1046753,0.29630128,-3.2019653,92.0
28466,0.60333157,-0.28205872,1.2402,-3.8083742,0.40250245,-2.9343383,92.0
28467,0.015904963,-0.0774765,0.857357,-3.8083742,0.40250245,-2.9343383,92.0
28468,0.015904963,-0.0774765,0.857357,-3.4706542,0.36851808,-2.7346802,92.0
28469,-0.43194157,0.5136795,0.5989952,-3.4706542,0.36851808,-2.7346802,92.0
28470,-0.43194157,0.5136795,0.5989952,-3.4557862,0.3440918,-2.3905885,92.0
28471,-0.8735196,1.3490753,0.4953575,-3.4557862,0.3440918,-2.3905885,92.0
28472,-0.8735196,1.3490753,0.4953575,-3.5885377,0.3419678,-2.0263183,92.0
28473,-1.3691404,1.9035416,0.43032074,-3.5885377,0.3419678,-2.0263183,92.0
28474,-1.3691404,1.9035416,0.43032074,-3.4302979,0.26019287,-1.6163819,92.0
28475,-1.7948729,1.9403229,0.44834518,-3.4302979,0.26019287,-1.6163819,92.0
28476,-1.7948729,1.9403229,0.44834518,-2.8461914,0.05628662,-1.2128174,92.0
28477,-1.9561498,1.7074203,0.58719254,-2.8461914,0.05628662,-1.2128174,92.0
28478,-1.9561498,1.7074203,0.58719254,-2.088977,-0.18160401,-0.8814697,92.0
28479,-1.7673368,1.6672897,0.74334717,-2.088977,-0.18160401,-0.8814697,92.0
28480,-1.7673368,1.6672897,0.74334717,-1.3933594,-0.3993164,-0.5671143,92.0
28481,-1.3086815,2.1113815,0.8385391,-1.3933594,-0.3993164,-0.5671143,92.0
28482,-1.3086815,2.1113815,0.8385391,-1.081128,-0.46834716,-0.2899292,92.0
28483,-0.8039887,2.8407059,0.863224,-1.081128,-0.46834716,-0.2899292,92.0
28484,-0.8039887,2.8407059,0.863224,-1.2404298,-0.36320803,-0.21558838,92.0
28485,-0.4792993,3.325943,0.76084137,-1.2404298,-0.36320803,-0.21558838,92.0
28486,-0.4792993,3.325943,0.76084137,-1.6153198,-0.17947999,-0.2623169,92.0
28487,-0.4002607,3.1731415,0.5846863,-1.6153198,-0.17947999,-0.2623169,92.0
28488,-0.4002607,3.1731415,0.5846863,-1.8362182,-0.010620117,-0.29736328,92.0
28489,-0.44132662,2.464798,0.51860046,-1.8362182,-0.010620117,-0.29736328,92.0
28490,-0.44132662,2.464798,0.51860046,-1.629126,0.121069334,-0.41206056,92.0
28491,-0.37918425,1.7738266,0.7148323,-1.629126,0.121069334,-0.41206056,92.0
28492,-0.37918425,1.7738266,0.7148323,-1.3168945,0.19116211,-0.5628662,92.0
28493,-0.11334491,1.4590149,0.942276,-1.3168945,0.19116211,-0.5628662,92.0
28494,-0.11334491,1.4590149,0.942276,-0.817749,0.22514649,-0.46728516,92.0
28495,0.09318638,1.3076935,0.8603401,-0.817749,0.22514649,-0.46728516,92.0
28496,0.09318638,1.3076935,0.8603401,-0.6701294,0.26975098,-0.70942384,92.0
28497,0.047376156,1.2854233,0.63716125,-0.6701294,0.26975098,-0.70942384,92.0
28498,0.047376156,1.2854233,0.63716125,-0.9855469,0.38338622,-0.92501223,92.0
28499,-0.11102486,1.1545334,0.581398,-0.9855469,0.38338622,-0.92501223,92.0
28500,-0.11102486,1.1545334,0.581398,-1.2138795,0.45666504,-0.8952759,92.0
28501,-0.3523941,0.71640015,0.62914276,-1.2138795,0.45666504,-0.8952759,92.0
28502,-0.3523941,0.71640015,0.62914276,-1.170337,0.35789797,-0.9781128,92.0
28503,-0.550653,0.301857,0.58172226,-1.170337,0.35789797,-0.9781128,92.0
28504,-0.550653,0.301857,0.58172226,-0.91014403,0.14549561,-0.8379273,92.0
28505,-0.4985423,-0.19961548,0.30254745,-0.91014403,0.14549561,-0.8379273,92.0
28506,-0.4985423,-0.19961548,0.30254745,-0.91014403,0.14549561,-0.8379273,92.0
28507,-0.4985423,-0.19961548,0.30254745,-0.0053100586,-0.2527588,-0.32603762,92.0
28508,-0.4968319,-0.80527496,-0.072818756,-0.0053100586,-0.2527588,-0.32603762,92.0
28509,-0.4968319,-0.80527496,-0.072818756,0.6786255,-0.31116945,-0.49489745,92.0
28510,-0.5491867,-0.99095154,-0.21947479,0.6786255,-0.31116945,-0.49489745,92.0
28511,-0.5491867,-0.99095154,-0.21947479,0.9897949,-0.38338622,-0.3812622,92.0
28512,-0.47217417,-0.83680725,-0.23247528,0.9897949,-0.38338622,-0.3812622,92.0
28513,-0.47217417,-0.83680725,-0.23247528,1.0673218,-0.40144044,-0.22089843,92.0
28514,-0.4000659,-0.49327087,-0.038517,1.0673218,-0.40144044,-0.22089843,92.0
28515,-0.4000659,-0.49327087,-0.038517,1.0184692,-0.32285157,-0.27612305,92.0
28516,-0.41337538,-0.43212128,-0.12652588,1.0184692,-0.32285157,-0.27612305,92.0
28517,-0.41337538,-0.43212128,-0.12652588,0.9303223,-0.29205322,-0.25806886,92.0
28518,-0.23072481,-0.63583374,-0.09127045,0.9303223,-0.29205322,-0.25806886,92.0
28519,-0.23072481,-0.63583374,-0.09127045,0.66269535,-0.13381349,-0.11363526,92.0
28520,-0.072494745,-0.7535019,-0.11779022,0.66269535,-0.13381349,-0.11363526,92.0
28521,-0.072494745,-0.7535019,-0.11779022,0.6510132,-0.09239502,-0.0031860352,92.0
28522,0.14122295,-1.1097717,-0.30524063,0.6510132,-0.09239502,-0.0031860352,92.0
28523,0.14122295,-1.1097717,-0.30524063,0.8729736,-0.038232423,0.3175415,92.0
28524,0.1574974,-0.944397,-0.51425934,0.8729736,-0.038232423,0.3175415,92.0
28525,0.1574974,-0.944397,-0.51425934,0.9345703,-0.011682129,0.42905274,92.0
28526,0.24860525,-0.41999817,-1.1018372,0.9345703,-0.011682129,0.42905274,92.0
28527,0.24860525,-0.41999817,-1.1018372,1.1076783,0.022302246,0.6977417,92.0
28528,0.38599372,-0.29048157,-1.1809082,1.1076783,0.022302246,0.6977417,92.0
28529,0.38599372,-0.29048157,-1.1809082,1.1512207,0.019116212,0.7508423,92.0
28530,1.0781553,-0.20682526,-1.4733391,1.1512207,0.019116212,0.7508423,92.0
28531,1.0781553,-0.20682526,-1.4733391,1.5250489,-0.11257324,0.8294312,92.0
28532,1.4169433,-0.3311081,-1.5241318,1.5250489,-0.11257324,0.8294312,92.0
28533,1.4169433,-0.3311081,-1.5241318,1.5250489,-0.31223145,1.1352905,92.0
28534,2.4265845,-0.25291443,-2.1985435,1.5250489,-0.31223145,1.1352905,92.0
28535,2.4265845,-0.25291443,-2.1985435,1.8691406,-0.4088745,0.68287355,92.0
28536,2.2433672,-0.08514404,-2.300106,1.8691406,-0.4088745,0.68287355,92.0
28537,2.2433672,-0.08514404,-2.300106,1.6057618,-0.4428589,0.7657105,92.0
28538,2.1306312,1.2093735,-3.208664,1.6057618,-0.4428589,0.7657105,92.0
28539,2.1306312,1.2093735,-3.208664,0.5235718,-0.34090576,1.0991821,92.0
28540,1.6089362,1.4131546,-3.059143,0.5235718,-0.34090576,1.0991821,92.0
28541,1.6089362,1.4131546,-3.059143,0.118945315,-0.29205322,1.1331666,92.0
28542,0.28668508,2.096466,-3.7152214,0.118945315,-0.29205322,1.1331666,92.0
28543,0.28668508,2.096466,-3.7152214,-0.7041138,-0.124255374,1.3052124,92.0
28544,0.10328606,1.7522202,-3.226841,-0.7041138,-0.124255374,1.3052124,92.0
28545,0.10328606,1.7522202,-3.226841,-0.7784546,-0.0722168,1.2478638,92.0
28546,0.37310737,0.63288116,-3.035572,-0.7784546,-0.0722168,1.2478638,92.0
28547,0.37310737,0.63288116,-3.035572,-0.25063476,0.06796875,0.68924564,92.0
28548,0.5950313,0.20436096,-2.495716,-0.25063476,0.06796875,0.68924564,92.0
28549,0.5950313,0.20436096,-2.495716,0.21240234,0.08814698,0.43754885,92.0
28550,1.0784665,0.2601776,-1.8488655,0.21240234,0.08814698,0.43754885,92.0
28551,1.0784665,0.2601776,-1.8488655,0.68287355,0.020178223,0.020178223,92.0
28552,1.1091355,0.51129913,-1.3283958,0.68287355,0.020178223,0.020178223,92.0
28553,1.1091355,0.51129913,-1.3283958,0.42055663,0.11044922,0.028674318,92.0
28554,1.3867958,1.6709671,-0.1688919,0.42055663,0.11044922,0.028674318,92.0
28555,1.3867958,1.6709671,-0.1688919,-1.1533448,0.15505372,0.23151855,92.0
28556,0.980213,1.6585999,0.28089142,-1.1533448,0.15505372,0.23151855,92.0
28557,0.980213,1.6585999,0.28089142,-1.6376221,0.13168946,0.29948732,92.0
28558,-0.26255816,0.41454315,0.8475418,-1.6376221,0.13168946,0.29948732,92.0
28559,-0.26255816,0.41454315,0.8475418,-1.2956543,-0.15717773,0.3069214,92.0
28560,-0.31956798,-0.37409973,0.8633728,-1.2956543,-0.15717773,0.3069214,92.0
28561,-0.31956798,-0.37409973,0.8633728,-0.5511841,-0.23682861,0.26868898,92.0
28562,0.2535619,-2.1462173,0.96053314,-0.5511841,-0.23682861,0.26868898,92.0
28563,0.2535619,-2.1462173,0.96053314,1.4432739,-0.36108398,0.31010744,92.0
28564,0.35796428,-1.995018,0.7549019,1.4432739,-0.36108398,0.31010744,92.0
28565,0.35796428,-1.995018,0.7549019,1.7236451,-0.32816163,0.36320803,92.0
28566,0.38278258,-1.3218079,1.4991951,1.7236451,-0.32816163,0.36320803,92.0
28567,0.38278258,-1.3218079,1.4991951,1.4071655,0.022302246,0.6446411,92.0
28568,0.42298627,-1.2065353,1.453762,1.4071655,0.022302246,0.6446411,92.0
28569,0.42298627,-1.2065353,1.453762,1.3455689,0.1444336,0.7391602,92.0
28570,0.16360879,-1.5783005,1.9355812,1.3455689,0.1444336,0.7391602,92.0
28571,0.16360879,-1.5783005,1.9355812,1.8192261,0.32603762,0.8262451,92.0
28572,-0.01563394,-1.581253,1.6273117,1.8192261,0.32603762,0.8262451,92.0
28573,-0.01563394,-1.581253,1.6273117,1.9296753,0.44604492,0.94625247,92.0
28574,-0.6195018,-1.4849701,1.781002,1.9296753,0.44604492,0.94625247,92.0
28575,-0.6195018,-1.4849701,1.781002,2.0677369,0.72854006,1.0938721,92.0
28576,-0.5039389,-1.2566528,1.3712387,2.0677369,0.72854006,1.0938721,92.0
28577,-0.5039389,-1.2566528,1.3712387,1.9286133,0.78164065,1.0821899,92.0
28578,-1.01653,-0.16585541,1.1136398,1.9286133,0.78164065,1.0821899,92.0
28579,-1.01653,-0.16585541,1.1136398,1.1257324,0.9653687,1.0545777,92.0
28580,-0.8072059,-0.21609497,1.0290451,1.1257324,0.9653687,1.0545777,92.0
28581,-0.8072059,-0.21609497,1.0290451,1.0460815,1.1299804,1.0906861,92.0
28582,-0.49028382,-1.3498993,1.6303787,1.0460815,1.1299804,1.0906861,92.0
28583,-0.49028382,-1.3498993,1.6303787,2.0401247,1.3168945,1.2945923,92.0
28584,0.66770947,-4.395706,3.4918022,2.0401247,1.3168945,1.2945923,92.0
28585,0.66770947,-4.395706,3.4918022,2.0401247,1.3168945,1.2945923,92.0
28586,0.66770947,-4.395706,3.4918022,0.94731444,2.1229615,2.5923707,92.0
28587,1.4576417,-4.6477203,3.3668213,0.94731444,2.1229615,2.5923707,92.0
28588,1.4576417,-4.6477203,3.3668213,1.0673218,1.9764038,1.4230957,92.0
28589,0.5321901,0.10673523,0.57024,1.0673218,1.9764038,1.4230957,92.0
28590,0.5321901,0.10673523,0.57024,0.76464844,2.2249146,1.6078857,92.0
28591,-0.6937914,3.3537369,-0.6709938,0.76464844,2.2249146,1.6078857,92.0
28592,-0.6937914,3.3537369,-0.6709938,-0.3971924,2.3204956,2.0316284,92.0
28593,-0.9352333,2.2598495,-0.044315338,-0.3971924,2.3204956,2.0316284,92.0
28594,-0.9352333,2.2598495,-0.044315338,-0.7306641,2.1548219,2.0592408,92.0
28595,-1.0119195,-0.17267609,0.648201,-0.7306641,2.1548219,2.0592408,92.0
28596,-1.0119195,-0.17267609,0.648201,-0.42799073,2.090039,1.8946289,92.0
28597,-0.95217484,-1.3500214,0.7236252,-0.42799073,2.090039,1.8946289,92.0
28598,-0.95217484,-1.3500214,0.7236252,-0.3058594,2.0188844,1.9827759,92.0
28599,-0.6239347,-1.3409805,0.678154,-0.3058594,2.0188844,1.9827759,92.0
28600,-0.6239347,-1.3409805,0.678154,-0.035046387,1.7714356,1.9817139,92.0
28601,-0.72326887,-1.4896774,0.90639114,-0.035046387,1.7714356,1.9817139,92.0
28602,-0.72326887,-1.4896774,0.90639114,0.17841797,1.3997315,1.9084351,92.0
28603,-1.5437518,-2.013359,1.2640533,0.17841797,1.3997315,1.9084351,92.0
28604,-1.5437518,-2.013359,1.2640533,0.35046387,0.9696167,1.5006226,92.0
28605,-2.4516397,-2.2240524,1.5588608,0.35046387,0.9696167,1.5006226,92.0
28606,-2.4516397,-2.2240524,1.5588608,0.23045655,0.5171997,1.1374146,92.0
28607,-2.3820393,-1.7400055,1.7976379,0.23045655,0.5171997,1.1374146,92.0
28608,-2.3820393,-1.7400055,1.7976379,0.31966552,0.15717773,0.79119873,92.0
28609,-1.1119304,-0.9356308,1.7485733,0.31966552,0.15717773,0.79119873,92.0
28610,-1.1119304,-0.9356308,1.7485733,0.29630128,-0.04141846,0.56392825,92.0
28611,0.14218187,-0.46346283,1.2299652,0.29630128,-0.04141846,0.56392825,92.0
28612,0.14218187,-0.46346283,1.2299652,0.32816163,-0.24638672,0.46728516,92.0
28613,0.20754433,-0.115097046,0.13640213,0.32816163,-0.24638672,0.46728516,92.0
28614,0.20754433,-0.115097046,0.13640213,-0.14337158,-0.3982544,0.5809204,92.0
28615,-0.69961405,0.28399658,-0.9370804,-0.14337158,-0.3982544,0.5809204,92.0
28616,-0.69961405,0.28399658,-0.9370804,-0.9866089,-0.25700685,0.8846558,92.0
28617,-1.5039539,0.39243317,-1.4126282,-0.9866089,-0.25700685,0.8846558,92.0
28618,-1.5039539,0.39243317,-1.4126282,-0.7147339,-0.19328614,0.96218264,92.0
28619,-1.6169205,0.34490204,-1.4247818,-0.7147339,-0.19328614,0.96218264,92.0
28620,-1.6169205,0.34490204,-1.4247818,0.04460449,-0.14018555,0.9154541,92.0
28621,-1.3274353,0.3894348,-1.2171555,0.04460449,-0.14018555,0.9154541,92.0
28622,-1.3274353,0.3894348,-1.2171555,0.6202149,-0.033984374,0.811377,92.0
28623,-1.0961401,0.49957275,-1.005291,0.6202149,-0.033984374,0.811377,92.0
28624,-1.0961401,0.49957275,-1.005291,0.3982544,0.09133301,0.5894165,92.0
28625,-0.87643623,0.06829834,-0.45812988,0.3982544,0.09133301,0.5894165,92.0
28626,-0.87643623,0.06829834,-0.45812988,-0.12213135,0.3971924,0.6446411,92.0
28627,-0.39074874,-1.0094452,0.21286774,-0.12213135,0.3971924,0.6446411,92.0
28628,-0.39074874,-1.0094452,0.21286774,-0.1359375,0.5501221,0.57561034,92.0
28629,0.3046131,-1.4261932,0.39659882,-0.1359375,0.5501221,0.57561034,92.0
28630,0.3046131,-1.4261932,0.39659882,0.2527588,0.4800293,0.029736329,92.0
28631,2.1985977,-0.9885483,-0.12857056,0.2527588,0.4800293,0.029736329,92.0
28632,2.1985977,-0.9885483,-0.12857056,-0.07965088,-0.5214478,-4.8247194,92.0
28633,3.1345863,-0.78785706,-0.30898285,-0.07965088,-0.5214478,-4.8247194,92.0
28634,3.1345863,-0.78785706,-0.30898285,1.0949341,0.30267334,-1.903125,92.0
28635,0.74957585,0.08646393,-0.1972847,1.0949341,0.30267334,-1.903125,92.0
28636,0.74957585,0.08646393,-0.1972847,1.536731,0.9143921,1.179895,92.0
28637,-1.2051733,2.105095,-0.2980652,1.536731,0.9143921,1.179895,92.0
28638,-1.2051733,2.105095,-0.2980652,-0.31966552,1.3360108,2.347046,92.0
28639,-0.026431084,2.4937668,0.09946442,-0.31966552,1.3360108,2.347046,92.0
28640,-0.026431084,2.4937668,0.09946442,-2.2281005,0.9781128,1.2128174,92.0
28641,2.539866,-0.15381622,0.7323761,-2.2281005,0.9781128,1.2128174,92.0
28642,2.539866,-0.15381622,0.7323761,-2.163318,0.71367186,-1.8733886,92.0
28643,2.4851031,-2.2849274,0.7666397,-2.163318,0.71367186,-1.8733886,92.0
28644,2.4851031,-2.2849274,0.7666397,0.31223145,0.03717041,-0.33028564,92.0
28645,0.44375873,-1.6266708,0.3650818,0.31223145,0.03717041,-0.33028564,92.0
28646,0.44375873,-1.6266708,0.3650818,1.1607789,-0.0180542,-0.72323,92.0
28647,0.029262304,0.31926727,-0.020523071,1.1607789,-0.0180542,-0.72323,92.0
28648,0.029262304,0.31926727,-0.020523071,0.44923097,0.04248047,-0.9685547,92.0
28649,1.2920744,1.5441589,-0.12023926,0.44923097,0.04248047,-0.9685547,92.0
28650,1.2920744,1.5441589,-0.12023926,-0.2527588,0.14230958,-0.68924564,92.0
28651,2.4368823,0.7980194,0.119838715,-0.2527588,0.14230958,-0.68924564,92.0
28652,2.4368823,0.7980194,0.119838715,-0.016992187,0.13699952,-0.8294312,92.0
28653,2.387189,-0.8801727,0.545063,-0.016992187,0.13699952,-0.8294312,92.0
28654,2.387189,-0.8801727,0.545063,1.9732178,0.047790527,-1.3795532,92.0
28655,0.9506326,-0.61837006,1.3101234,1.9732178,0.047790527,-1.3795532,92.0
28656,0.9506326,-0.61837006,1.3101234,1.177771,0.10301514,0.3993164,92.0
28657,-0.47613946,1.0555573,1.684063,1.177771,0.10301514,0.3993164,92.0
28658,-0.47613946,1.0555573,1.684063,1.0418335,0.28461915,-0.32922363,92.0
28659,-1.1384434,1.795105,1.120018,1.0418335,0.28461915,-0.32922363,92.0
28660,-1.1384434,1.795105,1.120018,0.59897465,0.44816896,-0.47896728,92.0
28661,-1.6322268,1.7260895,0.40154266,0.59897465,0.44816896,-0.47896728,92.0
28662,-1.6322268,1.7260895,0.40154266,-0.0031860352,0.3175415,-0.41206056,92.0
28663,-1.7275833,1.0879669,0.06529999,-0.0031860352,0.3175415,-0.41206056,92.0
28664,-1.7275833,1.0879669,0.06529999,-0.3536499,0.20178223,-0.5511841,92.0
28665,-1.4068224,-0.03315735,-0.059921265,-0.3536499,0.20178223,-0.5511841,92.0
28666,-1.4068224,-0.03315735,-0.059921265,-0.35577393,-0.016992187,-0.43011475,92.0
28667,-0.9455019,-0.837059,-0.30529785,-0.35577393,-0.016992187,-0.43011475,92.0
28668,-0.9455019,-0.837059,-0.30529785,-0.4343628,-0.16673584,-0.68499756,92.0
28669,-0.569695,-0.42640686,-0.54048157,-0.4343628,-0.16673584,-0.68499756,92.0
28670,-0.569695,-0.42640686,-0.54048157,-0.98448485,-0.18160401,-0.635083,92.0
28671,-0.28157377,0.1765976,-0.51805496,-0.98448485,-0.18160401,-0.635083,92.0
28672,-0.28157377,0.1765976,-0.51805496,-0.79969484,-0.13487549,-0.31223145,92.0
28673,0.044528604,0.008377075,-0.35388565,-0.79969484,-0.13487549,-0.31223145,92.0
28674,0.044528604,0.008377075,-0.35388565,-0.13487549,-0.12319336,-0.28780517,92.0
28675,0.21493196,-0.13896179,-0.16513824,-0.13487549,-0.12319336,-0.28780517,92.0
28676,0.21493196,-0.13896179,-0.16513824,0.02442627,-0.11044922,-0.26975098,92.0
28677,0.10420871,0.16107178,0.13799286,0.02442627,-0.11044922,-0.26975098,92.0
28678,0.10420871,0.16107178,0.13799286,-0.44604492,-0.05522461,-0.29948732,92.0
28679,-0.115021706,0.4870453,0.30326462,-0.44604492,-0.05522461,-0.29948732,92.0
28680,-0.115021706,0.4870453,0.30326462,-0.6244629,-0.058410645,-0.2516968,92.0
28681,-0.30327225,0.42089844,0.11615753,-0.6244629,-0.058410645,-0.2516968,92.0
28682,-0.30327225,0.42089844,0.11615753,-0.29948732,-0.12000733,-0.2623169,92.0
28683,-0.26904595,0.13529968,-0.15422821,-0.29948732,-0.12000733,-0.2623169,92.0
28684,-0.26904595,0.13529968,-0.15422821,0.05628662,-0.14974366,-0.26762697,92.0
28685,-0.1061548,0.07820892,-0.25795364,0.05628662,-0.14974366,-0.26762697,92.0
28686,-0.1061548,0.07820892,-0.25795364,0.12213135,-0.13487549,-0.32285157,92.0
28687,-0.01743114,-0.020980835,-0.1312027,0.12213135,-0.13487549,-0.32285157,92.0
28688,-0.01743114,-0.020980835,-0.1312027,0.12213135,-0.13487549,-0.32285157,91.0
28689,-0.01743114,-0.020980835,-0.1312027,-0.026550293,-0.07327881,-0.3791382,91.0
28690,0.09055948,-0.42390442,0.030521393,-0.026550293,-0.07327881,-0.3791382,91.0
28691,0.09055948,-0.42390442,0.030521393,-0.081774905,-0.04991455,-0.38763428,91.0
28692,0.38532603,-0.6604233,0.037597656,-0.081774905,-0.04991455,-0.38763428,91.0
28693,0.38532603,-0.6604233,0.037597656,-0.32922363,-0.08602295,-0.24320069,91.0
28694,0.53610516,-0.4692459,-0.21960449,-0.32922363,-0.08602295,-0.24320069,91.0
28695,0.53610516,-0.4692459,-0.21960449,-0.4343628,-0.18903808,-0.07752686,91.0
28696,0.1568749,-0.12032318,-0.6266098,-0.4343628,-0.18903808,-0.07752686,91.0
28697,0.1568749,-0.12032318,-0.6266098,-0.18691407,-0.2984253,-0.012744141,91.0
28698,-0.3989141,0.2924118,-0.7292557,-0.18691407,-0.2984253,-0.012744141,91.0
28699,-0.3989141,0.2924118,-0.7292557,0.13381349,-0.33134767,-0.013806152,91.0
28700,-0.56610394,0.6334305,-0.5127144,0.13381349,-0.33134767,-0.013806152,91.0
28701,-0.56610394,0.6334305,-0.5127144,0.28355715,-0.3090454,-0.10938721,91.0
28702,-0.25052714,0.8018265,-0.35004044,0.28355715,-0.3090454,-0.10938721,91.0
28703,-0.25052714,0.8018265,-0.35004044,0.11363526,-0.31010744,-0.21452637,91.0
28704,0.198565,0.58729553,-0.1846466,0.11363526,-0.31010744,-0.21452637,91.0
28705,0.198565,0.58729553,-0.1846466,0.14549561,-0.28780517,-0.17735596,91.0
28706,0.50580025,-0.30187225,0.3040161,0.14549561,-0.28780517,-0.17735596,91.0
28707,0.50580025,-0.30187225,0.3040161,0.41949463,-0.1720459,-0.043542482,91.0
28708,0.5343522,-0.8641281,0.87579346,0.41949463,-0.1720459,-0.043542482,91.0
28709,0.5343522,-0.8641281,0.87579346,0.17629395,0.008496094,0.078588866,91.0
28710,0.05965948,-0.25491333,1.125267,0.17629395,0.008496094,0.078588866,91.0
28711,0.05965948,-0.25491333,1.125267,-0.7943848,0.27506104,0.083898924,91.0
28712,-0.70222354,0.2837143,0.6124916,-0.7943848,0.27506104,0.083898924,91.0
28713,-0.70222354,0.2837143,0.6124916,-0.8963379,0.2623169,0.2081543,91.0
28714,-1.1543691,0.4319992,-0.66355896,-0.8963379,0.2623169,0.2081543,91.0
28715,-1.1543691,0.4319992,-0.66355896,0.0031860352,0.03186035,0.020178223,91.0
28716,-0.662338,0.7758484,-1.5789566,0.0031860352,0.03186035,0.020178223,91.0
28717,-0.662338,0.7758484,-1.5789566,0.34727785,-0.4439209,-0.8973999,91.0
28718,0.63206816,1.20018,-1.1947823,0.34727785,-0.4439209,-0.8973999,91.0
28719,0.63206816,1.20018,-1.1947823,-0.53100586,-0.39082032,-2.2142944,91.0
28720,1.0085475,0.4861679,-0.38197327,-0.53100586,-0.39082032,-2.2142944,91.0
28721,1.0085475,0.4861679,-0.38197327,-0.020178223,-0.72323,-1.4517701,91.0
28722,0.68116665,-0.37826538,-0.17311859,-0.020178223,-0.72323,-1.4517701,91.0
28723,0.68116665,-0.37826538,-0.17311859,0.17416993,-0.5533081,-1.6631104,91.0
28724,1.3671013,-0.8318405,-0.025360107,0.17416993,-0.5533081,-1.6631104,91.0
28725,1.3671013,-0.8318405,-0.025360107,0.4248047,-0.29311523,-0.724292,91.0
28726,1.6886761,-0.8285446,0.3635254,0.4248047,-0.29311523,-0.724292,91.0
28727,1.6886761,-0.8285446,0.3635254,0.630835,-0.015930176,-0.12000733,91.0
28728,0.58735454,0.27643585,0.2631111,0.630835,-0.015930176,-0.12000733,91.0
28729,0.58735454,0.27643585,0.2631111,0.5915405,-0.0361084,-0.10513916,91.0
28730,-0.5366838,1.6453171,-0.23757172,0.5915405,-0.0361084,-0.10513916,91.0
28731,-0.5366838,1.6453171,-0.23757172,0.33771974,-0.14761963,-0.32497558,91.0
28732,-0.70555556,1.7676468,-0.4128952,0.33771974,-0.14761963,-0.32497558,91.0
28733,-0.70555556,1.7676468,-0.4128952,0.26550293,-0.21134034,-0.2782471,91.0
28734,-0.4115392,1.002594,-0.42142868,0.26550293,-0.21134034,-0.2782471,91.0
28735,-0.4115392,1.002594,-0.42142868,0.4333008,-0.24957275,-0.5501221,91.0
28736,0.0047163963,-0.01776123,-0.45581818,0.4333008,-0.24957275,-0.5501221,91.0
28737,0.0047163963,-0.01776123,-0.45581818,0.7858887,-0.26125488,-0.4439209,91.0
28738,0.5605236,-0.9184036,0.41278458,0.7858887,-0.26125488,-0.4439209,91.0
28739,0.5605236,-0.9184036,0.41278458,0.70305175,-0.014868164,-0.029736329,91.0
28740,0.6577695,-0.6006775,1.4741249,0.70305175,-0.014868164,-0.029736329,91.0
28741,0.6577695,-0.6006775,1.4741249,-0.24320069,0.1709839,0.18585205,91.0
28742,0.07504374,0.40369415,0.9990387,-0.24320069,0.1709839,0.18585205,91.0
28743,0.07504374,0.40369415,0.9990387,-0.47684327,0.13275146,0.038232423,91.0
28744,-0.3196525,1.0306702,-0.3018074,-0.47684327,0.13275146,0.038232423,91.0
28745,-0.3196525,1.0306702,-0.3018074,-0.2888672,0.046728518,-0.007434082,91.0
28746,-0.25949395,1.0898285,-0.9833183,-0.2888672,0.046728518,-0.007434082,91.0
28747,-0.25949395,1.0898285,-0.9833183,-0.4258667,-0.03186035,0.09770508,91.0
28748,-0.012612224,0.21165466,-0.4366188,-0.4258667,-0.03186035,0.09770508,91.0
28749,-0.012612224,0.21165466,-0.4366188,0.016992187,0.08814698,-0.12319336,91.0
28750,-0.10893011,-0.97423553,0.39067078,0.016992187,0.08814698,-0.12319336,91.0
28751,-0.10893011,-0.97423553,0.39067078,-0.10195313,0.011682129,-0.045666505,91.0
28752,-0.55114555,-1.0241623,0.43807602,-0.10195313,0.011682129,-0.045666505,91.0
28753,-0.55114555,-1.0241623,0.43807602,0.0541626,-0.070092775,-0.4354248,91.0
28754,-0.55235445,-0.038650513,0.22301865,0.0541626,-0.070092775,-0.4354248,91.0
28755,-0.55235445,-0.038650513,0.22301865,-0.121069334,-0.08496094,-0.4630371,91.0
28756,-0.18094599,0.6119003,0.1224823,-0.121069334,-0.08496094,-0.4630371,91.0
28757,-0.18094599,0.6119003,0.1224823,-0.37382814,-0.08283692,-0.5214478,91.0
28758,0.19317049,0.35372925,-0.13188553,-0.37382814,-0.08283692,-0.5214478,91.0
28759,0.19317049,0.35372925,-0.13188553,-0.2516968,-0.087084964,-0.44498292,91.0
28760,0.5213943,0.007858276,-0.4408493,-0.2516968,-0.087084964,-0.44498292,91.0
28761,0.5213943,0.007858276,-0.4408493,0.012744141,-0.033984374,-0.21558838,91.0
28762,0.64419067,0.24776459,-0.42622757,0.012744141,-0.033984374,-0.21558838,91.0
28763,0.64419067,0.24776459,-0.42622757,-0.019116212,0.06478272,-0.07752686,91.0
28764,0.5941367,0.6090851,-0.11368561,-0.019116212,0.06478272,-0.07752686,91.0
28765,0.5941367,0.6090851,-0.11368561,-0.22727051,0.23258057,0.16354981,91.0
28766,0.48962823,0.6676178,0.06906128,-0.22727051,0.23258057,0.16354981,91.0
28767,0.48962823,0.6676178,0.06906128,-0.32709962,0.37382814,0.44604492,91.0
28768,0.41456637,0.38891602,-0.099998474,-0.32709962,0.37382814,0.44604492,91.0
28769,0.41456637,0.38891602,-0.099998474,-0.18691407,0.5235718,0.8623535,91.0
28770,0.2923709,-0.46518707,-0.28297806,-0.18691407,0.5235718,0.8623535,91.0
28771,0.2923709,-0.46518707,-0.28297806,0.3419678,0.50870365,1.4560181,91.0
28772,0.067966536,-1.0900803,0.013084412,0.3419678,0.50870365,1.4560181,91.0
28773,0.067966536,-1.0900803,0.013084412,0.09239502,0.3791382,1.7735596,91.0
28774,-0.13733819,-0.59573364,0.3355751,0.09239502,0.3791382,1.7735596,91.0
28775,-0.13733819,-0.59573364,0.3355751,-0.47790527,0.26444092,1.1374146,91.0
28776,-0.51205564,0.14433289,0.39485168,-0.47790527,0.26444092,1.1374146,91.0
28777,-0.51205564,0.14433289,0.39485168,-1.4825684,0.12531738,0.20178223,91.0
28778,-1.0362803,-0.3075409,0.4796753,-1.4825684,0.12531738,0.20178223,91.0
28779,-1.0362803,-0.3075409,0.4796753,-1.1437867,0.18585205,0.087084964,91.0
28780,-1.3186848,-1.457962,0.34552002,-1.1437867,0.18585205,0.087084964,91.0
28781,-1.3186848,-1.457962,0.34552002,0.14124756,0.040356446,0.22408448,91.0
28782,-1.3186848,-1.457962,0.34552002,0.14124756,0.040356446,0.22408448,91.0
28783,-1.0736003,-1.5555038,0.043502808,0.14124756,0.040356446,0.22408448,91.0
28784,-1.0736003,-1.5555038,0.043502808,0.56180423,-0.020178223,0.0998291,91.0
28785,-0.61373866,-0.41641235,-0.08178711,0.56180423,-0.020178223,0.0998291,91.0
28786,-0.61373866,-0.41641235,-0.08178711,0.26337892,-0.05522461,0.0361084,91.0
28787,-0.24512911,0.51114655,-0.011192322,0.26337892,-0.05522461,0.0361084,91.0
28788,-0.24512911,0.51114655,-0.011192322,-0.07115479,0.0010620117,-0.06584473,91.0
28789,0.2130642,0.5868683,0.013385773,-0.07115479,0.0010620117,-0.06584473,91.0
28790,0.2130642,0.5868683,0.013385773,-0.16461182,0.04460449,-0.070092775,91.0
28791,0.57585907,0.1459198,-0.048324585,-0.16461182,0.04460449,-0.070092775,91.0
28792,0.57585907,0.1459198,-0.048324585,-0.26444092,0.019116212,0.0180542,91.0
28793,0.46026003,-0.44844818,0.046092987,-0.26444092,0.019116212,0.0180542,91.0
28794,0.46026003,-0.44844818,0.046092987,-0.15080567,-0.022302246,0.052038576,91.0
28795,-0.08342767,-0.5613785,0.14959335,-0.15080567,-0.022302246,0.052038576,91.0
28796,-0.08342767,-0.5613785,0.14959335,0.08814698,-0.053100586,-0.121069334,91.0
28797,-0.5720278,-0.08421326,0.1210556,0.08814698,-0.053100586,-0.121069334,91.0
28798,-0.5720278,-0.08421326,0.1210556,-0.18266602,-0.009558106,-0.07752686,91.0
28799,-0.63220716,0.14525604,0.05193329,-0.18266602,-0.009558106,-0.07752686,91.0
28800,-0.63220716,0.14525604,0.05193329,-0.07327881,-0.029736329,-0.115759276,91.0
28801,-0.1837076,0.15682983,0.09006882,-0.07327881,-0.029736329,-0.115759276,91.0
28802,-0.1837076,0.15682983,0.09006882,-0.09451904,0.05522461,-0.16567384,91.0
28803,0.76178634,0.3542099,0.0737381,-0.09451904,0.05522461,-0.16567384,91.0
28804,0.76178634,0.3542099,0.0737381,-0.8846558,0.095581055,-0.68074954,91.0
28805,1.3601005,0.5086365,-0.09567261,-0.8846558,0.095581055,-0.68074954,91.0
28806,1.3601005,0.5086365,-0.09567261,-1.002539,0.18054199,0.11469727,91.0
28807,0.8643499,0.28562164,-0.07558823,-1.002539,0.18054199,0.11469727,91.0
28808,0.8643499,0.28562164,-0.07558823,-0.95368654,0.16992188,0.12850343,91.0
28809,0.07742965,-0.13967896,-0.15899277,-0.95368654,0.16992188,0.12850343,91.0
28810,0.07742965,-0.13967896,-0.15899277,-0.6988037,0.14974366,-0.10938721,91.0
28811,-0.31389856,-0.8160248,-0.43888855,-0.6988037,0.14974366,-0.10938721,91.0
28812,-0.31389856,-0.8160248,-0.43888855,0.20496826,-0.057348635,0.1263794,91.0
28813,-0.46888006,-1.3272324,-0.4338646,0.20496826,-0.057348635,0.1263794,91.0
28814,-0.46888006,-1.3272324,-0.4338646,0.8687256,-0.17523193,0.26868898,91.0
28815,-0.45922267,-0.6369171,-0.16497421,0.8687256,-0.17523193,0.26868898,91.0
28816,-0.45922267,-0.6369171,-0.16497421,0.811377,-0.17416993,0.10301514,91.0
28817,-0.29886007,0.49214935,0.036880493,0.811377,-0.17416993,0.10301514,91.0
28818,-0.29886007,0.49214935,0.036880493,0.29948732,-0.17947999,0.16885987,91.0
28819,-0.044349313,0.6919403,0.28347397,0.29948732,-0.17947999,0.16885987,91.0
28820,-0.044349313,0.6919403,0.28347397,0.33240968,-0.07752686,0.14868164,91.0
28821,0.2477237,0.40525818,0.3537674,0.33240968,-0.07752686,0.14868164,91.0
28822,0.2477237,0.40525818,0.3537674,0.24320069,0.008496094,-0.0031860352,91.0
28823,0.40701687,0.3659134,-0.007820129,0.24320069,0.008496094,-0.0031860352,91.0
28824,0.40701687,0.3659134,-0.007820129,-0.124255374,0.0541626,0.015930176,91.0
28825,0.36703193,0.27568817,-0.4338684,-0.124255374,0.0541626,0.015930176,91.0
28826,0.36703193,0.27568817,-0.4338684,-0.2347046,-0.022302246,-0.029736329,91.0
28827,0.1709693,0.04563141,-0.52243805,-0.2347046,-0.022302246,-0.029736329,91.0
28828,0.1709693,0.04563141,-0.52243805,-0.15505372,-0.06796875,0.010620117,91.0
28829,-0.10829294,-0.21328735,-0.0928421,-0.15505372,-0.06796875,0.010620117,91.0
28830,-0.10829294,-0.21328735,-0.0928421,-0.0541626,-0.03186035,0.04991455,91.0
28831,-0.2775401,-0.30152893,0.3966217,-0.0541626,-0.03186035,0.04991455,91.0
28832,-0.2775401,-0.30152893,0.3966217,0.087084964,0.057348635,-0.010620117,91.0
28833,-0.15857995,-0.03765869,0.53107834,0.087084964,0.057348635,-0.010620117,91.0
28834,-0.15857995,-0.03765869,0.53107834,-0.045666505,0.15505372,-0.035046387,91.0
28835,0.079764485,0.16562653,0.44636917,-0.045666505,0.15505372,-0.035046387,91.0
28836,0.079764485,0.16562653,0.44636917,-0.0998291,0.13275146,0.0637207,91.0
28837,0.11788875,0.16877747,0.34296036,-0.0998291,0.13275146,0.0637207,91.0
28838,0.11788875,0.16877747,0.34296036,0.021240234,0.11682129,0.0,91.0
28839,-0.036157727,0.26185608,0.3039093,0.021240234,0.11682129,0.0,91.0
28840,-0.036157727,0.26185608,0.3039093,-0.33028564,0.13381349,0.009558106,91.0
28841,-5.9833817,4.4817276,6.0927734,-0.33028564,0.13381349,0.009558106,91.0
28842,-5.9833817,4.4817276,6.0927734,-0.6064087,0.18585205,0.022302246,91.0
28843,-4.630602,3.2546463,4.798706,-0.6064087,0.18585205,0.022302246,91.0
28844,-4.630602,3.2546463,4.798706,-0.20072022,0.26337892,-0.06796875,91.0
28845,-3.477272,2.3016663,3.6068954,-0.20072022,0.26337892,-0.06796875,91.0
28846,-3.477272,2.3016663,3.6068954,0.30161133,0.27718505,-0.2782471,91.0
28847,-2.6599183,1.7935181,2.690876,0.30161133,0.27718505,-0.2782471,91.0
28848,-2.6599183,1.7935181,2.690876,0.53950197,0.33771974,-0.26019287,91.0
28849,-2.2141647,1.6677246,2.0283012,0.53950197,0.33771974,-0.26019287,91.0
28850,-2.2141647,1.6677246,2.0283012,0.72854006,0.39400634,-0.41949463,91.0
28851,-2.1602597,1.5623245,1.579525,0.72854006,0.39400634,-0.41949463,91.0
28852,-2.1602597,1.5623245,1.579525,0.5055176,0.37807617,-0.4364868,91.0
28853,-2.3323703,1.2902603,1.2415123,0.5055176,0.37807617,-0.4364868,91.0
28854,-2.3323703,1.2902603,1.2415123,0.33984375,0.33665773,-0.4715332,91.0
28855,-2.3608913,1.0507736,0.97571564,0.33984375,0.33665773,-0.4715332,91.0
28856,-2.3608913,1.0507736,0.97571564,-0.0722168,0.3058594,-0.3802002,91.0
28857,-2.1387615,0.75131226,0.7945366,-0.0722168,0.3058594,-0.3802002,91.0
28858,-2.1387615,0.75131226,0.7945366,-0.5628662,0.25700685,-0.23045655,91.0
28859,-1.7913923,0.2394638,0.5967865,-0.5628662,0.25700685,-0.23045655,91.0
28860,-1.7913923,0.2394638,0.5967865,-0.5713623,0.15611573,-0.11682129,91.0
28861,-1.4916706,-0.1509552,0.33618164,-0.5713623,0.15611573,-0.11682129,91.0
28862,-1.4916706,-0.1509552,0.33618164,-0.3058594,0.0021240234,-0.08283692,91.0
28863,-1.3198872,-0.2662964,0.17982483,-0.3058594,0.0021240234,-0.08283692,91.0
28864,-1.3198872,-0.2662964,0.17982483,-0.29630128,-0.16567384,-0.038232423,91.0
28865,-0.91355133,-0.19085693,0.20550537,-0.29630128,-0.16567384,-0.038232423,91.0
28866,-0.91355133,-0.19085693,0.20550537,-0.07327881,-0.18479005,-0.057348635,91.0
28867,-0.20048237,0.048561096,0.4207039,-0.07327881,-0.18479005,-0.057348635,91.0
28868,-0.20048237,0.048561096,0.4207039,0.27612305,-0.21027832,-0.1444336,91.0
28869,0.32870102,0.40385437,0.5740738,0.27612305,-0.21027832,-0.1444336,91.0
28870,0.32870102,0.40385437,0.5740738,0.36533204,-0.20709229,-0.13487549,91.0
28871,0.562973,0.6525116,0.44704056,0.36533204,-0.20709229,-0.13487549,91.0
28872,0.562973,0.6525116,0.44704056,0.33665773,-0.1263794,0.012744141,91.0
28873,0.6627445,0.5934677,0.18733215,0.33665773,-0.1263794,0.012744141,91.0
28874,0.6627445,0.5934677,0.18733215,0.5703003,-0.07327881,0.06159668,91.0
28875,0.6020832,0.48355103,0.027076721,0.5703003,-0.07327881,0.06159668,91.0
28876,0.6020832,0.48355103,0.027076721,0.5564942,-0.07646485,0.13699952,91.0
28877,0.37838268,0.6224747,0.095451355,0.5564942,-0.07646485,0.13699952,91.0
28878,0.37838268,0.6224747,0.095451355,0.14974366,-0.016992187,0.15823975,91.0
28879,0.090743065,0.70189667,0.21582794,0.14974366,-0.016992187,0.15823975,91.0
28880,0.090743065,0.70189667,0.21582794,-0.04141846,0.0031860352,0.115759276,91.0
28881,-0.1866827,0.53154755,0.22628784,-0.04141846,0.0031860352,0.115759276,91.0
28882,-0.1866827,0.53154755,0.22628784,-0.019116212,0.004248047,0.05628662,91.0
28883,-0.31604576,0.25782776,0.20114517,-0.019116212,0.004248047,0.05628662,91.0
28884,-0.31604576,0.25782776,0.20114517,-0.1539917,0.009558106,0.058410645,91.0
28885,-0.28851795,0.038490295,0.16853333,-0.1539917,0.009558106,0.058410645,91.0
28886,-0.28851795,0.038490295,0.16853333,-0.30479738,0.0,0.090270996,91.0
28887,-0.17861652,-0.088027954,0.061267853,-0.30479738,0.0,0.090270996,91.0
28888,-0.17861652,-0.088027954,0.061267853,-0.42161867,-0.022302246,0.11257324,91.0
28889,-0.0493145,-0.20310211,-0.092868805,-0.42161867,-0.022302246,0.11257324,91.0
28890,-0.0493145,-0.20310211,-0.092868805,-0.3090454,-0.07965088,0.1709839,91.0
28891,-0.0493145,-0.20310211,-0.092868805,-0.3090454,-0.07965088,0.1709839,91.0
28892,-0.033262253,-0.42412567,-0.20503235,-0.3090454,-0.07965088,0.1709839,91.0
28893,-0.033262253,-0.42412567,-0.20503235,-0.035046387,-0.15611573,0.36745605,91.0
28894,-0.0717144,-0.81211853,-0.28385162,-0.035046387,-0.15611573,0.36745605,91.0
28895,-0.0717144,-0.81211853,-0.28385162,0.32497558,-0.34940186,0.35683593,91.0
28896,0.08933258,-0.8002243,-0.15610886,0.32497558,-0.34940186,0.35683593,91.0
28897,0.08933258,-0.8002243,-0.15610886,0.20284425,-0.40144044,0.16354981,91.0
28898,0.27219868,-0.10858917,0.106300354,0.20284425,-0.40144044,0.16354981,91.0
28899,0.27219868,-0.10858917,0.106300354,-0.1720459,-0.32497558,0.3695801,91.0
28900,0.25300026,0.38300323,0.22294235,-0.1720459,-0.32497558,0.3695801,91.0
28901,0.25300026,0.38300323,0.22294235,-0.5787964,-0.22833252,0.32816163,91.0
28902,0.26972198,0.40721893,0.14436722,-0.5787964,-0.22833252,0.32816163,91.0
28903,0.26972198,0.40721893,0.14436722,-0.18266602,-0.15186767,0.19116211,91.0
28904,0.36032104,0.3732834,0.11383438,-0.18266602,-0.15186767,0.19116211,91.0
28905,0.36032104,0.3732834,0.11383438,-0.13912354,-0.053100586,0.124255374,91.0
28906,0.28249454,0.33757782,0.29813385,-0.13912354,-0.053100586,0.124255374,91.0
28907,0.28249454,0.33757782,0.29813385,-0.36108398,0.0021240234,0.2177124,91.0
28908,0.029633522,0.21565247,0.42842484,-0.36108398,0.0021240234,0.2177124,91.0
28909,0.029633522,0.21565247,0.42842484,-0.7476563,-0.023364259,0.095581055,91.0
28910,-0.26219368,-0.04185486,0.39259338,-0.7476563,-0.023364259,0.095581055,91.0
28911,-0.26219368,-0.04185486,0.39259338,-0.7434082,-0.046728518,0.06796875,91.0
28912,-0.38352203,-0.4084854,0.24060059,-0.7434082,-0.046728518,0.06796875,91.0
28913,-0.38352203,-0.4084854,0.24060059,0.026550293,-0.121069334,0.11682129,91.0
28914,-0.25555992,-0.644577,-0.024208069,0.026550293,-0.121069334,0.11682129,91.0
28915,-0.25555992,-0.644577,-0.024208069,0.71154785,-0.21983643,0.090270996,91.0
28916,-0.01335907,-0.30908203,-0.17881775,0.71154785,-0.21983643,0.090270996,91.0
28917,-0.01335907,-0.30908203,-0.17881775,0.8007569,-0.20603028,0.04885254,91.0
28918,0.21377563,0.3803177,-0.21230316,0.8007569,-0.20603028,0.04885254,91.0
28919,0.21377563,0.3803177,-0.21230316,0.38551027,-0.16248779,0.0021240234,91.0
28920,0.3748293,0.6364441,-0.27670288,0.38551027,-0.16248779,0.0021240234,91.0
28921,0.3748293,0.6364441,-0.27670288,0.16354981,-0.19541016,0.0063720704,91.0
28922,0.4933691,0.36234283,-0.32883453,0.16354981,-0.19541016,0.0063720704,91.0
28923,0.4933691,0.36234283,-0.32883453,0.5235718,-0.20496826,-0.025488282,91.0
28924,0.6694393,0.022758484,-0.21603394,0.5235718,-0.20496826,-0.025488282,91.0
28925,0.6694393,0.022758484,-0.21603394,0.62764895,-0.19753419,0.007434082,91.0
28926,0.78158474,-0.14061737,0.032787323,0.62764895,-0.19753419,0.007434082,91.0
28927,0.78158474,-0.14061737,0.032787323,0.5607422,-0.1731079,0.14337158,91.0
28928,0.6000843,-0.02117157,0.2737732,0.5607422,-0.1731079,0.14337158,91.0
28929,0.6000843,-0.02117157,0.2737732,0.2803711,-0.047790527,0.08814698,91.0
28930,0.089686394,0.34217834,0.48347092,0.2803711,-0.047790527,0.08814698,91.0
28931,0.089686394,0.34217834,0.48347092,-0.631897,0.10407715,0.09133301,91.0
28932,-0.7239666,0.53806305,0.3114586,-0.631897,0.10407715,0.09133301,91.0
28933,-0.7239666,0.53806305,0.3114586,-1.0694458,0.0361084,-0.020178223,91.0
28934,-1.3970318,0.39807892,-0.47650528,-1.0694458,0.0361084,-0.020178223,91.0
28935,-1.3970318,0.39807892,-0.47650528,-0.50233155,-0.10407715,-0.08071289,91.0
28936,-1.2611065,0.33309174,-1.1296043,-0.50233155,-0.10407715,-0.08071289,91.0
28937,-1.2611065,0.33309174,-1.1296043,0.7168579,-0.16779785,-0.32391357,91.0
28938,-0.15744495,-0.07600403,-0.7275963,0.7168579,-0.16779785,-0.32391357,91.0
28939,-0.15744495,-0.07600403,-0.7275963,0.74022216,-0.28461915,-0.62552494,91.0
28940,1.1573324,-0.41438293,0.26703262,0.74022216,-0.28461915,-0.62552494,91.0
28941,1.1573324,-0.41438293,0.26703262,-0.115759276,-0.23789063,-2.3300538,91.0
28942,1.3836298,-0.8897705,0.7757721,-0.115759276,-0.23789063,-2.3300538,91.0
28943,1.3836298,-0.8897705,0.7757721,0.0063720704,-0.46409914,-1.2765381,91.0
28944,0.55651283,-1.0323105,0.6838379,0.0063720704,-0.46409914,-1.2765381,91.0
28945,0.55651283,-1.0323105,0.6838379,-0.15505372,-0.24532472,-1.2712281,91.0
28946,0.69278145,0.2282486,0.12709808,-0.15505372,-0.24532472,-1.2712281,91.0
28947,0.69278145,0.2282486,0.12709808,-0.3164795,-0.060534667,-0.24001466,91.0
28948,0.703969,1.0532913,-0.5265465,-0.3164795,-0.060534667,-0.24001466,91.0
28949,0.703969,1.0532913,-0.5265465,0.029736329,-0.04248047,-0.045666505,91.0
28950,0.11112404,0.87008667,-0.6887779,0.029736329,-0.04248047,-0.045666505,91.0
28951,0.11112404,0.87008667,-0.6887779,0.32285157,-0.0361084,-0.09133301,91.0
28952,-0.27587128,0.1350174,-0.20010757,0.32285157,-0.0361084,-0.09133301,91.0
28953,-0.27587128,0.1350174,-0.20010757,0.24213867,-0.015930176,0.10620117,91.0
28954,-0.55459595,-0.64749146,0.2745819,0.24213867,-0.015930176,0.10620117,91.0
28955,-0.55459595,-0.64749146,0.2745819,0.32391357,-0.06584473,0.012744141,91.0
28956,-0.67735577,-0.6115341,0.43105316,0.32391357,-0.06584473,0.012744141,91.0
28957,-0.67735577,-0.6115341,0.43105316,0.20390625,-0.07115479,-0.18479005,91.0
28958,-0.466506,0.13610077,0.30415726,0.20390625,-0.07115479,-0.18479005,91.0
28959,-0.466506,0.13610077,0.30415726,-0.0361084,-0.06159668,-0.26868898,91.0
28960,-0.15554142,0.3740692,0.05499649,-0.0361084,-0.06159668,-0.26868898,91.0
28961,-0.15554142,0.3740692,0.05499649,0.013806152,-0.09664307,-0.20178223,91.0
28962,0.044499397,0.06782532,-0.101573944,0.013806152,-0.09664307,-0.20178223,91.0
28963,0.044499397,0.06782532,-0.101573944,0.052038576,-0.13062744,-0.1996582,91.0
28964,0.16081905,-0.015930176,-0.23773193,0.052038576,-0.13062744,-0.1996582,91.0
28965,0.16081905,-0.015930176,-0.23773193,0.07327881,-0.11257324,-0.17841797,91.0
28966,0.25887966,0.18680573,-0.24401855,0.07327881,-0.11257324,-0.17841797,91.0
28967,0.25887966,0.18680573,-0.24401855,0.08814698,-0.060534667,-0.1731079,91.0
28968,0.2987423,0.2957611,-0.1375618,0.08814698,-0.060534667,-0.1731079,91.0
28969,0.2987423,0.2957611,-0.1375618,0.06690674,0.027612304,-0.045666505,91.0
28970,0.17101288,-0.08354187,-0.10493469,0.06690674,0.027612304,-0.045666505,91.0
28971,0.17101288,-0.08354187,-0.10493469,0.3727661,0.028674318,0.1083252,91.0
28972,-0.06364155,-0.33133698,-0.079135895,0.3727661,0.028674318,0.1083252,91.0
28973,-0.06364155,-0.33133698,-0.079135895,0.46409914,0.025488282,0.13275146,91.0
28974,-0.22852516,0.17729187,0.0807457,0.46409914,0.025488282,0.13275146,91.0
28975,-0.22852516,0.17729187,0.0807457,0.22833252,0.045666505,0.09664307,91.0
28976,-0.34741974,0.53338623,0.28299332,0.22833252,0.045666505,0.09664307,91.0
28977,-0.34741974,0.53338623,0.28299332,-0.019116212,0.035046387,-0.06159668,91.0
28978,-0.38724995,0.4108734,0.37090302,-0.019116212,0.035046387,-0.06159668,91.0
28979,-0.38724995,0.4108734,0.37090302,-0.34833986,0.0,-0.18479005,91.0
28980,-0.28616714,0.032958984,0.12767792,-0.34833986,0.0,-0.18479005,91.0
28981,-0.28616714,0.032958984,0.12767792,-0.24957275,-0.07327881,-0.27506104,91.0
28982,0.010165215,-0.44612885,-0.22502899,-0.24957275,-0.07327881,-0.27506104,91.0
28983,0.010165215,-0.44612885,-0.22502899,0.15930176,-0.07752686,-0.15823975,91.0
28984,0.010165215,-0.44612885,-0.22502899,0.15930176,-0.07752686,-0.15823975,91.0
28985,0.35703373,-0.09398651,-0.23302841,0.15930176,-0.07752686,-0.15823975,91.0
28986,0.35703373,-0.09398651,-0.23302841,-0.11044922,0.028674318,-0.078588866,91.0
28987,0.526289,0.68260956,0.0037994385,-0.11044922,0.028674318,-0.078588866,91.0
28988,0.526289,0.68260956,0.0037994385,-0.4258667,0.13062744,0.032922365,91.0
28989,0.48715687,0.73661804,0.14796066,-0.4258667,0.13062744,0.032922365,91.0
28990,0.48715687,0.73661804,0.14796066,-0.6425171,0.24213867,0.270813,91.0
28991,0.3692298,0.14155197,-0.16920471,-0.6425171,0.24213867,0.270813,91.0
28992,0.3692298,0.14155197,-0.16920471,-0.40144044,0.32709962,0.4980835,91.0
28993,0.3208599,-0.613884,-0.7188873,-0.40144044,0.32709962,0.4980835,91.0
28994,0.3208599,-0.613884,-0.7188873,0.4439209,0.4163086,0.9526245,91.0
28995,0.27949047,-0.97024536,-0.63409424,0.4439209,0.4163086,0.9526245,91.0
28996,0.27949047,-0.97024536,-0.63409424,1.0726318,0.45666504,1.4145997,91.0
28997,0.19936132,-0.41161346,0.16469574,1.0726318,0.45666504,1.4145997,91.0
28998,0.19936132,-0.41161346,0.16469574,0.50445557,0.31116945,1.720459,91.0
28999,-0.2501545,0.65415955,0.7346039,0.50445557,0.31116945,1.720459,91.0
29000,-0.2501545,0.65415955,0.7346039,-0.45135498,0.16142578,0.69986576,91.0
29001,-1.090395,0.956398,0.80075836,-0.45135498,0.16142578,0.69986576,91.0
29002,-1.090395,0.956398,0.80075836,-1.1310425,0.035046387,-0.1178833,91.0
29003,-1.5441303,-0.1758728,0.5805359,-1.1310425,0.035046387,-0.1178833,91.0
29004,-1.5441303,-0.1758728,0.5805359,-0.6180908,0.0021240234,-0.09239502,91.0
29005,-1.0669079,-1.1998672,0.07147217,-0.6180908,0.0021240234,-0.09239502,91.0
29006,-1.0669079,-1.1998672,0.07147217,-0.1985962,0.022302246,-0.4343628,91.0
29007,0.02863884,-0.7388611,-0.35656738,-0.1985962,0.022302246,-0.4343628,91.0
29008,0.02863884,-0.7388611,-0.35656738,-0.11682129,0.046728518,-0.270813,91.0
29009,0.67588997,-0.17974854,-0.4673233,-0.11682129,0.046728518,-0.270813,91.0
29010,0.67588997,-0.17974854,-0.4673233,0.12850343,-0.009558106,-0.06903076,91.0
29011,0.5980358,-0.26635742,-0.47409058,0.12850343,-0.009558106,-0.06903076,91.0
29012,0.5980358,-0.26635742,-0.47409058,0.44923097,-0.07646485,0.012744141,91.0
29013,0.2797346,-0.15538025,-0.3158188,0.44923097,-0.07646485,0.012744141,91.0
29014,0.2797346,-0.15538025,-0.3158188,0.4970215,-0.10513916,0.03079834,91.0
29015,0.062458992,0.32426453,0.067913055,0.4970215,-0.10513916,0.03079834,91.0
29016,0.062458992,0.32426453,0.067913055,0.17735596,-0.07965088,0.050976563,91.0
29017,-0.020943642,0.5447998,0.31996536,0.17735596,-0.07965088,0.050976563,91.0
29018,-0.020943642,0.5447998,0.31996536,-0.17416993,-0.022302246,0.08920898,91.0
29019,-0.0039129257,0.29917145,0.31388092,-0.17416993,-0.022302246,0.08920898,91.0
29020,-0.0039129257,0.29917145,0.31388092,-0.2623169,0.03186035,0.1539917,91.0
29021,0.037653923,0.13998413,0.2649727,-0.2623169,0.03186035,0.1539917,91.0
29022,0.037653923,0.13998413,0.2649727,-0.42374268,0.078588866,0.2177124,91.0
29023,0.14329433,0.19138336,0.16589737,-0.42374268,0.078588866,0.2177124,91.0
29024,0.14329433,0.19138336,0.16589737,-0.39082032,0.18585205,-0.04885254,91.0
29025,0.12813663,0.1553421,0.098148346,-0.39082032,0.18585205,-0.04885254,91.0
29026,0.12813663,0.1553421,0.098148346,-0.53525394,0.19116211,-0.13275146,91.0
29027,0.122956276,-0.08086395,-0.009838104,-0.53525394,0.19116211,-0.13275146,91.0
29028,0.122956276,-0.08086395,-0.009838104,-0.79013675,0.17416993,0.007434082,91.0
29029,0.146204,-0.15761566,0.03099823,-0.79013675,0.17416993,0.007434082,91.0
29030,0.146204,-0.15761566,0.03099823,-0.99298096,0.15611573,0.038232423,91.0
29031,0.19099903,-0.5017166,0.3475418,-0.99298096,0.15611573,0.038232423,91.0
29032,0.19099903,-0.5017166,0.3475418,-0.82730716,0.15611573,0.007434082,91.0
29033,0.01794815,-0.56702423,0.25105667,-0.82730716,0.15611573,0.007434082,91.0
29034,0.01794815,-0.56702423,0.25105667,-0.31435546,0.10938721,-0.0180542,91.0
29035,-0.51271725,-1.0956268,-0.16595078,-0.31435546,0.10938721,-0.0180542,91.0
29036,-0.51271725,-1.0956268,-0.16595078,0.4970215,-0.09770508,0.271875,91.0
29037,-0.39900494,-0.93431854,-0.29904556,0.4970215,-0.09770508,0.271875,91.0
29038,-0.39900494,-0.93431854,-0.29904556,0.6552612,-0.17947999,0.19222413,91.0
29039,0.06069088,-0.0856781,-0.21726227,0.6552612,-0.17947999,0.19222413,91.0
29040,0.06069088,-0.0856781,-0.21726227,0.5703003,-0.2357666,0.29311523,91.0
29041,0.13998318,0.23152924,-0.20479202,0.5703003,-0.2357666,0.29311523,91.0
29042,0.13998318,0.23152924,-0.20479202,0.56605226,-0.25913087,0.25063476,91.0
29043,0.13998318,0.23152924,-0.20479202,0.5809204,-0.21452637,0.27399904,91.0
29044,0.059594154,0.54576874,-0.071121216,0.5809204,-0.21452637,0.27399904,91.0
29045,0.01256752,0.73088837,0.19024658,0.5809204,-0.21452637,0.27399904,91.0
29046,0.01256752,0.73088837,0.19024658,0.5734863,0.0361084,0.06690674,91.0
29047,0.06537628,0.95632935,0.19100189,0.5734863,0.0361084,0.06690674,91.0
29048,0.06537628,0.95632935,0.19100189,-0.13699952,0.09451904,-0.10513916,91.0
29049,0.032964706,0.55379486,-0.14495087,-0.13699952,0.09451904,-0.10513916,91.0
29050,0.032964706,0.55379486,-0.14495087,-0.38975832,0.045666505,-0.027612304,91.0
29051,-0.022468567,-0.33275604,-0.27103806,-0.38975832,0.045666505,-0.027612304,91.0
29052,-0.022468567,-0.33275604,-0.27103806,-0.07327881,-0.0021240234,-0.05522461,91.0
29053,2.3841858E-4,-0.60713196,-0.032920837,-0.07327881,-0.0021240234,-0.05522461,91.0
29054,2.3841858E-4,-0.60713196,-0.032920837,-0.004248047,0.025488282,-0.0031860352,91.0
29055,0.03819084,-0.23988342,0.03917694,-0.004248047,0.025488282,-0.0031860352,91.0
29056,0.03819084,-0.23988342,0.03917694,0.011682129,-0.0021240234,0.0361084,91.0
29057,0.15370941,-0.045791626,-0.10100937,0.011682129,-0.0021240234,0.0361084,91.0
29058,0.15370941,-0.045791626,-0.10100937,0.2516968,-0.010620117,0.14124756,91.0
29059,0.3253603,0.0966568,-0.1076355,0.2516968,-0.010620117,0.14124756,91.0
29060,0.3253603,0.0966568,-0.1076355,0.4364868,0.020178223,0.03079834,91.0
29061,0.2814188,0.4923172,0.08376694,0.4364868,0.020178223,0.03079834,91.0
29062,0.2814188,0.4923172,0.08376694,-0.09239502,0.08814698,0.019116212,91.0
29063,0.0382452,0.5533066,0.25769806,-0.09239502,0.08814698,0.019116212,91.0
29064,0.0382452,0.5533066,0.25769806,-0.48746338,0.16248779,-0.040356446,91.0
29065,-0.09278011,0.15015411,0.24287415,-0.48746338,0.16248779,-0.040356446,91.0
29066,-0.09278011,0.15015411,0.24287415,-0.29630128,0.22833252,-0.14230958,91.0
29067,-0.06658268,-0.20818329,0.072460175,-0.29630128,0.22833252,-0.14230958,91.0
29068,-0.06658268,-0.20818329,0.072460175,-0.20284425,0.24001466,-0.18585205,91.0
29069,-0.0599308,-0.4478073,-0.1389656,-0.20284425,0.24001466,-0.18585205,91.0
29070,-0.0599308,-0.4478073,-0.1389656,-0.17416993,0.21558838,-0.13168946,91.0
29071,-0.1364088,-0.63005066,-0.18486786,-0.17416993,0.21558838,-0.13168946,91.0
29072,-0.1364088,-0.63005066,-0.18486786,0.078588866,0.19116211,-0.1539917,91.0
29073,-0.20960331,-0.50531006,-0.100128174,0.078588866,0.19116211,-0.1539917,91.0
29074,-0.20960331,-0.50531006,-0.100128174,0.30054933,0.17947999,-0.2516968,91.0
29075,-0.32479954,-0.15148926,-0.00812912,0.30054933,0.17947999,-0.2516968,91.0
29076,-0.32479954,-0.15148926,-0.00812912,0.18585205,0.21027832,-0.35471192,91.0
29077,-0.5029917,0.16886902,0.06167221,0.18585205,0.21027832,-0.35471192,91.0
29078,-0.5029917,0.16886902,0.06167221,-0.004248047,0.2548828,-0.36745605,91.0
29079,-0.59320164,0.30049133,0.06518173,-0.004248047,0.2548828,-0.36745605,91.0
29080,-0.59320164,0.30049133,0.06518173,-0.2357666,0.270813,-0.42799073,91.0
29081,-0.4831667,0.15422058,0.014656067,-0.2357666,0.270813,-0.42799073,91.0
29082,-0.4831667,0.15422058,0.014656067,-0.36002198,0.23895264,-0.3727661,91.0
29083,-0.30516148,-0.09236908,-0.026813507,-0.36002198,0.23895264,-0.3727661,91.0
29084,-0.30516148,-0.09236908,-0.026813507,-0.29630128,0.15080567,-0.32391357,91.0
29085,-0.30516148,-0.09236908,-0.026813507,-0.29630128,0.15080567,-0.32391357,91.0
29086,-0.1934452,-0.122306824,0.047935486,-0.29630128,0.15080567,-0.32391357,91.0
29087,-0.1934452,-0.122306824,0.047935486,-0.2516968,0.098767094,-0.23151855,91.0
29088,-0.19396496,0.029922485,0.0913887,-0.2516968,0.098767094,-0.23151855,91.0
29089,-0.19396496,0.029922485,0.0913887,-0.36851808,0.04991455,-0.1720459,91.0
29090,-0.28087997,-0.1817627,-0.058174133,-0.36851808,0.04991455,-0.1720459,91.0
29091,-0.28087997,-0.1817627,-0.058174133,0.07115479,-0.06478272,-0.0541626,91.0
29092,-0.040341377,-0.55604553,-0.19661331,0.07115479,-0.06478272,-0.0541626,91.0
29093,-0.040341377,-0.55604553,-0.19661331,0.7306641,-0.12213135,0.1529297,91.0
29094,0.4488554,-0.20088959,-0.15598297,0.7306641,-0.12213135,0.1529297,91.0
29095,0.4488554,-0.20088959,-0.15598297,0.81243896,-0.09451904,0.1263794,91.0
29096,0.63524437,0.65039825,0.044647217,0.81243896,-0.09451904,0.1263794,91.0
29097,0.63524437,0.65039825,0.044647217,0.2357666,-0.016992187,0.12850343,91.0
29098,0.37869072,0.92217255,0.15248108,0.2357666,-0.016992187,0.12850343,91.0
29099,0.37869072,0.92217255,0.15248108,-0.27612305,0.011682129,0.08496094,91.0
29100,-0.013746262,0.4203415,0.04537201,-0.27612305,0.011682129,0.08496094,91.0
29101,-0.013746262,0.4203415,0.04537201,-0.17947999,0.0021240234,0.09133301,91.0
29102,-0.18765736,-0.13652802,-0.08156204,-0.17947999,0.0021240234,0.09133301,91.0
29103,-0.18765736,-0.13652802,-0.08156204,0.24638672,-0.011682129,0.09664307,91.0
29104,-0.18192482,-0.2668991,-0.075466156,0.24638672,-0.011682129,0.09664307,91.0
29105,-0.18192482,-0.2668991,-0.075466156,0.29736328,-0.03717041,0.16567384,91.0
29106,-0.28304005,-0.1637268,-0.13162231,0.29736328,-0.03717041,0.16567384,91.0
29107,-0.28304005,-0.1637268,-0.13162231,0.16779785,-0.1083252,0.16885987,91.0
29108,-0.4013462,-0.28779602,-0.2650032,0.16779785,-0.1083252,0.16885987,91.0
29109,-0.4013462,-0.28779602,-0.2650032,0.10620117,-0.18372802,0.2357666,91.0
29110,-0.18487072,-0.40101624,-0.2340126,0.10620117,-0.18372802,0.2357666,91.0
29111,-0.18487072,-0.40101624,-0.2340126,0.50233155,-0.22408448,0.1529297,91.0
29112,0.26376057,0.05936432,0.037864685,0.50233155,-0.22408448,0.1529297,91.0
29113,0.26376057,0.05936432,0.037864685,0.3355957,-0.16992188,0.11257324,91.0
29114,0.44438267,0.7138443,0.4390564,0.3355957,-0.16992188,0.11257324,91.0
29115,0.44438267,0.7138443,0.4390564,-0.37701416,-0.08496094,0.118945315,91.0
29116,0.16679764,0.8843231,0.7727432,-0.37701416,-0.08496094,0.118945315,91.0
29117,0.16679764,0.8843231,0.7727432,-1.3381348,-0.053100586,0.09239502,91.0
29118,-0.21346092,0.42741394,0.7883835,-1.3381348,-0.053100586,0.09239502,91.0
29119,-0.21346092,0.42741394,0.7883835,-1.7735596,0.045666505,0.06159668,91.0
29120,-0.27178192,-0.3170166,0.19948196,-1.7735596,0.045666505,0.06159668,91.0
29121,-0.27178192,-0.3170166,0.19948196,-0.5543701,-0.06690674,-0.10407715,91.0
29122,0.0124082565,-1.095581,-0.5650749,-0.5543701,-0.06690674,-0.10407715,91.0
29123,0.0124082565,-1.095581,-0.5650749,0.5384399,-0.27399904,0.22089843,91.0
29124,0.30080795,-1.425766,-0.84103775,0.5384399,-0.27399904,0.22089843,91.0
29125,0.30080795,-1.425766,-0.84103775,1.0535157,-0.4800293,0.26337892,91.0
29126,0.36685467,-0.82762146,-0.6450844,1.0535157,-0.4800293,0.26337892,91.0
29127,0.36685467,-0.82762146,-0.6450844,0.91120607,-0.51826173,0.36745605,91.0
29128,0.26935005,0.22425842,-0.39570618,0.91120607,-0.51826173,0.36745605,91.0
29129,0.26935005,0.22425842,-0.39570618,0.6180908,-0.50233155,0.3791382,91.0
29130,0.15254116,0.9519043,-0.20251465,0.6180908,-0.50233155,0.3791382,91.0
29131,0.15254116,0.9519043,-0.20251465,0.67225343,-0.46728516,0.21240234,91.0
29132,0.1657095,1.1056061,0.20154953,0.67225343,-0.46728516,0.21240234,91.0
29133,0.1657095,1.1056061,0.20154953,0.84536135,-0.26550293,0.12956543,91.0
29134,0.31386662,0.97528076,0.62729263,0.84536135,-0.26550293,0.12956543,91.0
29135,0.31386662,0.97528076,0.62729263,0.25700685,-0.007434082,-0.0361084,91.0
29136,0.32327366,0.6938019,0.6063614,0.25700685,-0.007434082,-0.0361084,91.0
29137,0.32327366,0.6938019,0.6063614,-0.5894165,0.09239502,0.019116212,91.0
29138,0.06945896,0.1974945,0.2644348,-0.5894165,0.09239502,0.019116212,91.0
29139,0.06945896,0.1974945,0.2644348,-0.61065674,0.04248047,0.06478272,91.0
29140,-0.19134426,0.12644196,-0.08577728,-0.61065674,0.04248047,0.06478272,91.0
29141,-0.19134426,0.12644196,-0.08577728,-0.60109866,-0.022302246,-0.03079834,91.0
29142,-0.32176495,0.581131,-0.32479858,-0.60109866,-0.022302246,-0.03079834,91.0
29143,-0.32176495,0.581131,-0.32479858,-0.811377,0.0010620117,-0.2081543,91.0
29144,-0.35967064,0.4724121,-0.38066483,-0.811377,0.0010620117,-0.2081543,91.0
29145,-0.35967064,0.4724121,-0.38066483,-0.53737795,0.013806152,-0.37701416,91.0
29146,0.030537605,-0.7453613,-0.23471832,-0.53737795,0.013806152,-0.37701416,91.0
29147,0.030537605,-0.7453613,-0.23471832,-0.046728518,-0.078588866,-0.60216063,91.0
29148,0.75682735,-1.4561539,0.1082077,-0.046728518,-0.078588866,-0.60216063,91.0
29149,0.75682735,-1.4561539,0.1082077,-0.49064943,-0.1444336,-1.5526612,91.0
29150,0.7386522,-1.4648743,0.39099503,-0.49064943,-0.1444336,-1.5526612,91.0
29151,0.7386522,-1.4648743,0.39099503,-0.36002198,-0.27293703,-1.0736939,91.0
29152,-0.09373379,-1.2492218,0.2412262,-0.36002198,-0.27293703,-1.0736939,91.0
29153,-0.09373379,-1.2492218,0.2412262,-0.013806152,-0.20921631,-1.2627319,91.0
29154,0.062170982,-0.2941742,0.017333984,-0.013806152,-0.20921631,-1.2627319,91.0
29155,0.062170982,-0.2941742,0.017333984,-0.1359375,-0.17416993,-0.5341919,91.0
29156,0.39253426,0.54117584,-0.067165375,-0.1359375,-0.17416993,-0.5341919,91.0
29157,0.39253426,0.54117584,-0.067165375,-0.10195313,-0.09133301,-0.3430298,91.0
29158,0.15678883,0.7269745,-0.3044052,-0.10195313,-0.09133301,-0.3430298,91.0
29159,0.15678883,0.7269745,-0.3044052,0.09133301,-0.14124756,-0.40250245,91.0
29160,0.028385162,0.3057022,-0.67152786,0.09133301,-0.14124756,-0.40250245,91.0
29161,0.028385162,0.3057022,-0.67152786,0.5979126,-0.22089843,-0.34940186,91.0
29162,0.039846897,-0.2653656,-0.78686523,0.5979126,-0.22089843,-0.34940186,91.0
29163,0.039846897,-0.2653656,-0.78686523,1.0906861,-0.21346436,-0.25913087,91.0
29164,-0.01640129,-0.33692932,-0.15061188,1.0906861,-0.21346436,-0.25913087,91.0
29165,-0.01640129,-0.33692932,-0.15061188,1.083252,-0.11151123,-0.20284425,91.0
29166,-0.011118889,0.1544342,0.822773,1.083252,-0.11151123,-0.20284425,91.0
29167,-0.011118889,0.1544342,0.822773,0.32603762,-0.0063720704,-0.022302246,91.0
29168,0.03308487,0.83901215,1.0168495,0.32603762,-0.0063720704,-0.022302246,91.0
29169,0.03308487,0.83901215,1.0168495,-0.16885987,0.09133301,-0.02442627,91.0
29170,0.0013456345,1.0885544,0.35476303,-0.16885987,0.09133301,-0.02442627,91.0
29171,0.0013456345,1.0885544,0.35476303,-0.26762697,0.090270996,-0.032922365,91.0
29172,-0.031382084,0.48975372,-0.3553505,-0.26762697,0.090270996,-0.032922365,91.0
29173,-0.031382084,0.48975372,-0.3553505,0.12850343,0.050976563,0.06903076,91.0
29174,-0.06374073,-0.24402618,-0.5231743,0.12850343,0.050976563,0.06903076,91.0
29175,-0.06374073,-0.24402618,-0.5231743,0.3419678,-0.010620117,0.18054199,91.0
29176,-0.1300335,-0.4713211,-0.301342,0.3419678,-0.010620117,0.18054199,91.0
29177,-0.1300335,-0.4713211,-0.301342,0.44816896,-0.08283692,0.18054199,91.0
29178,-0.19236946,-0.32639313,-0.060188293,0.44816896,-0.08283692,0.18054199,91.0
29179,-0.19236946,-0.32639313,-0.060188293,0.540564,-0.06796875,0.1720459,91.0
29180,-0.23739147,0.103401184,0.11872101,0.540564,-0.06796875,0.1720459,91.0
29181,-0.23739147,0.103401184,0.11872101,0.38869628,-0.04141846,0.010620117,91.0
29182,-0.2057333,0.5697708,0.2384491,0.38869628,-0.04141846,0.010620117,91.0
29183,-0.2057333,0.5697708,0.2384491,0.14337158,-0.028674318,-0.05628662,91.0
29184,-0.12158108,0.7122345,0.27103424,0.14337158,-0.028674318,-0.05628662,91.0
29185,-0.12158108,0.7122345,0.27103424,-0.19116211,-0.023364259,-0.1539917,91.0
29186,-0.12158108,0.7122345,0.27103424,-0.19116211,-0.023364259,-0.1539917,91.0
29187,0.019886017,0.47514343,0.19094849,-0.19116211,-0.023364259,-0.1539917,91.0
29188,0.019886017,0.47514343,0.19094849,-0.40993652,-0.021240234,-0.13806152,91.0
29189,0.1920929,0.11383057,-0.040367126,-0.40993652,-0.021240234,-0.13806152,91.0
29190,0.1920929,0.11383057,-0.040367126,-0.32391357,-0.021240234,-0.029736329,91.0
29191,0.2963133,-0.10681152,-0.19121552,-0.32391357,-0.021240234,-0.029736329,91.0
29192,0.2963133,-0.10681152,-0.19121552,-0.29523927,0.039294433,0.06796875,91.0
29193,0.3404436,-0.0046157837,-0.052703857,-0.29523927,0.039294433,0.06796875,91.0
29194,0.3404436,-0.0046157837,-0.052703857,-0.43117675,0.18266602,0.18160401,91.0
29195,0.3090496,0.16840363,0.14163971,-0.43117675,0.18266602,0.18160401,91.0
29196,0.3090496,0.16840363,0.14163971,-0.64995116,0.29311523,0.32922363,91.0
29197,0.19003773,0.10447693,0.067741394,-0.64995116,0.29311523,0.32922363,91.0
29198,0.19003773,0.10447693,0.067741394,-0.7062378,0.33878174,0.4364868,91.0
29199,0.29083633,-0.11215973,-0.23337936,-0.7062378,0.33878174,0.4364868,91.0
29200,0.29083633,-0.11215973,-0.23337936,-0.4800293,0.44179687,0.74447024,91.0
29201,0.6502352,-0.51249695,-0.6245079,-0.4800293,0.44179687,0.74447024,91.0
29202,0.6502352,-0.51249695,-0.6245079,0.07540283,0.5777344,1.4783204,91.0
29203,0.8465433,-0.99876404,-0.917881,0.07540283,0.5777344,1.4783204,91.0
29204,0.8465433,-0.99876404,-0.917881,0.77739257,0.5214478,1.9264892,91.0
29205,0.73154354,-0.9779663,-0.40416336,0.77739257,0.5214478,1.9264892,91.0
29206,0.73154354,-0.9779663,-0.40416336,0.027612304,0.16036378,0.9324463,91.0
29207,0.39718533,-0.12620544,0.634922,0.027612304,0.16036378,0.9324463,91.0
29208,0.39718533,-0.12620544,0.634922,-0.60959476,0.24638672,-0.31860352,91.0
29209,-0.6948619,0.3476181,1.1521378,-0.60959476,0.24638672,-0.31860352,91.0
29210,-0.6948619,0.3476181,1.1521378,-0.8591675,0.03079834,0.4725952,91.0
29211,-2.438861,-0.14636993,0.91454315,-0.8591675,0.03079834,0.4725952,91.0
29212,-2.438861,-0.14636993,0.91454315,0.10620117,0.0053100586,0.11257324,91.0
29213,-2.8658838,-0.29989624,0.38754272,0.10620117,0.0053100586,0.11257324,91.0
29214,-2.8658838,-0.29989624,0.38754272,0.35895997,0.06690674,-0.0541626,91.0
29215,-1.5126419,0.2717743,0.053295135,0.35895997,0.06690674,-0.0541626,91.0
29216,-1.5126419,0.2717743,0.053295135,-0.18372802,0.08920898,-0.014868164,91.0
29217,-0.0418396,0.531868,-0.06360245,-0.18372802,0.08920898,-0.014868164,91.0
29218,-0.0418396,0.531868,-0.06360245,-0.66588134,0.06478272,-0.081774905,91.0
29219,0.6565676,0.15019989,-0.14603806,-0.66588134,0.06478272,-0.081774905,91.0
29220,0.6565676,0.15019989,-0.14603806,-0.61278075,0.023364259,-0.095581055,91.0
29221,0.8697853,-0.38346863,-0.18124771,-0.61278075,0.023364259,-0.095581055,91.0
29222,0.8697853,-0.38346863,-0.18124771,-0.5341919,0.027612304,-0.007434082,91.0
29223,0.6776762,-0.6721344,-0.029273987,-0.5341919,0.027612304,-0.007434082,91.0
29224,0.6776762,-0.6721344,-0.029273987,-0.2899292,-0.016992187,-0.07965088,91.0
29225,0.20063686,-0.63191223,0.1417427,-0.2899292,-0.016992187,-0.07965088,91.0
29226,0.20063686,-0.63191223,0.1417427,-0.10513916,-0.038232423,-0.07540283,91.0
29227,-0.13286209,-0.44820404,0.11793518,-0.10513916,-0.038232423,-0.07540283,91.0
29228,-0.13286209,-0.44820404,0.11793518,0.0053100586,-0.03079834,-0.07434082,91.0
29229,-0.22055912,-0.40019226,0.031871796,0.0053100586,-0.03079834,-0.07434082,91.0
29230,-0.22055912,-0.40019226,0.031871796,0.12213135,-0.040356446,-0.07434082,91.0
29231,-0.26300716,-0.294899,-0.09689331,0.12213135,-0.040356446,-0.07434082,91.0
29232,-0.26300716,-0.294899,-0.09689331,0.4364868,-0.039294433,-0.12850343,91.0
29233,-0.12814236,0.025115967,-0.1719017,0.4364868,-0.039294433,-0.12850343,91.0
29234,-0.12814236,0.025115967,-0.1719017,0.32709962,0.0031860352,-0.1083252,91.0
29235,0.36543083,0.35235596,-0.113975525,0.32709962,0.0031860352,-0.1083252,91.0
29236,0.36543083,0.35235596,-0.113975525,-0.2516968,0.045666505,0.025488282,91.0
29237,0.83017445,0.39204407,-0.030166626,-0.2516968,0.045666505,0.025488282,91.0
29238,0.83017445,0.39204407,-0.030166626,-0.362146,0.02442627,0.0021240234,91.0
29239,0.822855,0.103507996,0.11856842,-0.362146,0.02442627,0.0021240234,91.0
29240,0.822855,0.103507996,0.11856842,-0.1263794,-0.033984374,0.039294433,91.0
29241,0.35752773,0.09628296,0.33887482,-0.1263794,-0.033984374,0.039294433,91.0
29242,0.35752773,0.09628296,0.33887482,-0.1901001,0.040356446,-0.0637207,91.0
29243,-0.10944939,0.14906311,0.3114586,-0.1901001,0.040356446,-0.0637207,91.0
29244,-0.10944939,0.14906311,0.3114586,-0.08814698,-0.010620117,-0.04991455,91.0
29245,-0.22913647,-0.2731781,-0.09088516,-0.08814698,-0.010620117,-0.04991455,91.0
29246,-0.22913647,-0.2731781,-0.09088516,0.4333008,-0.09770508,0.090270996,91.0
29247,-0.2102747,-0.6433258,-0.3959732,0.4333008,-0.09770508,0.090270996,91.0
29248,-0.2102747,-0.6433258,-0.3959732,0.7083618,-0.20709229,0.11151123,91.0
29249,-0.2929144,-0.3431778,-0.32652283,0.7083618,-0.20709229,0.11151123,91.0
29250,-0.2929144,-0.3431778,-0.32652283,0.56817627,-0.21240234,0.14337158,91.0
29251,-0.2640314,0.3249588,-0.15287018,0.56817627,-0.21240234,0.14337158,91.0
29252,-0.2640314,0.3249588,-0.15287018,0.33134767,-0.1444336,0.090270996,91.0
29253,-0.015997887,0.6756897,-0.029510498,0.33134767,-0.1444336,0.090270996,91.0
29254,-0.015997887,0.6756897,-0.029510498,0.28780517,-0.115759276,0.08814698,91.0
29255,0.33588314,0.7211914,0.04826355,0.28780517,-0.115759276,0.08814698,91.0
29256,0.33588314,0.7211914,0.04826355,0.19328614,0.052038576,0.008496094,91.0
29257,0.5396538,0.69651794,-0.018947601,0.19328614,0.052038576,0.008496094,91.0
29258,0.5396538,0.69651794,-0.018947601,-0.2793091,0.090270996,-0.093457036,91.0
29259,0.37244606,0.4677124,-0.19456482,-0.2793091,0.090270996,-0.093457036,91.0
29260,0.37244606,0.4677124,-0.19456482,-0.5331299,0.039294433,-0.06903076,91.0
29261,-0.026017189,-0.060531616,-0.14136887,-0.5331299,0.039294433,-0.06903076,91.0
29262,-0.026017189,-0.060531616,-0.14136887,-0.47684327,0.020178223,-0.0637207,91.0
29263,-0.1837902,-0.4535141,0.16200256,-0.47684327,0.020178223,-0.0637207,91.0
29264,-0.1837902,-0.4535141,0.16200256,-0.39294434,0.06584473,-0.029736329,91.0
29265,-0.05345249,-0.40692902,0.27259445,-0.39294434,0.06584473,-0.029736329,91.0
29266,-0.05345249,-0.40692902,0.27259445,-0.52675784,0.08920898,0.019116212,91.0
29267,0.08044338,-0.33060455,0.11143494,-0.52675784,0.08920898,0.019116212,91.0
29268,0.08044338,-0.33060455,0.11143494,-0.11682129,0.083898924,-0.025488282,91.0
29269,0.118273735,-0.40135956,-0.0069465637,-0.11682129,0.083898924,-0.025488282,91.0
29270,0.118273735,-0.40135956,-0.0069465637,0.07965088,0.023364259,0.04141846,91.0
29271,0.04592514,-0.25481415,0.0016822815,0.07965088,0.023364259,0.04141846,91.0
29272,0.04592514,-0.25481415,0.0016822815,0.08071289,0.012744141,-0.016992187,91.0
29273,-0.027651787,0.09918976,0.09137344,0.08071289,0.012744141,-0.016992187,91.0
29274,-0.027651787,0.09918976,0.09137344,-0.16142578,0.038232423,0.015930176,91.0
29275,-0.05047798,0.15343475,0.14704895,-0.16142578,0.038232423,0.015930176,91.0
29276,-0.05047798,0.15343475,0.14704895,-0.28355715,0.045666505,0.013806152,91.0
29277,-0.07297516,-0.12725067,0.12747955,-0.28355715,0.045666505,0.013806152,91.0
29278,-0.07297516,-0.12725067,0.12747955,-0.18479005,0.070092775,0.019116212,91.0
29279,-0.11779213,-0.33303833,0.07287216,-0.18479005,0.070092775,0.019116212,91.0
29280,-0.11779213,-0.33303833,0.07287216,-0.0031860352,0.07965088,-0.010620117,91.0
29281,-0.17799854,-0.36627197,-0.027942657,-0.0031860352,0.07965088,-0.010620117,91.0
29282,-0.17799854,-0.36627197,-0.027942657,0.10620117,0.078588866,-0.007434082,91.0
29283,-0.24327755,-0.33068848,-0.10751343,0.10620117,0.078588866,-0.007434082,91.0
29284,-0.24327755,-0.33068848,-0.10751343,0.22939454,0.053100586,-0.033984374,91.0
29285,-0.24644089,-0.16442871,-0.07128906,0.22939454,0.053100586,-0.033984374,91.0
29286,-0.24644089,-0.16442871,-0.07128906,0.29948732,0.058410645,-0.07434082,91.0
29287,-0.19678593,0.12548828,0.0032844543,0.29948732,0.058410645,-0.07434082,91.0
29288,-0.19678593,0.12548828,0.0032844543,0.14868164,0.09239502,-0.12213135,91.0
29289,-0.13314915,0.3274765,0.02917862,0.14868164,0.09239502,-0.12213135,91.0
29290,-0.13314915,0.3274765,0.02917862,-0.021240234,0.1274414,-0.15611573,91.0
29291,-0.06709099,0.27149963,0.031188965,-0.021240234,0.1274414,-0.15611573,91.0
29292,-0.06709099,0.27149963,0.031188965,-0.05522461,0.13699952,-0.1444336,91.0
29293,-0.049913406,0.04663086,-0.009643555,-0.05522461,0.13699952,-0.1444336,91.0
29294,-0.049913406,0.04663086,-0.009643555,0.0722168,0.10513916,-0.15823975,91.0
29295,-0.123316765,-0.11405182,-0.09285736,0.0722168,0.10513916,-0.15823975,91.0
29296,-0.123316765,-0.11405182,-0.09285736,0.16567384,0.047790527,-0.13487549,91.0
29297,-0.20865059,-0.10282898,-0.140728,0.16567384,0.047790527,-0.13487549,91.0
29298,-0.20865059,-0.10282898,-0.140728,0.20603028,0.015930176,-0.121069334,91.0
29299,-0.20865059,-0.10282898,-0.140728,0.20603028,0.015930176,-0.121069334,92.0
29300,-0.20551872,0.02596283,-0.11156845,0.20603028,0.015930176,-0.121069334,92.0
29301,-0.20551872,0.02596283,-0.11156845,0.2357666,-0.015930176,-0.14549561,92.0
29302,-0.11728382,0.16238403,-0.0346756,0.2357666,-0.015930176,-0.14549561,92.0
29303,-0.11728382,0.16238403,-0.0346756,0.19328614,-0.008496094,-0.12531738,92.0
29304,-0.02543068,0.2745819,0.046028137,0.19328614,-0.008496094,-0.12531738,92.0
29305,-0.02543068,0.2745819,0.046028137,0.039294433,-0.0063720704,-0.1444336,92.0
29306,0.004545212,0.30446625,0.12599182,0.039294433,-0.0063720704,-0.1444336,92.0
29307,0.004545212,0.30446625,0.12599182,-0.13487549,-0.013806152,-0.1539917,92.0
29308,0.010289192,0.25160217,0.20388031,-0.13487549,-0.013806152,-0.1539917,92.0
29309,0.010289192,0.25160217,0.20388031,-0.38444826,0.009558106,-0.1359375,92.0
29310,0.040922165,0.21646881,0.19796753,-0.38444826,0.009558106,-0.1359375,92.0
29311,0.040922165,0.21646881,0.19796753,-0.52038574,0.038232423,-0.17735596,92.0
29312,0.12354565,0.098846436,0.061595917,-0.52038574,0.038232423,-0.17735596,92.0
29313,0.12354565,0.098846436,0.061595917,-0.3971924,0.04248047,-0.13699952,92.0
29314,0.17790127,-0.2524643,-0.16693497,-0.3971924,0.04248047,-0.13699952,92.0
29315,0.17790127,-0.2524643,-0.16693497,-0.19328614,-0.011682129,-0.05522461,92.0
29316,0.14852238,-0.6270447,-0.35485077,-0.19328614,-0.011682129,-0.05522461,92.0
29317,0.14852238,-0.6270447,-0.35485077,0.32178956,-0.07965088,0.04248047,92.0
29318,0.12062454,-0.5556412,-0.32156372,0.32178956,-0.07965088,0.04248047,92.0
29319,0.12062454,-0.5556412,-0.32156372,0.6085327,-0.095581055,0.087084964,92.0
29320,0.0407629,0.024795532,-0.08584976,0.6085327,-0.095581055,0.087084964,92.0
29321,0.0407629,0.024795532,-0.08584976,0.36533204,-0.070092775,0.090270996,92.0
29322,-0.07888889,0.48403168,0.12825394,0.36533204,-0.070092775,0.090270996,92.0
29323,-0.07888889,0.48403168,0.12825394,0.032922365,-0.03079834,0.06584473,92.0
29324,-0.14316463,0.42459106,0.18407059,0.032922365,-0.03079834,0.06584473,92.0
29325,-0.14316463,0.42459106,0.18407059,-0.046728518,-0.0180542,0.027612304,92.0
29326,-0.1727953,0.13427734,0.11832428,-0.046728518,-0.0180542,0.027612304,92.0
29327,-0.1727953,0.13427734,0.11832428,0.05522461,-0.025488282,0.0,92.0
29328,-0.18563652,-0.07307434,0.022857666,0.05522461,-0.025488282,0.0,92.0
29329,-0.18563652,-0.07307434,0.022857666,0.09239502,-0.050976563,-0.004248047,92.0
29330,-0.1420517,-0.20507812,0.050575256,0.09239502,-0.050976563,-0.004248047,92.0
29331,-0.1420517,-0.20507812,0.050575256,0.20390625,-0.040356446,-0.047790527,92.0
29332,-0.09628296,-0.097961426,0.19776154,0.20390625,-0.040356446,-0.047790527,92.0
29333,-0.09628296,-0.097961426,0.19776154,0.11469727,0.013806152,-0.11682129,92.0
29334,-0.17034912,0.39983368,0.20056915,0.11469727,0.013806152,-0.11682129,92.0
29335,-0.17034912,0.39983368,0.20056915,-0.23789063,0.021240234,-0.26975098,92.0
29336,-0.16684532,0.59898376,-0.026107788,-0.23789063,0.021240234,-0.26975098,92.0
29337,-0.16684532,0.59898376,-0.026107788,-0.7349121,0.02442627,-0.18691407,92.0
29338,0.08883762,-0.15983582,-0.39585114,-0.7349121,0.02442627,-0.18691407,92.0
29339,0.08883762,-0.15983582,-0.39585114,-0.18054199,-0.04991455,-0.04991455,92.0
29340,0.51591873,-0.9311371,-0.62776566,-0.18054199,-0.04991455,-0.04991455,92.0
29341,0.51591873,-0.9311371,-0.62776566,0.85704345,-0.1529297,0.16992188,92.0
29342,0.7788849,-0.50982666,-0.48184967,0.85704345,-0.1529297,0.16992188,92.0
29343,0.7788849,-0.50982666,-0.48184967,0.98236084,-0.11363526,0.20603028,92.0
29344,0.6761112,0.5237274,-0.17140579,0.98236084,-0.11363526,0.20603028,92.0
29345,0.6761112,0.5237274,-0.17140579,0.6149048,-0.029736329,0.18160401,92.0
29346,0.36721992,0.9971466,0.09423447,0.6149048,-0.029736329,0.18160401,92.0
29347,0.36721992,0.9971466,0.09423447,0.26550293,0.047790527,0.095581055,92.0
29348,0.07622242,0.6901703,0.33854675,0.26550293,0.047790527,0.095581055,92.0
29349,0.07622242,0.6901703,0.33854675,0.09451904,0.11363526,0.16992188,92.0
29350,-0.2557459,0.16503906,0.25873947,0.09451904,0.11363526,0.16992188,92.0
29351,-0.2557459,0.16503906,0.25873947,0.2516968,0.05522461,0.093457036,92.0
29352,-0.7414255,-0.4033203,-0.15977097,0.2516968,0.05522461,0.093457036,92.0
29353,-0.7414255,-0.4033203,-0.15977097,-0.08920898,-0.16461182,0.23895264,92.0
29354,-0.83850193,-0.6613922,-0.20726013,-0.08920898,-0.16461182,0.23895264,92.0
29355,-0.83850193,-0.6613922,-0.20726013,-0.23682861,-0.21027832,0.2516968,92.0
29356,-0.18723202,0.12004089,0.39955902,-0.23682861,-0.21027832,0.2516968,92.0
29357,-0.18723202,0.12004089,0.39955902,-0.5883545,-0.035046387,0.04248047,92.0
29358,0.4885683,1.2299042,0.9363098,-0.5883545,-0.035046387,0.04248047,92.0
29359,0.4885683,1.2299042,0.9363098,-1.4092896,0.2081543,-0.121069334,92.0
29360,0.4816265,0.9552994,0.48768234,-1.4092896,0.2081543,-0.121069334,92.0
29361,0.4816265,0.9552994,0.48768234,-0.8612915,0.13912354,-0.21877442,92.0
29362,0.13556957,-0.83055115,-0.39409256,-0.8612915,0.13912354,-0.21877442,92.0
29363,0.13556957,-0.83055115,-0.39409256,0.35683593,-0.10301514,0.15186767,92.0
29364,-0.09388828,-1.870224,-0.7041664,0.35683593,-0.10301514,0.15186767,92.0
29365,-0.09388828,-1.870224,-0.7041664,1.0524536,-0.27293703,0.10089111,92.0
29366,-0.27767372,-0.8601227,-0.48784637,1.0524536,-0.27293703,0.10089111,92.0
29367,-0.27767372,-0.8601227,-0.48784637,0.36108398,-0.25806886,0.12850343,92.0
29368,-0.3367386,0.6236725,-0.1467247,0.36108398,-0.25806886,0.12850343,92.0
29369,-0.3367386,0.6236725,-0.1467247,-0.1539917,-0.21983643,0.13062744,92.0
29370,-0.06709576,0.88796234,0.05978012,-0.1539917,-0.21983643,0.13062744,92.0
29371,-0.06709576,0.88796234,0.05978012,0.16885987,-0.1720459,0.05522461,92.0
29372,0.27928257,0.3208084,0.1352005,0.16885987,-0.1720459,0.05522461,92.0
29373,0.27928257,0.3208084,0.1352005,0.42692873,-0.17735596,0.019116212,92.0
29374,0.28554726,0.092536926,0.076911926,0.42692873,-0.17735596,0.019116212,92.0
29375,0.28554726,0.092536926,0.076911926,0.3717041,-0.1720459,0.02442627,92.0
29376,0.12449455,0.2237854,0.0802536,0.3717041,-0.1720459,0.02442627,92.0
29377,0.12449455,0.2237854,0.0802536,0.15930176,-0.10407715,0.033984374,92.0
29378,0.1521349,0.13982391,0.27793503,0.15930176,-0.10407715,0.033984374,92.0
29379,0.1521349,0.13982391,0.27793503,0.070092775,0.010620117,0.028674318,92.0
29380,0.15869522,3.7384033E-4,0.42324066,0.070092775,0.010620117,0.028674318,92.0
29381,0.15869522,3.7384033E-4,0.42324066,-0.012744141,-0.032922365,0.012744141,92.0
29382,-0.20680809,0.11756134,0.28889465,-0.012744141,-0.032922365,0.012744141,92.0
29383,-0.20680809,0.11756134,0.28889465,-0.08602295,-0.08602295,-0.0180542,92.0
29384,-0.6679487,0.3736801,0.06323242,-0.08602295,-0.08602295,-0.0180542,92.0
29385,-0.6679487,0.3736801,0.06323242,0.015930176,-0.11044922,-0.11257324,92.0
29386,-0.7391443,0.7056427,-0.058387756,0.015930176,-0.11044922,-0.11257324,92.0
29387,-0.7391443,0.7056427,-0.058387756,-0.019116212,0.052038576,-0.27399904,92.0
29388,-0.49346352,0.6637192,-0.27313995,-0.019116212,0.052038576,-0.27399904,92.0
29389,-0.49346352,0.6637192,-0.27313995,-0.1083252,0.04991455,-0.39400634,92.0
29390,0.18929863,0.17017365,-0.24791718,-0.1083252,0.04991455,-0.39400634,92.0
29391,0.18929863,0.17017365,-0.24791718,-1.9148072,-0.27612305,-2.5063477,92.0
29392,0.18929863,0.17017365,-0.24791718,-1.9148072,-0.27612305,-2.5063477,92.0
29393,0.7365465,-0.71294403,-0.13898468,-1.9148072,-0.27612305,-2.5063477,92.0
29394,0.7365465,-0.71294403,-0.13898468,-1.4114136,-0.45029297,-1.5547851,92.0
29395,0.7845011,-1.6936569,-0.14486694,-1.4114136,-0.45029297,-1.5547851,92.0
29396,0.7845011,-1.6936569,-0.14486694,-0.41206056,-0.4333008,-1.2021973,92.0
29397,1.1954355,-1.683197,-0.04245758,-0.41206056,-0.4333008,-1.2021973,92.0
29398,1.1954355,-1.683197,-0.04245758,-0.32603762,-0.10938721,-0.3812622,92.0
29399,1.1703014,-0.6985016,-0.15570831,-0.32603762,-0.10938721,-0.3812622,92.0
29400,1.1703014,-0.6985016,-0.15570831,-0.11151123,0.038232423,0.045666505,92.0
29401,0.4941268,0.26340485,-0.6480026,-0.11151123,0.038232423,0.045666505,92.0
29402,0.4941268,0.26340485,-0.6480026,0.1985962,-0.070092775,0.045666505,92.0
29403,-0.19634914,0.5249939,-1.07304,0.1985962,-0.070092775,0.045666505,92.0
29404,-0.19634914,0.5249939,-1.07304,0.79119873,-0.19753419,-0.04141846,92.0
29405,-0.5879264,0.33825684,-1.0167961,0.79119873,-0.19753419,-0.04141846,92.0
29406,-0.5879264,0.33825684,-1.0167961,1.2202514,-0.2548828,-0.18585205,92.0
29407,-0.522172,-0.1614914,-0.17407227,1.2202514,-0.2548828,-0.18585205,92.0
29408,-0.522172,-0.1614914,-0.17407227,1.722583,-0.08602295,-0.20921631,92.0
29409,-0.14736414,-0.2969513,1.3537979,1.722583,-0.08602295,-0.20921631,92.0
29410,-0.14736414,-0.2969513,1.3537979,0.7306641,0.15611573,-0.059472658,92.0
29411,-0.07998848,0.54836273,1.8916054,0.7306641,0.15611573,-0.059472658,92.0
29412,-0.07998848,0.54836273,1.8916054,-0.22089843,0.21558838,-0.16248779,92.0
29413,-0.20140553,1.2472382,0.7917862,-0.22089843,0.21558838,-0.16248779,92.0
29414,-0.20140553,1.2472382,0.7917862,-0.4694092,0.11044922,-0.17629395,92.0
29415,-0.07954502,0.91693115,-0.44810486,-0.4694092,0.11044922,-0.17629395,92.0
29416,-0.07954502,0.91693115,-0.44810486,0.050976563,0.021240234,-0.057348635,92.0
29417,0.13151741,0.120788574,-0.7564697,0.050976563,0.021240234,-0.057348635,92.0
29418,0.13151741,0.120788574,-0.7564697,0.3812622,0.03079834,0.14124756,92.0
29419,0.18778229,-0.23469543,-0.17828369,0.3812622,0.03079834,0.14124756,92.0
29420,0.18778229,-0.23469543,-0.17828369,0.2262085,0.045666505,0.34727785,92.0
29421,-0.03626108,0.099609375,0.4450798,0.2262085,0.045666505,0.34727785,92.0
29422,-0.03626108,0.099609375,0.4450798,-0.18054199,0.05628662,0.33134767,92.0
29423,-0.40865993,0.4098282,0.54561615,-0.18054199,0.05628662,0.33134767,92.0
29424,-0.40865993,0.4098282,0.54561615,-0.54906005,0.008496094,0.07646485,92.0
29425,-0.55863,-0.12665558,0.23620987,-0.54906005,0.008496094,0.07646485,92.0
29426,-0.55863,-0.12665558,0.23620987,-0.42161867,-0.09770508,-0.060534667,92.0
29427,-0.36549568,-0.84902954,-0.11729431,-0.42161867,-0.09770508,-0.060534667,92.0
29428,-0.36549568,-0.84902954,-0.11729431,-0.3164795,-0.121069334,-0.15186767,92.0
29429,0.09795952,-0.6760025,-0.1963501,-0.3164795,-0.121069334,-0.15186767,92.0
29430,0.09795952,-0.6760025,-0.1963501,-0.42799073,-0.029736329,-0.09451904,92.0
29431,0.5257311,0.22642517,-0.14875793,-0.42799073,-0.029736329,-0.09451904,92.0
29432,0.5257311,0.22642517,-0.14875793,-0.7041138,0.13275146,-0.027612304,92.0
29433,0.70218897,0.84555817,-0.2774048,-0.7041138,0.13275146,-0.027612304,92.0
29434,0.70218897,0.84555817,-0.2774048,-0.6223389,0.27506104,0.15611573,92.0
29435,0.78481054,0.4306717,-0.41051102,-0.6223389,0.27506104,0.15611573,92.0
29436,0.78481054,0.4306717,-0.41051102,-0.24957275,0.4354248,0.76677245,92.0
29437,0.74198437,-0.5436554,-0.5823517,-0.24957275,0.4354248,0.76677245,92.0
29438,0.74198437,-0.5436554,-0.5823517,0.40144044,0.5161377,1.447522,92.0
29439,0.44954443,-1.2399673,-0.72079086,0.40144044,0.5161377,1.447522,92.0
29440,0.44954443,-1.2399673,-0.72079086,1.1639649,0.40144044,1.6556762,92.0
29441,0.16777802,-1.0910339,-0.118904114,1.1639649,0.40144044,1.6556762,92.0
29442,0.16777802,-1.0910339,-0.118904114,0.540564,0.09133301,0.8581055,92.0
29443,0.046307564,0.2505722,0.7677765,0.540564,0.09133301,0.8581055,92.0
29444,0.046307564,0.2505722,0.7677765,-0.62127686,0.15717773,-0.39613038,92.0
29445,-0.44316626,1.0600052,1.0541611,-0.62127686,0.15717773,-0.39613038,92.0
29446,-0.44316626,1.0600052,1.0541611,-1.0673218,0.047790527,0.38444826,92.0
29447,-1.6772995,0.13628387,0.7754326,-1.0673218,0.047790527,0.38444826,92.0
29448,-1.6772995,0.13628387,0.7754326,0.07965088,-0.04991455,0.1996582,92.0
29449,-2.3294983,-0.747345,0.23125839,0.07965088,-0.04991455,0.1996582,92.0
29450,-2.3294983,-0.747345,0.23125839,0.44604492,0.0361084,-0.029736329,92.0
29451,-1.2504396,-0.17936707,-0.19918442,0.44604492,0.0361084,-0.029736329,92.0
29452,-1.2504396,-0.17936707,-0.19918442,0.1539917,0.0998291,-0.06478272,92.0
29453,0.2900896,0.67848206,-0.26506042,0.1539917,0.0998291,-0.06478272,92.0
29454,0.2900896,0.67848206,-0.26506042,-0.5278198,0.046728518,-0.08071289,92.0
29455,0.7588663,0.4831314,-0.08942795,-0.5278198,0.046728518,-0.08071289,92.0
29456,0.7588663,0.4831314,-0.08942795,-0.63826907,0.015930176,-0.06159668,92.0
29457,0.44810867,-0.26626587,-0.03681183,-0.63826907,0.015930176,-0.06159668,92.0
29458,0.44810867,-0.26626587,-0.03681183,-0.38232422,-0.0010620117,-0.058410645,92.0
29459,0.19378948,-0.7702408,-0.010456085,-0.38232422,-0.0010620117,-0.058410645,92.0
29460,0.19378948,-0.7702408,-0.010456085,-0.06584473,-0.033984374,0.04141846,92.0
29461,0.040761948,-0.66262054,0.06175232,-0.06584473,-0.033984374,0.04141846,92.0
29462,0.040761948,-0.66262054,0.06175232,0.36320803,-0.045666505,-0.07434082,92.0
29463,-0.15747833,-0.2701187,0.05342102,0.36320803,-0.045666505,-0.07434082,92.0
29464,-0.15747833,-0.2701187,0.05342102,0.23789063,-0.020178223,-0.028674318,92.0
29465,-0.22404194,-0.04586792,-0.058517456,0.23789063,-0.020178223,-0.028674318,92.0
29466,-0.22404194,-0.04586792,-0.058517456,0.28780517,0.029736329,-0.083898924,92.0
29467,0.06971645,0.2471695,-0.07080078,0.28780517,0.029736329,-0.083898924,92.0
29468,0.06971645,0.2471695,-0.07080078,-0.31329346,0.12000733,-0.010620117,92.0
29469,0.55797005,0.60144806,-0.0068130493,-0.31329346,0.12000733,-0.010620117,92.0
29470,0.55797005,0.60144806,-0.0068130493,-0.6000366,0.16354981,-0.13275146,92.0
29471,0.7039194,0.3732605,-0.0014839172,-0.6000366,0.16354981,-0.13275146,92.0
29472,0.7039194,0.3732605,-0.0014839172,-0.67225343,0.06690674,-0.03186035,92.0
29473,0.3131113,-0.1728363,0.23195648,-0.67225343,0.06690674,-0.03186035,92.0
29474,0.3131113,-0.1728363,0.23195648,-0.45666504,0.07434082,-0.06584473,92.0
29475,-0.15887356,-0.41685486,0.2707939,-0.45666504,0.07434082,-0.06584473,92.0
29476,-0.15887356,-0.41685486,0.2707939,-0.2623169,0.05628662,-0.093457036,92.0
29477,-0.31052208,-0.67739105,-0.03024292,-0.2623169,0.05628662,-0.093457036,92.0
29478,-0.31052208,-0.67739105,-0.03024292,0.12213135,-0.07646485,0.18691407,92.0
29479,-0.20559597,-0.7795944,-0.14432526,0.12213135,-0.07646485,0.18691407,92.0
29480,-0.20559597,-0.7795944,-0.14432526,0.63720703,-0.1709839,0.09664307,92.0
29481,-0.065880775,-0.19900513,-0.09672165,0.63720703,-0.1709839,0.09664307,92.0
29482,-0.065880775,-0.19900513,-0.09672165,0.6117188,-0.14974366,0.11363526,92.0
29483,-0.03191662,0.4487915,-0.10720062,0.6117188,-0.14974366,0.11363526,92.0
29484,-0.03191662,0.4487915,-0.10720062,0.42161867,-0.1901001,0.10195313,92.0
29485,-0.082930565,0.5109482,-0.26740265,0.42161867,-0.1901001,0.10195313,92.0
29486,-0.082930565,0.5109482,-0.26740265,0.5278198,-0.23895264,0.115759276,92.0
29487,0.024415016,0.37667847,-0.20012665,0.5278198,-0.23895264,0.115759276,92.0
29488,0.024415016,0.37667847,-0.20012665,0.73597413,-0.16248779,0.10407715,92.0
29489,0.024415016,0.37667847,-0.20012665,0.73597413,-0.16248779,0.10407715,92.0
29490,0.3589363,0.69096375,0.06716919,0.73597413,-0.16248779,0.10407715,92.0
29491,0.3589363,0.69096375,0.06716919,0.09770508,0.03079834,-0.019116212,92.0
29492,0.49569416,1.1557007,-0.044704437,0.09770508,0.03079834,-0.019116212,92.0
29493,0.49569416,1.1557007,-0.044704437,-0.72960204,0.03079834,-0.12956543,92.0
29494,0.27083492,0.6758194,-0.36392593,-0.72960204,0.03079834,-0.12956543,92.0
29495,0.27083492,0.6758194,-0.36392593,-0.83898926,-0.045666505,-0.06796875,92.0
29496,0.06941509,-0.66661835,-0.27198792,-0.83898926,-0.045666505,-0.06796875,92.0
29497,0.06941509,-0.66661835,-0.27198792,-0.2899292,-0.027612304,0.023364259,92.0
29498,-0.0034885406,-1.313858,0.089206696,-0.2899292,-0.027612304,0.023364259,92.0
29499,-0.0034885406,-1.313858,0.089206696,0.07965088,0.02442627,0.0541626,92.0
29500,-0.10753918,-0.68811035,0.25862122,0.07965088,0.02442627,0.0541626,92.0
29501,-0.10753918,-0.68811035,0.25862122,0.12956543,0.032922365,-0.013806152,92.0
29502,-0.13064766,0.108924866,0.27755356,0.12956543,0.032922365,-0.013806152,92.0
29503,-0.13064766,0.108924866,0.27755356,0.0010620117,0.043542482,0.0031860352,92.0
29504,-0.032899857,0.36829376,0.23876572,0.0010620117,0.043542482,0.0031860352,92.0
29505,-0.032899857,0.36829376,0.23876572,0.038232423,0.03186035,-0.04141846,92.0
29506,0.06703949,0.23804474,0.17593765,0.038232423,0.03186035,-0.04141846,92.0
29507,0.06703949,0.23804474,0.17593765,-0.010620117,0.02442627,-0.011682129,92.0
29508,0.06253052,0.034431458,0.079322815,-0.010620117,0.02442627,-0.011682129,92.0
29509,0.06253052,0.034431458,0.079322815,-0.0998291,0.03186035,-0.03079834,92.0
29510,0.020105362,-0.112091064,0.0014572144,-0.0998291,0.03186035,-0.03079834,92.0
29511,0.020105362,-0.112091064,0.0014572144,-0.03186035,0.0541626,-0.045666505,92.0
29512,-0.017094612,-0.21484375,-0.007820129,-0.03186035,0.0541626,-0.045666505,92.0
29513,-0.017094612,-0.21484375,-0.007820129,0.043542482,0.06690674,-0.035046387,92.0
29514,-0.11614132,-0.2625885,-0.01576233,0.043542482,0.06690674,-0.035046387,92.0
29515,-0.11614132,-0.2625885,-0.01576233,0.14974366,0.052038576,-0.07752686,92.0
29516,-0.23547935,-0.19283295,-0.052196503,0.14974366,0.052038576,-0.07752686,92.0
29517,-0.23547935,-0.19283295,-0.052196503,0.13275146,0.05522461,-0.07752686,92.0
29518,-0.23328114,0.050712585,-0.0697937,0.13275146,0.05522461,-0.07752686,92.0
29519,-0.23328114,0.050712585,-0.0697937,0.012744141,0.07327881,-0.12850343,92.0
29520,-0.14239883,0.25844574,-0.07320404,0.012744141,0.07327881,-0.12850343,92.0
29521,-0.14239883,0.25844574,-0.07320404,-0.16673584,0.07752686,-0.12000733,92.0
29522,-0.060183525,0.0952301,-0.07621384,-0.16673584,0.07752686,-0.12000733,92.0
29523,-0.060183525,0.0952301,-0.07621384,-0.06478272,0.07115479,-0.093457036,92.0
29524,-0.03392601,-0.16976166,-0.041194916,-0.06478272,0.07115479,-0.093457036,92.0
29525,-0.03392601,-0.16976166,-0.041194916,0.2516968,0.0722168,-0.13275146,92.0
29526,-0.07422352,-0.15969849,-0.045516968,0.2516968,0.0722168,-0.13275146,92.0
29527,-0.07422352,-0.15969849,-0.045516968,0.29523927,0.060534667,-0.1539917,92.0
29528,-0.36085606,-0.08127594,-0.13980865,0.29523927,0.060534667,-0.1539917,92.0
29529,-0.36085606,-0.08127594,-0.13980865,0.2538208,0.007434082,-0.1731079,92.0
29530,-0.37970066,-0.13365936,-0.21817017,0.2538208,0.007434082,-0.1731079,92.0
29531,-0.37970066,-0.13365936,-0.21817017,0.35789797,-0.021240234,-0.20921631,92.0
29532,-0.045630455,0.13629913,-0.014175415,0.35789797,-0.021240234,-0.20921631,92.0
29533,-0.045630455,0.13629913,-0.014175415,0.5140137,0.06584473,-0.362146,92.0
29534,0.09907913,0.5107498,0.14897537,0.5140137,0.06584473,-0.362146,92.0
29535,0.09907913,0.5107498,0.14897537,0.16248779,0.1178833,-0.37489015,92.0
29536,0.17926311,1.2575226,0.5154686,0.16248779,0.1178833,-0.37489015,92.0
29537,0.17926311,1.2575226,0.5154686,-1.2075074,0.16248779,-0.2538208,92.0
29538,0.023207664,0.81170654,0.53279877,-1.2075074,0.16248779,-0.2538208,92.0
29539,0.023207664,0.81170654,0.53279877,-1.3062744,0.1359375,-0.21346436,92.0
29540,-0.12586784,-0.73807526,-0.09911728,-1.3062744,0.1359375,-0.21346436,92.0
29541,-0.12586784,-0.73807526,-0.09911728,-0.5076416,0.0010620117,-0.22514649,92.0
29542,-0.0842638,-1.0464096,-0.33693695,-0.5076416,0.0010620117,-0.22514649,92.0
29543,-0.0842638,-1.0464096,-0.33693695,0.10089111,-0.07327881,-0.098767094,92.0
29544,0.23323631,-1.1186676,-0.5724678,0.10089111,-0.07327881,-0.098767094,92.0
29545,0.23323631,-1.1186676,-0.5724678,1.1236085,-0.15611573,0.07434082,92.0
29546,0.28455067,-0.46455383,-0.4591446,1.1236085,-0.15611573,0.07434082,92.0
29547,0.28455067,-0.46455383,-0.4591446,0.9791748,-0.121069334,0.07540283,92.0
29548,0.2379551,0.6189728,-0.05105591,0.9791748,-0.121069334,0.07540283,92.0
29549,0.2379551,0.6189728,-0.05105591,0.37701416,-0.053100586,0.09451904,92.0
29550,0.05164337,0.912941,0.20624924,0.37701416,-0.053100586,0.09451904,92.0
29551,0.05164337,0.912941,0.20624924,-0.14868164,0.014868164,0.11151123,92.0
29552,-0.05076313,0.55989075,0.13196945,-0.14868164,0.014868164,0.11151123,92.0
29553,-0.05076313,0.55989075,0.13196945,-0.095581055,0.013806152,0.115759276,92.0
29554,-0.06504917,0.0041656494,-0.12224579,-0.095581055,0.013806152,0.115759276,92.0
29555,-0.06504917,0.0041656494,-0.12224579,0.20178223,-0.03186035,0.1720459,92.0
29556,-0.03381443,-0.28416443,-0.24050903,0.20178223,-0.03186035,0.1720459,92.0
29557,-0.03381443,-0.28416443,-0.24050903,0.42055663,-0.04991455,0.19647217,92.0
29558,0.020384789,-0.010681152,-0.04731369,0.42055663,-0.04991455,0.19647217,92.0
29559,0.020384789,-0.010681152,-0.04731369,0.39082032,-0.03186035,0.21558838,92.0
29560,-0.06406307,0.4132843,0.21315002,0.39082032,-0.03186035,0.21558838,92.0
29561,-0.06406307,0.4132843,0.21315002,0.10089111,-0.015930176,0.18479005,92.0
29562,-0.34345055,0.3610382,0.14279556,0.10089111,-0.015930176,0.18479005,92.0
29563,-0.34345055,0.3610382,0.14279556,-0.17523193,-0.12319336,0.20603028,92.0
29564,-0.4721117,-0.2586136,-0.012580872,-0.17523193,-0.12319336,0.20603028,92.0
29565,-0.4721117,-0.2586136,-0.012580872,-0.11257324,-0.23895264,0.26656494,92.0
29566,-0.10526466,-0.4147873,0.18524933,-0.11257324,-0.23895264,0.26656494,92.0
29567,-0.10526466,-0.4147873,0.18524933,0.06690674,-0.17735596,0.15505372,92.0
29568,0.35344696,0.38262177,0.50666046,0.06690674,-0.17735596,0.15505372,92.0
29569,0.35344696,0.38262177,0.50666046,-0.5246338,-0.04885254,0.02442627,92.0
29570,0.32788658,0.7968216,0.33989716,-0.5246338,-0.04885254,0.02442627,92.0
29571,0.32788658,0.7968216,0.33989716,-0.92926025,-0.04141846,0.02442627,92.0
29572,0.118766785,0.02381897,-0.17734909,-0.92926025,-0.04141846,0.02442627,92.0
29573,0.118766785,0.02381897,-0.17734909,0.013806152,-0.10195313,0.02442627,92.0
29574,0.12354088,-0.83104706,-0.44301605,0.013806152,-0.10195313,0.02442627,92.0
29575,0.12354088,-0.83104706,-0.44301605,0.903772,-0.2177124,0.052038576,92.0
29576,0.11791229,-0.62080383,-0.40807343,0.903772,-0.2177124,0.052038576,92.0
29577,0.11791229,-0.62080383,-0.40807343,0.6637573,-0.2538208,0.07752686,92.0
29578,0.04845524,0.13061523,-0.26781464,0.6637573,-0.2538208,0.07752686,92.0
29579,0.04845524,0.13061523,-0.26781464,0.081774905,-0.2548828,0.16354981,92.0
29580,0.09240246,0.41713715,-0.15519333,0.081774905,-0.2548828,0.16354981,92.0
29581,0.09240246,0.41713715,-0.15519333,0.3175415,-0.23151855,0.15080567,92.0
29582,0.21162891,0.29286194,-0.013511658,0.3175415,-0.23151855,0.15080567,92.0
29583,0.21162891,0.29286194,-0.013511658,0.5851685,-0.1529297,0.1083252,92.0
29584,0.2471838,0.36260986,0.116642,0.5851685,-0.1529297,0.1083252,92.0
29585,0.2471838,0.36260986,0.116642,0.41312256,-0.029736329,0.011682129,92.0
29586,0.13420963,0.60178375,0.11541748,0.41312256,-0.029736329,0.011682129,92.0
29587,0.13420963,0.60178375,0.11541748,-0.24001466,0.016992187,0.028674318,92.0
29588,-0.1183033,0.52830505,-0.006790161,-0.24001466,0.016992187,0.028674318,92.0
29589,-0.1183033,0.52830505,-0.006790161,-0.42374268,-0.04141846,0.027612304,92.0
29590,-0.35996246,0.30706787,-0.05029297,-0.42374268,-0.04141846,0.027612304,92.0
29591,-0.35996246,0.30706787,-0.05029297,-0.29311523,-0.12956543,-0.09133301,92.0
29592,-0.30200768,0.2715454,0.1730957,-0.29311523,-0.12956543,-0.09133301,92.0
29593,-0.30200768,0.2715454,0.1730957,-0.5171997,0.014868164,-0.14337158,92.0
29594,-0.30200768,0.2715454,0.1730957,-0.5171997,0.014868164,-0.14337158,92.0
29595,-0.025541306,0.10306549,0.4629364,-0.5171997,0.014868164,-0.14337158,92.0
29596,-0.025541306,0.10306549,0.4629364,-0.4800293,0.14124756,-0.21134034,92.0
29597,0.25526237,-0.54904175,0.41158295,-0.4800293,0.14124756,-0.21134034,92.0
29598,0.25526237,-0.54904175,0.41158295,-0.33665773,0.046728518,-0.61702883,92.0
29599,0.40914154,-0.86273193,0.10131073,-0.33665773,0.046728518,-0.61702883,92.0
29600,0.40914154,-0.86273193,0.10131073,-0.86766356,-0.022302246,-1.1533448,92.0
29601,0.18765259,-0.94693756,-0.31619263,-0.86766356,-0.022302246,-1.1533448,92.0
29602,0.18765259,-0.94693756,-0.31619263,-0.46516114,-0.18479005,-1.0142212,92.0
29603,-0.24185753,-0.9362488,-0.63552094,-0.46516114,-0.18479005,-1.0142212,92.0
29604,-0.24185753,-0.9362488,-0.63552094,0.14230958,-0.19753419,-1.081128,92.0
29605,0.106184006,-0.39131927,-0.53385544,0.14230958,-0.19753419,-1.081128,92.0
29606,0.106184006,-0.39131927,-0.53385544,0.3355957,-0.10938721,-0.7072998,92.0
29607,0.74356556,0.23088074,-0.24782562,0.3355957,-0.10938721,-0.7072998,92.0
29608,0.74356556,0.23088074,-0.24782562,0.2516968,0.0053100586,-0.22939454,92.0
29609,0.56308985,0.52858734,-0.16651154,0.2516968,0.0053100586,-0.22939454,92.0
29610,0.56308985,0.52858734,-0.16651154,0.42161867,0.0,-0.13699952,92.0
29611,0.031684875,0.43795776,-0.11947632,0.42161867,0.0,-0.13699952,92.0
29612,0.031684875,0.43795776,-0.11947632,0.46516114,-0.020178223,-0.0998291,92.0
29613,-0.17157555,0.14918518,0.09103012,0.46516114,-0.020178223,-0.0998291,92.0
29614,-0.17157555,0.14918518,0.09103012,0.45560303,0.0010620117,0.14230958,92.0
29615,-0.3005414,-0.09559631,0.3488884,0.45560303,0.0010620117,0.14230958,92.0
29616,-0.3005414,-0.09559631,0.3488884,0.38551027,-0.013806152,0.13381349,92.0
29617,-0.39276505,0.084739685,0.39779663,0.38551027,-0.013806152,0.13381349,92.0
29618,-0.39276505,0.084739685,0.39779663,0.1720459,-0.027612304,0.06903076,92.0
29619,-0.32847023,0.4146042,0.31142807,0.1720459,-0.027612304,0.06903076,92.0
29620,-0.32847023,0.4146042,0.31142807,-0.0053100586,-0.011682129,-0.015930176,92.0
29621,-0.15481758,0.45623016,0.21901321,-0.0053100586,-0.011682129,-0.015930176,92.0
29622,-0.15481758,0.45623016,0.21901321,-0.20178223,0.020178223,-0.0722168,92.0
29623,0.040452957,0.16976929,-0.0209198,-0.20178223,0.020178223,-0.0722168,92.0
29624,0.040452957,0.16976929,-0.0209198,-0.23364258,0.0180542,-0.026550293,92.0
29625,0.17924976,-0.13394928,-0.3123169,-0.23364258,0.0180542,-0.026550293,92.0
29626,0.17924976,-0.13394928,-0.3123169,-0.021240234,0.02442627,0.047790527,92.0
29627,0.19331408,-0.2457428,-0.39015198,-0.021240234,0.02442627,0.047790527,92.0
29628,0.19331408,-0.2457428,-0.39015198,0.18903808,0.047790527,0.1731079,92.0
29629,0.09910917,-0.08154297,-0.27672195,0.18903808,0.047790527,0.1731079,92.0
29630,0.09910917,-0.08154297,-0.27672195,0.32497558,0.08496094,0.26762697,92.0
29631,0.00622797,0.01637268,-0.106910706,0.32497558,0.08496094,0.26762697,92.0
29632,0.00622797,0.01637268,-0.106910706,0.4439209,0.1178833,0.36320803,92.0
29633,-0.047885895,0.18924713,0.16013718,0.4439209,0.1178833,0.36320803,92.0
29634,-0.047885895,0.18924713,0.16013718,0.3175415,0.14549561,0.4630371,92.0
29635,-0.15408039,0.5812912,0.39987183,0.3175415,0.14549561,0.4630371,92.0
29636,-0.15408039,0.5812912,0.39987183,-0.09239502,0.11257324,0.3695801,92.0
29637,-0.41004372,0.36082458,0.38021088,-0.09239502,0.11257324,0.3695801,92.0
29638,-0.41004372,0.36082458,0.38021088,-0.2538208,-0.0031860352,0.090270996,92.0
29639,-0.52597237,-0.37036133,0.10151672,-0.2538208,-0.0031860352,0.090270996,92.0
29640,-0.52597237,-0.37036133,0.10151672,-0.08920898,-0.1359375,-0.15186767,92.0
29641,-0.22745514,-0.58976746,-0.13496399,-0.08920898,-0.1359375,-0.15186767,92.0
29642,-0.22745514,-0.58976746,-0.13496399,-0.047790527,-0.13168946,-0.17416993,92.0
29643,0.25286293,-0.0650177,-0.15409088,-0.047790527,-0.13168946,-0.17416993,92.0
29644,0.25286293,-0.0650177,-0.15409088,-0.15186767,-0.020178223,-0.090270996,92.0
29645,0.58272266,0.49652863,-0.06345749,-0.15186767,-0.020178223,-0.090270996,92.0
29646,0.58272266,0.49652863,-0.06345749,-0.3079834,0.13275146,0.107263185,92.0
29647,0.6114416,0.5698929,-0.051548004,-0.3079834,0.13275146,0.107263185,92.0
29648,0.6114416,0.5698929,-0.051548004,-0.37807617,0.21027832,0.32285157,92.0
29649,0.5528374,0.32157135,-0.13262177,-0.37807617,0.21027832,0.32285157,92.0
29650,0.5528374,0.32157135,-0.13262177,-0.4333008,0.32497558,0.5692383,92.0
29651,0.55225563,-0.2164383,-0.46401978,-0.4333008,0.32497558,0.5692383,92.0
29652,0.55225563,-0.2164383,-0.46401978,0.032922365,0.40037844,0.84748536,92.0
29653,0.5042925,-0.81159973,-0.61647034,0.032922365,0.40037844,0.84748536,92.0
29654,0.5042925,-0.81159973,-0.61647034,0.26337892,0.24001466,0.93138427,92.0
29655,0.3329997,-0.53437805,0.0078125,0.26337892,0.24001466,0.93138427,92.0
29656,0.3329997,-0.53437805,0.0078125,-0.37807617,0.1274414,0.5979126,92.0
29657,-0.09218168,0.034934998,0.7535553,-0.37807617,0.1274414,0.5979126,92.0
29658,-0.09218168,0.034934998,0.7535553,-0.71367186,0.17735596,-0.124255374,92.0
29659,-0.9540067,-0.14240265,0.84788513,-0.71367186,0.17735596,-0.124255374,92.0
29660,-0.9540067,-0.14240265,0.84788513,-0.55968016,0.033984374,0.2888672,92.0
29661,-1.97927,-0.45308685,0.45015717,-0.55968016,0.033984374,0.2888672,92.0
29662,-1.97927,-0.45308685,0.45015717,0.25806886,0.040356446,-0.06690674,92.0
29663,-1.7643242,-0.21165466,0.11008835,0.25806886,0.040356446,-0.06690674,92.0
29664,-1.7643242,-0.21165466,0.11008835,0.11682129,0.1263794,-0.118945315,92.0
29665,-0.36393738,0.22117615,-0.15978241,0.11682129,0.1263794,-0.118945315,92.0
29666,-0.36393738,0.22117615,-0.15978241,-0.36851808,0.06265869,-0.06265869,92.0
29667,0.671484,0.12339783,-0.25253296,-0.36851808,0.06265869,-0.06265869,92.0
29668,0.671484,0.12339783,-0.25253296,-0.44710693,-0.025488282,-0.04248047,92.0
29669,0.803215,-0.20210266,-0.17536926,-0.44710693,-0.025488282,-0.04248047,92.0
29670,0.803215,-0.20210266,-0.17536926,-0.35471192,-0.052038576,-0.020178223,92.0
29671,0.47766685,-0.3076172,-0.080322266,-0.35471192,-0.052038576,-0.020178223,92.0
29672,0.47766685,-0.3076172,-0.080322266,-0.16673584,-0.022302246,-0.0063720704,92.0
29673,0.16362762,-0.32209778,0.10578537,-0.16673584,-0.022302246,-0.0063720704,92.0
29674,0.16362762,-0.32209778,0.10578537,0.0637207,-0.012744141,0.03186035,92.0
29675,-0.0034971237,-0.27052307,0.34585953,0.0637207,-0.012744141,0.03186035,92.0
29676,-0.0034971237,-0.27052307,0.34585953,0.15080567,0.0,-0.028674318,92.0
29677,-0.17177963,-0.0090789795,0.34778214,0.15080567,0.0,-0.028674318,92.0
29678,-0.17177963,-0.0090789795,0.34778214,-0.18903808,0.021240234,-0.095581055,92.0
29679,-0.3332491,0.038002014,0.10918045,-0.18903808,0.021240234,-0.095581055,92.0
29680,-0.3332491,0.038002014,0.10918045,-0.19541016,0.029736329,-0.045666505,92.0
29681,-0.24416256,-0.27944946,-0.21000671,-0.19541016,0.029736329,-0.045666505,92.0
29682,-0.24416256,-0.27944946,-0.21000671,0.22089843,0.0021240234,-0.10195313,92.0
29683,0.025788307,-0.3870697,-0.34848785,0.22089843,0.0021240234,-0.10195313,92.0
29684,0.025788307,-0.3870697,-0.34848785,0.452417,-0.019116212,-0.07540283,92.0
29685,0.20197868,-0.01133728,-0.24075317,0.452417,-0.019116212,-0.07540283,92.0
29686,0.20197868,-0.01133728,-0.24075317,0.14337158,0.013806152,-0.057348635,92.0
29687,0.33953667,0.3619995,-0.09006119,0.14337158,0.013806152,-0.057348635,92.0
29688,0.33953667,0.3619995,-0.09006119,-0.31010744,0.090270996,0.0053100586,92.0
29689,0.5026846,0.24499512,0.002281189,-0.31010744,0.090270996,0.0053100586,92.0
29690,0.5026846,0.24499512,0.002281189,-0.36320803,0.06159668,0.004248047,92.0
29691,0.44005108,-0.03176117,0.11664581,-0.36320803,0.06159668,0.004248047,92.0
29692,0.44005108,-0.03176117,0.11664581,-0.13487549,0.059472658,0.011682129,92.0
29693,0.04847622,0.08042908,0.34420776,-0.13487549,0.059472658,0.011682129,92.0
29694,0.04847622,0.08042908,0.34420776,-0.3345337,0.08071289,-0.059472658,92.0
29695,-0.3672123,0.1947174,0.24621582,-0.3345337,0.08071289,-0.059472658,92.0
29696,-0.3672123,0.1947174,0.24621582,-0.35577393,0.0,-0.026550293,92.0
29697,-0.44447803,-0.34201813,-0.066467285,-0.35577393,0.0,-0.026550293,92.0
29698,-0.44447803,-0.34201813,-0.066467285,0.2177124,-0.090270996,0.16992188,92.0
29699,-0.19203281,-0.70877075,-0.11982727,0.2177124,-0.090270996,0.16992188,92.0
29700,-0.19203281,-0.70877075,-0.11982727,0.7827026,-0.12531738,0.087084964,92.0
29701,-0.19203281,-0.70877075,-0.11982727,0.7827026,-0.12531738,0.087084964,91.0
29702,0.053808212,-0.09967041,0.017784119,0.7827026,-0.12531738,0.087084964,91.0
29703,0.053808212,-0.09967041,0.017784119,0.5150757,-0.10938721,0.078588866,91.0
29704,0.020536423,0.6618881,-0.004875183,0.5150757,-0.10938721,0.078588866,91.0
29705,0.020536423,0.6618881,-0.004875183,0.07434082,-0.10938721,0.06690674,91.0
29706,-0.031507492,0.65325165,-0.04530716,0.07434082,-0.10938721,0.06690674,91.0
29707,-0.031507492,0.65325165,-0.04530716,0.19647217,-0.06903076,0.057348635,91.0
29708,0.10145378,0.2723465,-0.0139808655,0.19647217,-0.06903076,0.057348635,91.0
29709,0.10145378,0.2723465,-0.0139808655,0.3058594,0.0010620117,-0.027612304,91.0
29710,0.2370224,0.17378235,-0.11953354,0.3058594,0.0010620117,-0.027612304,91.0
29711,0.2370224,0.17378235,-0.11953354,-0.07540283,0.019116212,-0.013806152,91.0
29712,0.2528019,0.25618744,-0.3059082,-0.07540283,0.019116212,-0.013806152,91.0
29713,0.2528019,0.25618744,-0.3059082,-0.3440918,0.020178223,-0.040356446,91.0
29714,0.14208508,0.17765045,-0.47486496,-0.3440918,0.020178223,-0.040356446,91.0
29715,0.14208508,0.17765045,-0.47486496,-0.3175415,-0.012744141,-0.083898924,91.0
29716,0.03506756,-0.40131378,-0.4855919,-0.3175415,-0.012744141,-0.083898924,91.0
29717,0.03506756,-0.40131378,-0.4855919,0.14124756,-0.023364259,0.10513916,91.0
29718,0.05611801,-0.8427887,-0.29781342,0.14124756,-0.023364259,0.10513916,91.0
29719,0.05611801,-0.8427887,-0.29781342,0.7986328,-0.033984374,0.10938721,91.0
29720,0.019357681,-0.28790283,-0.07888794,0.7986328,-0.033984374,0.10938721,91.0
29721,0.019357681,-0.28790283,-0.07888794,0.57561034,0.004248047,0.08283692,91.0
29722,-0.067741394,0.5380707,0.17322922,0.57561034,0.004248047,0.08283692,91.0
29723,-0.067741394,0.5380707,0.17322922,0.27293703,0.07434082,0.06159668,91.0
29724,-0.04437828,0.82177734,0.40283966,0.27293703,0.07434082,0.06159668,91.0
29725,-0.04437828,0.82177734,0.40283966,0.10513916,0.14761963,-0.047790527,91.0
29726,0.0029621124,0.6083374,0.4260292,0.10513916,0.14761963,-0.047790527,91.0
29727,0.0029621124,0.6083374,0.4260292,-0.012744141,0.18903808,-0.078588866,91.0
29728,0.026295662,0.26804352,0.28497314,-0.012744141,0.18903808,-0.078588866,91.0
29729,0.026295662,0.26804352,0.28497314,-0.03079834,0.19434814,-0.1359375,91.0
29730,0.026224136,0.064689636,0.15400314,-0.03079834,0.19434814,-0.1359375,91.0
29731,0.026224136,0.064689636,0.15400314,-0.20178223,0.17416993,-0.1263794,91.0
29732,-0.05287361,-0.079200745,0.10454941,-0.20178223,0.17416993,-0.1263794,91.0
29733,-0.05287361,-0.079200745,0.10454941,-0.29630128,0.1444336,-0.087084964,91.0
29734,-0.2496233,-0.23188019,0.06374359,-0.29630128,0.1444336,-0.087084964,91.0
29735,-0.2496233,-0.23188019,0.06374359,-0.22302246,0.13062744,-0.11469727,91.0
29736,-0.43392754,-0.23861694,0.02015686,-0.22302246,0.13062744,-0.11469727,91.0
29737,-0.43392754,-0.23861694,0.02015686,-0.08814698,0.118945315,-0.15186767,91.0
29738,-0.49559212,-0.10719299,-0.044761658,-0.08814698,0.118945315,-0.15186767,91.0
29739,-0.49559212,-0.10719299,-0.044761658,-0.16567384,0.121069334,-0.18585205,91.0
29740,-0.4256487,-0.045326233,-0.088947296,-0.16567384,0.121069334,-0.18585205,91.0
29741,-0.4256487,-0.045326233,-0.088947296,-0.15717773,0.12319336,-0.2357666,91.0
29742,-0.27941036,-0.13752747,-0.087516785,-0.15717773,0.12319336,-0.2357666,91.0
29743,-0.27941036,-0.13752747,-0.087516785,-0.14974366,0.098767094,-0.24107666,91.0
29744,-0.1610651,-0.24900818,-0.05947876,-0.14974366,0.098767094,-0.24107666,91.0
29745,-0.1610651,-0.24900818,-0.05947876,-0.1263794,0.07115479,-0.22939454,91.0
29746,-0.13875198,-0.21696472,-0.016506195,-0.1263794,0.07115479,-0.22939454,91.0
29747,-0.13875198,-0.21696472,-0.016506195,-0.20178223,0.04248047,-0.24320069,91.0
29748,-0.1955595,-0.0573349,0.07768631,-0.20178223,0.04248047,-0.24320069,91.0
29749,-0.1955595,-0.0573349,0.07768631,-0.4428589,0.0361084,-0.25806886,91.0
29750,-0.18170357,0.119781494,0.26119995,-0.4428589,0.0361084,-0.25806886,91.0
29751,-0.18170357,0.119781494,0.26119995,-0.78164065,0.053100586,-0.26337892,91.0
29752,-0.009755135,0.20549011,0.38039398,-0.78164065,0.053100586,-0.26337892,91.0
29753,-0.009755135,0.20549011,0.38039398,-1.3455689,0.10938721,-0.2538208,91.0
29754,0.11104393,-0.12685394,0.18811798,-1.3455689,0.10938721,-0.2538208,91.0
29755,0.11104393,-0.12685394,0.18811798,-1.2574219,0.070092775,-0.32391357,91.0
29756,0.21261406,-1.0450516,-0.3082924,-1.2574219,0.070092775,-0.32391357,91.0
29757,0.21261406,-1.0450516,-0.3082924,0.23895264,-0.025488282,0.028674318,91.0
29758,0.45549202,-1.4799881,-0.6260872,0.23895264,-0.025488282,0.028674318,91.0
29759,0.45549202,-1.4799881,-0.6260872,1.3784913,-0.13381349,0.1359375,91.0
29760,0.5405655,-0.5287552,-0.48306274,1.3784913,-0.13381349,0.1359375,91.0
29761,0.5405655,-0.5287552,-0.48306274,1.2117554,-0.12000733,0.1709839,91.0
29762,0.27091694,0.68416595,-0.12834549,1.2117554,-0.12000733,0.1709839,91.0
29763,0.27091694,0.68416595,-0.12834549,0.5033936,-0.07646485,0.1901001,91.0
29764,-0.0025167465,0.9855652,0.16321945,0.5033936,-0.07646485,0.1901001,91.0
29765,-0.0025167465,0.9855652,0.16321945,0.0053100586,-0.02442627,0.16354981,91.0
29766,-0.08983135,0.62776184,0.24044037,0.0053100586,-0.02442627,0.16354981,91.0
29767,-0.08983135,0.62776184,0.24044037,0.0021240234,0.0,0.10513916,91.0
29768,-0.10183334,0.17038727,0.1698761,0.0021240234,0.0,0.10513916,91.0
29769,-0.10183334,0.17038727,0.1698761,0.14549561,0.015930176,0.18903808,91.0
29770,-0.1311245,-0.046432495,0.10587311,0.14549561,0.015930176,0.18903808,91.0
29771,-0.1311245,-0.046432495,0.10587311,0.38338622,0.013806152,0.12213135,91.0
29772,-0.26648426,-0.025924683,0.054584503,0.38338622,0.013806152,0.12213135,91.0
29773,-0.26648426,-0.025924683,0.054584503,0.26975098,-0.023364259,0.121069334,91.0
29774,-0.44364357,-0.08533478,-0.08742523,0.26975098,-0.023364259,0.121069334,91.0
29775,-0.44364357,-0.08533478,-0.08742523,0.21452637,-0.095581055,0.13275146,91.0
29776,-0.3942213,-0.17417908,-0.22610474,0.21452637,-0.095581055,0.13275146,91.0
29777,-0.3942213,-0.17417908,-0.22610474,0.2782471,-0.14124756,0.10301514,91.0
29778,-0.053462982,-0.003578186,-0.15270996,0.2782471,-0.14124756,0.10301514,91.0
29779,-0.053462982,-0.003578186,-0.15270996,0.270813,-0.12531738,0.08496094,91.0
29780,0.24768353,0.37020874,0.10825348,0.270813,-0.12531738,0.08496094,91.0
29781,0.24768353,0.37020874,0.10825348,0.107263185,-0.06903076,0.03079834,91.0
29782,0.25429916,0.5825424,0.27256393,0.107263185,-0.06903076,0.03079834,91.0
29783,0.25429916,0.5825424,0.27256393,-0.26125488,-0.047790527,0.016992187,91.0
29784,0.06269264,0.36335754,0.2944641,-0.26125488,-0.047790527,0.016992187,91.0
29785,0.06269264,0.36335754,0.2944641,-0.5671143,-0.0637207,-0.022302246,91.0
29786,-0.023686409,0.06327057,0.46320724,-0.5671143,-0.0637207,-0.022302246,91.0
29787,-0.023686409,0.06327057,0.46320724,-0.9430664,-0.013806152,0.035046387,91.0
29788,0.028987885,-0.08332825,0.3208351,-0.9430664,-0.013806152,0.035046387,91.0
29789,0.028987885,-0.08332825,0.3208351,-0.7434082,0.0,-0.12531738,91.0
29790,0.08373737,-0.47685242,-0.34965515,-0.7434082,0.0,-0.12531738,91.0
29791,0.08373737,-0.47685242,-0.34965515,0.3727661,-0.13487549,-0.09451904,91.0
29792,0.21529293,-0.82069397,-0.7522087,0.3727661,-0.13487549,-0.09451904,91.0
29793,0.21529293,-0.82069397,-0.7522087,1.0089111,-0.3058594,0.2347046,91.0
29794,0.25769615,-0.4383011,-0.6479492,1.0089111,-0.3058594,0.2347046,91.0
29795,0.25769615,-0.4383011,-0.6479492,0.80181885,-0.3525879,0.15930176,91.0
29796,0.25769615,-0.4383011,-0.6479492,0.80181885,-0.3525879,0.15930176,92.0
29797,0.097221375,0.3348465,-0.27095795,0.80181885,-0.3525879,0.15930176,92.0
29798,0.097221375,0.3348465,-0.27095795,0.22408448,-0.31223145,0.19222413,92.0
29799,-0.06830406,0.6449127,0.008331299,0.22408448,-0.31223145,0.19222413,92.0
29800,-0.06830406,0.6449127,0.008331299,0.2166504,-0.3079834,0.13487549,92.0
29801,-0.036686897,0.42767334,0.11233902,0.2166504,-0.3079834,0.13487549,92.0
29802,-0.036686897,0.42767334,0.11233902,0.6287109,-0.28355715,0.12531738,92.0
29803,0.025032997,0.2785263,0.22550201,0.6287109,-0.28355715,0.12531738,92.0
29804,0.025032997,0.2785263,0.22550201,0.71367186,-0.17841797,0.07434082,92.0
29805,0.09665012,0.55610657,0.30471802,0.71367186,-0.17841797,0.07434082,92.0
29806,0.09665012,0.55610657,0.30471802,0.090270996,-0.0021240234,-0.0021240234,92.0
29807,0.23263073,0.9391861,0.2984848,0.090270996,-0.0021240234,-0.0021240234,92.0
29808,0.23263073,0.9391861,0.2984848,-0.80606693,0.07646485,0.012744141,92.0
29809,0.15185165,0.81277466,0.15792847,-0.80606693,0.07646485,0.012744141,92.0
29810,0.15185165,0.81277466,0.15792847,-0.9324463,-0.03186035,-0.06690674,92.0
29811,-0.2962551,0.19999695,-0.0027618408,-0.9324463,-0.03186035,-0.06690674,92.0
29812,-0.2962551,0.19999695,-0.0027618408,-0.29948732,-0.1083252,-0.20709229,92.0
29813,-0.61788845,-0.28874207,0.11151123,-0.29948732,-0.1083252,-0.20709229,92.0
29814,-0.61788845,-0.28874207,0.11151123,0.009558106,-0.014868164,-0.33878174,92.0
29815,-0.16498947,-0.8291397,0.3187027,0.009558106,-0.014868164,-0.33878174,92.0
29816,-0.16498947,-0.8291397,0.3187027,-0.26444092,-0.06690674,-0.63933104,92.0
29817,0.658597,-0.99977875,0.32028198,-0.26444092,-0.06690674,-0.63933104,92.0
29818,0.658597,-0.99977875,0.32028198,-1.1204224,-0.078588866,-1.3328247,92.0
29819,0.66303444,-0.8762512,-0.1694336,-1.1204224,-0.078588866,-1.3328247,92.0
29820,0.66303444,-0.8762512,-0.1694336,-0.48427734,-0.29948732,-0.901648,92.0
29821,0.1432085,-0.69242096,-0.5852814,-0.48427734,-0.29948732,-0.901648,92.0
29822,0.1432085,-0.69242096,-0.5852814,-0.32922363,-0.35683593,-1.0726318,92.0
29823,0.41018486,-0.24637604,-0.4792862,-0.32922363,-0.35683593,-1.0726318,92.0
29824,0.41018486,-0.24637604,-0.4792862,-0.2538208,-0.22196046,-0.46834716,92.0
29825,0.59648275,0.03627014,-0.3504219,-0.2538208,-0.22196046,-0.46834716,92.0
29826,0.59648275,0.03627014,-0.3504219,-0.022302246,-0.12213135,-0.3430298,92.0
29827,0.43317986,0.26081848,-0.545681,-0.022302246,-0.12213135,-0.3430298,92.0
29828,0.43317986,0.26081848,-0.545681,0.3791382,-0.1263794,-0.27399904,92.0
29829,0.28517914,0.16087341,-0.73049927,0.3791382,-0.1263794,-0.27399904,92.0
29830,0.28517914,0.16087341,-0.73049927,0.8028809,-0.1539917,-0.095581055,92.0
29831,-0.01086998,-0.24452972,-0.6022568,0.8028809,-0.1539917,-0.095581055,92.0
29832,-0.01086998,-0.24452972,-0.6022568,1.5027466,-0.14974366,-0.06903076,92.0
29833,-0.27827597,-0.14888,0.36650085,1.5027466,-0.14974366,-0.06903076,92.0
29834,-0.27827597,-0.14888,0.36650085,0.92926025,0.025488282,0.0053100586,92.0
29835,-0.29801178,0.68573,1.4151955,0.92926025,0.025488282,0.0053100586,92.0
29836,-0.29801178,0.68573,1.4151955,-0.040356446,0.12000733,-0.058410645,92.0
29837,-0.24812603,1.2354355,1.2146912,-0.040356446,0.12000733,-0.058410645,92.0
29838,-0.24812603,1.2354355,1.2146912,-0.53525394,0.13381349,-0.098767094,92.0
29839,-0.10739946,0.8062897,0.18678284,-0.53525394,0.13381349,-0.098767094,92.0
29840,-0.10739946,0.8062897,0.18678284,-0.36002198,0.0637207,-0.026550293,92.0
29841,0.07802105,-0.110435486,-0.6104355,-0.36002198,0.0637207,-0.026550293,92.0
29842,0.07802105,-0.110435486,-0.6104355,-0.008496094,0.021240234,0.098767094,92.0
29843,0.164114,-0.7733917,-0.81824493,-0.008496094,0.021240234,0.098767094,92.0
29844,0.164114,-0.7733917,-0.81824493,0.41206056,0.045666505,0.20390625,92.0
29845,0.13987255,-0.8308716,-0.52290344,0.41206056,0.045666505,0.20390625,92.0
29846,0.13987255,-0.8308716,-0.52290344,0.7327881,0.09664307,0.40356445,92.0
29847,-0.025028229,0.08657074,0.17779541,0.7327881,0.09664307,0.40356445,92.0
29848,-0.025028229,0.08657074,0.17779541,0.32709962,0.14761963,0.4322388,92.0
29849,-0.37909222,0.9914093,0.64232254,0.32709962,0.14761963,0.4322388,92.0
29850,-0.37909222,0.9914093,0.64232254,-0.13381349,0.11469727,0.2347046,92.0
29851,-0.6986475,0.4380951,0.49066544,-0.13381349,0.11469727,0.2347046,92.0
29852,-0.6986475,0.4380951,0.49066544,-0.10195313,-0.053100586,-0.06159668,92.0
29853,-0.5693426,-0.42910004,0.08071518,-0.10195313,-0.053100586,-0.06159668,92.0
29854,-0.5693426,-0.42910004,0.08071518,0.026550293,-0.11363526,-0.2177124,92.0
29855,-0.054143906,-0.36105347,-0.19591522,0.026550293,-0.11363526,-0.2177124,92.0
29856,-0.054143906,-0.36105347,-0.19591522,0.0063720704,-0.08814698,-0.1985962,92.0
29857,0.33148956,0.08139801,-0.28599548,0.0063720704,-0.08814698,-0.1985962,92.0
29858,0.33148956,0.08139801,-0.28599548,0.010620117,-0.038232423,-0.13062744,92.0
29859,0.50065327,0.36792755,-0.23906326,0.010620117,-0.038232423,-0.13062744,92.0
29860,0.50065327,0.36792755,-0.23906326,0.008496094,0.06796875,-0.02442627,92.0
29861,0.55377007,0.43180847,-0.16986084,0.008496094,0.06796875,-0.02442627,92.0
29862,0.55377007,0.43180847,-0.16986084,0.03079834,0.16779785,0.26125488,92.0
29863,0.44485903,0.52321625,-0.14300537,0.03079834,0.16779785,0.26125488,92.0
29864,0.44485903,0.52321625,-0.14300537,-0.026550293,0.24638672,0.42055663,92.0
29865,0.39201975,0.4155426,-0.114097595,-0.026550293,0.24638672,0.42055663,92.0
29866,0.39201975,0.4155426,-0.114097595,-0.17841797,0.35895997,0.7391602,92.0
29867,0.33351326,-0.07357025,-0.3121872,-0.17841797,0.35895997,0.7391602,92.0
29868,0.33351326,-0.07357025,-0.3121872,0.39082032,0.42268068,1.1214844,92.0
29869,0.15123463,-0.38902283,-0.2768364,0.39082032,0.42268068,1.1214844,92.0
29870,0.15123463,-0.38902283,-0.2768364,0.56817627,0.35577393,1.1873292,92.0
29871,0.06465244,-0.2958374,0.15098953,0.56817627,0.35577393,1.1873292,92.0
29872,0.06465244,-0.2958374,0.15098953,-0.16885987,0.27612305,0.89846194,92.0
29873,-0.04074669,0.21405792,0.37800598,-0.16885987,0.27612305,0.89846194,92.0
29874,-0.04074669,0.21405792,0.37800598,-1.0428956,0.12000733,0.043542482,92.0
29875,-0.3674116,0.2963791,0.4388275,-1.0428956,0.12000733,0.043542482,92.0
29876,-0.3674116,0.2963791,0.4388275,-0.72216797,0.21452637,0.24957275,92.0
29877,-0.87682724,-0.50470734,0.32632828,-0.72216797,0.21452637,0.24957275,92.0
29878,-0.87682724,-0.50470734,0.32632828,0.22514649,0.093457036,0.13168946,92.0
29879,-1.015048,-0.67406464,0.049713135,0.22514649,0.093457036,0.13168946,92.0
29880,-1.015048,-0.67406464,0.049713135,0.42374268,0.07752686,-0.015930176,92.0
29881,-0.5965967,0.072006226,-0.08013916,0.42374268,0.07752686,-0.015930176,92.0
29882,-0.5965967,0.072006226,-0.08013916,-0.07327881,0.078588866,0.060534667,92.0
29883,-0.280097,0.45864105,-0.044433594,-0.07327881,0.078588866,0.060534667,92.0
