,accx,accy,accz,gyrox,gyroy,gyroz,heart rate
32891,type,type,type,type,type,type,type
32892,0.55903506,0.29032898,-0.77648926,0.081774905,-0.2793091,-0.5501221,99.0
32893,0.55903506,0.29032898,-0.77648926,-0.2347046,-0.27506104,-0.5076416,99.0
32894,0.55903506,0.29032898,-0.77648926,-0.5150757,-0.23789063,-0.6435791,99.0
32895,0.43806052,0.3520584,-0.5453987,-0.5150757,-0.23789063,-0.6435791,99.0
32896,0.23107576,-0.014633179,-0.08489227,-0.5150757,-0.23789063,-0.6435791,99.0
32897,0.23107576,-0.014633179,-0.08489227,-0.48533937,-0.2166504,-0.73703617,99.0
32898,0.26926005,-0.5647583,0.20031357,-0.48533937,-0.2166504,-0.73703617,99.0
32899,0.26926005,-0.5647583,0.20031357,-0.18691407,-0.27506104,-0.7614624,99.0
32900,0.52635777,-0.7592392,0.17414093,-0.18691407,-0.27506104,-0.7614624,99.0
32901,0.52635777,-0.7592392,0.17414093,-0.14230958,-0.28355715,-0.88040775,99.0
32902,0.52635777,-0.7592392,0.17414093,-0.2527588,-0.22939454,-1.0503296,99.0
32903,0.76306623,-0.39704895,0.08722687,-0.2527588,-0.22939454,-1.0503296,99.0
32904,0.85535043,0.1209259,0.12271118,-0.2527588,-0.22939454,-1.0503296,99.0
32905,0.85535043,0.1209259,0.12271118,-0.24957275,-0.2177124,-1.2053833,99.0
32906,0.82677305,0.41918945,0.16785812,-0.24957275,-0.2177124,-1.2053833,99.0
32907,0.82677305,0.41918945,0.16785812,-0.27399904,-0.1996582,-1.2414917,99.0
32908,0.850481,0.50354004,0.030197144,-0.27399904,-0.1996582,-1.2414917,99.0
32909,0.850481,0.50354004,0.030197144,-0.45772704,-0.21346436,-1.1958252,99.0
32910,0.9655044,0.5448837,-0.11323547,-0.45772704,-0.21346436,-1.1958252,99.0
32911,0.9655044,0.5448837,-0.11323547,-0.7338501,-0.24107666,-1.1841431,99.0
32912,1.0500158,0.5486603,0.031188965,-0.7338501,-0.24107666,-1.1841431,99.0
32913,1.0500158,0.5486603,0.031188965,-0.8251831,-0.28674316,-1.2181275,99.0
32914,1.0413555,0.42092133,0.36306,-0.8251831,-0.28674316,-1.2181275,99.0
32915,1.0413555,0.42092133,0.36306,-0.63933104,-0.32178956,-1.263794,99.0
32916,0.9972446,0.17886353,0.47014618,-0.63933104,-0.32178956,-1.263794,99.0
32917,0.9972446,0.17886353,0.47014618,-0.3334717,-0.34940186,-1.2032593,99.0
32918,0.95645046,0.02406311,0.16796112,-0.3334717,-0.34940186,-1.2032593,99.0
32919,0.95645046,0.02406311,0.16796112,-0.10301514,-0.34833986,-1.1586548,99.0
32920,0.95645046,0.02406311,0.16796112,0.06903076,-0.30373535,-1.1522827,99.0
32921,0.8573723,0.1295166,-0.292305,0.06903076,-0.30373535,-1.1522827,99.0
32922,0.74638367,0.41497803,-0.63238907,0.06903076,-0.30373535,-1.1522827,99.0
32923,0.74638367,0.41497803,-0.63238907,0.2442627,-0.2782471,-1.0938721,99.0
32924,0.7620727,0.70861816,-0.8140526,0.2442627,-0.2782471,-1.0938721,99.0
32925,0.7620727,0.70861816,-0.8140526,0.25700685,-0.22727051,-1.0280274,99.0
32926,0.8811548,0.91430664,-0.8761444,0.25700685,-0.22727051,-1.0280274,99.0
32927,0.8811548,0.91430664,-0.8761444,0.040356446,-0.11682129,-1.0120972,99.0
32928,0.9694135,0.96528625,-0.877758,0.040356446,-0.11682129,-1.0120972,99.0
32929,0.9694135,0.96528625,-0.877758,-0.2538208,-0.012744141,-1.0439576,99.0
32930,0.9587951,0.8724289,-0.8358116,-0.2538208,-0.012744141,-1.0439576,99.0
32931,0.9587951,0.8724289,-0.8358116,-0.4725952,0.032922365,-1.0821899,99.0
32932,0.8745434,0.70697784,-0.72698593,-0.4725952,0.032922365,-1.0821899,99.0
32933,0.8745434,0.70697784,-0.72698593,-0.5246338,0.007434082,-1.1140503,99.0
32934,0.7492318,0.49494934,-0.58691025,-0.5246338,0.007434082,-1.1140503,99.0
32935,0.7492318,0.49494934,-0.58691025,-0.4619751,-0.083898924,-1.1161743,99.0
32936,0.59071827,0.34503174,-0.44181824,-0.4619751,-0.083898924,-1.1161743,99.0
32937,0.59071827,0.34503174,-0.44181824,-0.38232422,-0.18054199,-1.1161743,99.0
32938,0.43915176,0.41996765,-0.31944656,-0.38232422,-0.18054199,-1.1161743,99.0
32939,0.43915176,0.41996765,-0.31944656,-0.30373535,-0.26975098,-1.1066163,99.0
32940,0.34501028,0.6647568,-0.29458237,-0.30373535,-0.26975098,-1.1066163,99.0
32941,0.34501028,0.6647568,-0.29458237,-0.22939454,-0.33878174,-1.0821899,99.0
32942,0.3116405,0.90776825,-0.31246185,-0.22939454,-0.33878174,-1.0821899,99.0
32943,0.3116405,0.90776825,-0.31246185,-0.14761963,-0.3717041,-1.0630738,99.0
32944,0.306417,1.0814514,-0.3300972,-0.14761963,-0.3717041,-1.0630738,99.0
32945,0.306417,1.0814514,-0.3300972,-0.14761963,-0.3695801,-1.0343994,99.0
32946,0.306417,1.0814514,-0.3300972,-0.24213867,-0.31010744,-1.0099732,99.0
32947,0.31567812,1.1639786,-0.3428383,-0.24213867,-0.31010744,-1.0099732,99.0
32948,0.29740334,1.1709976,-0.31724167,-0.24213867,-0.31010744,-1.0099732,99.0
32949,0.29740334,1.1709976,-0.31724167,-0.3993164,-0.23045655,-0.97386473,99.0
32950,0.24530792,1.1349564,-0.2296257,-0.3993164,-0.23045655,-0.97386473,99.0
32951,0.24530792,1.1349564,-0.2296257,-0.47578126,-0.18903808,-0.91757816,99.0
32952,0.22033072,1.0414124,-0.11923218,-0.47578126,-0.18903808,-0.91757816,99.0
32953,0.22033072,1.0414124,-0.11923218,-0.4959595,-0.16992188,-0.8623535,99.0
32954,0.26925778,0.8610687,-0.034469604,-0.4959595,-0.16992188,-0.8623535,99.0
32955,0.26925778,0.8610687,-0.034469604,-0.44179687,-0.16673584,-0.8421753,99.0
32956,0.3616953,0.6715317,0.032009125,-0.44179687,-0.16673584,-0.8421753,99.0
32957,0.3616953,0.6715317,0.032009125,-0.35152587,-0.15823975,-0.80181885,99.0
32958,0.40101385,0.5358124,0.06248474,-0.35152587,-0.15823975,-0.80181885,99.0
32959,0.40101385,0.5358124,0.06248474,-0.22408448,-0.1539917,-0.76464844,99.0
32960,0.32917285,0.4508438,0.026634216,-0.22408448,-0.1539917,-0.76464844,99.0
32961,0.32917285,0.4508438,0.026634216,-0.09133301,-0.14124756,-0.7306641,99.0
32962,0.23057461,0.42772675,-0.07217407,-0.09133301,-0.14124756,-0.7306641,99.0
32963,0.23057461,0.42772675,-0.07217407,0.004248047,-0.10195313,-0.71579593,99.0
32964,0.17604923,0.46642303,-0.19348145,0.004248047,-0.10195313,-0.71579593,99.0
32965,0.17604923,0.46642303,-0.19348145,0.040356446,-0.0361084,-0.7126099,99.0
32966,0.15783167,0.5654526,-0.28349686,0.040356446,-0.0361084,-0.7126099,99.0
32967,0.15783167,0.5654526,-0.28349686,0.02442627,0.04460449,-0.7349121,99.0
32968,0.16112852,0.63329315,-0.32153702,0.02442627,0.04460449,-0.7349121,99.0
32969,0.16112852,0.63329315,-0.32153702,-0.022302246,0.1263794,-0.7614624,99.0
32970,0.18466473,0.6048279,-0.33048248,-0.022302246,0.1263794,-0.7614624,99.0
32971,0.18466473,0.6048279,-0.33048248,-0.093457036,0.21240234,-0.7688965,99.0
32972,0.18466473,0.6048279,-0.33048248,-0.093457036,0.21240234,-0.7688965,99.0
32973,0.18466473,0.6048279,-0.33048248,-0.3164795,0.3345337,-0.64782715,99.0
32974,0.34378862,0.5827637,-0.35790634,-0.3164795,0.3345337,-0.64782715,99.0
32975,0.5663762,0.51472473,-0.47104263,-0.3164795,0.3345337,-0.64782715,99.0
32976,0.5663762,0.51472473,-0.47104263,-0.5511841,0.46622315,-0.5671143,99.0
32977,0.60080624,0.48199463,-0.6832924,-0.5511841,0.46622315,-0.5671143,99.0
32978,0.60080624,0.48199463,-0.6832924,-0.56392825,0.5851685,-0.93563235,99.0
32979,0.43491745,0.4728546,-0.8873215,-0.56392825,0.5851685,-0.93563235,99.0
32980,0.43491745,0.4728546,-0.8873215,-0.8050049,0.69986576,-1.0397094,99.0
32981,0.18211365,0.33784485,-1.0648117,-0.8050049,0.69986576,-1.0397094,99.0
32982,0.18211365,0.33784485,-1.0648117,-0.9855469,0.77314454,-1.2064453,99.0
32983,-0.086889744,0.15024567,-1.2150574,-0.9855469,0.77314454,-1.2064453,99.0
32984,-0.086889744,0.15024567,-1.2150574,-1.1990112,0.8241211,-1.4039795,99.0
32985,-0.33154774,-0.005973816,-1.2166023,-1.1990112,0.8241211,-1.4039795,99.0
32986,-0.33154774,-0.005973816,-1.2166023,-1.445398,0.8782837,-1.6716064,99.0
32987,-0.47541904,-0.14250183,-0.9539223,-1.445398,0.8782837,-1.6716064,99.0
32988,-0.47541904,-0.14250183,-0.9539223,-1.6885986,0.9303223,-1.9710938,99.0
32989,-0.50568914,-0.22558594,-0.4046402,-1.6885986,0.9303223,-1.9710938,99.0
32990,-0.50568914,-0.22558594,-0.4046402,-1.9413575,1.0163453,-2.2801392,99.0
32991,-0.47225142,-0.3419876,0.28165817,-1.9413575,1.0163453,-2.2801392,99.0
32992,-0.47225142,-0.3419876,0.28165817,-2.2047365,1.177771,-2.5828125,99.0
32993,-0.51326275,-0.6739578,0.88111115,-2.2047365,1.177771,-2.5828125,99.0
32994,-0.51326275,-0.6739578,0.88111115,-2.4213867,1.2914063,-2.7739747,99.0
32995,-0.7235496,-1.0345917,1.295269,-2.4213867,1.2914063,-2.7739747,99.0
32996,-0.7235496,-1.0345917,1.295269,-2.4553711,1.3168945,-3.003369,99.0
32997,-0.9868109,-1.0653915,1.6071472,-2.4553711,1.3168945,-3.003369,99.0
32998,-0.9868109,-1.0653915,1.6071472,-2.3831544,1.3476928,-3.2954223,99.0
32999,-1.1551957,-0.92243195,1.8884544,-2.3831544,1.3476928,-3.2954223,99.0
33000,-1.1551957,-0.92243195,1.8884544,-2.3449218,1.4188477,-3.5460572,99.0
33001,-1.2224598,-0.90756226,2.1172714,-2.3449218,1.4188477,-3.5460572,99.0
33002,-1.2224598,-0.90756226,2.1172714,-2.4118288,1.4921265,-3.7542114,99.0
33003,-1.2650895,-1.0303879,2.2278137,-2.4118288,1.4921265,-3.7542114,99.0
33004,-1.2650895,-1.0303879,2.2278137,-2.4670532,1.536731,-3.9251955,99.0
33005,-1.3197987,-1.1083527,2.2428856,-2.4670532,1.536731,-3.9251955,99.0
33006,-1.3197987,-1.1083527,2.2428856,-2.3449218,1.5547851,-4.003784,99.0
33007,-1.369462,-0.9740448,2.2265701,-2.3449218,1.5547851,-4.003784,99.0
33008,-1.369462,-0.9740448,2.2265701,-2.2238526,1.6110718,-4.004846,99.0
33009,-1.4751717,-0.6281738,2.1515694,-2.2238526,1.6110718,-4.004846,99.0
33010,-1.4751717,-0.6281738,2.1515694,-2.2068603,1.6408081,-3.9697998,99.0
33011,-1.8891705,-0.62400055,2.0313263,-2.2068603,1.6408081,-3.9697998,99.0
33012,-1.8891705,-0.62400055,2.0313263,-2.0560548,1.6493043,-3.720227,99.0
33013,-2.1107993,-0.3399353,1.9095726,-2.0560548,1.6493043,-3.720227,99.0
33014,-2.1107993,-0.3399353,1.9095726,-1.9424194,1.6599244,-3.6819947,99.0
33015,-2.6077313,-0.113853455,1.5561142,-1.9424194,1.6599244,-3.6819947,99.0
33016,-2.6077313,-0.113853455,1.5561142,-1.531421,1.6461182,-3.5099487,99.0
33017,-2.6444125,0.070869446,1.3204155,-1.531421,1.6461182,-3.5099487,99.0
33018,-2.6444125,0.070869446,1.3204155,-1.4220337,1.6238159,-3.439856,99.0
33019,-2.8104887,0.15229034,0.628891,-1.4220337,1.6238159,-3.439856,99.0
33020,-2.8104887,0.15229034,0.628891,-1.0567017,1.4868164,-3.1594849,99.0
33021,-2.7329001,0.18994904,0.5307007,-1.0567017,1.4868164,-3.1594849,99.0
33022,-2.7329001,0.18994904,0.5307007,-0.88359374,1.4092896,-3.0522218,99.0
33023,-2.6443646,0.08005524,0.30109787,-0.88359374,1.4092896,-3.0522218,99.0
33024,-2.6443646,0.08005524,0.30109787,-0.35683593,1.1544068,-2.7060058,99.0
33025,-2.4668221,0.16688538,0.24910355,-0.35683593,1.1544068,-2.7060058,99.0
33026,-2.4668221,0.16688538,0.24910355,-0.23682861,1.0705079,-2.5796266,99.0
33027,-2.204317,0.36177063,-0.041168213,-0.23682861,1.0705079,-2.5796266,99.0
33028,-2.204317,0.36177063,-0.041168213,-0.026550293,0.8262451,-2.1866822,99.0
33029,-1.9907241,0.41700745,-0.06497955,-0.026550293,0.8262451,-2.1866822,99.0
33030,-1.9907241,0.41700745,-0.06497955,0.028674318,0.7582764,-2.0507448,99.0
33031,-1.521327,0.35375977,-0.033859253,0.028674318,0.7582764,-2.0507448,99.0
33032,-1.521327,0.35375977,-0.033859253,0.19222413,0.6000366,-1.629126,99.0
33033,-1.2975183,0.33060455,-0.0023918152,0.19222413,0.6000366,-1.629126,99.0
33034,-1.2975183,0.33060455,-0.0023918152,0.23364258,0.54375,-1.4868164,99.0
33035,-0.9633317,0.40924835,-0.007762909,0.23364258,0.54375,-1.4868164,99.0
33036,-0.9633317,0.40924835,-0.007762909,0.2548828,0.44498292,-1.2584839,99.0
33037,-0.66469574,0.679718,-0.10402298,0.2548828,0.44498292,-1.2584839,99.0
33038,-0.66469574,0.679718,-0.10402298,0.21240234,0.34727785,-1.0503296,99.0
33039,-0.3602233,0.9515381,-0.19497299,0.21240234,0.34727785,-1.0503296,99.0
33040,-0.3602233,0.9515381,-0.19497299,0.13275146,0.26868898,-0.8294312,99.0
33041,-0.10193586,1.144455,-0.29388428,0.13275146,0.26868898,-0.8294312,99.0
33042,-0.10193586,1.144455,-0.29388428,0.06478272,0.18054199,-0.6711914,99.0
33043,0.08778715,1.2496338,-0.4860344,0.06478272,0.18054199,-0.6711914,99.0
33044,0.08778715,1.2496338,-0.4860344,0.016992187,0.04460449,-0.65207523,99.0
33045,0.2642603,1.2917023,-0.73069763,0.016992187,0.04460449,-0.65207523,99.0
33046,0.2642603,1.2917023,-0.73069763,-0.03079834,-0.16354981,-0.79226077,99.0
33047,0.47024632,1.4640121,-0.9235687,-0.03079834,-0.16354981,-0.79226077,99.0
33048,0.47024632,1.4640121,-0.9235687,-0.23789063,-0.3695801,-0.9515625,99.0
33049,0.65680027,1.8323822,-1.0412598,-0.23789063,-0.3695801,-0.9515625,99.0
33050,0.65680027,1.8323822,-1.0412598,-0.72323,-0.5150757,-1.0269654,99.0
33051,0.73675585,2.0600204,-1.0976334,-0.72323,-0.5150757,-1.0269654,99.0
33052,0.73675585,2.0600204,-1.0976334,-1.2319336,-0.6425171,-1.1129884,99.0
33053,0.7547369,1.7474213,-1.075119,-1.2319336,-0.6425171,-1.1129884,99.0
33054,0.7547369,1.7474213,-1.075119,-1.4050416,-0.89208984,-1.2871583,99.0
33055,0.8062062,1.1144028,-0.9210205,-1.4050416,-0.89208984,-1.2871583,99.0
33056,0.8062062,1.1144028,-0.9210205,-1.2574219,-1.2043213,-1.5335449,99.0
33057,0.99786997,0.4357071,-0.545372,-1.2574219,-1.2043213,-1.5335449,99.0
33058,0.99786997,0.4357071,-0.545372,-1.0067872,-1.3753052,-1.6769165,99.0
33059,1.4380054,-0.3981018,-0.04977417,-1.0067872,-1.3753052,-1.6769165,99.0
33060,1.4380054,-0.3981018,-0.04977417,-0.541626,-1.4963745,-1.6928467,99.0
33061,2.0218644,-0.927269,0.11112213,-0.541626,-1.4963745,-1.6928467,99.0
33062,2.0218644,-0.927269,0.11112213,0.010620117,-1.8479004,-1.6960328,99.0
33063,2.4442859,-0.47992706,-0.19201279,0.010620117,-1.8479004,-1.6960328,99.0
33064,2.4442859,-0.47992706,-0.19201279,0.42692873,-2.1049073,-1.9296753,99.0
33065,2.7003994,0.5300827,-0.5209198,0.42692873,-2.1049073,-1.9296753,99.0
33066,2.7003994,0.5300827,-0.5209198,0.48533937,-2.2121704,-2.0284424,99.0
33067,2.8792648,0.79341125,-0.43331146,0.48533937,-2.2121704,-2.0284424,99.0
33068,2.8792648,0.79341125,-0.43331146,0.43117675,-2.156946,-2.0241945,99.0
33069,3.0548158,0.07366943,0.06781387,0.43117675,-2.156946,-2.0241945,99.0
33070,3.0548158,0.07366943,0.06781387,0.53737795,-2.1134033,-1.9094971,99.0
33071,3.1330128,-0.46788788,0.496109,0.53737795,-2.1134033,-1.9094971,99.0
33072,3.1330128,-0.46788788,0.496109,0.6064087,-2.1463258,-1.8808228,99.0
33073,3.1330128,-0.46788788,0.496109,0.6064087,-2.1463258,-1.8808228,100.0
33074,2.824843,-0.030227661,0.47542572,0.6064087,-2.1463258,-1.8808228,100.0
33075,2.824843,-0.030227661,0.47542572,0.40356445,-2.1548219,-1.8627685,100.0
33076,2.1972644,0.79709625,0.2786293,0.40356445,-2.1548219,-1.8627685,100.0
33077,2.1972644,0.79709625,0.2786293,0.0021240234,-2.0464966,-1.8903809,100.0
33078,1.7562246,1.1321259,0.24404907,0.0021240234,-2.0464966,-1.8903809,100.0
33079,1.7562246,1.1321259,0.24404907,-0.36533204,-1.8893188,-1.9413575,100.0
33080,1.6029167,0.9316788,0.28748703,-0.36533204,-1.8893188,-1.9413575,100.0
33081,1.6029167,0.9316788,0.28748703,-0.6531372,-1.7629395,-1.9434814,100.0
33082,1.3892915,0.6531906,0.25749207,-0.6531372,-1.7629395,-1.9434814,100.0
33083,1.3892915,0.6531906,0.25749207,-0.83686525,-1.6450561,-1.9392334,100.0
33084,1.0570753,0.5622711,0.028915405,-0.83686525,-1.6450561,-1.9392334,100.0
33085,1.0570753,0.5622711,0.028915405,-0.8326172,-1.5600952,-1.9339234,100.0
33086,1.0760801,0.5878296,-0.126194,-0.8326172,-1.5600952,-1.9339234,100.0
33087,1.0760801,0.5878296,-0.126194,-0.635083,-1.350879,-1.905249,100.0
33088,1.3073852,0.18154144,0.5431366,-0.635083,-1.350879,-1.905249,100.0
33089,1.3073852,0.18154144,0.5431366,-0.74871826,-1.0375855,-1.3530029,100.0
33090,0.93484855,-0.7656784,1.7018051,-0.74871826,-1.0375855,-1.3530029,100.0
33091,0.93484855,-0.7656784,1.7018051,-0.5076416,-0.72854006,-0.88996583,100.0
33092,0.07893348,-1.4401321,2.18853,-0.5076416,-0.72854006,-0.88996583,100.0
33093,0.07893348,-1.4401321,2.18853,-0.26337892,-0.45772704,-0.45772704,100.0
33094,-0.5184083,-1.0715866,1.564251,-0.26337892,-0.45772704,-0.45772704,100.0
33095,-0.5184083,-1.0715866,1.564251,0.0,-0.2357666,-0.15186767,100.0
33096,-0.55022454,-0.006500244,0.5347252,0.0,-0.2357666,-0.15186767,100.0
33097,-0.55022454,-0.006500244,0.5347252,-0.0063720704,-0.023364259,0.13912354,100.0
33098,-0.42619038,0.78157043,-0.023979187,-0.0063720704,-0.023364259,0.13912354,100.0
33099,-0.42619038,0.78157043,-0.023979187,-0.057348635,0.18585205,0.38657227,100.0
33100,-0.4716897,0.8695526,-0.113651276,-0.057348635,0.18585205,0.38657227,100.0
33101,-0.4716897,0.8695526,-0.113651276,0.025488282,0.44710693,0.53100586,100.0
33102,-0.6083088,0.516304,-0.0948143,0.025488282,0.44710693,0.53100586,100.0
33103,-0.6083088,0.516304,-0.0948143,0.1359375,0.6287109,0.6637573,100.0
33104,-0.6968522,0.24498749,-0.2801361,0.1359375,0.6287109,0.6637573,100.0
33105,-0.6968522,0.24498749,-0.2801361,0.19541016,0.7338501,0.7306641,100.0
33106,-0.7007923,0.27485657,-0.70443344,0.19541016,0.7338501,0.7306641,100.0
33107,-0.7007923,0.27485657,-0.70443344,0.20709229,0.7848267,0.721106,100.0
33108,-0.6272843,0.49829102,-1.194725,0.20709229,0.7848267,0.721106,100.0
33109,-0.6272843,0.49829102,-1.194725,0.27293703,0.7678345,0.61702883,100.0
33110,-0.3661828,0.72611237,-1.6302681,0.27293703,0.7678345,0.61702883,100.0
33111,-0.3661828,0.72611237,-1.6302681,0.41206056,0.7965088,0.47578126,100.0
33112,-0.061928272,0.71320343,-1.8566666,0.41206056,0.7965088,0.47578126,100.0
33113,-0.061928272,0.71320343,-1.8566666,0.57242435,0.85598147,0.50233155,100.0
33114,-4.7039986E-4,0.39362335,-1.7677422,0.57242435,0.85598147,0.50233155,100.0
33115,-4.7039986E-4,0.39362335,-1.7677422,0.6881836,0.9345703,0.6265869,100.0
33116,-0.15445352,0.038887024,-1.3718567,0.6881836,0.9345703,0.6265869,100.0
33117,-0.15445352,0.038887024,-1.3718567,0.727478,1.1023682,0.73597413,100.0
33118,-0.32383132,-0.045967102,-0.74586487,0.727478,1.1023682,0.73597413,100.0
33119,-0.32383132,-0.045967102,-0.74586487,0.6903076,1.2287476,0.8358032,100.0
33120,-0.44479513,0.21554565,-0.13297272,0.6903076,1.2287476,0.8358032,100.0
33121,-0.44479513,0.21554565,-0.13297272,0.5363159,1.2860962,0.90802,100.0
33122,-0.56525993,0.56333923,0.27285767,0.5363159,1.2860962,0.90802,100.0
33123,-0.56525993,0.56333923,0.27285767,0.25594482,1.3190186,0.99298096,100.0
33124,-0.69709325,0.63941956,0.51776123,0.25594482,1.3190186,0.99298096,100.0
33125,-0.69709325,0.63941956,0.51776123,-0.03079834,1.3763672,1.0981201,100.0
33126,-0.72965944,0.42606354,0.61016846,-0.03079834,1.3763672,1.0981201,100.0
33127,-0.72965944,0.42606354,0.61016846,-0.31223145,1.4592041,1.1724609,100.0
33128,-0.67849076,0.08332062,0.56357574,-0.31223145,1.4592041,1.1724609,100.0
33129,-0.67849076,0.08332062,0.56357574,-0.4609131,1.6025757,1.2425537,100.0
33130,-0.72837615,-0.18665314,0.48686218,-0.4609131,1.6025757,1.2425537,100.0
33131,-0.72837615,-0.18665314,0.48686218,-0.4088745,1.6885986,1.2956543,100.0
33132,-0.87684155,-0.24276733,0.45018387,-0.4088745,1.6885986,1.2956543,100.0
33133,-0.87684155,-0.24276733,0.45018387,-0.29099122,1.7278931,1.2722901,100.0
33134,-1.0028648,-0.19238281,0.48750305,-0.29099122,1.7278931,1.2722901,100.0
33135,-1.0028648,-0.19238281,0.48750305,-0.18691407,1.720459,1.2510499,100.0
33136,-1.024765,-0.20955658,0.53365326,-0.18691407,1.720459,1.2510499,100.0
33137,-1.024765,-0.20955658,0.53365326,-0.07540283,1.6461182,1.1565307,100.0
33138,-0.93720704,-0.2718811,0.51016235,-0.07540283,1.6461182,1.1565307,100.0
33139,-0.93720704,-0.2718811,0.51016235,0.023364259,1.6195679,1.0227174,100.0
33140,-0.84539557,-0.2383194,0.47660065,0.023364259,1.6195679,1.0227174,100.0
33141,-0.84539557,-0.2383194,0.47660065,-0.014868164,1.6057618,0.92926025,100.0
33142,-0.9422833,-0.048454285,0.5003967,-0.014868164,1.6057618,0.92926025,100.0
33143,-0.9422833,-0.048454285,0.5003967,-0.25700685,1.5569092,0.8464233,100.0
33144,-1.2431698,0.14020538,0.4978485,-0.25700685,1.5569092,0.8464233,100.0
33145,-1.2431698,0.14020538,0.4978485,-0.5299439,1.4114136,0.78164065,100.0
33146,-1.6063035,0.06523132,0.397377,-0.5299439,1.4114136,0.78164065,100.0
33147,-1.6063035,0.06523132,0.397377,-0.6414551,1.2584839,0.73809814,100.0
33148,-1.940475,-0.27064514,0.3053627,-0.6414551,1.2584839,0.73809814,100.0
33149,-1.940475,-0.27064514,0.3053627,-0.49489745,1.1501588,0.6775635,100.0
33150,-2.2893796,-0.6568985,0.37303925,-0.49489745,1.1501588,0.6775635,100.0
33151,-2.2893796,-0.6568985,0.37303925,-0.25700685,0.9802368,0.5936646,100.0
33152,-2.641782,-0.8825531,0.5192795,-0.25700685,0.9802368,0.5936646,100.0
33153,-2.641782,-0.8825531,0.5192795,0.009558106,0.83049315,0.40462646,100.0
33154,-2.8185282,-0.85076904,0.5589905,0.009558106,0.83049315,0.40462646,100.0
33155,-2.8185282,-0.85076904,0.5589905,0.17416993,0.6924316,0.1529297,100.0
33156,-2.653614,-0.6062622,0.46253967,0.17416993,0.6924316,0.1529297,100.0
33157,-2.653614,-0.6062622,0.46253967,0.12850343,0.62977296,-0.03186035,100.0
33158,-2.240982,-0.5175781,0.33006668,0.12850343,0.62977296,-0.03186035,100.0
33159,-2.240982,-0.5175781,0.33006668,0.02442627,0.68074954,-0.09664307,100.0
33160,-1.7626829,-0.7706299,0.19321442,0.02442627,0.68074954,-0.09664307,100.0
33161,-1.7626829,-0.7706299,0.19321442,0.16036378,0.57454836,-0.052038576,100.0
33162,-1.2905054,-0.8339615,-0.04181671,0.16036378,0.57454836,-0.052038576,100.0
33163,-1.2905054,-0.8339615,-0.04181671,0.35046387,0.42055663,0.0,100.0
33164,-0.92062473,-0.45079803,-0.27715302,0.35046387,0.42055663,0.0,100.0
33165,-0.92062473,-0.45079803,-0.27715302,0.41206056,0.3462158,0.12956543,100.0
33166,-0.71296453,-0.038017273,-0.327034,0.41206056,0.3462158,0.12956543,100.0
33167,-0.71296453,-0.038017273,-0.327034,0.55543214,0.3419678,0.3154175,100.0
33168,-0.55020523,0.11785126,-0.25898743,0.55543214,0.3419678,0.3154175,100.0
33169,-0.55020523,0.11785126,-0.25898743,0.8421753,0.24001466,0.5129517,100.0
33170,-0.27272034,0.16533661,-0.18491364,0.8421753,0.24001466,0.5129517,100.0
33171,-0.27272034,0.16533661,-0.18491364,1.2287476,0.16992188,0.60959476,100.0
33172,0.18182373,0.21737671,-0.066352844,1.2287476,0.16992188,0.60959476,100.0
33173,0.18182373,0.21737671,-0.066352844,1.6365601,0.17523193,0.6701294,100.0
33174,0.78189707,0.2301712,0.06837845,1.6365601,0.17523193,0.6701294,100.0
33175,0.78189707,0.2301712,0.06837845,1.905249,0.19116211,0.7540283,100.0
33176,1.3968801,0.32432556,0.03679657,1.905249,0.19116211,0.7540283,100.0
33177,1.3968801,0.32432556,0.03679657,1.9572877,0.14337158,0.8326172,100.0
33178,1.7983632,0.6742554,-0.1655693,1.9572877,0.14337158,0.8326172,100.0
33179,1.7983632,0.6742554,-0.1655693,1.6439942,0.23789063,1.0036011,100.0
33180,1.8526921,1.225853,-0.25201035,1.6439942,0.23789063,1.0036011,100.0
33181,1.8526921,1.225853,-0.25201035,1.0938721,0.41099855,1.170337,100.0
33182,1.7018561,1.5393982,-0.11994171,1.0938721,0.41099855,1.170337,100.0
33183,1.7018561,1.5393982,-0.11994171,1.0938721,0.41099855,1.170337,100.0
33184,1.7018561,1.5393982,-0.11994171,0.5533081,0.6223389,1.3041505,100.0
33185,1.5462992,1.2259521,0.12262344,0.5533081,0.6223389,1.3041505,100.0
33186,1.5462992,1.2259521,0.12262344,0.19753419,0.7699585,1.5261109,100.0
33187,1.3455598,0.47566986,0.32728577,0.19753419,0.7699585,1.5261109,100.0
33188,1.3455598,0.47566986,0.32728577,0.14974366,0.7858887,1.7055908,100.0
33189,0.9321606,-0.20010376,0.40579987,0.14974366,0.7858887,1.7055908,100.0
33190,0.9321606,-0.20010376,0.40579987,0.28674316,0.7582764,1.8670167,100.0
33191,0.29683948,-0.4322586,0.36960983,0.28674316,0.7582764,1.8670167,100.0
33192,0.29683948,-0.4322586,0.36960983,0.36745605,0.6403931,1.899939,100.0
33193,-0.25703526,-0.44680786,0.23528671,0.36745605,0.6403931,1.899939,100.0
33194,-0.25703526,-0.44680786,0.23528671,0.42905274,0.55543214,1.8043579,100.0
33195,-0.39534998,-0.5818634,0.16314316,0.42905274,0.55543214,1.8043579,100.0
33196,-0.39534998,-0.5818634,0.16314316,0.50233155,0.43967286,1.6705445,100.0
33197,-0.2804036,-0.45117188,0.17404175,0.50233155,0.43967286,1.6705445,100.0
33198,-0.2804036,-0.45117188,0.17404175,0.24638672,0.32709962,1.5515991,100.0
33199,-0.3217106,-0.13233948,0.12137604,0.24638672,0.32709962,1.5515991,100.0
33200,-0.3217106,-0.13233948,0.12137604,-0.15505372,0.42055663,1.3838013,100.0
33201,-0.5789871,-0.31184387,0.07410431,-0.15505372,0.42055663,1.3838013,100.0
33202,-0.5789871,-0.31184387,0.07410431,-0.23045655,0.37489015,1.1724609,100.0
33203,-0.8920715,-0.6060028,0.14840698,-0.23045655,0.37489015,1.1724609,100.0
33204,-0.8920715,-0.6060028,0.14840698,-0.29948732,0.2442627,0.84748536,100.0
33205,-1.147263,-0.38476562,0.2742424,-0.29948732,0.2442627,0.84748536,100.0
33206,-1.147263,-0.38476562,0.2742424,-0.6924316,0.16567384,0.5883545,100.0
33207,-1.3178349,-0.14283752,0.3052597,-0.6924316,0.16567384,0.5883545,100.0
33208,-1.3178349,-0.14283752,0.3052597,-1.1459106,0.1901001,0.47471926,100.0
33209,-1.4113722,-0.3587494,0.19473267,-1.1459106,0.1901001,0.47471926,100.0
33210,-1.4113722,-0.3587494,0.19473267,-1.1979493,0.20921631,0.48746338,100.0
33211,-1.326644,-0.63134766,0.04515457,-1.1979493,0.20921631,0.48746338,100.0
33212,-1.326644,-0.63134766,0.04515457,-0.998291,0.1539917,0.53525394,100.0
33213,-1.0140004,-0.37751007,-0.0644989,-0.998291,0.1539917,0.53525394,100.0
33214,-1.0140004,-0.37751007,-0.0644989,-0.8400513,0.08496094,0.61702883,100.0
33215,-0.72211313,0.09400177,-0.12943268,-0.8400513,0.08496094,0.61702883,100.0
33216,-0.72211313,0.09400177,-0.12943268,-0.7827026,0.07965088,0.66588134,100.0
33217,-0.60431385,-0.0027618408,-0.102508545,-0.7827026,0.07965088,0.66588134,100.0
33218,-0.60431385,-0.0027618408,-0.102508545,-0.6573853,0.093457036,0.8050049,100.0
33219,-0.41033077,-0.7184906,0.15374756,-0.6573853,0.093457036,0.8050049,100.0
33220,-0.41033077,-0.7184906,0.15374756,-0.4248047,0.16036378,0.92076415,100.0
33221,-0.1429739,-1.0694962,0.42494202,-0.4248047,0.16036378,0.92076415,100.0
33222,-0.1429739,-1.0694962,0.42494202,-0.26337892,0.093457036,0.98448485,100.0
33223,-0.23250675,-0.6678772,0.27778244,-0.26337892,0.093457036,0.98448485,100.0
33224,-0.23250675,-0.6678772,0.27778244,-0.12213135,0.06159668,0.9876709,100.0
33225,-0.6462717,-0.052505493,-0.03944397,-0.12213135,0.06159668,0.9876709,100.0
33226,-0.6462717,-0.052505493,-0.03944397,0.059472658,0.087084964,0.8496094,100.0
33227,-0.8096442,0.24521637,0.06644058,0.059472658,0.087084964,0.8496094,100.0
33228,-0.8096442,0.24521637,0.06644058,0.070092775,0.18585205,0.54906005,100.0
33229,-0.55287933,0.2537918,0.35011292,0.070092775,0.18585205,0.54906005,100.0
33230,-0.55287933,0.2537918,0.35011292,-0.07327881,0.26975098,0.30267334,100.0
33231,-0.33294058,0.36058807,0.26185226,-0.07327881,0.26975098,0.30267334,100.0
33232,-0.33294058,0.36058807,0.26185226,-0.1901001,0.31860352,0.11257324,100.0
33233,-0.302351,0.4216385,-0.030654907,-0.1901001,0.31860352,0.11257324,100.0
33234,-0.302351,0.4216385,-0.030654907,-0.16354981,0.2347046,-0.087084964,100.0
33235,-0.28555727,0.26517487,-0.114868164,-0.16354981,0.2347046,-0.087084964,100.0
33236,-0.28555727,0.26517487,-0.114868164,-0.13912354,0.13062744,-0.22302246,100.0
33237,-0.2530794,-0.028289795,0.077747345,-0.13912354,0.13062744,-0.22302246,100.0
33238,-0.2530794,-0.028289795,0.077747345,-0.19434814,0.052038576,-0.2984253,100.0
33239,-0.21019077,-0.3572998,0.24433899,-0.19434814,0.052038576,-0.2984253,100.0
33240,-0.21019077,-0.3572998,0.24433899,-0.12319336,-0.06159668,-0.26550293,100.0
33241,-0.11248875,-0.53362274,0.16001129,-0.12319336,-0.06159668,-0.26550293,100.0
33242,-0.11248875,-0.53362274,0.16001129,-0.014868164,-0.10089111,-0.18479005,100.0
33243,0.042064667,-0.43029022,-0.052326202,-0.014868164,-0.10089111,-0.18479005,100.0
33244,0.042064667,-0.43029022,-0.052326202,0.13062744,-0.20072022,-0.007434082,100.0
33245,0.1766572,0.057929993,-0.16809464,0.13062744,-0.20072022,-0.007434082,100.0
33246,0.1766572,0.057929993,-0.16809464,0.09664307,-0.23895264,0.047790527,100.0
33247,0.2966361,0.61486053,-0.11310196,0.09664307,-0.23895264,0.047790527,100.0
33248,0.2966361,0.61486053,-0.11310196,-0.07752686,-0.2357666,-0.0021240234,100.0
33249,0.37772655,0.66362,-0.043376923,-0.07752686,-0.2357666,-0.0021240234,100.0
33250,0.37772655,0.66362,-0.043376923,-0.22408448,-0.124255374,-0.053100586,100.0
33251,0.3307824,0.19126892,-0.100753784,-0.22408448,-0.124255374,-0.053100586,100.0
33252,0.3307824,0.19126892,-0.100753784,-0.11363526,-0.08920898,-0.059472658,100.0
33253,0.17199898,-0.29278564,-0.16262436,-0.11363526,-0.08920898,-0.059472658,100.0
33254,0.17199898,-0.29278564,-0.16262436,0.05522461,-0.0361084,-0.078588866,100.0
33255,0.05191803,-0.3931427,-0.12901306,0.05522461,-0.0361084,-0.078588866,100.0
33256,0.05191803,-0.3931427,-0.12901306,0.16673584,0.059472658,-0.11257324,100.0
33257,-0.008331299,-0.171669,-0.03792572,0.16673584,0.059472658,-0.11257324,100.0
33258,-0.008331299,-0.171669,-0.03792572,0.18372802,0.12850343,-0.15717773,100.0
33259,-0.12042236,0.04660034,-0.059501648,0.18372802,0.12850343,-0.15717773,100.0
33260,-0.12042236,0.04660034,-0.059501648,0.25913087,0.14124756,-0.23789063,100.0
33261,-0.19400644,0.13647461,-0.09551239,0.25913087,0.14124756,-0.23789063,100.0
33262,-0.19400644,0.13647461,-0.09551239,0.36427003,0.11044922,-0.24001466,100.0
33263,-0.16384792,0.33805847,0.060173035,0.36427003,0.11044922,-0.24001466,100.0
33264,-0.16384792,0.33805847,0.060173035,0.26337892,0.10407715,-0.28674316,100.0
33265,-0.1072135,0.47696686,0.24767685,0.26337892,0.10407715,-0.28674316,100.0
33266,-0.1072135,0.47696686,0.24767685,0.07646485,0.16567384,-0.32285157,100.0
33267,-0.08955526,0.23350525,0.26385117,0.07646485,0.16567384,-0.32285157,100.0
33268,-0.08955526,0.23350525,0.26385117,0.045666505,0.13487549,-0.28355715,100.0
33269,-0.13437605,-0.001953125,0.07859802,0.045666505,0.13487549,-0.28355715,100.0
33270,-0.13437605,-0.001953125,0.07859802,0.13062744,0.052038576,-0.21558838,100.0
33271,-0.13428307,0.08748627,-0.034362793,0.13062744,0.052038576,-0.21558838,100.0
33272,-0.13428307,0.08748627,-0.034362793,0.09770508,0.012744141,-0.15823975,100.0
33273,-0.05946493,0.24203491,0.022277832,0.09770508,0.012744141,-0.15823975,100.0
33274,-0.05946493,0.24203491,0.022277832,0.0031860352,-0.009558106,-0.08283692,100.0
33275,-0.031092167,0.20465088,-0.04471588,0.0031860352,-0.009558106,-0.08283692,100.0
33276,-0.031092167,0.20465088,-0.04471588,0.0031860352,-0.009558106,-0.08283692,100.0
33277,-0.031092167,0.20465088,-0.04471588,0.03717041,-0.09133301,-0.021240234,100.0
33278,-0.06349659,0.10836029,-0.2513008,0.03717041,-0.09133301,-0.021240234,100.0
33279,-0.06349659,0.10836029,-0.2513008,0.19434814,-0.15823975,0.028674318,100.0
33280,-0.0146279335,0.12932587,-0.28326797,0.19434814,-0.15823975,0.028674318,100.0
33281,-0.0146279335,0.12932587,-0.28326797,0.23151855,-0.16992188,0.058410645,100.0
33282,0.116288185,0.2362976,-0.07372284,0.23151855,-0.16992188,0.058410645,100.0
33283,0.116288185,0.2362976,-0.07372284,0.16567384,-0.1359375,0.060534667,100.0
33284,0.22752762,0.1899643,0.20365524,0.16567384,-0.1359375,0.060534667,100.0
33285,0.22752762,0.1899643,0.20365524,0.07115479,-0.023364259,0.060534667,100.0
33286,0.21355295,0.058685303,0.22996521,0.07115479,-0.023364259,0.060534667,100.0
33287,0.21355295,0.058685303,0.22996521,0.050976563,0.010620117,0.0722168,100.0
33288,0.05629158,0.08880615,-0.0028076172,0.050976563,0.010620117,0.0722168,100.0
33289,0.05629158,0.08880615,-0.0028076172,0.093457036,-0.007434082,0.0541626,100.0
33290,-0.08262777,0.19315338,-0.16539383,0.093457036,-0.007434082,0.0541626,100.0
33291,-0.08262777,0.19315338,-0.16539383,0.11151123,-0.029736329,0.014868164,100.0
33292,-0.10019636,0.23753357,-0.1522522,0.11151123,-0.029736329,0.014868164,100.0
33293,-0.10019636,0.23753357,-0.1522522,0.12000733,-0.04885254,-0.02442627,100.0
33294,-0.038652897,0.17263031,-0.087135315,0.12000733,-0.04885254,-0.02442627,100.0
33295,-0.038652897,0.17263031,-0.087135315,0.15717773,-0.0637207,-0.038232423,100.0
33296,0.020151615,0.17141724,-0.012580872,0.15717773,-0.0637207,-0.038232423,100.0
33297,0.020151615,0.17141724,-0.012580872,0.1709839,-0.059472658,-0.07115479,100.0
33298,0.02514267,0.29595947,0.07034302,0.1709839,-0.059472658,-0.07115479,100.0
33299,0.02514267,0.29595947,0.07034302,0.046728518,-0.038232423,-0.121069334,100.0
33300,-0.027444363,0.29985046,0.024497986,0.046728518,-0.038232423,-0.121069334,100.0
33301,-0.027444363,0.29985046,0.024497986,0.027612304,-0.04248047,-0.17947999,100.0
33302,-0.028278828,0.109703064,-0.022018433,0.027612304,-0.04248047,-0.17947999,100.0
33303,-0.028278828,0.109703064,-0.022018433,0.07965088,-0.05628662,-0.19222413,100.0
33304,0.025887966,-0.035003662,0.008228302,0.07965088,-0.05628662,-0.19222413,100.0
33305,0.025887966,-0.035003662,0.008228302,0.023364259,-0.10089111,-0.16461182,100.0
33306,0.06267834,7.324219E-4,-0.05248642,0.023364259,-0.10089111,-0.16461182,100.0
33307,0.06267834,7.324219E-4,-0.05248642,0.12531738,-0.115759276,-0.14761963,100.0
33308,0.119356155,-0.043556213,-0.07801056,0.12531738,-0.115759276,-0.14761963,100.0
33309,0.119356155,-0.043556213,-0.07801056,0.21346436,-0.13806152,-0.08071289,100.0
33310,0.2135024,-0.11431122,0.048675537,0.21346436,-0.13806152,-0.08071289,100.0
33311,0.2135024,-0.11431122,0.048675537,0.25594482,-0.13062744,-0.03186035,100.0
33312,0.2698617,0.18096161,0.14521408,0.25594482,-0.13062744,-0.03186035,100.0
33313,0.2698617,0.18096161,0.14521408,0.08920898,-0.04885254,-0.011682129,100.0
33314,0.2022419,0.45781708,0.061569214,0.08920898,-0.04885254,-0.011682129,100.0
33315,0.2022419,0.45781708,0.061569214,-0.021240234,-0.046728518,0.013806152,100.0
33316,0.09414196,0.41236877,-0.11191559,-0.021240234,-0.046728518,0.013806152,100.0
33317,0.09414196,0.41236877,-0.11191559,0.04460449,-0.06690674,0.0010620117,100.0
33318,0.0864954,0.28193665,-0.10444641,0.04460449,-0.06690674,0.0010620117,100.0
33319,0.0864954,0.28193665,-0.10444641,-0.004248047,-0.019116212,-0.022302246,100.0
33320,0.1151433,0.16929626,-0.009780884,-0.004248047,-0.019116212,-0.022302246,100.0
33321,0.1151433,0.16929626,-0.009780884,-0.10620117,0.03186035,-0.021240234,100.0
33322,0.072607994,0.09790039,-0.013504028,-0.10620117,0.03186035,-0.021240234,100.0
33323,0.072607994,0.09790039,-0.013504028,-0.118945315,0.04248047,-0.02442627,100.0
33324,-0.016095638,-0.064888,-0.042053223,-0.118945315,0.04248047,-0.02442627,100.0
33325,-0.016095638,-0.064888,-0.042053223,-0.05628662,0.087084964,-0.0541626,100.0
33326,-0.083286285,-0.15123749,-0.089099884,-0.05628662,0.087084964,-0.0541626,100.0
33327,-0.083286285,-0.15123749,-0.089099884,0.013806152,0.083898924,-0.098767094,100.0
33328,-0.08705139,-0.03716278,-0.17514801,0.013806152,0.083898924,-0.098767094,100.0
33329,-0.08705139,-0.03716278,-0.17514801,0.07540283,0.07965088,-0.12319336,100.0
33330,0.0025024414,-0.036209106,-0.16505814,0.07540283,0.07965088,-0.12319336,100.0
33331,0.0025024414,-0.036209106,-0.16505814,0.16885987,0.118945315,-0.10938721,100.0
33332,0.07152128,-0.13893127,-0.0014343262,0.16885987,0.118945315,-0.10938721,100.0
33333,0.07152128,-0.13893127,-0.0014343262,0.2516968,0.15611573,-0.06265869,100.0
33334,0.0072169304,-0.02394867,0.17525482,0.2516968,0.15611573,-0.06265869,100.0
33335,0.0072169304,-0.02394867,0.17525482,0.20603028,0.22514649,-0.0637207,100.0
33336,-0.14715624,0.3964157,0.25979614,0.20603028,0.22514649,-0.0637207,100.0
33337,-0.14715624,0.3964157,0.25979614,-0.026550293,0.32497558,-0.1274414,100.0
33338,-0.28123808,0.5902176,0.24389648,-0.026550293,0.32497558,-0.1274414,100.0
33339,-0.28123808,0.5902176,0.24389648,-0.2442627,0.40144044,-0.16142578,100.0
33340,-0.38435316,0.3391571,0.11647797,-0.2442627,0.40144044,-0.16142578,100.0
33341,-0.38435316,0.3391571,0.11647797,-0.32497558,0.37595215,-0.15717773,100.0
33342,-0.48095703,-0.075927734,-0.019184113,-0.32497558,0.37595215,-0.15717773,100.0
33343,-0.48095703,-0.075927734,-0.019184113,-0.28461915,0.32178956,-0.13806152,100.0
33344,-0.50754404,-0.399086,-0.057632446,-0.28461915,0.32178956,-0.13806152,100.0
33345,-0.50754404,-0.399086,-0.057632446,-0.23045655,0.23151855,-0.107263185,100.0
33346,-0.45680428,-0.4008484,-0.019580841,-0.23045655,0.23151855,-0.107263185,100.0
33347,-0.45680428,-0.4008484,-0.019580841,-0.23682861,0.16779785,-0.09133301,100.0
33348,-0.39017487,-0.32398987,0.03274536,-0.23682861,0.16779785,-0.09133301,100.0
33349,-0.39017487,-0.32398987,0.03274536,-0.26868898,0.083898924,-0.06159668,100.0
33350,-0.2876892,-0.38307953,-0.0044555664,-0.26868898,0.083898924,-0.06159668,100.0
33351,-0.2876892,-0.38307953,-0.0044555664,-0.07965088,0.026550293,-0.016992187,100.0
33352,-0.164258,-0.37265015,-0.033325195,-0.07965088,0.026550293,-0.016992187,100.0
33353,-0.164258,-0.37265015,-0.033325195,-0.014868164,-0.0010620117,-0.0063720704,100.0
33354,-0.06650162,-0.1295166,0.078113556,-0.014868164,-0.0010620117,-0.0063720704,100.0
33355,-0.06650162,-0.1295166,0.078113556,-0.08602295,0.013806152,-0.057348635,100.0
33356,0.07317829,0.08908844,0.2337799,-0.08602295,0.013806152,-0.057348635,100.0
33357,0.07317829,0.08908844,0.2337799,-0.3069214,0.13487549,-0.1709839,100.0
33358,0.31864977,0.0689621,0.31176758,-0.3069214,0.13487549,-0.1709839,100.0
33359,0.31864977,0.0689621,0.31176758,-0.40993652,0.5766724,-0.2814331,100.0
33360,0.28397226,-0.12871552,0.22298431,-0.40993652,0.5766724,-0.2814331,100.0
33361,0.28397226,-0.12871552,0.22298431,-0.57454836,0.88040775,-0.4364868,100.0
33362,-0.19910431,-0.52783966,0.074287415,-0.57454836,0.88040775,-0.4364868,100.0
33363,-0.19910431,-0.52783966,0.074287415,-0.24957275,1.0513916,-0.5363159,100.0
33364,-0.69434166,-0.5219803,0.12071991,-0.24957275,1.0513916,-0.5363159,100.0
33365,-0.69434166,-0.5219803,0.12071991,-0.10938721,1.1129884,-0.72004396,100.0
33366,-1.0355268,0.1434021,0.024848938,-0.10938721,1.1129884,-0.72004396,100.0
33367,-1.0355268,0.1434021,0.024848938,-0.010620117,1.0057251,-0.86978763,100.0
33368,-1.3048005,0.87259674,-0.39653015,-0.010620117,1.0057251,-0.86978763,100.0
33369,-1.3048005,0.87259674,-0.39653015,-0.107263185,0.74022216,-0.9218262,100.0
33370,-1.444231,0.8991852,-0.6012573,-0.107263185,0.74022216,-0.9218262,100.0
33371,-1.444231,0.8991852,-0.6012573,-0.7614624,0.5171997,-0.89846194,100.0
33372,-1.4008799,-1.0844116,-0.53476715,-0.7614624,0.5171997,-0.89846194,100.0
33373,-1.4008799,-1.0844116,-0.53476715,-0.84111327,0.49277344,-0.3079834,100.0
33374,-1.0656748,-3.3981323,-0.2545128,-0.84111327,0.49277344,-0.3079834,100.0
33375,-1.0656748,-3.3981323,-0.2545128,0.5278198,0.007434082,0.13168946,100.0
33376,-0.65518856,-2.464035,0.19337463,0.5278198,0.007434082,0.13168946,100.0
33377,-0.65518856,-2.464035,0.19337463,0.7604004,-0.17735596,0.053100586,100.0
33378,-0.43209743,0.385437,0.15057373,0.7604004,-0.17735596,0.053100586,100.0
33379,-0.43209743,0.385437,0.15057373,0.2527588,-0.115759276,0.033984374,100.0
33380,-0.23791409,1.7228012,-0.37892914,0.2527588,-0.115759276,0.033984374,100.0
33381,-0.23791409,1.7228012,-0.37892914,0.17629395,-0.16248779,-0.06584473,100.0
33382,0.014392853,1.4364929,-0.56425095,0.17629395,-0.16248779,-0.06584473,100.0
33383,0.014392853,1.4364929,-0.56425095,0.21983643,-0.18160401,-0.18054199,100.0
33384,0.10975647,0.60302734,-0.0075645447,0.21983643,-0.18160401,-0.18054199,100.0
33385,0.10975647,0.60302734,-0.0075645447,0.1359375,-0.08071289,-0.23682861,100.0
33386,0.044995308,-0.044761658,0.7143593,0.1359375,-0.08071289,-0.23682861,100.0
33387,0.044995308,-0.044761658,0.7143593,-0.14974366,0.06796875,-0.22939454,100.0
33388,0.044995308,-0.044761658,0.7143593,-0.14974366,0.06796875,-0.22939454,100.0
33389,-0.011122704,-0.4141922,0.76794815,-0.14974366,0.06796875,-0.22939454,100.0
33390,-0.011122704,-0.4141922,0.76794815,-0.06796875,0.13806152,-0.16992188,100.0
33391,-0.20447922,-0.43655396,0.12245178,-0.06796875,0.13806152,-0.16992188,100.0
33392,-0.20447922,-0.43655396,0.12245178,0.07752686,-0.043542482,-0.070092775,100.0
33393,-0.49562645,0.14964294,-0.6075058,0.07752686,-0.043542482,-0.070092775,100.0
33394,-0.49562645,0.14964294,-0.6075058,0.107263185,-0.10513916,-0.14655761,100.0
33395,-0.31210136,0.58587646,-0.6101761,0.107263185,-0.10513916,-0.14655761,100.0
33396,-0.31210136,0.58587646,-0.6101761,0.16036378,0.028674318,-0.21346436,100.0
33397,0.16425896,0.23736572,0.21975708,0.16036378,0.028674318,-0.21346436,100.0
33398,0.16425896,0.23736572,0.21975708,-0.22727051,0.107263185,-0.19222413,100.0
33399,0.17662144,-0.33441162,0.5899544,-0.22727051,0.107263185,-0.19222413,100.0
33400,0.17662144,-0.33441162,0.5899544,-0.18479005,0.07646485,-0.13806152,100.0
33401,-0.16500187,-0.7060089,0.056228638,-0.18479005,0.07646485,-0.13806152,100.0
33402,-0.16500187,-0.7060089,0.056228638,0.33878174,-0.083898924,0.02442627,100.0
33403,-0.25025082,-0.4868927,-0.38746643,0.33878174,-0.083898924,0.02442627,100.0
33404,-0.25025082,-0.4868927,-0.38746643,0.6159668,-0.2793091,0.08496094,100.0
33405,0.033270836,0.42446136,-0.26509857,0.6159668,-0.2793091,0.08496094,100.0
33406,0.033270836,0.42446136,-0.26509857,0.35471192,-0.22939454,0.045666505,100.0
33407,0.3762989,1.0947952,0.04613495,0.35471192,-0.22939454,0.045666505,100.0
33408,0.3762989,1.0947952,0.04613495,0.11151123,-0.083898924,0.004248047,100.0
33409,0.52085114,0.87483215,0.23279572,0.11151123,-0.083898924,0.004248047,100.0
33410,0.52085114,0.87483215,0.23279572,-0.06584473,-0.027612304,0.045666505,100.0
33411,0.41162682,0.3364029,0.16326141,-0.06584473,-0.027612304,0.045666505,100.0
33412,0.41162682,0.3364029,0.16326141,-0.15186767,0.06159668,0.05522461,100.0
33413,0.19631767,-0.16130066,0.063690186,-0.15186767,0.06159668,0.05522461,100.0
33414,0.19631767,-0.16130066,0.063690186,-0.1996582,0.08283692,0.09239502,100.0
33415,0.008799553,-0.5949249,0.1223259,-0.1996582,0.08283692,0.09239502,100.0
33416,0.008799553,-0.5949249,0.1223259,-0.20603028,-0.007434082,0.07434082,100.0
33417,-0.16293144,-0.5773163,0.09144974,-0.20603028,-0.007434082,0.07434082,100.0
33418,-0.16293144,-0.5773163,0.09144974,-0.34090576,-0.11044922,0.06159668,100.0
33419,-0.36763763,-0.083602905,-0.18057632,-0.34090576,-0.11044922,0.06159668,100.0
33420,-0.36763763,-0.083602905,-0.18057632,-0.5012695,-0.26337892,0.043542482,100.0
33421,-0.39556313,0.24920654,-0.4145317,-0.5012695,-0.26337892,0.043542482,100.0
33422,-0.39556313,0.24920654,-0.4145317,-0.4959595,-0.33771974,0.007434082,100.0
33423,-0.107587814,0.10974884,-0.26989365,-0.4959595,-0.33771974,0.007434082,100.0
33424,-0.107587814,0.10974884,-0.26989365,-0.33665773,-0.37595215,0.0361084,100.0
33425,0.21147633,-0.14331818,0.052444458,-0.33665773,-0.37595215,0.0361084,100.0
33426,0.21147633,-0.14331818,0.052444458,0.011682129,-0.4067505,0.046728518,100.0
33427,0.3892498,-0.1849823,0.30405426,0.011682129,-0.4067505,0.046728518,100.0
33428,0.3892498,-0.1849823,0.30405426,0.27399904,-0.36533204,0.02442627,100.0
33429,0.4500227,-0.002822876,0.39780807,0.27399904,-0.36533204,0.02442627,100.0
33430,0.4500227,-0.002822876,0.39780807,0.17416993,-0.30054933,-0.019116212,100.0
33431,0.44229317,0.016296387,0.2700386,0.17416993,-0.30054933,-0.019116212,100.0
33432,0.44229317,0.016296387,0.2700386,0.124255374,-0.25700685,-0.010620117,100.0
33433,0.43131256,-0.15916443,0.12821198,0.124255374,-0.25700685,-0.010620117,100.0
33434,0.43131256,-0.15916443,0.12821198,0.17523193,-0.24532472,0.026550293,100.0
33435,0.4010315,-0.10939026,0.093120575,0.17523193,-0.24532472,0.026550293,100.0
33436,0.4010315,-0.10939026,0.093120575,0.039294433,-0.1985962,-0.0010620117,100.0
33437,0.32513428,-0.16041565,0.009922028,0.039294433,-0.1985962,-0.0010620117,100.0
33438,0.32513428,-0.16041565,0.009922028,0.107263185,-0.23682861,0.038232423,100.0
33439,0.23928261,-0.42590332,-0.20342636,0.107263185,-0.23682861,0.038232423,100.0
33440,0.23928261,-0.42590332,-0.20342636,0.40462646,-0.37595215,0.12850343,100.0
33441,0.23670197,-0.29408264,-0.33462524,0.40462646,-0.37595215,0.12850343,100.0
33442,0.23670197,-0.29408264,-0.33462524,0.61702883,-0.39613038,0.1444336,100.0
33443,0.36679077,0.38056946,-0.2327156,0.61702883,-0.39613038,0.1444336,100.0
33444,0.36679077,0.38056946,-0.2327156,0.5671143,-0.3727661,0.08920898,100.0
33445,0.48393536,0.8912201,0.022102356,0.5671143,-0.3727661,0.08920898,100.0
33446,0.48393536,0.8912201,0.022102356,0.35152587,-0.26337892,0.021240234,100.0
33447,0.4385643,0.6757126,0.14876175,0.35152587,-0.26337892,0.021240234,100.0
33448,0.4385643,0.6757126,0.14876175,0.3525879,-0.3058594,0.053100586,100.0
33449,0.31977272,0.34346008,0.093315125,0.3525879,-0.3058594,0.053100586,100.0
33450,0.31977272,0.34346008,0.093315125,0.38338622,-0.32922363,0.0541626,100.0
33451,0.305696,0.4107666,0.0031547546,0.38338622,-0.32922363,0.0541626,100.0
33452,0.305696,0.4107666,0.0031547546,0.3536499,-0.2888672,0.04460449,100.0
33453,0.35767937,0.6152115,0.031158447,0.3536499,-0.2888672,0.04460449,100.0
33454,0.35767937,0.6152115,0.031158447,0.19434814,-0.26019287,0.028674318,100.0
33455,0.33798695,0.51498413,0.0797348,0.19434814,-0.26019287,0.028674318,100.0
33456,0.33798695,0.51498413,0.0797348,0.0063720704,-0.24957275,0.027612304,100.0
33457,0.24305773,0.16033936,-0.055122375,0.0063720704,-0.24957275,0.027612304,100.0
33458,0.24305773,0.16033936,-0.055122375,0.13381349,-0.30479738,0.107263185,100.0
33459,0.19840145,0.035629272,-0.13522339,0.13381349,-0.30479738,0.107263185,100.0
33460,0.19840145,0.035629272,-0.13522339,0.10195313,-0.2527588,0.115759276,100.0
33461,0.2065115,0.20019531,-0.14370346,0.10195313,-0.2527588,0.115759276,100.0
33462,0.2065115,0.20019531,-0.14370346,0.013806152,-0.20390625,0.14124756,100.0
33463,0.26464748,0.38627625,-0.26205826,0.013806152,-0.20390625,0.14124756,100.0
33464,0.26464748,0.38627625,-0.26205826,0.060534667,-0.25594482,0.053100586,100.0
33465,0.39903498,0.29021454,-0.26947403,0.060534667,-0.25594482,0.053100586,100.0
33466,0.39903498,0.29021454,-0.26947403,0.13275146,-0.29311523,-0.011682129,100.0
33467,0.585402,-0.070388794,-0.03194809,0.13275146,-0.29311523,-0.011682129,100.0
33468,0.585402,-0.070388794,-0.03194809,0.24957275,-0.2516968,0.014868164,100.0
33469,0.6823106,-0.1277237,0.20488358,0.24957275,-0.2516968,0.014868164,100.0
33470,0.6823106,-0.1277237,0.20488358,0.090270996,-0.10620117,0.115759276,100.0
33471,0.4924426,-0.0013961792,0.15587616,0.090270996,-0.10620117,0.115759276,100.0
33472,0.4924426,-0.0013961792,0.15587616,0.012744141,-0.038232423,0.1985962,100.0
33473,0.1391077,-0.03364563,-0.037956238,0.012744141,-0.038232423,0.1985962,100.0
33474,0.1391077,-0.03364563,-0.037956238,-0.11044922,-0.022302246,0.28674316,100.0
33475,-0.1305108,-0.03227234,-0.28683472,-0.11044922,-0.022302246,0.28674316,100.0
33476,-0.1305108,-0.03227234,-0.28683472,-0.31116945,-0.038232423,0.32072756,100.0
33477,-0.12235308,-0.06996918,-0.55483246,-0.31116945,-0.038232423,0.32072756,100.0
33478,-0.12235308,-0.06996918,-0.55483246,-0.08814698,-0.12319336,0.30054933,100.0
33479,0.21223688,-0.104782104,-0.45706177,-0.08814698,-0.12319336,0.30054933,100.0
33480,0.21223688,-0.104782104,-0.45706177,0.37807617,-0.24744873,0.22833252,100.0
33481,0.55577564,0.053627014,0.013267517,0.37807617,-0.24744873,0.22833252,100.0
33482,0.55577564,0.053627014,0.013267517,0.47896728,-0.26125488,0.17947999,100.0
33483,0.618217,0.26750946,0.32360077,0.47896728,-0.26125488,0.17947999,100.0
33484,0.618217,0.26750946,0.32360077,0.3802002,-0.271875,0.24957275,100.0
33485,0.5364804,0.44758606,0.35234833,0.3802002,-0.271875,0.24957275,100.0
33486,0.5364804,0.44758606,0.35234833,0.3069214,-0.22408448,0.27612305,100.0
33487,0.5364804,0.44758606,0.35234833,0.3069214,-0.22408448,0.27612305,100.0
33488,0.6148534,0.767395,0.4711609,0.3069214,-0.22408448,0.27612305,100.0
33489,0.6148534,0.767395,0.4711609,-0.026550293,-0.02442627,0.24320069,100.0
33490,0.67893124,1.0672836,0.5977287,-0.026550293,-0.02442627,0.24320069,100.0
33491,0.67893124,1.0672836,0.5977287,-0.57561034,0.1996582,0.19434814,100.0
33492,0.47744656,0.8054657,0.35740662,-0.57561034,0.1996582,0.19434814,100.0
33493,0.47744656,0.8054657,0.35740662,-0.68712157,0.3175415,0.15186767,100.0
33494,0.20667648,0.14898682,-0.15466309,-0.68712157,0.3175415,0.15186767,100.0
33495,0.20667648,0.14898682,-0.15466309,-0.3334717,0.20921631,0.0,100.0
33496,0.10541725,-0.34223938,-0.49229813,-0.3334717,0.20921631,0.0,100.0
33497,0.10541725,-0.34223938,-0.49229813,0.0541626,0.06796875,-0.04248047,100.0
33498,0.06425285,-0.5479584,-0.4484787,0.0541626,0.06796875,-0.04248047,100.0
33499,0.06425285,-0.5479584,-0.4484787,0.33984375,0.06796875,0.021240234,100.0
33500,0.019480705,-0.61733246,0.079071045,0.33984375,0.06796875,0.021240234,100.0
33501,0.019480705,-0.61733246,0.079071045,0.32072756,0.19222413,0.12213135,100.0
33502,0.005636215,-0.3011322,0.7076416,0.32072756,0.19222413,0.12213135,100.0
33503,0.005636215,-0.3011322,0.7076416,-0.06159668,0.452417,0.16036378,100.0
33504,-0.14303732,0.3954239,0.7418213,-0.06159668,0.452417,0.16036378,100.0
33505,-0.14303732,0.3954239,0.7418213,-0.5543701,0.6977417,0.033984374,100.0
33506,-0.40648317,0.57048035,0.41444016,-0.5543701,0.6977417,0.033984374,100.0
33507,-0.40648317,0.57048035,0.41444016,-0.9547486,0.817749,0.0180542,100.0
33508,-0.7101474,0.06075287,0.044296265,-0.9547486,0.817749,0.0180542,100.0
33509,-0.7101474,0.06075287,0.044296265,-1.1055542,0.7062378,-0.023364259,100.0
33510,-1.2234764,-0.57899475,-0.57886887,-1.1055542,0.7062378,-0.023364259,100.0
33511,-1.2234764,-0.57899475,-0.57886887,-0.8867798,0.3058594,-0.04991455,100.0
33512,-1.5954313,-1.1466675,-1.0343971,-0.8867798,0.3058594,-0.04991455,100.0
33513,-1.5954313,-1.1466675,-1.0343971,-0.2984253,-0.12850343,-0.12000733,100.0
33514,-1.0961933,-1.7021332,-0.41914368,-0.2984253,-0.12850343,-0.12000733,100.0
33515,-1.0961933,-1.7021332,-0.41914368,-0.023364259,-0.18372802,-0.1178833,100.0
33516,-0.12862682,-1.6908646,0.5525284,-0.023364259,-0.18372802,-0.1178833,100.0
33517,-0.12862682,-1.6908646,0.5525284,0.05628662,-0.033984374,0.07965088,100.0
33518,0.16078281,-0.60344696,0.5011177,0.05628662,-0.033984374,0.07965088,100.0
33519,0.16078281,-0.60344696,0.5011177,0.12213135,0.06584473,0.011682129,100.0
33520,-0.06745529,0.47201538,-0.058761597,0.12213135,0.06584473,0.011682129,100.0
33521,-0.06745529,0.47201538,-0.058761597,0.10938721,-0.012744141,-0.057348635,100.0
33522,-0.12237215,0.57385254,-0.2386322,0.10938721,-0.012744141,-0.057348635,100.0
33523,-0.12237215,0.57385254,-0.2386322,-0.008496094,-0.06478272,-0.10301514,100.0
33524,0.07800579,0.13463593,-0.10391617,-0.008496094,-0.06478272,-0.10301514,100.0
33525,0.07800579,0.13463593,-0.10391617,-0.021240234,-0.050976563,-0.0541626,100.0
33526,0.2342062,-0.23247528,0.0801239,-0.021240234,-0.050976563,-0.0541626,100.0
33527,0.2342062,-0.23247528,0.0801239,-0.07752686,-0.011682129,0.015930176,100.0
33528,0.097155094,-0.46257782,0.079322815,-0.07752686,-0.011682129,0.015930176,100.0
33529,0.097155094,-0.46257782,0.079322815,0.15186767,-0.11363526,0.059472658,100.0
33530,-0.0124492645,-0.42731476,0.0030212402,0.15186767,-0.11363526,0.059472658,100.0
33531,-0.0124492645,-0.42731476,0.0030212402,0.29311523,-0.13062744,0.050976563,100.0
33532,-0.11266899,0.11943817,0.022010803,0.29311523,-0.13062744,0.050976563,100.0
33533,-0.11266899,0.11943817,0.022010803,0.22514649,-0.11257324,0.007434082,100.0
33534,-0.026573181,0.3148346,0.05519104,0.22514649,-0.11257324,0.007434082,100.0
33535,-0.026573181,0.3148346,0.05519104,0.14655761,-0.078588866,0.0031860352,100.0
33536,0.14944458,0.36541748,0.12050629,0.14655761,-0.078588866,0.0031860352,100.0
33537,0.14944458,0.36541748,0.12050629,-0.038232423,-0.020178223,0.022302246,100.0
33538,0.100268364,0.2061615,0.03495407,-0.038232423,-0.020178223,0.022302246,100.0
33539,0.100268364,0.2061615,0.03495407,-0.02442627,-0.058410645,0.0010620117,100.0
33540,-0.026499271,-0.08646393,-0.16694641,-0.02442627,-0.058410645,0.0010620117,100.0
33541,-0.026499271,-0.08646393,-0.16694641,0.20072022,-0.14018555,-0.004248047,100.0
33542,0.031168938,-0.022323608,-0.09366608,0.20072022,-0.14018555,-0.004248047,100.0
33543,0.031168938,-0.022323608,-0.09366608,0.14974366,-0.11044922,0.010620117,100.0
33544,0.12791395,0.31404114,0.10190964,0.14974366,-0.11044922,0.010620117,100.0
33545,0.12791395,0.31404114,0.10190964,0.019116212,-0.1263794,0.0031860352,100.0
33546,0.11190128,0.277565,0.07392502,0.019116212,-0.1263794,0.0031860352,100.0
33547,0.11190128,0.277565,0.07392502,0.021240234,-0.12956543,-0.011682129,100.0
33548,0.19009495,0.104911804,0.055366516,0.021240234,-0.12956543,-0.011682129,100.0
33549,0.19009495,0.104911804,0.055366516,-0.08283692,-0.06265869,-0.0010620117,100.0
33550,0.1771369,0.06047058,0.020584106,-0.08283692,-0.06265869,-0.0010620117,100.0
33551,0.1771369,0.06047058,0.020584106,-0.083898924,-0.043542482,0.0010620117,100.0
33552,0.059165478,-0.061416626,-0.12927246,-0.083898924,-0.043542482,0.0010620117,100.0
33553,0.059165478,-0.061416626,-0.12927246,-0.0053100586,-0.09451904,-0.0031860352,100.0
33554,0.02688551,-0.15612793,-0.120018005,-0.0053100586,-0.09451904,-0.0031860352,100.0
33555,0.02688551,-0.15612793,-0.120018005,0.0722168,-0.10938721,0.011682129,100.0
33556,0.049144745,-0.25016022,-0.091056824,0.0722168,-0.10938721,0.011682129,100.0
33557,0.049144745,-0.25016022,-0.091056824,0.19434814,-0.08071289,0.023364259,100.0
33558,0.13434792,-0.017227173,-0.018146515,0.19434814,-0.08071289,0.023364259,100.0
33559,0.13434792,-0.017227173,-0.018146515,0.17735596,-0.021240234,0.03079834,100.0
33560,0.14829874,0.29813385,0.011981964,0.17735596,-0.021240234,0.03079834,100.0
33561,0.14829874,0.29813385,0.011981964,0.050976563,-0.03186035,0.015930176,100.0
33562,0.07125139,0.35826874,-0.07121277,0.050976563,-0.03186035,0.015930176,100.0
33563,0.07125139,0.35826874,-0.07121277,0.10513916,-0.078588866,-0.027612304,100.0
33564,0.060186863,0.15686798,-0.10003662,0.10513916,-0.078588866,-0.027612304,100.0
33565,0.060186863,0.15686798,-0.10003662,0.17947999,-0.070092775,-0.020178223,100.0
33566,0.14216805,0.07884216,0.02135086,0.17947999,-0.070092775,-0.020178223,100.0
33567,0.14216805,0.07884216,0.02135086,0.16885987,-0.022302246,-0.0063720704,100.0
33568,0.13836813,0.2392807,0.1250534,0.16885987,-0.022302246,-0.0063720704,100.0
33569,0.13836813,0.2392807,0.1250534,-0.013806152,0.019116212,-0.020178223,100.0
33570,0.026966572,0.20439911,0.014728546,-0.013806152,0.019116212,-0.020178223,100.0
33571,0.026966572,0.20439911,0.014728546,0.03186035,-0.009558106,-0.04141846,100.0
33572,-0.0043177605,-0.07449341,-0.1473465,0.03186035,-0.009558106,-0.04141846,100.0
33573,-0.0043177605,-0.07449341,-0.1473465,0.20603028,-0.035046387,-0.033984374,100.0
33574,0.08311844,0.014205933,-0.07331085,0.20603028,-0.035046387,-0.033984374,100.0
33575,0.08311844,0.014205933,-0.07331085,0.14549561,0.0361084,-0.025488282,100.0
33576,0.1745758,0.44488525,0.21566772,0.14549561,0.0361084,-0.025488282,100.0
33577,0.1745758,0.44488525,0.21566772,-0.17416993,0.20390625,-0.03717041,100.0
33578,0.123791695,0.5688095,0.38153076,-0.17416993,0.20390625,-0.03717041,100.0
33579,0.123791695,0.5688095,0.38153076,-0.45666504,0.37807617,-0.07752686,100.0
33580,-0.022853851,0.12773895,0.26708984,-0.45666504,0.37807617,-0.07752686,100.0
33581,-0.022853851,0.12773895,0.26708984,-0.49489745,0.4715332,-0.10513916,100.0
33582,-0.20741844,-0.38587952,0.035694122,-0.49489745,0.4715332,-0.10513916,100.0
33583,-0.20741844,-0.38587952,0.035694122,-0.540564,0.5012695,-0.16567384,100.0
33584,-0.20741844,-0.38587952,0.035694122,-0.540564,0.5012695,-0.16567384,100.0
33585,-0.34619617,-0.68873596,-0.05935669,-0.540564,0.5012695,-0.16567384,100.0
33586,-0.34619617,-0.68873596,-0.05935669,-0.44179687,0.5055176,-0.22833252,100.0
33587,-0.34017706,-0.55342865,0.16648865,-0.44179687,0.5055176,-0.22833252,100.0
33588,-0.34017706,-0.55342865,0.16648865,-0.58304447,0.76464844,-0.38551027,100.0
33589,-0.35776138,-0.054374695,0.33115387,-0.58304447,0.76464844,-0.38551027,100.0
33590,-0.35776138,-0.054374695,0.33115387,-0.88359374,1.0460815,-0.5713623,100.0
33591,-0.694119,0.11493683,0.10703659,-0.88359374,1.0460815,-0.5713623,100.0
33592,-0.694119,0.11493683,0.10703659,-0.87403566,1.0492676,-0.7412842,100.0
33593,-1.0969944,-0.2591858,-0.25626755,-0.87403566,1.0492676,-0.7412842,100.0
33594,-1.0969944,-0.2591858,-0.25626755,-0.9611206,0.9345703,-0.78164065,100.0
33595,-1.1919508,-1.0907593,-0.4166603,-0.9611206,0.9345703,-0.78164065,100.0
33596,-1.1919508,-1.0907593,-0.4166603,-0.7508423,0.7890747,-0.631897,100.0
33597,-1.0959802,-1.8293304,-0.41079712,-0.7508423,0.7890747,-0.631897,100.0
33598,-1.0959802,-1.8293304,-0.41079712,-0.29948732,0.5713623,-0.39188233,100.0
33599,-1.0791159,-2.0591888,-0.35897064,-0.29948732,0.5713623,-0.39188233,100.0
33600,-1.0791159,-2.0591888,-0.35897064,0.28674316,0.26019287,-0.06478272,100.0
33601,-1.0459099,-1.4108887,-0.18654251,0.28674316,0.26019287,-0.06478272,100.0
33602,-1.0459099,-1.4108887,-0.18654251,0.56605226,-0.0010620117,0.093457036,100.0
33603,-0.82049274,-0.06304932,-0.03725815,0.56605226,-0.0010620117,0.093457036,100.0
33604,-0.82049274,-0.06304932,-0.03725815,0.5894165,-0.118945315,0.10301514,100.0
33605,-0.47627926,1.040184,7.8201294E-4,0.5894165,-0.118945315,0.10301514,100.0
33606,-0.47627926,1.040184,7.8201294E-4,0.3791382,-0.15823975,0.013806152,100.0
33607,-0.14764977,1.2888489,0.14182281,0.3791382,-0.15823975,0.013806152,100.0
33608,-0.14764977,1.2888489,0.14182281,0.046728518,-0.10513916,-0.05522461,100.0
33609,0.049873352,0.73661804,0.37628937,0.046728518,-0.10513916,-0.05522461,100.0
33610,0.049873352,0.73661804,0.37628937,-0.20178223,-0.039294433,-0.07327881,100.0
33611,0.053131104,-0.104026794,0.49706268,-0.20178223,-0.039294433,-0.07327881,100.0
33612,0.053131104,-0.104026794,0.49706268,-0.39613038,0.020178223,0.0,100.0
33613,-0.09069824,-0.58496857,0.24917603,-0.39613038,0.020178223,0.0,100.0
33614,-0.09069824,-0.58496857,0.24917603,-0.22302246,-0.007434082,0.007434082,100.0
33615,-0.25946045,-0.52279663,-0.27866364,-0.22302246,-0.007434082,0.007434082,100.0
33616,-0.25946045,-0.52279663,-0.27866364,0.10195313,-0.04991455,0.03717041,100.0
33617,-0.20876503,-0.26649475,-0.4657402,0.10195313,-0.04991455,0.03717041,100.0
33618,-0.20876503,-0.26649475,-0.4657402,0.17841797,-0.07965088,0.04141846,100.0
33619,0.050798416,0.13208771,-0.23947525,0.17841797,-0.07965088,0.04141846,100.0
33620,0.050798416,0.13208771,-0.23947525,0.06478272,-0.10195313,0.053100586,100.0
33621,0.2662859,0.30390167,0.025814056,0.06478272,-0.10195313,0.053100586,100.0
33622,0.2662859,0.30390167,0.025814056,-0.023364259,-0.06796875,0.15717773,100.0
33623,0.29603672,0.2314148,0.20854187,-0.023364259,-0.06796875,0.15717773,100.0
33624,0.29603672,0.2314148,0.20854187,-0.12319336,-0.046728518,0.2538208,100.0
33625,0.111097336,0.11806488,0.2364502,-0.12319336,-0.046728518,0.2538208,100.0
33626,0.111097336,0.11806488,0.2364502,-0.19222413,0.014868164,0.3154175,100.0
33627,-0.09601021,-0.21444702,0.18166351,-0.19222413,0.014868164,0.3154175,100.0
33628,-0.09601021,-0.21444702,0.18166351,-0.10620117,-0.07540283,0.3706421,100.0
33629,-0.269948,-0.51586914,0.021976471,-0.10620117,-0.07540283,0.3706421,100.0
33630,-0.269948,-0.51586914,0.021976471,0.014868164,-0.3164795,0.3462158,100.0
33631,-0.29708672,-0.2625351,-0.3059883,0.014868164,-0.3164795,0.3462158,100.0
33632,-0.29708672,-0.2625351,-0.3059883,0.2527588,-0.4885254,0.28780517,100.0
33633,-0.14413929,0.1407013,-0.5505638,0.2527588,-0.4885254,0.28780517,100.0
33634,-0.14413929,0.1407013,-0.5505638,0.3727661,-0.62127686,0.13062744,100.0
33635,0.19128036,-0.12606049,-0.41928482,0.3727661,-0.62127686,0.13062744,100.0
33636,0.19128036,-0.12606049,-0.41928482,0.77951664,-0.76358646,0.14230958,100.0
33637,0.6866789,-0.19906616,0.13117218,0.77951664,-0.76358646,0.14230958,100.0
33638,0.6866789,-0.19906616,0.13117218,0.7688965,-0.6775635,0.18160401,100.0
33639,1.1124048,0.8125,0.7313881,0.7688965,-0.6775635,0.18160401,100.0
33640,1.1124048,0.8125,0.7313881,0.14337158,-0.29099122,0.057348635,100.0
33641,1.1668644,1.5444794,0.9479027,0.14337158,-0.29099122,0.057348635,100.0
33642,1.1668644,1.5444794,0.9479027,-0.58198243,0.12956543,-0.026550293,100.0
33643,0.76634026,0.8922119,0.5288162,-0.58198243,0.12956543,-0.026550293,100.0
33644,0.76634026,0.8922119,0.5288162,-0.65844727,0.23045655,0.019116212,100.0
33645,0.2259388,-0.21148682,-0.18798065,-0.65844727,0.23045655,0.019116212,100.0
33646,0.2259388,-0.21148682,-0.18798065,-0.44073486,0.1529297,0.039294433,100.0
33647,-0.18465424,-0.76023865,-0.7367363,-0.44073486,0.1529297,0.039294433,100.0
33648,-0.18465424,-0.76023865,-0.7367363,-0.11682129,-0.040356446,-0.010620117,100.0
33649,-0.251544,-0.87664795,-0.8321266,-0.11682129,-0.040356446,-0.010620117,100.0
33650,-0.251544,-0.87664795,-0.8321266,0.45772704,-0.2166504,0.015930176,100.0
33651,0.037973404,-0.37917328,-0.2614441,0.45772704,-0.2166504,0.015930176,100.0
33652,0.037973404,-0.37917328,-0.2614441,0.36108398,-0.12213135,-0.0010620117,100.0
33653,0.23024464,0.5077362,0.29870605,0.36108398,-0.12213135,-0.0010620117,100.0
33654,0.23024464,0.5077362,0.29870605,0.052038576,0.033984374,-0.047790527,100.0
33655,0.1682291,0.6412506,0.34339523,0.052038576,0.033984374,-0.047790527,100.0
33656,0.1682291,0.6412506,0.34339523,-0.007434082,0.07434082,-0.040356446,100.0
33657,0.01843357,0.1424942,0.1598854,-0.007434082,0.07434082,-0.040356446,100.0
33658,0.01843357,0.1424942,0.1598854,0.0541626,0.011682129,-0.03079834,100.0
33659,-0.05501604,-0.16338348,0.045681,0.0541626,0.011682129,-0.03079834,100.0
33660,-0.05501604,-0.16338348,0.045681,0.06903076,-0.007434082,-0.022302246,100.0
33661,-0.015789986,-0.07506561,0.04222107,0.06903076,-0.007434082,-0.022302246,100.0
33662,-0.015789986,-0.07506561,0.04222107,0.08283692,-0.004248047,0.0,100.0
33663,-0.028964996,0.26720428,-3.8909912E-4,0.08283692,-0.004248047,0.0,100.0
33664,-0.028964996,0.26720428,-3.8909912E-4,0.0361084,-0.09770508,-0.022302246,100.0
33665,-0.0066924095,0.23700714,0.009220123,0.0361084,-0.09770508,-0.022302246,100.0
33666,-0.0066924095,0.23700714,0.009220123,-0.0010620117,-0.09239502,-0.02442627,100.0
33667,0.08186531,0.10572052,0.03544998,-0.0010620117,-0.09239502,-0.02442627,100.0
33668,0.08186531,0.10572052,0.03544998,-0.04885254,-0.098767094,-0.011682129,100.0
33669,0.11507702,-0.02482605,-0.025424957,-0.04885254,-0.098767094,-0.011682129,100.0
33670,0.11507702,-0.02482605,-0.025424957,-0.021240234,-0.107263185,-0.014868164,100.0
33671,0.12312889,-0.09806061,-0.11302948,-0.021240234,-0.107263185,-0.014868164,100.0
33672,0.12312889,-0.09806061,-0.11302948,0.029736329,-0.107263185,-0.014868164,100.0
33673,0.15347147,-0.094963074,-0.11761856,0.029736329,-0.107263185,-0.014868164,100.0
33674,0.15347147,-0.094963074,-0.11761856,0.095581055,-0.07115479,-0.008496094,100.0
33675,0.13294554,-0.0827713,-0.058498383,0.095581055,-0.07115479,-0.008496094,100.0
33676,0.13294554,-0.0827713,-0.058498383,0.11363526,-0.09239502,0.010620117,100.0
33677,0.07989168,-0.069610596,0.0072784424,0.11363526,-0.09239502,0.010620117,100.0
33678,0.07989168,-0.069610596,0.0072784424,0.22302246,-0.121069334,0.016992187,100.0
33679,0.049655914,0.11225891,0.04134369,0.22302246,-0.121069334,0.016992187,100.0
33680,0.049655914,0.11225891,0.04134369,0.22302246,-0.121069334,0.016992187,100.0
33681,0.049655914,0.11225891,0.04134369,0.19647217,-0.12319336,0.013806152,100.0
33682,0.053762436,0.35246277,9.57489E-4,0.19647217,-0.12319336,0.013806152,100.0
33683,0.053762436,0.35246277,9.57489E-4,0.17416993,-0.12956543,-0.020178223,100.0
33684,0.112065315,0.38791656,-6.866455E-4,0.17416993,-0.12956543,-0.020178223,100.0
33685,0.112065315,0.38791656,-6.866455E-4,0.14124756,-0.11682129,-0.027612304,100.0
33686,0.17020655,0.3068161,0.03935623,0.14124756,-0.11682129,-0.027612304,100.0
33687,0.17020655,0.3068161,0.03935623,0.070092775,-0.09239502,-0.039294433,100.0
33688,0.17333555,0.18567657,0.059890747,0.070092775,-0.09239502,-0.039294433,100.0
33689,0.17333555,0.18567657,0.059890747,0.028674318,-0.046728518,-0.043542482,100.0
33690,0.13329744,0.11331177,0.060424805,0.028674318,-0.046728518,-0.043542482,100.0
33691,0.13329744,0.11331177,0.060424805,-0.0010620117,-0.016992187,-0.05522461,100.0
33692,0.05654049,0.1838913,-0.005531311,-0.0010620117,-0.016992187,-0.05522461,100.0
33693,0.05654049,0.1838913,-0.005531311,-0.1083252,-0.04248047,-0.07540283,100.0
33694,-0.014496326,-0.046829224,-0.104888916,-0.1083252,-0.04248047,-0.07540283,100.0
33695,-0.014496326,-0.046829224,-0.104888916,-0.015930176,-0.1274414,-0.17523193,100.0
33696,0.2825799,-0.35953522,0.32832336,-0.015930176,-0.1274414,-0.17523193,100.0
33697,0.2825799,-0.35953522,0.32832336,-0.05522461,0.26444092,-0.10938721,100.0
33698,0.5699606,0.2594757,0.9740219,-0.05522461,0.26444092,-0.10938721,100.0
33699,0.5699606,0.2594757,0.9740219,-0.8878418,0.8867798,-0.2347046,100.0
33700,0.16951847,1.3473358,0.8544388,-0.8878418,0.8867798,-0.2347046,100.0
33701,0.16951847,1.3473358,0.8544388,-1.6726685,1.2935303,-0.62552494,100.0
33702,-0.72920465,1.2721558,0.19367218,-1.6726685,1.2935303,-0.62552494,100.0
33703,-0.72920465,1.2721558,0.19367218,-2.2185426,1.2414917,-1.0067872,100.0
33704,-1.3932881,-0.5612793,-0.6908417,-2.2185426,1.2414917,-1.0067872,100.0
33705,-1.3932881,-0.5612793,-0.6908417,-2.151636,0.991919,-1.0407715,100.0
33706,-1.2602482,-3.428299,-1.2984886,-2.151636,0.991919,-1.0407715,100.0
33707,-1.2602482,-3.428299,-1.2984886,-0.904834,0.72323,-0.55755615,100.0
33708,-0.8974438,-4.863266,-1.3684425,-0.904834,0.72323,-0.55755615,100.0
33709,-0.8974438,-4.863266,-1.3684425,0.5671143,-0.0053100586,0.06796875,100.0
33710,-0.83224964,-3.2762299,-1.064785,0.5671143,-0.0053100586,0.06796875,100.0
33711,-0.83224964,-3.2762299,-1.064785,1.3349488,-0.4439209,0.24320069,100.0
33712,-0.57629776,-0.2253418,-0.42621994,1.3349488,-0.4439209,0.24320069,100.0
33713,-0.57629776,-0.2253418,-0.42621994,1.445398,-0.5235718,0.2166504,100.0
33714,0.030099869,1.8386078,0.4467926,1.445398,-0.5235718,0.2166504,100.0
33715,0.030099869,1.8386078,0.4467926,0.93775636,-0.33665773,0.26019287,100.0
33716,0.41471672,2.0792847,0.96355057,0.93775636,-0.33665773,0.26019287,100.0
33717,0.41471672,2.0792847,0.96355057,0.29417726,-0.2814331,0.33771974,100.0
33718,0.24883938,1.1737671,0.6856346,0.29417726,-0.2814331,0.33771974,100.0
33719,0.24883938,1.1737671,0.6856346,0.32178956,-0.36002198,0.36533204,100.0
33720,-0.02768612,0.25807953,0.18494415,0.32178956,-0.36002198,0.36533204,100.0
33721,-0.02768612,0.25807953,0.18494415,0.39613038,-0.4598511,0.37595215,100.0
33722,-0.009392738,0.009780884,0.07115936,0.39613038,-0.4598511,0.37595215,100.0
33723,-0.009392738,0.009780884,0.07115936,0.46728516,-0.4630371,0.42374268,100.0
33724,0.11787605,0.21178436,0.035282135,0.46728516,-0.4630371,0.42374268,100.0
33725,0.11787605,0.21178436,0.035282135,0.3079834,-0.541626,0.39082032,100.0
33726,0.22155857,0.32383728,-0.114997864,0.3079834,-0.541626,0.39082032,100.0
33727,0.22155857,0.32383728,-0.114997864,0.5851685,-0.63933104,0.32497558,100.0
33728,0.5884409,0.43723297,0.16625214,0.5851685,-0.63933104,0.32497558,100.0
33729,0.5884409,0.43723297,0.16625214,0.3727661,-0.4364868,0.28355715,100.0
33730,0.8998785,1.1003723,0.4479332,0.3727661,-0.4364868,0.28355715,100.0
33731,0.8998785,1.1003723,0.4479332,-0.2984253,-0.10089111,0.047790527,100.0
33732,0.69355965,1.2082748,0.15592957,-0.2984253,-0.10089111,0.047790527,100.0
33733,0.69355965,1.2082748,0.15592957,-0.5161377,-0.015930176,-0.07327881,100.0
33734,0.30228424,0.048164368,-0.34965897,-0.5161377,-0.015930176,-0.07327881,100.0
33735,0.30228424,0.048164368,-0.34965897,-0.03717041,-0.13487549,-0.03079834,100.0
33736,0.16195679,-0.87474823,-0.52597046,-0.03717041,-0.13487549,-0.03079834,100.0
33737,0.16195679,-0.87474823,-0.52597046,0.41099855,-0.20178223,-0.026550293,100.0
33738,0.27624512,-0.59156036,-0.3068962,0.41099855,-0.20178223,-0.026550293,100.0
33739,0.27624512,-0.59156036,-0.3068962,0.52888185,-0.18903808,0.020178223,100.0
33740,0.42216778,0.21961212,0.080631256,0.52888185,-0.18903808,0.020178223,100.0
33741,0.42216778,0.21961212,0.080631256,0.46409914,-0.07115479,0.04460449,100.0
33742,0.43044662,0.8440857,0.42217255,0.46409914,-0.07115479,0.04460449,100.0
33743,0.43044662,0.8440857,0.42217255,0.13168946,0.11469727,0.052038576,100.0
33744,0.23290682,0.95866394,0.5031891,0.13168946,0.11469727,0.052038576,100.0
33745,0.23290682,0.95866394,0.5031891,-0.22408448,0.2442627,0.033984374,100.0
33746,-0.07566166,0.39369202,0.26020432,-0.22408448,0.2442627,0.033984374,100.0
33747,-0.07566166,0.39369202,0.26020432,-0.2347046,0.24851075,0.021240234,100.0
33748,-0.2429266,-0.28224945,-0.030693054,-0.2347046,0.24851075,0.021240234,100.0
33749,-0.2429266,-0.28224945,-0.030693054,-0.0637207,0.17523193,0.046728518,100.0
33750,-0.2042656,-0.24262238,-0.1191597,-0.0637207,0.17523193,0.046728518,100.0
33751,-0.2042656,-0.24262238,-0.1191597,-0.16142578,0.18054199,-0.0031860352,100.0
33752,-0.15242624,0.2639923,-0.10791397,-0.16142578,0.18054199,-0.0031860352,100.0
33753,-0.15242624,0.2639923,-0.10791397,-0.36639404,0.20072022,-0.07327881,100.0
33754,-0.20326424,0.16568756,-0.14536285,-0.36639404,0.20072022,-0.07327881,100.0
33755,-0.20326424,0.16568756,-0.14536285,-0.36002198,0.07434082,-0.070092775,100.0
33756,-0.24001646,-0.606308,-0.1979065,-0.36002198,0.07434082,-0.070092775,100.0
33757,-0.24001646,-0.606308,-0.1979065,0.07540283,-0.05522461,0.0031860352,100.0
33758,-0.16088533,-0.8874588,-0.08298111,0.07540283,-0.05522461,0.0031860352,100.0
33759,-0.16088533,-0.8874588,-0.08298111,0.2527588,-0.07115479,0.043542482,100.0
33760,-0.06735563,-0.25108337,0.05905533,0.2527588,-0.07115479,0.043542482,100.0
33761,-0.06735563,-0.25108337,0.05905533,0.18372802,-0.0637207,0.009558106,100.0
33762,0.009250164,0.3803177,0.09798813,0.18372802,-0.0637207,0.009558106,100.0
33763,0.009250164,0.3803177,0.09798813,0.098767094,-0.0031860352,-0.025488282,100.0
33764,0.090945244,0.45497894,0.084918976,0.098767094,-0.0031860352,-0.025488282,100.0
33765,0.090945244,0.45497894,0.084918976,0.027612304,0.03079834,0.009558106,100.0
33766,0.042751312,0.2400589,-0.030418396,0.027612304,0.03079834,0.009558106,100.0
33767,0.042751312,0.2400589,-0.030418396,0.015930176,-0.026550293,-0.004248047,100.0
33768,-0.016677856,0.07333374,-0.08689499,0.015930176,-0.026550293,-0.004248047,100.0
33769,-0.016677856,0.07333374,-0.08689499,0.058410645,-0.06478272,-0.016992187,100.0
33770,3.6239624E-5,0.14683533,0.014297485,0.058410645,-0.06478272,-0.016992187,100.0
33771,3.6239624E-5,0.14683533,0.014297485,-0.08602295,-0.03186035,-0.0361084,100.0
33772,0.027177334,0.25968933,0.06818771,-0.08602295,-0.03186035,-0.0361084,100.0
33773,0.027177334,0.25968933,0.06818771,-0.16567384,-0.03186035,-0.040356446,100.0
33774,0.05838728,0.20554352,0.014583588,-0.16567384,-0.03186035,-0.040356446,100.0
33775,0.05838728,0.20554352,0.014583588,-0.22408448,-0.0021240234,-0.043542482,100.0
33776,0.093328476,-0.06460571,-0.025882721,-0.22408448,-0.0021240234,-0.043542482,100.0
33777,0.093328476,-0.06460571,-0.025882721,-0.1996582,0.09451904,-0.029736329,100.0
33778,0.10909891,-0.3607788,0.10746765,-0.1996582,0.09451904,-0.029736329,100.0
33779,0.10909891,-0.3607788,0.10746765,-0.23895264,0.21240234,0.03186035,100.0
33780,-0.032728195,-0.32086945,0.1702652,-0.23895264,0.21240234,0.03186035,100.0
33781,-0.032728195,-0.32086945,0.1702652,-0.32497558,0.22302246,0.02442627,100.0
33782,-0.3354473,-0.3060608,-0.10103226,-0.32497558,0.22302246,0.02442627,100.0
33783,-0.3354473,-0.3060608,-0.10103226,-0.13806152,0.050976563,0.0063720704,100.0
33784,-0.45900726,-0.58244324,-0.36193085,-0.13806152,0.050976563,0.0063720704,100.0
33785,-0.45900726,-0.58244324,-0.36193085,0.2548828,-0.18585205,-0.0063720704,100.0
33786,-0.22703266,-0.4954834,-0.2895813,0.2548828,-0.18585205,-0.0063720704,100.0
33787,-0.22703266,-0.4954834,-0.2895813,0.42161867,-0.2262085,-0.0063720704,100.0
33788,0.10370064,0.079589844,0.009460449,0.42161867,-0.2262085,-0.0063720704,100.0
33789,0.10370064,0.079589844,0.009460449,0.42161867,-0.2262085,-0.0063720704,100.0
33790,0.10370064,0.079589844,0.009460449,0.25700685,-0.17947999,-0.0053100586,100.0
33791,0.23491383,0.47416687,0.18761063,0.25700685,-0.17947999,-0.0053100586,100.0
33792,0.23491383,0.47416687,0.18761063,0.15505372,-0.15717773,-0.022302246,100.0
33793,0.24136114,0.44477844,0.23192596,0.15505372,-0.15717773,-0.022302246,100.0
33794,0.24136114,0.44477844,0.23192596,0.107263185,-0.07965088,-0.012744141,100.0
33795,0.22201967,0.3574829,0.21024704,0.107263185,-0.07965088,-0.012744141,100.0
33796,0.22201967,0.3574829,0.21024704,-0.07115479,-0.004248047,-0.012744141,100.0
33797,0.13796711,0.24450684,0.056610107,-0.07115479,-0.004248047,-0.012744141,100.0
33798,0.13796711,0.24450684,0.056610107,-0.11469727,-0.010620117,-0.026550293,100.0
33799,0.07154274,-0.026283264,-0.12817383,-0.11469727,-0.010620117,-0.026550293,100.0
33800,0.07154274,-0.026283264,-0.12817383,-0.05628662,-0.04141846,-0.008496094,100.0
33801,0.048676968,-0.19606018,-0.18169022,-0.05628662,-0.04141846,-0.008496094,100.0
33802,0.048676968,-0.19606018,-0.18169022,0.010620117,-0.06903076,-0.007434082,100.0
33803,0.035865784,-0.17124939,-0.08664703,0.010620117,-0.06903076,-0.007434082,100.0
33804,0.035865784,-0.17124939,-0.08664703,0.04141846,-0.0722168,-0.0010620117,100.0
33805,0.0053281784,-0.032409668,0.012382507,0.04141846,-0.0722168,-0.0010620117,100.0
33806,0.0053281784,-0.032409668,0.012382507,0.078588866,-0.06584473,-0.014868164,100.0
33807,0.006239891,0.10638428,0.056476593,0.078588866,-0.06584473,-0.014868164,100.0
33808,0.006239891,0.10638428,0.056476593,0.07115479,-0.047790527,-0.016992187,100.0
33809,0.04509163,0.13187408,0.03173065,0.07115479,-0.047790527,-0.016992187,100.0
33810,0.04509163,0.13187408,0.03173065,0.028674318,-0.06159668,-0.022302246,100.0
33811,0.08164215,0.07073212,-0.021820068,0.028674318,-0.06159668,-0.022302246,100.0
33812,0.08164215,0.07073212,-0.021820068,0.057348635,-0.08920898,-0.02442627,100.0
33813,0.1234684,0.061790466,-0.001449585,0.057348635,-0.08920898,-0.02442627,100.0
33814,0.1234684,0.061790466,-0.001449585,0.025488282,-0.06796875,-0.021240234,100.0
33815,0.1372757,0.13496399,0.061840057,0.025488282,-0.06796875,-0.021240234,100.0
33816,0.1372757,0.13496399,0.061840057,-0.057348635,-0.029736329,-0.021240234,100.0
33817,0.09724712,0.109680176,0.066329956,-0.057348635,-0.029736329,-0.021240234,100.0
33818,0.09724712,0.109680176,0.066329956,-0.057348635,-0.026550293,-0.019116212,100.0
33819,0.0602808,-0.014259338,0.020614624,-0.057348635,-0.026550293,-0.019116212,100.0
33820,0.0602808,-0.014259338,0.020614624,-0.029736329,-0.015930176,-0.020178223,100.0
33821,0.057575226,-0.07068634,-0.016540527,-0.029736329,-0.015930176,-0.020178223,100.0
33822,0.057575226,-0.07068634,-0.016540527,-0.026550293,-0.0180542,-0.021240234,100.0
33823,0.04346037,-0.026260376,-0.06677246,-0.026550293,-0.0180542,-0.021240234,100.0
33824,0.04346037,-0.026260376,-0.06677246,-0.019116212,-0.0361084,-0.032922365,100.0
33825,0.027114868,-0.03414154,-0.07092285,-0.019116212,-0.0361084,-0.032922365,100.0
33826,0.027114868,-0.03414154,-0.07092285,0.020178223,-0.019116212,-0.029736329,100.0
33827,0.033422947,-0.04108429,-0.027687073,0.020178223,-0.019116212,-0.029736329,100.0
33828,0.033422947,-0.04108429,-0.027687073,0.03717041,-0.0031860352,-0.027612304,100.0
33829,0.04723358,0.078933716,0.043621063,0.03717041,-0.0031860352,-0.027612304,100.0
33830,0.04723358,0.078933716,0.043621063,-0.032922365,0.045666505,-0.032922365,100.0
33831,0.05773306,0.13298035,0.12056351,-0.032922365,0.045666505,-0.032922365,100.0
33832,0.05773306,0.13298035,0.12056351,-0.13487549,0.090270996,-0.026550293,100.0
33833,0.016071796,0.051963806,0.11090469,-0.13487549,0.090270996,-0.026550293,100.0
33834,0.016071796,0.051963806,0.11090469,-0.19434814,0.095581055,-0.014868164,100.0
33835,-0.06846619,-0.098731995,-0.01077652,-0.19434814,0.095581055,-0.014868164,100.0
33836,-0.06846619,-0.098731995,-0.01077652,-0.15930176,0.058410645,-0.008496094,100.0
33837,-0.15011024,-0.24824524,-0.14216614,-0.15930176,0.058410645,-0.008496094,100.0
33838,-0.15011024,-0.24824524,-0.14216614,-0.0063720704,-0.040356446,-0.028674318,100.0
33839,-0.1296339,-0.32783508,-0.14334488,-0.0063720704,-0.040356446,-0.028674318,100.0
33840,-0.1296339,-0.32783508,-0.14334488,0.12319336,-0.093457036,-0.016992187,100.0
33841,0.005899906,-0.13912201,0.03300476,0.12319336,-0.093457036,-0.016992187,100.0
33842,0.005899906,-0.13912201,0.03300476,0.0722168,-0.0361084,-0.015930176,100.0
33843,0.12331152,0.24545288,0.23810959,0.0722168,-0.0361084,-0.015930176,100.0
33844,0.12331152,0.24545288,0.23810959,-0.17947999,0.10620117,-0.013806152,100.0
33845,0.07358837,0.26931,0.17650986,-0.17947999,0.10620117,-0.013806152,100.0
33846,0.07358837,0.26931,0.17650986,-0.22514649,0.10089111,0.019116212,100.0
33847,-0.07693243,-0.11784363,-0.13814926,-0.22514649,0.10089111,0.019116212,100.0
33848,-0.07693243,-0.11784363,-0.13814926,0.027612304,0.012744141,0.010620117,100.0
33849,-0.123459816,-0.36188507,-0.2729721,0.027612304,0.012744141,0.010620117,100.0
33850,-0.123459816,-0.36188507,-0.2729721,0.20603028,-0.05628662,0.008496094,100.0
33851,-0.05112362,-0.22587585,-0.11596298,0.20603028,-0.05628662,0.008496094,100.0
33852,-0.05112362,-0.22587585,-0.11596298,0.124255374,-0.08496094,0.04885254,100.0
33853,-0.03977585,-0.027244568,-0.069042206,0.124255374,-0.08496094,0.04885254,100.0
33854,-0.03977585,-0.027244568,-0.069042206,0.2824951,-0.2516968,0.06796875,100.0
33855,0.0025177002,0.121414185,-0.096149445,0.2824951,-0.2516968,0.06796875,100.0
33856,0.0025177002,0.121414185,-0.096149445,0.40993652,-0.26444092,0.057348635,100.0
33857,0.20308828,0.4098053,0.1136055,0.40993652,-0.26444092,0.057348635,100.0
33858,0.20308828,0.4098053,0.1136055,0.16779785,-0.12000733,0.05522461,100.0
33859,0.31848907,0.6472931,0.31783676,0.16779785,-0.12000733,0.05522461,100.0
33860,0.31848907,0.6472931,0.31783676,-0.13699952,0.007434082,0.020178223,100.0
33861,0.20237446,0.50361633,0.21508408,-0.13699952,0.007434082,0.020178223,100.0
33862,0.20237446,0.50361633,0.21508408,-0.25700685,-0.0010620117,0.004248047,100.0
33863,0.05199957,0.043502808,-0.06242752,-0.25700685,-0.0010620117,0.004248047,100.0
33864,0.05199957,0.043502808,-0.06242752,-0.08920898,-0.012744141,-0.04460449,100.0
33865,0.06000805,-0.33398438,-0.17130661,-0.08920898,-0.012744141,-0.04460449,100.0
33866,0.06000805,-0.33398438,-0.17130661,0.0,0.0180542,0.009558106,100.0
33867,0.06310654,-0.28120422,-0.15750504,0.0,0.0180542,0.009558106,100.0
33868,0.06310654,-0.28120422,-0.15750504,0.04460449,0.0,-0.009558106,100.0
33869,-0.0020170212,0.039855957,-0.12680817,0.04460449,0.0,-0.009558106,100.0
33870,-0.0020170212,0.039855957,-0.12680817,0.0053100586,-0.052038576,-0.050976563,100.0
33871,-0.023635387,0.1953125,-0.081207275,0.0053100586,-0.052038576,-0.050976563,100.0
33872,-0.023635387,0.1953125,-0.081207275,-0.045666505,-0.0722168,-0.07540283,100.0
33873,0.01633358,-0.03605652,-0.077819824,-0.045666505,-0.0722168,-0.07540283,100.0
33874,0.01633358,-0.03605652,-0.077819824,0.14655761,-0.11257324,-0.021240234,100.0
33875,0.08394098,-0.21205139,-0.012062073,0.14655761,-0.11257324,-0.021240234,100.0
33876,0.08394098,-0.21205139,-0.012062073,0.20709229,-0.07965088,-0.0053100586,100.0
33877,0.1503439,0.062095642,0.1520195,0.20709229,-0.07965088,-0.0053100586,100.0
33878,0.1503439,0.062095642,0.1520195,0.11044922,0.012744141,-0.0021240234,100.0
33879,0.15091467,0.34003448,0.27759933,0.11044922,0.012744141,-0.0021240234,100.0
33880,0.15091467,0.34003448,0.27759933,-0.09133301,0.09239502,0.0063720704,100.0
33881,0.04813671,0.31175995,0.19306183,-0.09133301,0.09239502,0.0063720704,100.0
33882,0.04813671,0.31175995,0.19306183,-0.1444336,0.11469727,-0.0180542,100.0
33883,-0.07898331,0.09386444,0.010955811,-0.1444336,0.11469727,-0.0180542,100.0
33884,-0.07898331,0.09386444,0.010955811,-0.14018555,0.10301514,-0.032922365,100.0
33885,-0.12192726,-0.11139679,-0.07356262,-0.14018555,0.10301514,-0.032922365,100.0
33886,-0.12192726,-0.11139679,-0.07356262,-0.1529297,0.08920898,-0.038232423,100.0
33887,-0.12858438,-0.1867218,-0.119277954,-0.1529297,0.08920898,-0.038232423,100.0
33888,-0.12858438,-0.1867218,-0.119277954,-0.124255374,0.052038576,-0.06265869,100.0
33889,-0.108129025,-0.22431183,-0.1533699,-0.124255374,0.052038576,-0.06265869,100.0
33890,-0.108129025,-0.22431183,-0.1533699,-0.0063720704,0.004248047,-0.04248047,100.0
33891,-0.056559563,-0.2263031,-0.0642128,-0.0063720704,0.004248047,-0.04248047,100.0
33892,-0.056559563,-0.2263031,-0.0642128,0.016992187,-0.004248047,-0.007434082,100.0
33893,-0.038728714,-0.14141846,0.046295166,0.016992187,-0.004248047,-0.007434082,100.0
33894,-0.038728714,-0.14141846,0.046295166,0.0021240234,0.0053100586,0.016992187,100.0
33895,-0.058582783,-0.08628082,0.03239441,0.0021240234,0.0053100586,0.016992187,100.0
33896,-0.058582783,-0.08628082,0.03239441,0.09664307,-0.013806152,0.0063720704,100.0
33897,-0.058582783,-0.08628082,0.03239441,0.09664307,-0.013806152,0.0063720704,101.0
33898,-0.052713394,-0.002571106,-0.011413574,0.09664307,-0.013806152,0.0063720704,101.0
33899,-0.052713394,-0.002571106,-0.011413574,0.14868164,-0.033984374,0.008496094,101.0
33900,-6.790161E-4,0.21469116,0.006881714,0.14868164,-0.033984374,0.008496094,101.0
33901,-6.790161E-4,0.21469116,0.006881714,0.0541626,-0.03186035,-0.015930176,101.0
33902,0.044928074,0.25492096,0.028759003,0.0541626,-0.03186035,-0.015930176,101.0
33903,0.044928074,0.25492096,0.028759003,0.008496094,-0.039294433,-0.022302246,101.0
33904,0.08091307,0.0565567,0.03561783,0.008496094,-0.039294433,-0.022302246,101.0
33905,0.08091307,0.0565567,0.03561783,0.010620117,-0.020178223,-0.007434082,101.0
33906,0.09840965,-0.07296753,0.02420044,0.010620117,-0.020178223,-0.007434082,101.0
33907,0.09840965,-0.07296753,0.02420044,0.039294433,0.027612304,0.0021240234,101.0
33908,0.11381054,-0.007896423,0.09307861,0.039294433,0.027612304,0.0021240234,101.0
33909,0.11381054,-0.007896423,0.09307861,-0.033984374,0.12213135,0.023364259,101.0
33910,0.055513382,0.24874878,0.16448975,-0.033984374,0.12213135,0.023364259,101.0
33911,0.055513382,0.24874878,0.16448975,-0.24320069,0.20178223,0.016992187,101.0
33912,-0.15375805,0.23893738,0.011756897,-0.24320069,0.20178223,0.016992187,101.0
33913,-0.15375805,0.23893738,0.011756897,-0.3525879,0.13062744,-0.022302246,101.0
33914,-0.28495693,-0.3579483,-0.23591614,-0.3525879,0.13062744,-0.022302246,101.0
33915,-0.28495693,-0.3579483,-0.23591614,0.015930176,-0.08602295,0.023364259,101.0
33916,-0.18099308,-0.67344666,-0.2641983,0.015930176,-0.08602295,0.023364259,101.0
33917,-0.18099308,-0.67344666,-0.2641983,0.25594482,-0.046728518,0.033984374,101.0
33918,0.025712967,-0.23911285,-0.05690384,0.25594482,-0.046728518,0.033984374,101.0
33919,0.025712967,-0.23911285,-0.05690384,0.28355715,0.03717041,0.070092775,101.0
33920,0.08175182,0.2579193,0.063999176,0.28355715,0.03717041,0.070092775,101.0
33921,0.08175182,0.2579193,0.063999176,0.22939454,0.10301514,0.0722168,101.0
33922,-0.033463478,0.38206482,0.04592514,0.22939454,0.10301514,0.0722168,101.0
33923,-0.033463478,0.38206482,0.04592514,0.23258057,0.020178223,0.10089111,101.0
33924,-0.19765711,0.317688,-0.11523819,0.23258057,0.020178223,0.10089111,101.0
33925,-0.19765711,0.317688,-0.11523819,0.26019287,-0.15930176,0.039294433,101.0
33926,-0.17091846,0.24703217,-0.22457504,0.26019287,-0.15930176,0.039294433,101.0
33927,-0.17091846,0.24703217,-0.22457504,0.3536499,-0.271875,0.016992187,101.0
33928,0.059639454,0.31687164,-0.08271408,0.3536499,-0.271875,0.016992187,101.0
33929,0.059639454,0.31687164,-0.08271408,0.21558838,-0.29205322,-0.0180542,101.0
33930,0.24191284,0.4580536,0.035476685,0.21558838,-0.29205322,-0.0180542,101.0
33931,0.24191284,0.4580536,0.035476685,0.124255374,-0.270813,-0.046728518,101.0
33932,0.3580079,0.4032135,0.14003754,0.124255374,-0.270813,-0.046728518,101.0
33933,0.3580079,0.4032135,0.14003754,0.050976563,-0.14974366,-0.04991455,101.0
33934,0.355474,0.25565338,0.19058228,0.050976563,-0.14974366,-0.04991455,101.0
33935,0.355474,0.25565338,0.19058228,-0.059472658,-0.0010620117,-0.0361084,101.0
33936,0.2545452,0.1637268,0.13814545,-0.059472658,-0.0010620117,-0.0361084,101.0
33937,0.2545452,0.1637268,0.13814545,-0.08496094,0.07327881,-0.027612304,101.0
33938,0.13361692,0.10057068,0.089263916,-0.08496094,0.07327881,-0.027612304,101.0
33939,0.13361692,0.10057068,0.089263916,-0.21983643,0.1529297,-0.02442627,101.0
33940,-0.005191803,-0.019332886,0.012062073,-0.21983643,0.1529297,-0.02442627,101.0
33941,-0.005191803,-0.019332886,0.012062073,-0.18054199,0.14868164,-0.020178223,101.0
33942,-0.14548635,-0.13710785,-0.109184265,-0.18054199,0.14868164,-0.020178223,101.0
33943,-0.14548635,-0.13710785,-0.109184265,-0.13699952,0.09664307,-0.040356446,101.0
33944,-0.19464827,-0.2764969,-0.15274048,-0.13699952,0.09664307,-0.040356446,101.0
33945,-0.19464827,-0.2764969,-0.15274048,0.0010620117,0.0021240234,-0.03186035,101.0
33946,-0.118023396,-0.30918884,-0.07764816,0.0010620117,0.0021240234,-0.03186035,101.0
33947,-0.118023396,-0.30918884,-0.07764816,0.06796875,-0.03186035,-0.0063720704,101.0
33948,-0.008981705,-0.10090637,0.036003113,0.06796875,-0.03186035,-0.0063720704,101.0
33949,-0.008981705,-0.10090637,0.036003113,0.022302246,0.0010620117,-0.0021240234,101.0
33950,-0.009101868,0.09322357,0.053462982,0.022302246,0.0010620117,-0.0021240234,101.0
33951,-0.009101868,0.09322357,0.053462982,0.007434082,-0.038232423,-0.010620117,101.0
33952,-0.06745005,0.060028076,-0.022064209,0.007434082,-0.038232423,-0.010620117,101.0
33953,-0.06745005,0.060028076,-0.022064209,0.09133301,-0.1083252,-0.02442627,101.0
33954,-0.030070782,-0.058792114,-0.018604279,0.09133301,-0.1083252,-0.02442627,101.0
33955,-0.030070782,-0.058792114,-0.018604279,0.14868164,-0.1274414,-0.020178223,101.0
33956,0.076395035,0.033714294,0.038166046,0.14868164,-0.1274414,-0.020178223,101.0
33957,0.076395035,0.033714294,0.038166046,0.078588866,-0.1178833,-0.013806152,101.0
33958,0.12033224,0.21952057,0.03432846,0.078588866,-0.1178833,-0.013806152,101.0
33959,0.12033224,0.21952057,0.03432846,0.019116212,-0.11044922,-0.035046387,101.0
33960,0.12066746,0.1676178,-0.009353638,0.019116212,-0.11044922,-0.035046387,101.0
33961,0.12066746,0.1676178,-0.009353638,0.023364259,-0.11363526,-0.0361084,101.0
33962,0.14187098,0.031700134,-0.026123047,0.023364259,-0.11363526,-0.0361084,101.0
33963,0.14187098,0.031700134,-0.026123047,0.023364259,-0.08283692,-0.0361084,101.0
33964,0.18815517,0.031204224,-0.003440857,0.023364259,-0.08283692,-0.0361084,101.0
33965,0.18815517,0.031204224,-0.003440857,-0.020178223,-0.004248047,-0.05522461,101.0
33966,0.18348312,0.061080933,0.0611763,-0.020178223,-0.004248047,-0.05522461,101.0
33967,0.18348312,0.061080933,0.0611763,-0.14018555,0.09239502,-0.07540283,101.0
33968,0.115695,-0.12866211,0.10267639,-0.14018555,0.09239502,-0.07540283,101.0
33969,0.115695,-0.12866211,0.10267639,-0.039294433,0.16461182,-0.07965088,101.0
33970,0.11086655,-0.18654633,0.23417664,-0.039294433,0.16461182,-0.07965088,101.0
33971,0.11086655,-0.18654633,0.23417664,-0.10407715,0.36745605,-0.124255374,101.0
33972,0.17481375,0.4888153,0.48288727,-0.10407715,0.36745605,-0.124255374,101.0
33973,0.17481375,0.4888153,0.48288727,-0.5957886,0.8028809,-0.29523927,101.0
33974,0.04800558,1.423111,0.6880188,-0.5957886,0.8028809,-0.29523927,101.0
33975,0.04800558,1.423111,0.6880188,-1.6949707,1.3052124,-0.66481936,101.0
33976,-0.48398304,1.1872711,0.580822,-1.6949707,1.3052124,-0.66481936,101.0
33977,-0.48398304,1.1872711,0.580822,-2.703882,1.4018555,-0.88359374,101.0
33978,-1.152677,-0.6804199,-0.05744934,-2.703882,1.4018555,-0.88359374,101.0
33979,-1.152677,-0.6804199,-0.05744934,-2.52334,1.0768799,-0.8666016,101.0
33980,-1.5664287,-2.8388062,-1.070118,-2.52334,1.0768799,-0.8666016,101.0
33981,-1.5664287,-2.8388062,-1.070118,-1.9179932,0.7720825,-0.80606693,101.0
33982,-1.3697691,-4.5899887,-1.5851097,-1.9179932,0.7720825,-0.80606693,101.0
33983,-1.3697691,-4.5899887,-1.5851097,-0.1083252,0.39294434,-0.18372802,101.0
33984,-1.0102806,-4.243866,-1.1428947,-0.1083252,0.39294434,-0.18372802,101.0
33985,-1.0102806,-4.243866,-1.1428947,0.74447024,-0.07540283,0.08496094,101.0
33986,-0.8347378,-1.5092926,-0.24488449,0.74447024,-0.07540283,0.08496094,101.0
33987,-0.8347378,-1.5092926,-0.24488449,0.74447024,-0.07540283,0.08496094,101.0
33988,-0.8347378,-1.5092926,-0.24488449,0.7625244,-0.17416993,0.050976563,101.0
33989,-0.47372246,0.7340317,0.58247375,0.7625244,-0.17416993,0.050976563,101.0
33990,-0.47372246,0.7340317,0.58247375,0.3334717,-0.1274414,0.013806152,101.0
33991,-0.20916557,1.3289261,0.7536011,0.3334717,-0.1274414,0.013806152,101.0
33992,-0.20916557,1.3289261,0.7536011,0.04991455,-0.053100586,-0.046728518,101.0
33993,-0.17532825,0.6888962,0.34251785,0.04991455,-0.053100586,-0.046728518,101.0
33994,-0.17532825,0.6888962,0.34251785,0.09239502,-0.18797608,-0.093457036,101.0
33995,-0.048099518,-0.15166473,0.09984207,0.09239502,-0.18797608,-0.093457036,101.0
33996,-0.048099518,-0.15166473,0.09984207,0.18479005,-0.19328614,-0.045666505,101.0
33997,0.13869286,-0.22019958,0.29542542,0.18479005,-0.19328614,-0.045666505,101.0
33998,0.13869286,-0.22019958,0.29542542,-0.18054199,-0.08283692,-0.0361084,101.0
33999,0.15521717,0.005142212,0.41866302,-0.18054199,-0.08283692,-0.0361084,101.0
34000,0.15521717,0.005142212,0.41866302,-0.36108398,0.08602295,-0.038232423,101.0
34001,0.006290436,-0.23892975,0.10543823,-0.36108398,0.08602295,-0.038232423,101.0
34002,0.006290436,-0.23892975,0.10543823,-0.3419678,0.04141846,-0.0053100586,101.0
34003,-0.20506287,-0.50873566,-0.46627045,-0.3419678,0.04141846,-0.0053100586,101.0
34004,-0.20506287,-0.50873566,-0.46627045,0.18479005,-0.118945315,-0.046728518,101.0
34005,-0.16998291,-0.48171997,-0.5886917,0.18479005,-0.118945315,-0.046728518,101.0
34006,-0.16998291,-0.48171997,-0.5886917,0.37489015,-0.19222413,-0.02442627,101.0
34007,0.0990963,-0.08769989,-0.07243347,0.37489015,-0.19222413,-0.02442627,101.0
34008,0.0990963,-0.08769989,-0.07243347,0.2262085,-0.1083252,-0.019116212,101.0
34009,0.2566576,0.3099823,0.447361,0.2262085,-0.1083252,-0.019116212,101.0
34010,0.2566576,0.3099823,0.447361,-0.04991455,0.07646485,-0.025488282,101.0
34011,0.13558769,0.3481598,0.45101547,-0.04991455,0.07646485,-0.025488282,101.0
34012,0.13558769,0.3481598,0.45101547,-0.1539917,0.12213135,-0.022302246,101.0
34013,-0.12061882,0.12773132,-0.0046653748,-0.1539917,0.12213135,-0.022302246,101.0
34014,-0.12061882,0.12773132,-0.0046653748,0.095581055,-0.007434082,-0.0361084,101.0
34015,-0.12916088,-0.0570755,-0.23366547,0.095581055,-0.007434082,-0.0361084,101.0
34016,-0.12916088,-0.0570755,-0.23366547,0.21027832,-0.06584473,-0.016992187,101.0
34017,0.10463047,0.05680847,0.040325165,0.21027832,-0.06584473,-0.016992187,101.0
34018,0.10463047,0.05680847,0.040325165,-0.058410645,-0.0021240234,0.027612304,101.0
34019,0.20106316,0.12485504,0.28144073,-0.058410645,-0.0021240234,0.027612304,101.0
34020,0.20106316,0.12485504,0.28144073,-0.2347046,0.078588866,0.040356446,101.0
34021,0.0038070679,0.05078888,0.04006958,-0.2347046,0.078588866,0.040356446,101.0
34022,0.0038070679,0.05078888,0.04006958,-0.1359375,0.03717041,-0.0010620117,101.0
34023,-0.25120258,-0.033943176,-0.36730957,-0.1359375,0.03717041,-0.0010620117,101.0
34024,-0.25120258,-0.033943176,-0.36730957,0.081774905,-0.08496094,-0.043542482,101.0
34025,-0.20491695,-0.19694519,-0.29288483,0.081774905,-0.08496094,-0.043542482,101.0
34026,-0.20491695,-0.19694519,-0.29288483,0.17947999,-0.14655761,-0.03079834,101.0
34027,0.057440758,-0.18652344,0.18225479,0.17947999,-0.14655761,-0.03079834,101.0
34028,0.057440758,-0.18652344,0.18225479,-0.038232423,-0.032922365,-0.025488282,101.0
34029,0.19685555,0.04524994,0.41906738,-0.038232423,-0.032922365,-0.025488282,101.0
34030,0.19685555,0.04524994,0.41906738,-0.19753419,0.07646485,-0.03717041,101.0
34031,0.099513054,0.18201447,0.12792969,-0.19753419,0.07646485,-0.03717041,101.0
34032,0.099513054,0.18201447,0.12792969,-0.18372802,0.06265869,-0.033984374,101.0
34033,-0.010965347,-0.040725708,-0.24618149,-0.18372802,0.06265869,-0.033984374,101.0
34034,-0.010965347,-0.040725708,-0.24618149,0.09664307,0.027612304,-0.015930176,101.0
34035,0.029643059,-0.2581787,-0.23490906,0.09664307,0.027612304,-0.015930176,101.0
34036,0.029643059,-0.2581787,-0.23490906,0.18372802,-0.0063720704,0.0361084,101.0
34037,0.08222294,-0.054908752,0.009986877,0.18372802,-0.0063720704,0.0361084,101.0
34038,0.08222294,-0.054908752,0.009986877,-0.008496094,0.025488282,0.057348635,101.0
34039,0.013800621,0.24358368,0.0730629,-0.008496094,0.025488282,0.057348635,101.0
34040,0.013800621,0.24358368,0.0730629,0.011682129,0.060534667,0.020178223,101.0
34041,-0.13403988,0.30146027,-0.040988922,0.011682129,0.060534667,0.020178223,101.0
34042,-0.13403988,0.30146027,-0.040988922,-0.0637207,0.052038576,-0.0180542,101.0
34043,-0.18268394,-0.01399231,-0.04150772,-0.0637207,0.052038576,-0.0180542,101.0
34044,-0.18268394,-0.01399231,-0.04150772,0.027612304,0.0010620117,-0.008496094,101.0
34045,-0.115507126,-0.24485016,0.10928726,0.027612304,0.0010620117,-0.008496094,101.0
34046,-0.115507126,-0.24485016,0.10928726,-0.020178223,-0.0053100586,-0.0053100586,101.0
34047,-0.05898285,-0.019821167,0.19942856,-0.020178223,-0.0053100586,-0.0053100586,101.0
34048,-0.05898285,-0.019821167,0.19942856,-0.16461182,-0.012744141,-0.05522461,101.0
34049,-0.024065971,0.090652466,0.10958862,-0.16461182,-0.012744141,-0.05522461,101.0
34050,-0.024065971,0.090652466,0.10958862,-0.2081543,-0.012744141,-0.05628662,101.0
34051,0.011631012,0.011329651,0.019203186,-0.2081543,-0.012744141,-0.05628662,101.0
34052,0.011631012,0.011329651,0.019203186,-0.1359375,-0.035046387,-0.052038576,101.0
34053,0.17567444,-0.24967957,-0.2566452,-0.1359375,-0.035046387,-0.052038576,101.0
34054,0.17567444,-0.24967957,-0.2566452,0.118945315,0.0063720704,0.06690674,101.0
34055,0.18740273,-0.19389343,-0.22917938,0.118945315,0.0063720704,0.06690674,101.0
34056,0.18740273,-0.19389343,-0.22917938,0.19753419,0.039294433,0.08814698,101.0
34057,0.21938038,0.26216125,0.25380325,0.19753419,0.039294433,0.08814698,101.0
34058,0.21938038,0.26216125,0.25380325,-0.29311523,0.20709229,0.16461182,101.0
34059,0.14814854,0.31461334,0.33132553,-0.29311523,0.20709229,0.16461182,101.0
34060,0.14814854,0.31461334,0.33132553,-0.45029297,0.2166504,0.22196046,101.0
34061,-0.19689846,-0.12967682,-0.116004944,-0.45029297,0.2166504,0.22196046,101.0
34062,-0.19689846,-0.12967682,-0.116004944,-0.15505372,0.11363526,0.40144044,101.0
34063,-0.28624153,-0.44386292,-0.29177856,-0.15505372,0.11363526,0.40144044,101.0
34064,-0.28624153,-0.44386292,-0.29177856,-0.011682129,0.028674318,0.40356445,101.0
34065,-0.6115742,-0.9126358,-0.6990967,-0.011682129,0.028674318,0.40356445,101.0
34066,-0.6115742,-0.9126358,-0.6990967,0.89421386,-0.41737062,0.44604492,101.0
34067,-0.51811695,-0.53321075,-0.72717285,0.89421386,-0.41737062,0.44604492,101.0
34068,-0.51811695,-0.53321075,-0.72717285,1.0418335,-0.62127686,0.40356445,101.0
34069,-0.10933018,0.32440948,-0.16682053,1.0418335,-0.62127686,0.40356445,101.0
34070,-0.10933018,0.32440948,-0.16682053,1.532483,-0.73597413,0.2803711,101.0
34071,0.38037014,0.80581665,0.32837296,1.532483,-0.73597413,0.2803711,101.0
34072,0.38037014,0.80581665,0.32837296,1.1310425,-0.5533081,0.25700685,101.0
34073,1.0595818,2.3817291,1.3657265,1.1310425,-0.5533081,0.25700685,101.0
34074,1.0595818,2.3817291,1.3657265,-0.33240968,-0.13912354,0.07115479,101.0
34075,0.7606659,1.9848099,0.9173012,-0.33240968,-0.13912354,0.07115479,101.0
34076,0.7606659,1.9848099,0.9173012,-0.41312256,-0.18903808,0.010620117,101.0
34077,0.255188,0.6858368,-0.3256569,-0.41312256,-0.18903808,0.010620117,101.0
34078,0.255188,0.6858368,-0.3256569,-0.4088745,-0.24001466,-0.09664307,101.0
34079,0.23837852,0.108047485,-0.44396973,-0.4088745,-0.24001466,-0.09664307,101.0
34080,0.23837852,0.108047485,-0.44396973,-0.34940186,-0.22833252,-0.08602295,101.0
34081,0.32075596,-0.81585693,-0.5470352,-0.34940186,-0.22833252,-0.08602295,101.0
34082,0.32075596,-0.81585693,-0.5470352,0.10620117,-0.40356445,0.011682129,101.0
34083,0.40435886,-0.86639404,-0.30492783,0.10620117,-0.40356445,0.011682129,101.0
34084,0.40435886,-0.86639404,-0.30492783,0.33665773,-0.38444826,0.058410645,101.0
34085,0.49699783,0.13954163,0.21864319,0.33665773,-0.38444826,0.058410645,101.0
34086,0.49699783,0.13954163,0.21864319,0.004248047,-0.16142578,0.004248047,101.0
34087,0.46997356,0.7885132,0.53308105,0.004248047,-0.16142578,0.004248047,101.0
34088,0.46997356,0.7885132,0.53308105,-0.31966552,0.019116212,-0.029736329,101.0
34089,0.36125755,0.515007,0.46269608,-0.31966552,0.019116212,-0.029736329,101.0
34090,0.36125755,0.515007,0.46269608,-0.4428589,0.15611573,-0.019116212,101.0
34091,0.2196331,0.15979767,0.29188538,-0.4428589,0.15611573,-0.019116212,101.0
34092,0.2196331,0.15979767,0.29188538,-0.4428589,0.15611573,-0.019116212,101.0
34093,0.2196331,0.15979767,0.29188538,-0.727478,0.29948732,-0.07965088,101.0
34094,-0.059437275,-0.4060974,-0.050769806,-0.727478,0.29948732,-0.07965088,101.0
34095,-0.059437275,-0.4060974,-0.050769806,-0.84748536,0.33240968,-0.09133301,101.0
34096,-0.17388058,-0.8139038,-0.14227295,-0.84748536,0.33240968,-0.09133301,101.0
34097,-0.17388058,-0.8139038,-0.14227295,-0.60322267,0.2782471,-0.0541626,101.0
34098,-0.30805016,-1.4100494,-0.34898376,-0.60322267,0.2782471,-0.0541626,101.0
34099,-0.30805016,-1.4100494,-0.34898376,-0.13806152,0.19434814,-0.02442627,101.0
34100,-0.32605457,-1.1153336,-0.3378563,-0.13806152,0.19434814,-0.02442627,101.0
34101,-0.32605457,-1.1153336,-0.3378563,0.06159668,0.115759276,-0.021240234,101.0
34102,-0.26866817,-0.3987732,-0.18759537,0.06159668,0.115759276,-0.021240234,101.0
34103,-0.26866817,-0.3987732,-0.18759537,0.14655761,0.06159668,-0.047790527,101.0
34104,-0.17937565,0.14163971,0.009651184,0.14655761,0.06159668,-0.047790527,101.0
34105,-0.17937565,0.14163971,0.009651184,0.04991455,0.0541626,-0.08814698,101.0
34106,-0.09081459,0.197258,0.15180206,0.04991455,0.0541626,-0.08814698,101.0
34107,-0.09081459,0.197258,0.15180206,-0.033984374,0.07327881,-0.07646485,101.0
34108,1.5990644,5.2954407,0.14550018,-0.033984374,0.07327881,-0.07646485,101.0
34109,1.5990644,5.2954407,0.14550018,0.021240234,0.020178223,-0.047790527,101.0
34110,-0.45429325,-1.1894455,0.06271362,0.021240234,0.020178223,-0.047790527,101.0
34111,-0.45429325,-1.1894455,0.06271362,0.07540283,-0.028674318,-0.053100586,101.0
34112,-0.36338615,-0.85803986,0.035095215,0.07540283,-0.028674318,-0.053100586,101.0
34113,-0.36338615,-0.85803986,0.035095215,0.057348635,-0.050976563,-0.07327881,101.0
34114,-0.21374321,-0.53230286,0.054138184,0.057348635,-0.050976563,-0.07327881,101.0
34115,-0.21374321,-0.53230286,0.054138184,-0.033984374,-0.04248047,-0.057348635,101.0
34116,-0.07919788,-0.43135834,0.040073395,-0.033984374,-0.04248047,-0.057348635,101.0
34117,-0.07919788,-0.43135834,0.040073395,-0.058410645,-0.0180542,-0.033984374,101.0
34118,-0.03032589,-0.4693451,0.002166748,-0.058410645,-0.0180542,-0.033984374,101.0
34119,-0.03032589,-0.4693451,0.002166748,-0.05628662,0.027612304,0.009558106,101.0
34120,-0.07755661,-0.43910217,-0.020202637,-0.05628662,0.027612304,0.009558106,101.0
34121,-0.07755661,-0.43910217,-0.020202637,-0.057348635,0.0180542,0.015930176,101.0
34122,-0.15446472,-0.35007477,-0.03011322,-0.057348635,0.0180542,0.015930176,101.0
34123,-0.15446472,-0.35007477,-0.03011322,-0.0637207,0.019116212,0.004248047,101.0
34124,-0.1979742,-0.34763336,-0.07064819,-0.0637207,0.019116212,0.004248047,101.0
34125,-0.1979742,-0.34763336,-0.07064819,0.03186035,-0.020178223,-0.007434082,101.0
34126,-0.1616869,-0.414505,-0.115737915,0.03186035,-0.020178223,-0.007434082,101.0
34127,-0.1616869,-0.414505,-0.115737915,0.1996582,-0.035046387,-0.009558106,101.0
34128,-0.06268692,-0.28321075,-0.077819824,0.1996582,-0.035046387,-0.009558106,101.0
34129,-0.06268692,-0.28321075,-0.077819824,0.26550293,-0.053100586,-0.0053100586,101.0
34130,1.0681152E-4,0.034492493,0.029270172,0.26550293,-0.053100586,-0.0053100586,101.0
34131,1.0681152E-4,0.034492493,0.029270172,0.19328614,-0.07434082,-0.009558106,101.0
34132,0.01081562,0.26476288,0.075489044,0.19328614,-0.07434082,-0.009558106,101.0
34133,0.01081562,0.26476288,0.075489044,0.13381349,-0.09770508,-0.015930176,101.0
34134,0.029514313,0.25802612,0.049575806,0.13381349,-0.09770508,-0.015930176,101.0
34135,0.029514313,0.25802612,0.049575806,0.11363526,-0.11363526,-0.022302246,101.0
34136,0.07807922,0.14298248,0.050014496,0.11363526,-0.11363526,-0.022302246,101.0
34137,0.07807922,0.14298248,0.050014496,0.09239502,-0.10089111,-0.012744141,101.0
34138,0.14696026,0.049102783,0.18345642,0.09239502,-0.10089111,-0.012744141,101.0
34139,0.14696026,0.049102783,0.18345642,-0.10407715,-0.06903076,0.022302246,101.0
34140,0.10637474,-0.026290894,0.111572266,-0.10407715,-0.06903076,0.022302246,101.0
34141,0.10637474,-0.026290894,0.111572266,-0.1359375,-0.081774905,0.0180542,101.0
34142,-0.011213303,-0.21669006,-0.26049805,-0.1359375,-0.081774905,0.0180542,101.0
34143,-0.011213303,-0.21669006,-0.26049805,0.32178956,-0.13381349,0.016992187,101.0
34144,0.012598991,-0.34679413,-0.3790512,0.32178956,-0.13381349,0.016992187,101.0
34145,0.012598991,-0.34679413,-0.3790512,0.60322267,-0.24532472,0.115759276,101.0
34146,0.15313339,0.06881714,-0.15965271,0.60322267,-0.24532472,0.115759276,101.0
34147,0.15313339,0.06881714,-0.15965271,0.57561034,-0.18479005,0.14974366,101.0
34148,0.2137909,0.7478409,0.050304413,0.57561034,-0.18479005,0.14974366,101.0
34149,0.2137909,0.7478409,0.050304413,0.42268068,-0.15505372,0.07434082,101.0
34150,0.17894268,1.0703812,0.15415955,0.42268068,-0.15505372,0.07434082,101.0
34151,0.17894268,1.0703812,0.15415955,0.20390625,-0.14549561,0.0031860352,101.0
34152,0.1606226,0.82980347,0.19665527,0.20390625,-0.14549561,0.0031860352,101.0
34153,0.1606226,0.82980347,0.19665527,-0.04991455,-0.1539917,-0.012744141,101.0
34154,0.1302681,0.22037506,0.02540207,-0.04991455,-0.1539917,-0.012744141,101.0
34155,0.1302681,0.22037506,0.02540207,0.095581055,-0.2527588,0.014868164,101.0
34156,0.11581135,-0.18683624,-0.18009567,0.095581055,-0.2527588,0.014868164,101.0
34157,0.11581135,-0.18683624,-0.18009567,0.30373535,-0.32497558,0.03079834,101.0
34158,0.19505358,-0.13941193,-0.15203476,0.30373535,-0.32497558,0.03079834,101.0
34159,0.19505358,-0.13941193,-0.15203476,0.36851808,-0.3525879,0.033984374,101.0
34160,0.38510752,0.15306091,0.09510803,0.36851808,-0.3525879,0.033984374,101.0
34161,0.38510752,0.15306091,0.09510803,0.30373535,-0.20921631,0.08283692,101.0
34162,0.46854734,0.46108246,0.26529694,0.30373535,-0.20921631,0.08283692,101.0
34163,0.46854734,0.46108246,0.26529694,0.1359375,-0.1178833,0.0998291,101.0
34164,0.3130579,0.5181351,0.1314888,0.1359375,-0.1178833,0.0998291,101.0
34165,0.3130579,0.5181351,0.1314888,0.107263185,-0.12319336,0.06903076,101.0
34166,0.1769352,0.37574005,-0.04799652,0.107263185,-0.12319336,0.06903076,101.0
34167,0.1769352,0.37574005,-0.04799652,0.14230958,-0.13062744,0.047790527,101.0
34168,0.17798615,0.27590942,-0.07849884,0.14230958,-0.13062744,0.047790527,101.0
34169,0.17798615,0.27590942,-0.07849884,0.060534667,-0.11151123,0.032922365,101.0
34170,0.20752573,0.19919586,-0.082977295,0.060534667,-0.11151123,0.032922365,101.0
34171,0.20752573,0.19919586,-0.082977295,0.008496094,-0.10089111,0.022302246,101.0
34172,0.15050507,-0.0010299683,-0.14835358,0.008496094,-0.10089111,0.022302246,101.0
34173,0.15050507,-0.0010299683,-0.14835358,0.16142578,-0.17416993,0.04885254,101.0
34174,0.107647896,-0.12976837,-0.12239075,0.16142578,-0.17416993,0.04885254,101.0
34175,0.107647896,-0.12976837,-0.12239075,0.32391357,-0.19116211,0.07752686,101.0
34176,0.17242241,0.1341095,0.018444061,0.32391357,-0.19116211,0.07752686,101.0
34177,0.17242241,0.1341095,0.018444061,0.271875,-0.121069334,0.060534667,101.0
34178,0.22330141,0.46392822,0.090732574,0.271875,-0.121069334,0.060534667,101.0
34179,0.22330141,0.46392822,0.090732574,0.15823975,-0.087084964,0.045666505,101.0
34180,0.20117521,0.49910736,0.06335449,0.15823975,-0.087084964,0.045666505,101.0
34181,0.20117521,0.49910736,0.06335449,0.10301514,-0.10407715,0.015930176,101.0
34182,0.17433119,0.31090546,0.07050705,0.10301514,-0.10407715,0.015930176,101.0
34183,0.17433119,0.31090546,0.07050705,0.0053100586,-0.09133301,0.021240234,101.0
34184,0.18133497,0.14146423,0.06984711,0.0053100586,-0.09133301,0.021240234,101.0
34185,0.18133497,0.14146423,0.06984711,0.007434082,-0.011682129,0.023364259,101.0
34186,0.16575909,0.075424194,0.020450592,0.007434082,-0.011682129,0.023364259,101.0
34187,0.16575909,0.075424194,0.020450592,0.010620117,0.04991455,0.053100586,101.0
34188,0.10112572,0.0879364,0.01576233,0.010620117,0.04991455,0.053100586,101.0
34189,0.10112572,0.0879364,0.01576233,0.0,0.06584473,0.040356446,101.0
34190,0.013786316,0.17147064,-0.015090942,0.0,0.06584473,0.040356446,101.0
34191,0.013786316,0.17147064,-0.015090942,-0.12000733,0.033984374,0.007434082,101.0
34192,-0.043011665,0.079315186,-0.15041351,-0.12000733,0.033984374,0.007434082,101.0
34193,-0.043011665,0.079315186,-0.15041351,-0.004248047,-0.050976563,-0.021240234,101.0
34194,-0.004025936,-0.11087799,-0.17784882,-0.004248047,-0.050976563,-0.021240234,101.0
34195,-0.004025936,-0.11087799,-0.17784882,0.09133301,-0.06796875,-0.009558106,101.0
34196,0.07251167,-0.03604126,0.011066437,0.09133301,-0.06796875,-0.009558106,101.0
34197,0.07251167,-0.03604126,0.011066437,0.021240234,-0.013806152,-0.0063720704,101.0
34198,0.048219204,0.13150787,0.1709137,0.021240234,-0.013806152,-0.0063720704,101.0
34199,0.048219204,0.13150787,0.1709137,-0.0637207,0.021240234,-0.016992187,101.0
34200,-0.060118675,0.07520294,0.12440109,-0.0637207,0.021240234,-0.016992187,101.0
34201,-0.060118675,0.07520294,0.12440109,-0.027612304,-0.03079834,-0.02442627,101.0
34202,-0.060118675,0.07520294,0.12440109,-0.027612304,-0.03079834,-0.02442627,101.0
34203,-0.10921574,-0.07632446,0.039634705,-0.027612304,-0.03079834,-0.02442627,101.0
34204,-0.10921574,-0.07632446,0.039634705,-0.070092775,-0.07752686,-0.043542482,101.0
34205,-0.038263798,-0.078323364,0.03194046,-0.070092775,-0.07752686,-0.043542482,101.0
34206,-0.038263798,-0.078323364,0.03194046,-0.11044922,-0.083898924,-0.035046387,101.0
34207,0.05409336,-0.004638672,-0.045967102,-0.11044922,-0.083898924,-0.035046387,101.0
34208,0.05409336,-0.004638672,-0.045967102,-0.14761963,-0.13062744,-0.043542482,101.0
34209,0.12730789,-0.080345154,-0.11248016,-0.14761963,-0.13062744,-0.043542482,101.0
34210,0.12730789,-0.080345154,-0.11248016,0.0180542,-0.11151123,-0.004248047,101.0
34211,0.17707825,-0.17372131,-0.030204773,0.0180542,-0.11151123,-0.004248047,101.0
34212,0.17707825,-0.17372131,-0.030204773,0.04885254,-0.07646485,0.052038576,101.0
34213,0.10293007,-0.1774292,-0.081035614,0.04885254,-0.07646485,0.052038576,101.0
34214,0.10293007,-0.1774292,-0.081035614,0.17735596,-0.18372802,0.08602295,101.0
34215,0.058039665,-0.09458923,-0.15377045,0.17735596,-0.18372802,0.08602295,101.0
34216,0.058039665,-0.09458923,-0.15377045,0.36851808,-0.23789063,0.08920898,101.0
34217,0.20490313,0.17668152,0.0054740906,0.36851808,-0.23789063,0.08920898,101.0
34218,0.20490313,0.17668152,0.0054740906,0.19753419,-0.1720459,0.081774905,101.0
34219,0.3314395,0.59739685,0.07648468,0.19753419,-0.1720459,0.081774905,101.0
34220,0.3314395,0.59739685,0.07648468,-0.019116212,-0.057348635,-0.011682129,101.0
34221,0.28706312,0.65340424,0.025371552,-0.019116212,-0.057348635,-0.011682129,101.0
34222,0.28706312,0.65340424,0.025371552,-0.11363526,0.02442627,-0.04248047,101.0
34223,0.15651798,0.23698425,-0.018009186,-0.11363526,0.02442627,-0.04248047,101.0
34224,0.15651798,0.23698425,-0.018009186,-0.09239502,0.004248047,-0.05628662,101.0
34225,0.09751654,-0.123939514,-0.050746918,-0.09239502,0.004248047,-0.05628662,101.0
34226,0.09751654,-0.123939514,-0.050746918,-0.04248047,0.057348635,-0.035046387,101.0
34227,0.08990288,-0.15959167,-0.080451965,-0.04248047,0.057348635,-0.035046387,101.0
34228,0.08990288,-0.15959167,-0.080451965,0.0031860352,0.08814698,-0.039294433,101.0
34229,0.06905365,-0.046592712,-0.037960052,0.0031860352,0.08814698,-0.039294433,101.0
34230,0.06905365,-0.046592712,-0.037960052,-0.021240234,0.13275146,-0.020178223,101.0
34231,0.047246933,0.0031280518,0.13403702,-0.021240234,0.13275146,-0.020178223,101.0
34232,0.047246933,0.0031280518,0.13403702,-0.07965088,0.21134034,0.019116212,101.0
34233,-0.046345234,-0.0287323,0.2507248,-0.07965088,0.21134034,0.019116212,101.0
34234,-0.046345234,-0.0287323,0.2507248,-0.21558838,0.33134767,0.011682129,101.0
34235,-0.20682716,-0.122047424,0.17534637,-0.21558838,0.33134767,0.011682129,101.0
34236,-0.20682716,-0.122047424,0.17534637,-0.16673584,0.3462158,-0.0010620117,101.0
34237,-0.32395744,-0.116363525,0.063064575,-0.16673584,0.3462158,-0.0010620117,101.0
34238,-0.32395744,-0.116363525,0.063064575,-0.25063476,0.38444826,-0.04248047,101.0
34239,-0.3653059,-0.047950745,-0.009742737,-0.25063476,0.38444826,-0.04248047,101.0
34240,-0.3653059,-0.047950745,-0.009742737,-0.36533204,0.3802002,-0.081774905,101.0
34241,-0.42055273,-0.20648956,-0.11053085,-0.36533204,0.3802002,-0.081774905,101.0
34242,-0.42055273,-0.20648956,-0.11053085,-0.30161133,0.25700685,-0.06584473,101.0
34243,-0.44468164,-0.4588089,-0.1736908,-0.30161133,0.25700685,-0.06584473,101.0
34244,-0.44468164,-0.4588089,-0.1736908,-0.098767094,0.11257324,-0.046728518,101.0
34245,-0.36916065,-0.43463898,-0.09535217,-0.098767094,0.11257324,-0.046728518,101.0
34246,-0.36916065,-0.43463898,-0.09535217,-0.07540283,0.087084964,-0.04141846,101.0
34247,-0.28756475,-0.2987976,-9.498596E-4,-0.07540283,0.087084964,-0.04141846,101.0
34248,-0.28756475,-0.2987976,-9.498596E-4,0.0010620117,0.0180542,-0.038232423,101.0
34249,-0.21520805,-0.3209076,0.030918121,0.0010620117,0.0180542,-0.038232423,101.0
34250,-0.21520805,-0.3209076,0.030918121,0.11151123,-0.045666505,0.004248047,101.0
34251,-0.10131693,-0.18123627,0.08260727,0.11151123,-0.045666505,0.004248047,101.0
34252,-0.10131693,-0.18123627,0.08260727,0.14337158,-0.015930176,0.011682129,101.0
34253,-0.018822193,0.12651825,0.18803406,0.14337158,-0.015930176,0.011682129,101.0
34254,-0.018822193,0.12651825,0.18803406,-0.052038576,0.0053100586,0.035046387,101.0
34255,-0.053570747,0.19581604,0.12281799,-0.052038576,0.0053100586,0.035046387,101.0
34256,-0.053570747,0.19581604,0.12281799,-0.0541626,-0.0361084,0.038232423,101.0
34257,-0.109861374,0.052955627,-0.114162445,-0.0541626,-0.0361084,0.038232423,101.0
34258,-0.109861374,0.052955627,-0.114162445,0.090270996,-0.06903076,0.013806152,101.0
34259,-0.082481384,0.0066223145,-0.23155212,0.090270996,-0.06903076,0.013806152,101.0
34260,-0.082481384,0.0066223145,-0.23155212,0.12213135,-0.16885987,-0.004248047,101.0
34261,0.010699272,0.21274567,-0.18255615,0.12213135,-0.16885987,-0.004248047,101.0
34262,0.010699272,0.21274567,-0.18255615,0.021240234,-0.21983643,-0.07434082,101.0
34263,0.15128422,0.33464813,-0.014770508,0.021240234,-0.21983643,-0.07434082,101.0
34264,0.15128422,0.33464813,-0.014770508,-0.09133301,-0.1709839,-0.070092775,101.0
34265,0.21365452,0.1243515,0.074783325,-0.09133301,-0.1709839,-0.070092775,101.0
34266,0.21365452,0.1243515,0.074783325,-0.07540283,-0.14761963,-0.0637207,101.0
34267,0.19475174,-0.12843323,0.07501221,-0.07540283,-0.14761963,-0.0637207,101.0
34268,0.19475174,-0.12843323,0.07501221,0.0063720704,-0.07752686,-0.014868164,101.0
34269,0.16914368,-0.12095642,0.09694672,0.0063720704,-0.07752686,-0.014868164,101.0
34270,0.16914368,-0.12095642,0.09694672,-0.014868164,-0.009558106,-0.033984374,101.0
34271,0.123547554,-0.0020751953,0.11392212,-0.014868164,-0.009558106,-0.033984374,101.0
34272,0.123547554,-0.0020751953,0.11392212,-0.11363526,0.035046387,-0.0180542,101.0
34273,0.055051327,-0.06567383,0.051841736,-0.11363526,0.035046387,-0.0180542,101.0
34274,0.055051327,-0.06567383,0.051841736,-0.08602295,0.007434082,-0.0031860352,101.0
34275,-0.009584427,-0.19850922,-0.0921936,-0.08602295,0.007434082,-0.0031860352,101.0
34276,-0.009584427,-0.19850922,-0.0921936,0.012744141,-0.009558106,-0.008496094,101.0
34277,-0.023878574,-0.22303772,-0.15932465,0.012744141,-0.009558106,-0.008496094,101.0
34278,-0.023878574,-0.22303772,-0.15932465,0.12319336,-0.035046387,-0.014868164,101.0
34279,-2.9182434E-4,-0.08835602,-0.08779907,0.12319336,-0.035046387,-0.014868164,101.0
34280,-2.9182434E-4,-0.08835602,-0.08779907,0.13699952,-0.047790527,-0.02442627,101.0
34281,0.042356968,0.06769562,0.04333496,0.13699952,-0.047790527,-0.02442627,101.0
34282,0.042356968,0.06769562,0.04333496,0.08496094,-0.03717041,-0.010620117,101.0
34283,0.051390648,0.11188507,0.05218506,0.08496094,-0.03717041,-0.010620117,101.0
34284,0.051390648,0.11188507,0.05218506,0.11682129,-0.04885254,-0.0021240234,101.0
34285,0.054955482,0.113861084,-0.014720917,0.11682129,-0.04885254,-0.0021240234,101.0
34286,0.054955482,0.113861084,-0.014720917,0.1359375,-0.057348635,-0.0010620117,101.0
34287,0.0840888,0.16352081,0.029289246,0.1359375,-0.057348635,-0.0010620117,101.0
34288,0.0840888,0.16352081,0.029289246,0.07115479,-0.04248047,-0.0021240234,101.0
34289,0.07162857,0.24665833,0.08653259,0.07115479,-0.04248047,-0.0021240234,101.0
34290,0.07162857,0.24665833,0.08653259,-0.011682129,-0.028674318,-0.004248047,101.0
34291,-0.009213448,0.19565582,0.0013198853,-0.011682129,-0.028674318,-0.004248047,101.0
34292,-0.009213448,0.19565582,0.0013198853,0.02442627,-0.043542482,-0.029736329,101.0
34293,-0.04743433,-0.04385376,-0.09227753,0.02442627,-0.043542482,-0.029736329,101.0
34294,-0.04743433,-0.04385376,-0.09227753,0.14549561,-0.1083252,-0.004248047,101.0
34295,0.038505554,-0.100234985,0.010246277,0.14549561,-0.1083252,-0.004248047,101.0
34296,0.038505554,-0.100234985,0.010246277,0.057348635,-0.12000733,0.010620117,101.0
34297,0.12980366,0.084251404,0.15999222,0.057348635,-0.12000733,0.010620117,101.0
34298,0.12980366,0.084251404,0.15999222,-0.11682129,-0.04141846,-0.0063720704,101.0
34299,0.10922623,0.18766785,0.0370636,-0.11682129,-0.04141846,-0.0063720704,101.0
34300,0.10922623,0.18766785,0.0370636,-0.078588866,-0.046728518,0.0010620117,101.0
34301,0.055374146,0.08302307,-0.16160965,-0.078588866,-0.046728518,0.0010620117,101.0
34302,0.055374146,0.08302307,-0.16160965,0.08071289,-0.060534667,-0.0031860352,101.0
34303,0.10826397,-0.013839722,-0.07664108,0.08071289,-0.060534667,-0.0031860352,101.0
34304,0.10826397,-0.013839722,-0.07664108,0.040356446,-0.0031860352,0.004248047,101.0
34305,0.11808109,0.01966858,-0.0051727295,0.040356446,-0.0031860352,0.004248047,101.0
34306,0.11808109,0.01966858,-0.0051727295,0.040356446,-0.0031860352,0.004248047,101.0
34307,0.11808109,0.01966858,-0.0051727295,0.004248047,-0.03717041,0.009558106,101.0
34308,0.06294632,-0.001876831,-0.13420486,0.004248047,-0.03717041,0.009558106,101.0
34309,0.06294632,-0.001876831,-0.13420486,0.18797608,-0.06584473,-0.004248047,101.0
34310,0.064590454,-0.042907715,-0.15655899,0.18797608,-0.06584473,-0.004248047,101.0
34311,0.064590454,-0.042907715,-0.15655899,0.26125488,-0.04991455,0.0010620117,101.0
34312,0.094287395,0.14107513,-0.011634827,0.26125488,-0.04991455,0.0010620117,101.0
34313,0.094287395,0.14107513,-0.011634827,0.20284425,-0.02442627,-0.0063720704,101.0
34314,0.0892725,0.42536163,0.16116333,0.20284425,-0.02442627,-0.0063720704,101.0
34315,0.0892725,0.42536163,0.16116333,-0.05522461,0.025488282,-0.015930176,101.0
34316,0.030341148,0.4239807,0.17290115,-0.05522461,0.025488282,-0.015930176,101.0
34317,0.030341148,0.4239807,0.17290115,-0.13806152,0.015930176,-0.027612304,101.0
34318,-0.015363216,0.06676483,0.033195496,-0.13806152,0.015930176,-0.027612304,101.0
34319,-0.015363216,0.06676483,0.033195496,-0.058410645,0.043542482,-0.011682129,101.0
34320,-0.016721725,-0.21015167,-0.057304382,-0.058410645,0.043542482,-0.011682129,101.0
34321,-0.016721725,-0.21015167,-0.057304382,0.0063720704,0.045666505,-0.004248047,101.0
34322,-0.022239685,-0.102264404,-0.052936554,0.0063720704,0.045666505,-0.004248047,101.0
34323,-0.022239685,-0.102264404,-0.052936554,-0.010620117,0.04248047,-0.015930176,101.0
34324,-0.05670786,0.063438416,-0.033168793,-0.010620117,0.04248047,-0.015930176,101.0
34325,-0.05670786,0.063438416,-0.033168793,-0.013806152,0.019116212,-0.027612304,101.0
34326,-0.07604265,-9.918213E-4,-0.020957947,-0.013806152,0.019116212,-0.027612304,101.0
34327,-0.07604265,-9.918213E-4,-0.020957947,0.060534667,-0.014868164,-0.021240234,101.0
34328,-0.045514107,-0.03517151,0.0058288574,0.060534667,-0.014868164,-0.021240234,101.0
34329,-0.045514107,-0.03517151,0.0058288574,0.052038576,-0.0021240234,-0.022302246,101.0
34330,0.0065698624,0.05821228,0.037769318,0.052038576,-0.0021240234,-0.022302246,101.0
34331,0.0065698624,0.05821228,0.037769318,-0.014868164,0.013806152,-0.035046387,101.0
34332,0.033332348,0.11778259,0.060512543,-0.014868164,0.013806152,-0.035046387,101.0
34333,0.033332348,0.11778259,0.060512543,-0.09239502,0.04460449,-0.03186035,101.0
34334,-0.0514102,-0.0956192,-0.0128211975,-0.09239502,0.04460449,-0.03186035,101.0
34335,-0.0514102,-0.0956192,-0.0128211975,-0.08283692,-0.021240234,-0.059472658,101.0
34336,-0.07252455,-0.49266052,-0.066020966,-0.08283692,-0.021240234,-0.059472658,101.0
34337,-0.07252455,-0.49266052,-0.066020966,0.29630128,-0.02442627,-0.053100586,101.0
34338,0.19267607,-0.039649963,0.31180573,0.29630128,-0.02442627,-0.053100586,101.0
34339,0.19267607,-0.039649963,0.31180573,0.040356446,0.33240968,-0.06690674,101.0
34340,0.3427887,1.3029327,0.8035202,0.040356446,0.33240968,-0.06690674,101.0
34341,0.3427887,1.3029327,0.8035202,-1.0439576,0.814563,-0.28780517,101.0
34342,-0.07517052,1.7324448,0.69234085,-1.0439576,0.814563,-0.28780517,101.0
34343,-0.07517052,1.7324448,0.69234085,-2.1070313,0.96430665,-0.5777344,101.0
34344,-0.7349167,0.26831818,-0.05273056,-2.1070313,0.96430665,-0.5777344,101.0
34345,-0.7349167,0.26831818,-0.05273056,-2.1314576,0.6680054,-0.5957886,101.0
34346,-1.0550594,-1.9701385,-0.96762466,-2.1314576,0.6680054,-0.5957886,101.0
34347,-1.0550594,-1.9701385,-0.96762466,-1.442212,0.40037844,-0.52250975,101.0
34348,-0.7971239,-3.8735733,-1.2606964,-1.442212,0.40037844,-0.52250975,101.0
34349,-0.7971239,-3.8735733,-1.2606964,0.107263185,0.16461182,-0.021240234,101.0
34350,-0.47485733,-3.6351013,-0.7509918,0.107263185,0.16461182,-0.021240234,101.0
34351,-0.47485733,-3.6351013,-0.7509918,0.89208984,-0.17947999,0.1996582,101.0
34352,-0.3572173,-1.0590744,-0.031555176,0.89208984,-0.17947999,0.1996582,101.0
34353,-0.3572173,-1.0590744,-0.031555176,0.7582764,-0.20921631,0.20603028,101.0
34354,-0.15558577,1.0640793,0.40312576,0.7582764,-0.20921631,0.20603028,101.0
34355,-0.15558577,1.0640793,0.40312576,0.5511841,-0.15186767,0.22196046,101.0
34356,-0.025518417,1.5190125,0.4465332,0.5511841,-0.15186767,0.22196046,101.0
34357,-0.025518417,1.5190125,0.4465332,0.25806886,-0.1178833,0.17947999,101.0
34358,0.004963398,0.83478546,0.34265137,0.25806886,-0.1178833,0.17947999,101.0
34359,0.004963398,0.83478546,0.34265137,0.1529297,-0.1539917,0.1901001,101.0
34360,-0.07171297,-0.055656433,0.10539627,0.1529297,-0.1539917,0.1901001,101.0
34361,-0.07171297,-0.055656433,0.10539627,0.30373535,-0.3334717,0.1985962,101.0
34362,-0.1133275,-0.43821716,-0.090732574,0.30373535,-0.3334717,0.1985962,101.0
34363,-0.1133275,-0.43821716,-0.090732574,0.6414551,-0.4800293,0.25700685,101.0
34364,0.0018424988,0.06480408,-0.09970856,0.6414551,-0.4800293,0.25700685,101.0
34365,0.0018424988,0.06480408,-0.09970856,0.4439209,-0.58304447,0.14230958,101.0
34366,0.18921852,0.47242737,-0.09061813,0.4439209,-0.58304447,0.14230958,101.0
34367,0.18921852,0.47242737,-0.09061813,0.63720703,-0.63614506,0.090270996,101.0
34368,0.55385256,0.6003418,0.07073212,0.63720703,-0.63614506,0.090270996,101.0
34369,0.55385256,0.6003418,0.07073212,0.4694092,-0.54906005,0.083898924,101.0
34370,0.8289952,1.1866379,0.28500366,0.4694092,-0.54906005,0.083898924,101.0
34371,0.8289952,1.1866379,0.28500366,-0.1444336,-0.22302246,-0.09239502,101.0
34372,0.8163581,0.9781952,0.4064827,-0.1444336,-0.22302246,-0.09239502,101.0
34373,0.8163581,0.9781952,0.4064827,-0.4163086,-0.0053100586,-0.032922365,101.0
34374,0.5007796,-0.17903137,0.3172264,-0.4163086,-0.0053100586,-0.032922365,101.0
34375,0.5007796,-0.17903137,0.3172264,-0.2814331,-0.053100586,0.07965088,101.0
