,accx,accy,accz,gyrox,gyroy,gyroz,heart rate
32041,type,type,type,type,type,type,type
32042,-0.20181179,0.0951004,-0.043258667,-0.71367186,-0.16248779,-0.22089843,105.0
32043,-0.20181179,0.0951004,-0.043258667,-0.26019287,0.1539917,0.19328614,105.0
32044,-0.09807062,-0.4053154,-0.5833969,-0.26019287,0.1539917,0.19328614,105.0
32045,-0.09807062,-0.4053154,-0.5833969,-0.2527588,0.053100586,0.09664307,105.0
32046,-0.1558857,-0.35888672,-0.47305298,-0.2527588,0.053100586,0.09664307,105.0
32047,-0.1558857,-0.35888672,-0.47305298,-0.2357666,0.040356446,0.06903076,105.0
32048,-0.020460606,-0.20449066,-0.22161865,-0.2357666,0.040356446,0.06903076,105.0
32049,-0.020460606,-0.20449066,-0.22161865,-0.11257324,0.09239502,0.07965088,105.0
32050,0.030347824,-0.08545685,-0.0647316,-0.11257324,0.09239502,0.07965088,105.0
32051,0.030347824,-0.08545685,-0.0647316,-0.12531738,0.08602295,0.06690674,105.0
32052,-0.024830341,-0.091033936,-0.100746155,-0.12531738,0.08602295,0.06690674,105.0
32053,-0.024830341,-0.091033936,-0.100746155,-0.19647217,0.058410645,0.04248047,105.0
32054,-0.013431072,-0.26452637,-0.21081161,-0.19647217,0.058410645,0.04248047,105.0
32055,-0.013431072,-0.26452637,-0.21081161,-0.15505372,0.015930176,0.028674318,105.0
32056,-0.013431072,-0.26452637,-0.21081161,-0.025488282,-0.03079834,0.0361084,105.0
32057,0.15057135,-0.49149323,-0.23005295,-0.025488282,-0.03079834,0.0361084,105.0
32058,0.30099916,-0.4090042,-0.25318527,-0.025488282,-0.03079834,0.0361084,105.0
32059,0.30099916,-0.4090042,-0.25318527,0.098767094,0.02442627,0.011682129,105.0
32060,0.26581144,0.027153015,-0.27788925,0.098767094,0.02442627,0.011682129,105.0
32061,0.26581144,0.027153015,-0.27788925,0.070092775,0.021240234,-0.020178223,105.0
32062,0.099135876,0.3595047,-0.17116547,0.070092775,0.021240234,-0.020178223,105.0
32063,0.099135876,0.3595047,-0.17116547,-0.070092775,0.016992187,-0.052038576,105.0
32064,0.026452541,0.31887817,0.074798584,-0.070092775,0.016992187,-0.052038576,105.0
32065,0.026452541,0.31887817,0.074798584,-0.098767094,0.0053100586,-0.027612304,105.0
32066,0.07656956,0.08175278,0.35951996,-0.098767094,0.0053100586,-0.027612304,105.0
32067,0.07656956,0.08175278,0.35951996,-0.08071289,0.014868164,-0.014868164,105.0
32068,0.09751034,-0.047367096,0.473835,-0.08071289,0.014868164,-0.014868164,105.0
32069,0.09751034,-0.047367096,0.473835,-0.10195313,0.0361084,-0.012744141,105.0
32070,-0.01847601,-0.035072327,0.30885315,-0.10195313,0.0361084,-0.012744141,105.0
32071,-0.01847601,-0.035072327,0.30885315,-0.078588866,0.081774905,-0.010620117,105.0
32072,-0.26288843,0.0066947937,0.038528442,-0.078588866,0.081774905,-0.010620117,105.0
32073,-0.26288843,0.0066947937,0.038528442,-0.0361084,0.12850343,-0.04460449,105.0
32074,-0.4720173,-0.045318604,-0.06943512,-0.0361084,0.12850343,-0.04460449,105.0
32075,-0.4720173,-0.045318604,-0.06943512,-0.047790527,0.12850343,-0.078588866,105.0
32076,-0.49159098,-0.06677246,0.013431549,-0.047790527,0.12850343,-0.078588866,105.0
32077,-0.49159098,-0.06677246,0.013431549,-0.17841797,0.11044922,-0.057348635,105.0
32078,-0.468688,0.1805191,0.18374634,-0.17841797,0.11044922,-0.057348635,105.0
32079,-0.468688,0.1805191,0.18374634,-0.3355957,0.19116211,-0.03186035,105.0
32080,-0.5805168,0.4223709,0.36127853,-0.3355957,0.19116211,-0.03186035,105.0
32081,-0.5805168,0.4223709,0.36127853,-0.635083,0.271875,-0.115759276,105.0
32082,-0.5805168,0.4223709,0.36127853,-1.5069946,0.28355715,-0.070092775,105.0
32083,-0.74135447,0.5288162,0.42263794,-1.5069946,0.28355715,-0.070092775,105.0
32084,-0.89170456,0.69176483,0.33668137,-1.5069946,0.28355715,-0.070092775,105.0
32085,-0.89170456,0.69176483,0.33668137,-2.7399902,0.2899292,-0.14337158,105.0
32086,-0.8778286,0.291584,0.082099915,-2.7399902,0.2899292,-0.14337158,105.0
32087,-0.8778286,0.291584,0.082099915,-3.6034057,0.32072756,-0.21240234,105.0
32088,-0.3910694,-1.703331,-0.36225128,-3.6034057,0.32072756,-0.21240234,105.0
32089,-0.3910694,-1.703331,-0.36225128,-2.521216,0.48427734,-0.34090576,105.0
32090,0.31578207,-3.6388474,-0.5760803,-2.521216,0.48427734,-0.34090576,105.0
32091,0.31578207,-3.6388474,-0.5760803,-1.1299804,0.46622315,-0.31966552,105.0
32092,0.7943125,-3.0741158,-0.2865982,-1.1299804,0.46622315,-0.31966552,105.0
32093,0.7943125,-3.0741158,-0.2865982,-1.7013428,0.54587406,-0.39506838,105.0
32094,1.0293708,-2.0464172,0.06732941,-1.7013428,0.54587406,-0.39506838,105.0
32095,1.0293708,-2.0464172,0.06732941,-1.5664673,0.72323,-0.06903076,105.0
32096,0.65665054,-2.4920807,0.37019348,-1.5664673,0.72323,-0.06903076,105.0
32097,0.65665054,-2.4920807,0.37019348,-0.42161867,0.52675784,0.050976563,105.0
32098,-0.2452488,-2.5116577,0.7724495,-0.42161867,0.52675784,0.050976563,105.0
32099,-0.2452488,-2.5116577,0.7724495,-0.5851685,0.5076416,0.03717041,105.0
32100,-0.2452488,-2.5116577,0.7724495,-3.2444458,0.13699952,0.06265869,105.0
32101,-1.3875566,-0.39897156,1.3848419,-3.2444458,0.13699952,0.06265869,105.0
32102,-2.2689319,1.3432007,1.6025772,-3.2444458,0.13699952,0.06265869,105.0
32103,-2.2689319,1.3432007,1.6025772,-6.0046144,-0.06584473,-0.058410645,105.0
32104,-2.1434412,-0.14394379,0.82257843,-6.0046144,-0.06584473,-0.058410645,105.0
32105,-2.1434412,-0.14394379,0.82257843,-5.42688,-0.04885254,0.18903808,105.0
32106,-1.1712589,-2.6896896,-0.004032135,-5.42688,-0.04885254,0.18903808,105.0
32107,-1.1712589,-2.6896896,-0.004032135,-5.876111,0.16461182,0.33771974,105.0
32108,-0.1208086,-4.884842,-0.5286865,-5.876111,0.16461182,0.33771974,105.0
32109,-0.1208086,-4.884842,-0.5286865,-4.7291384,0.098767094,0.39613038,105.0
32110,0.59640694,-7.7839966,-0.8294449,-4.7291384,0.098767094,0.39613038,105.0
32111,0.59640694,-7.7839966,-0.8294449,-2.981067,-0.18479005,0.087084964,105.0
32112,0.9452529,-10.078323,-1.0895233,-2.981067,-0.18479005,0.087084964,105.0
32113,0.9452529,-10.078323,-1.0895233,-1.3625611,-0.04141846,-0.26550293,105.0
32114,0.9946542,-8.895615,-0.8903084,-1.3625611,-0.04141846,-0.26550293,105.0
32115,0.9946542,-8.895615,-0.8903084,0.3695801,0.18479005,-0.33878174,105.0
32116,0.7385826,-3.772171,0.38777542,0.3695801,0.18479005,-0.33878174,105.0
32117,0.7385826,-3.772171,0.38777542,1.0545777,0.3727661,-0.34090576,105.0
32118,0.060311794,1.4858551,1.7355118,1.0545777,0.3727661,-0.34090576,105.0
32119,0.060311794,1.4858551,1.7355118,1.445398,0.31116945,-0.115759276,105.0
32120,-0.49093485,2.9333344,1.9889717,1.445398,0.31116945,-0.115759276,105.0
32121,-0.49093485,2.9333344,1.9889717,1.179895,0.16885987,-0.011682129,105.0
32122,-0.3679552,1.059021,1.2232819,1.179895,0.16885987,-0.011682129,105.0
32123,-0.3679552,1.059021,1.2232819,0.99935305,0.10513916,-0.027612304,105.0
32124,0.09417343,-0.79976654,0.031044006,0.99935305,0.10513916,-0.027612304,105.0
32125,0.09417343,-0.79976654,0.031044006,0.45029297,0.20603028,-0.12319336,105.0
32126,0.09417343,-0.79976654,0.031044006,-0.97067875,0.09770508,-0.26337892,105.0
32127,0.16932058,-1.1372757,-0.51194763,-0.97067875,0.09770508,-0.26337892,105.0
32128,-0.4632492,-0.3907013,-0.16867828,-0.97067875,0.09770508,-0.26337892,105.0
32129,-0.4632492,-0.3907013,-0.16867828,-1.4772583,-0.23151855,-0.04141846,105.0
32130,-1.3192081,0.20973206,0.22068787,-1.4772583,-0.23151855,-0.04141846,105.0
32131,-1.3192081,0.20973206,0.22068787,-1.721521,-0.20603028,-0.06584473,105.0
32132,-1.5215406,0.15629578,-0.053821564,-1.721521,-0.20603028,-0.06584473,105.0
32133,-1.5215406,0.15629578,-0.053821564,-1.7066529,-0.19541016,-0.07115479,105.0
32134,-0.5842247,-1.1493149,-1.1672745,-1.7066529,-0.19541016,-0.07115479,105.0
32135,-0.5842247,-1.1493149,-1.1672745,-0.3090454,0.2177124,-0.23364258,105.0
32136,0.7803011,-2.0292053,-1.3274345,-0.3090454,0.2177124,-0.23364258,105.0
32137,0.7803011,-2.0292053,-1.3274345,0.62977296,0.32391357,-0.2984253,105.0
32138,1.0826511,-1.1106567,0.03842926,0.62977296,0.32391357,-0.2984253,105.0
32139,1.0826511,-1.1106567,0.03842926,0.33028564,0.2888672,-0.35683593,105.0
32140,1.0826511,-1.1106567,0.03842926,0.33028564,0.2888672,-0.35683593,105.0
32141,0.465621,-0.19521332,1.1634483,0.33028564,0.2888672,-0.35683593,105.0
32142,0.465621,-0.19521332,1.1634483,0.21134034,0.124255374,-0.42161867,105.0
32143,-0.086792946,0.19644165,1.3526459,0.21134034,0.124255374,-0.42161867,105.0
32144,-0.086792946,0.19644165,1.3526459,0.12000733,-0.060534667,-0.41312256,105.0
32145,-0.22458553,0.11647034,0.93598557,0.12000733,-0.060534667,-0.41312256,105.0
32146,-0.22458553,0.11647034,0.93598557,0.4959595,-0.19116211,-0.40356445,105.0
32147,0.08197689,-0.112197876,0.44407654,0.4959595,-0.19116211,-0.40356445,105.0
32148,0.08197689,-0.112197876,0.44407654,0.8750977,-0.30267334,-0.45454103,105.0
32149,0.5552664,0.18428802,0.048862457,0.8750977,-0.30267334,-0.45454103,105.0
32150,0.5552664,0.18428802,0.048862457,0.9855469,-0.1901001,-0.43861085,105.0
32151,0.8466182,0.4974823,-0.21923447,0.9855469,-0.1901001,-0.43861085,105.0
32152,0.8466182,0.4974823,-0.21923447,1.0949341,-0.16142578,-0.43967286,105.0
32153,0.7706537,0.34144592,-0.35817719,1.0949341,-0.16142578,-0.43967286,105.0
32154,0.7706537,0.34144592,-0.35817719,1.2478638,-0.21558838,-0.4630371,105.0
32155,0.4939642,0.41351318,-0.34844208,1.2478638,-0.21558838,-0.4630371,105.0
32156,0.4939642,0.41351318,-0.34844208,1.719397,-0.24001466,-0.45347902,105.0
32157,0.25225163,0.91316223,-0.25963974,1.719397,-0.24001466,-0.45347902,105.0
32158,0.25225163,0.91316223,-0.25963974,2.4245727,-0.13912354,-0.36639404,105.0
32159,0.19599056,1.5547104,0.067337036,2.4245727,-0.13912354,-0.36639404,105.0
32160,0.19599056,1.5547104,0.067337036,1.9997681,-0.0010620117,-0.4630371,105.0
32161,0.26016188,2.1203156,0.48038483,1.9997681,-0.0010620117,-0.4630371,105.0
32162,0.26016188,2.1203156,0.48038483,0.9568726,-0.22089843,-0.2984253,105.0
32163,0.16815138,2.3272324,0.14890671,0.9568726,-0.22089843,-0.2984253,105.0
32164,0.16815138,2.3272324,0.14890671,0.74447024,-0.18585205,-0.19541016,105.0
32165,-0.23442459,2.153984,-0.55426407,0.74447024,-0.18585205,-0.19541016,105.0
32166,-0.23442459,2.153984,-0.55426407,1.2871583,-0.121069334,-0.087084964,105.0
32167,-0.52084064,1.818161,-0.6114807,1.2871583,-0.121069334,-0.087084964,105.0
32168,-0.52084064,1.818161,-0.6114807,1.8224121,-0.09451904,-0.095581055,105.0
32169,-0.25132847,1.6527939,-0.1549797,1.8224121,-0.09451904,-0.095581055,105.0
32170,-0.25132847,1.6527939,-0.1549797,1.896753,-0.0031860352,-0.087084964,105.0
32171,0.21436691,1.7046661,0.14171219,1.896753,-0.0031860352,-0.087084964,105.0
32172,0.21436691,1.7046661,0.14171219,1.5494751,-0.038232423,-0.058410645,105.0
32173,0.44057322,1.7449722,-0.055454254,1.5494751,-0.038232423,-0.058410645,105.0
32174,0.44057322,1.7449722,-0.055454254,1.3625611,-0.07327881,-0.032922365,105.0
32175,0.38801765,1.8547211,-0.47089005,1.3625611,-0.07327881,-0.032922365,105.0
32176,0.38801765,1.8547211,-0.47089005,1.7470093,-0.12213135,0.06584473,105.0
32177,0.40822935,1.8362579,-0.698761,1.7470093,-0.12213135,0.06584473,105.0
32178,0.40822935,1.8362579,-0.698761,2.3799684,-0.043542482,0.1178833,105.0
32179,0.57549715,1.4955826,-0.35145187,2.3799684,-0.043542482,0.1178833,105.0
32180,0.57549715,1.4955826,-0.35145187,2.4001465,0.11044922,0.12319336,105.0
32181,0.5369725,1.8027496,0.3514557,2.4001465,0.11044922,0.12319336,105.0
32182,0.5369725,1.8027496,0.3514557,1.5760254,0.032922365,0.16354981,105.0
32183,0.13608408,2.4811401,0.29823303,1.5760254,0.032922365,0.16354981,105.0
32184,0.13608408,2.4811401,0.29823303,1.2096313,-0.08602295,0.20709229,105.0
32185,-0.1499095,2.132492,-0.4079857,1.2096313,-0.08602295,0.20709229,105.0
32186,-0.1499095,2.132492,-0.4079857,1.9392334,-0.23045655,0.07327881,105.0
32187,0.04817581,1.5720596,-0.45114517,1.9392334,-0.23045655,0.07327881,105.0
32188,0.04817581,1.5720596,-0.45114517,2.1335816,-0.15823975,0.012744141,105.0
32189,0.35791302,1.5892868,0.3039894,2.1335816,-0.15823975,0.012744141,105.0
32190,0.35791302,1.5892868,0.3039894,1.6716064,-0.08602295,0.029736329,105.0
32191,0.40888882,1.9452438,0.70477295,1.6716064,-0.08602295,0.029736329,105.0
32192,0.40888882,1.9452438,0.70477295,0.5809204,-0.26656494,0.11363526,105.0
32193,0.42225266,2.4677277,-0.0041885376,0.5809204,-0.26656494,0.11363526,105.0
32194,0.42225266,2.4677277,-0.0041885376,0.04141846,-0.40250245,0.32816163,105.0
32195,0.49790955,2.6921997,-1.1025238,0.04141846,-0.40250245,0.32816163,105.0
32196,0.49790955,2.6921997,-1.1025238,-0.12319336,-0.5012695,0.42161867,105.0
32197,0.5393677,2.2603378,-1.6193008,-0.12319336,-0.5012695,0.42161867,105.0
32198,0.5393677,2.2603378,-1.6193008,-0.3164795,-0.49383545,0.43117675,105.0
32199,0.57907724,0.981575,-1.4416428,-0.3164795,-0.49383545,0.43117675,105.0
32200,0.57907724,0.981575,-1.4416428,-0.41737062,-0.36851808,0.24213867,105.0
32201,0.61808395,-0.4128723,-0.7264328,-0.41737062,-0.36851808,0.24213867,105.0
32202,0.61808395,-0.4128723,-0.7264328,-0.39400634,-0.13806152,0.5129517,105.0
32203,0.5604825,-1.4301376,0.1341362,-0.39400634,-0.13806152,0.5129517,105.0
32204,0.5604825,-1.4301376,0.1341362,0.29205322,0.009558106,0.541626,105.0
32205,0.31126404,-1.4028473,0.9190788,0.29205322,0.009558106,0.541626,105.0
32206,0.31126404,-1.4028473,0.9190788,0.68287355,0.047790527,0.45029297,105.0
32207,-0.08436298,0.017333984,1.4825516,0.68287355,0.047790527,0.45029297,105.0
32208,-0.08436298,0.017333984,1.4825516,0.03186035,-0.07434082,0.42799073,105.0
32209,-0.26412106,0.87392426,1.2011871,0.03186035,-0.07434082,0.42799073,105.0
32210,-0.26412106,0.87392426,1.2011871,0.1731079,-0.14337158,0.47578126,105.0
32211,0.18279505,0.10360718,0.14513016,0.1731079,-0.14337158,0.47578126,105.0
32212,0.18279505,0.10360718,0.14513016,1.3614991,-0.0722168,0.4078125,105.0
32213,0.9192462,-0.6235733,-0.670784,1.3614991,-0.0722168,0.4078125,105.0
32214,0.9192462,-0.6235733,-0.670784,1.9594116,0.050976563,0.38869628,105.0
32215,1.2251797,-0.21479797,-0.5846596,1.9594116,0.050976563,0.38869628,105.0
32216,1.2251797,-0.21479797,-0.5846596,1.5707153,-0.10301514,0.4354248,105.0
32217,1.0288868,0.641037,-0.25123596,1.5707153,-0.10301514,0.4354248,105.0
32218,1.0288868,0.641037,-0.25123596,0.98236084,-0.23258057,0.5033936,105.0
32219,0.76407623,0.99076843,-0.5877342,0.98236084,-0.23258057,0.5033936,105.0
32220,0.76407623,0.99076843,-0.5877342,0.8517334,-0.21558838,0.6510132,105.0
32221,0.5454774,0.53061676,-1.4095078,0.8517334,-0.21558838,0.6510132,105.0
32222,0.5454774,0.53061676,-1.4095078,1.2584839,-0.07752686,0.6000366,105.0
32223,0.30767107,0.1000824,-1.7364807,1.2584839,-0.07752686,0.6000366,105.0
32224,0.30767107,0.1000824,-1.7364807,1.5696534,0.025488282,0.6637573,105.0
32225,0.10116625,0.4274788,-1.075573,1.5696534,0.025488282,0.6637573,105.0
32226,0.10116625,0.4274788,-1.075573,1.3901733,0.0021240234,0.83049315,105.0
32227,-0.086937904,1.1821327,-0.21192169,1.3901733,0.0021240234,0.83049315,105.0
32228,-0.086937904,1.1821327,-0.21192169,1.2106934,0.0053100586,0.80394286,105.0
32229,-0.086937904,1.1821327,-0.21192169,1.2106934,0.0053100586,0.80394286,104.0
32230,-0.5278387,2.2143097,0.061431885,1.2106934,0.0053100586,0.80394286,104.0
32231,-0.5278387,2.2143097,0.061431885,1.0174073,0.24320069,0.50020754,104.0
32232,-0.9931936,2.644493,-0.025390625,1.0174073,0.24320069,0.50020754,104.0
32233,-0.9931936,2.644493,-0.025390625,1.1894531,0.2516968,0.5012695,104.0
32234,-0.9759879,1.7453537,0.012561798,1.1894531,0.2516968,0.5012695,104.0
32235,-0.9759879,1.7453537,0.012561798,1.5717773,0.14655761,0.45347902,104.0
32236,-0.54177666,1.0330124,0.28458405,1.5717773,0.14655761,0.45347902,104.0
32237,-0.54177666,1.0330124,0.28458405,1.4092896,-0.10513916,0.46409914,104.0
32238,0.08629322,1.1633377,0.32528687,1.4092896,-0.10513916,0.46409914,104.0
32239,0.08629322,1.1633377,0.32528687,1.0694458,-0.12850343,0.4619751,104.0
32240,0.58618546,1.1214905,-0.11722565,1.0694458,-0.12850343,0.4619751,104.0
32241,0.58618546,1.1214905,-0.11722565,0.8400513,-0.0021240234,0.38551027,104.0
32242,0.60747385,0.8465195,-0.5742607,0.8400513,-0.0021240234,0.38551027,104.0
32243,0.60747385,0.8465195,-0.5742607,0.6680054,0.08071289,0.3069214,104.0
32244,0.35322762,0.65719604,-0.7069397,0.6680054,0.08071289,0.3069214,104.0
32245,0.35322762,0.65719604,-0.7069397,0.6053467,0.124255374,0.270813,104.0
32246,0.2688856,0.5077858,-0.6191788,0.6053467,0.124255374,0.270813,104.0
32247,0.2688856,0.5077858,-0.6191788,0.68924564,0.17416993,0.29099122,104.0
32248,0.2688856,0.5077858,-0.6191788,0.73809814,0.44923097,0.3451538,104.0
32249,0.57076025,0.31347656,0.4055252,0.73809814,0.44923097,0.3451538,104.0
32250,0.7165084,0.2761345,0.71541214,0.73809814,0.44923097,0.3451538,104.0
32251,0.7165084,0.2761345,0.71541214,0.6446411,0.64995116,0.3791382,104.0
32252,0.90694714,-0.0017585754,1.4828148,0.6446411,0.64995116,0.3791382,104.0
32253,0.90694714,-0.0017585754,1.4828148,0.8687256,1.3891114,0.51932377,104.0
32254,0.62632656,-0.1516037,1.1396484,0.8687256,1.3891114,0.51932377,104.0
32255,0.62632656,-0.1516037,1.1396484,1.0142212,1.5845215,0.58304447,104.0
32256,-0.74232244,0.1857109,0.6354141,1.0142212,1.5845215,0.58304447,104.0
32257,-0.74232244,0.1857109,0.6354141,1.1894531,2.0040162,0.7678345,104.0
32258,-1.0918198,0.6192856,0.052555084,1.1894531,2.0040162,0.7678345,104.0
32259,-1.0918198,0.6192856,0.052555084,1.2096313,2.0507448,0.814563,104.0
32260,-2.017572,1.727314,-1.0713959,1.2096313,2.0507448,0.814563,104.0
32261,-2.017572,1.727314,-1.0713959,0.9197022,2.265271,0.7890747,104.0
32262,-1.686079,1.5788956,-1.2181664,0.9197022,2.265271,0.7890747,104.0
32263,-1.686079,1.5788956,-1.2181664,0.817749,2.3024414,0.7126099,104.0
32264,-1.8450303,1.4984055,-1.2741776,0.817749,2.3024414,0.7126099,104.0
32265,-1.8450303,1.4984055,-1.2741776,0.63720703,2.18031,0.45454103,104.0
32266,-1.7533679,1.2644348,-1.2075386,0.63720703,2.18031,0.45454103,104.0
32267,-1.7533679,1.2644348,-1.2075386,0.59472656,2.0241945,0.3440918,104.0
32268,-2.040585,1.2159309,-1.6115532,0.59472656,2.0241945,0.3440918,104.0
32269,-2.040585,1.2159309,-1.6115532,-0.16354981,1.5632813,0.039294433,104.0
32270,-1.6422825,1.0121841,-1.5357628,-0.16354981,1.5632813,0.039294433,104.0
32271,-1.6422825,1.0121841,-1.5357628,-0.4343628,1.4677002,-0.032922365,104.0
32272,-1.2951007,0.66080856,-1.8193207,-0.4343628,1.4677002,-0.032922365,104.0
32273,-1.2951007,0.66080856,-1.8193207,-0.49383545,1.2797241,-0.058410645,104.0
32274,-1.126071,0.16850281,-2.0764046,-0.49383545,1.2797241,-0.058410645,104.0
32275,-1.126071,0.16850281,-2.0764046,-0.1901001,1.1374146,-0.0361084,104.0
32276,-1.0007963,-0.24415588,-2.1044846,-0.1901001,1.1374146,-0.0361084,104.0
32277,-1.0007963,-0.24415588,-2.1044846,0.16461182,0.93350834,0.035046387,104.0
32278,-0.7858906,-0.2796402,-1.6227722,0.16461182,0.93350834,0.035046387,104.0
32279,-0.7858906,-0.2796402,-1.6227722,0.2793091,0.8496094,0.04248047,104.0
32280,-0.58802605,-0.2517166,-0.8635025,0.2793091,0.8496094,0.04248047,104.0
32281,-0.58802605,-0.2517166,-0.8635025,0.42799073,0.68074954,0.033984374,104.0
32282,-0.42009068,0.022895813,-0.38763046,0.42799073,0.68074954,0.033984374,104.0
32283,-0.42009068,0.022895813,-0.38763046,0.3802002,0.50020754,0.022302246,104.0
32284,-0.16109657,0.31228638,-0.56084824,0.3802002,0.50020754,0.022302246,104.0
32285,-0.16109657,0.31228638,-0.56084824,0.2803711,0.42161867,0.059472658,104.0
32286,0.2286911,0.16902924,-0.9816742,0.2803711,0.42161867,0.059472658,104.0
32287,0.2286911,0.16902924,-0.9816742,0.22089843,0.46409914,0.095581055,104.0
32288,0.45870972,-0.24215698,-0.90065,0.22089843,0.46409914,0.095581055,104.0
32289,0.45870972,-0.24215698,-0.90065,0.36427003,0.46409914,0.050976563,104.0
32290,0.49505615,-0.28873444,-0.15511322,0.36427003,0.46409914,0.050976563,104.0
32291,0.49505615,-0.28873444,-0.15511322,0.46409914,0.29417726,0.1263794,104.0
32292,0.52895546,-0.08452988,0.5027008,0.46409914,0.29417726,0.1263794,104.0
32293,0.52895546,-0.08452988,0.5027008,0.43117675,0.15186767,0.20390625,104.0
32294,0.5411329,0.10693741,0.44527817,0.43117675,0.15186767,0.20390625,104.0
32295,0.5411329,0.10693741,0.44527817,0.3419678,0.11044922,0.24320069,104.0
32296,0.44759178,0.30960846,0.0027542114,0.3419678,0.11044922,0.24320069,104.0
32297,0.44759178,0.30960846,0.0027542114,0.36745605,0.10089111,0.3069214,104.0
32298,0.3259201,0.4514923,-0.26828003,0.36745605,0.10089111,0.3069214,104.0
32299,0.3259201,0.4514923,-0.26828003,0.38975832,0.10301514,0.31116945,104.0
32300,0.20690298,0.44911957,-0.20112228,0.38975832,0.10301514,0.31116945,104.0
32301,0.20690298,0.44911957,-0.20112228,0.38869628,0.04141846,0.29205322,104.0
32302,0.13461399,0.3370514,0.065711975,0.38869628,0.04141846,0.29205322,104.0
32303,0.13461399,0.3370514,0.065711975,0.2814331,-0.03717041,0.26019287,104.0
32304,0.17585564,0.2037735,0.25053024,0.2814331,-0.03717041,0.26019287,104.0
32305,0.17585564,0.2037735,0.25053024,0.07540283,-0.06690674,0.2262085,104.0
32306,0.26653862,0.13595581,0.2088852,0.07540283,-0.06690674,0.2262085,104.0
32307,0.26653862,0.13595581,0.2088852,0.083898924,-0.04248047,0.2347046,104.0
32308,0.2505474,0.10257721,0.1030426,0.083898924,-0.04248047,0.2347046,104.0
32309,0.2505474,0.10257721,0.1030426,0.1996582,-0.015930176,0.22302246,104.0
32310,0.10396576,0.11749649,0.063266754,0.1996582,-0.015930176,0.22302246,104.0
32311,0.10396576,0.11749649,0.063266754,0.1709839,-0.028674318,0.20284425,104.0
32312,-0.044891357,0.32995987,-0.07923126,0.1709839,-0.028674318,0.20284425,104.0
32313,-0.044891357,0.32995987,-0.07923126,-0.14337158,-0.03079834,0.17523193,104.0
32314,-0.003479004,0.36056137,-0.1354065,-0.14337158,-0.03079834,0.17523193,104.0
32315,-0.003479004,0.36056137,-0.1354065,-0.21134034,-0.02442627,0.1985962,104.0
32316,0.1305418,0.34317017,-0.19908524,-0.21134034,-0.02442627,0.1985962,104.0
32317,0.1305418,0.34317017,-0.19908524,-0.22833252,0.010620117,0.20496826,104.0
32318,0.22894478,0.12368393,-0.043678284,-0.22833252,0.010620117,0.20496826,104.0
32319,0.22894478,0.12368393,-0.043678284,-0.07540283,0.060534667,0.2166504,104.0
32320,0.125453,-0.03037262,0.22687149,-0.07540283,0.060534667,0.2166504,104.0
32321,0.125453,-0.03037262,0.22687149,-0.052038576,0.035046387,0.22939454,104.0
32322,-0.027726173,-0.060150146,0.3892975,-0.052038576,0.035046387,0.22939454,104.0
32323,-0.027726173,-0.060150146,0.3892975,-0.16779785,0.0021240234,0.2177124,104.0
32324,-0.08106756,0.020118713,0.3741455,-0.16779785,0.0021240234,0.2177124,104.0
32325,-0.08106756,0.020118713,0.3741455,-0.18903808,-0.023364259,0.23258057,104.0
32326,-0.054685593,0.09146118,0.28322983,-0.18903808,-0.023364259,0.23258057,104.0
32327,-0.054685593,0.09146118,0.28322983,-0.16779785,-0.057348635,0.25806886,104.0
32328,0.008094788,0.07852554,0.17642593,-0.16779785,-0.057348635,0.25806886,104.0
32329,0.008094788,0.07852554,0.17642593,-0.13062744,-0.046728518,0.24957275,104.0
32330,0.015399456,0.04991913,0.09825516,-0.13062744,-0.046728518,0.24957275,104.0
32331,0.015399456,0.04991913,0.09825516,-0.22196046,-0.009558106,0.23789063,104.0
32332,-0.0042943954,-0.042900085,0.20069885,-0.22196046,-0.009558106,0.23789063,104.0
32333,-0.0042943954,-0.042900085,0.20069885,-0.1178833,0.019116212,0.21877442,104.0
32334,0.10846615,-0.14154434,0.51895905,-0.1178833,0.019116212,0.21877442,104.0
32335,0.10846615,-0.14154434,0.51895905,-0.08283692,0.009558106,0.21027832,104.0
32336,0.3315487,-0.11926651,0.7192192,-0.08283692,0.009558106,0.21027832,104.0
32337,0.3315487,-0.11926651,0.7192192,-0.23045655,0.059472658,0.20072022,104.0
32338,0.3315487,-0.11926651,0.7192192,-0.23045655,0.059472658,0.20072022,104.0
32339,0.4085617,-0.07688141,0.5142174,-0.23045655,0.059472658,0.20072022,104.0
32340,0.4085617,-0.07688141,0.5142174,-0.3419678,0.16142578,0.20603028,104.0
32341,0.22225952,-0.07048035,0.13760757,-0.3419678,0.16142578,0.20603028,104.0
32342,0.22225952,-0.07048035,0.13760757,-0.2899292,0.24107666,0.20921631,104.0
32343,-0.031847954,-0.055065155,-0.005844116,-0.2899292,0.24107666,0.20921631,104.0
32344,-0.031847954,-0.055065155,-0.005844116,-0.21983643,0.2623169,0.18585205,104.0
32345,-0.19383764,0.018619537,0.1969223,-0.21983643,0.2623169,0.18585205,104.0
32346,-0.19383764,0.018619537,0.1969223,-0.25594482,0.22408448,0.1274414,104.0
32347,-0.28103447,0.071754456,0.44420624,-0.25594482,0.22408448,0.1274414,104.0
32348,-0.28103447,0.071754456,0.44420624,-0.4333008,0.15186767,0.057348635,104.0
32349,-0.37548637,-0.011360168,0.40048218,-0.4333008,0.15186767,0.057348635,104.0
32350,-0.37548637,-0.011360168,0.40048218,-0.4959595,0.124255374,0.011682129,104.0
32351,-0.43367767,-0.18540573,0.13521957,-0.4959595,0.124255374,0.011682129,104.0
32352,-0.43367767,-0.18540573,0.13521957,-0.5076416,0.09451904,-0.012744141,104.0
32353,-0.31049204,-0.32951355,-0.07118225,-0.5076416,0.09451904,-0.012744141,104.0
32354,-0.31049204,-0.32951355,-0.07118225,-0.4609131,0.070092775,0.007434082,104.0
32355,-0.07708025,-0.3697281,-0.12195969,-0.4609131,0.070092775,0.007434082,104.0
32356,-0.07708025,-0.3697281,-0.12195969,-0.33878174,0.0637207,0.0722168,104.0
32357,0.043145657,-0.2501297,-0.16965103,-0.33878174,0.0637207,0.0722168,104.0
32358,0.043145657,-0.2501297,-0.16965103,-0.1901001,0.078588866,0.1274414,104.0
32359,-0.09346199,-0.04795456,-0.3689232,-0.1901001,0.078588866,0.1274414,104.0
32360,-0.09346199,-0.04795456,-0.3689232,-0.019116212,0.08814698,0.11469727,104.0
32361,-0.30158854,0.09093094,-0.5477028,-0.019116212,0.08814698,0.11469727,104.0
32362,-0.30158854,0.09093094,-0.5477028,0.115759276,-0.0063720704,0.0361084,104.0
32363,-0.25314808,0.08402252,-0.42328262,0.115759276,-0.0063720704,0.0361084,104.0
32364,-0.25314808,0.08402252,-0.42328262,0.09133301,-0.16567384,-0.059472658,104.0
32365,0.012703896,-0.0045318604,-0.057437897,0.09133301,-0.16567384,-0.059472658,104.0
32366,0.012703896,-0.0045318604,-0.057437897,-0.052038576,-0.32816163,-0.13699952,104.0
32367,0.22862005,-0.07456207,0.2826233,-0.052038576,-0.32816163,-0.13699952,104.0
32368,0.22862005,-0.07456207,0.2826233,-0.14337158,-0.48321533,-0.18054199,104.0
32369,0.30235434,-0.14580536,0.43449783,-0.14337158,-0.48321533,-0.18054199,104.0
32370,0.30235434,-0.14580536,0.43449783,-0.14018555,-0.6085327,-0.1901001,104.0
32371,0.29113913,-0.21865845,0.45104218,-0.14018555,-0.6085327,-0.1901001,104.0
32372,0.29113913,-0.21865845,0.45104218,-0.050976563,-0.6818115,-0.16567384,104.0
32373,0.2701187,-0.19309998,0.38977814,-0.050976563,-0.6818115,-0.16567384,104.0
32374,0.2701187,-0.19309998,0.38977814,0.009558106,-0.6775635,-0.14549561,104.0
32375,0.18275738,-0.03925705,0.16809845,0.009558106,-0.6775635,-0.14549561,104.0
32376,0.18275738,-0.03925705,0.16809845,0.13062744,-0.62764895,-0.09770508,104.0
32377,0.045461178,0.10589981,-0.026397705,0.13062744,-0.62764895,-0.09770508,104.0
32378,0.045461178,0.10589981,-0.026397705,0.271875,-0.5883545,-0.07327881,104.0
32379,0.053007126,0.12895966,0.09875488,0.271875,-0.5883545,-0.07327881,104.0
32380,0.053007126,0.12895966,0.09875488,0.38763428,-0.59260255,-0.057348635,104.0
32381,0.1399765,0.066841125,0.2978859,0.38763428,-0.59260255,-0.057348635,104.0
32382,0.1399765,0.066841125,0.2978859,0.33665773,-0.53950197,-0.115759276,104.0
32383,0.04334116,0.059368134,0.14871979,0.33665773,-0.53950197,-0.115759276,104.0
32384,0.04334116,0.059368134,0.14871979,0.32391357,-0.5055176,-0.16779785,104.0
32385,-0.055317402,0.02218628,-0.15497589,0.32391357,-0.5055176,-0.16779785,104.0
32386,-0.055317402,0.02218628,-0.15497589,0.3717041,-0.48427734,-0.1996582,104.0
32387,0.21134901,-0.120666504,-0.16835403,0.3717041,-0.48427734,-0.1996582,104.0
32388,0.21134901,-0.120666504,-0.16835403,0.54587406,-0.47684327,-0.24320069,104.0
32389,0.62923574,-0.1636734,0.090106964,0.54587406,-0.47684327,-0.24320069,104.0
32390,0.62923574,-0.1636734,0.090106964,0.5278198,-0.45135498,-0.271875,104.0
32391,0.8327589,-0.025894165,0.29267883,0.5278198,-0.45135498,-0.271875,104.0
32392,0.8327589,-0.025894165,0.29267883,0.4715332,-0.43011475,-0.29736328,104.0
32393,0.83275986,0.10732269,0.24705887,0.4715332,-0.43011475,-0.29736328,104.0
32394,0.83275986,0.10732269,0.24705887,0.39400634,-0.32603762,-0.3462158,104.0
32395,0.733469,0.14203644,0.0713768,0.39400634,-0.32603762,-0.3462158,104.0
32396,0.733469,0.14203644,0.0713768,0.27506104,-0.2548828,-0.40037844,104.0
32397,0.66790295,0.14019012,-0.0027122498,0.27506104,-0.2548828,-0.40037844,104.0
32398,0.66790295,0.14019012,-0.0027122498,0.17947999,-0.19434814,-0.3993164,104.0
32399,0.5669761,0.204216,-0.049873352,0.17947999,-0.19434814,-0.3993164,104.0
32400,0.5669761,0.204216,-0.049873352,0.1444336,-0.1444336,-0.35895997,104.0
32401,0.32340527,0.30863953,-0.3033142,0.1444336,-0.1444336,-0.35895997,104.0
32402,0.32340527,0.30863953,-0.3033142,0.1709839,-0.14337158,-0.29948732,104.0
32403,0.12791348,0.30919266,-0.589489,0.1709839,-0.14337158,-0.29948732,104.0
32404,0.12791348,0.30919266,-0.589489,0.31010744,-0.1529297,-0.29948732,104.0
32405,0.032726288,0.34656143,-0.4970665,0.31010744,-0.1529297,-0.29948732,104.0
32406,0.032726288,0.34656143,-0.4970665,0.2899292,-0.20072022,-0.3462158,104.0
32407,-0.07503939,0.5010643,-0.12802505,0.2899292,-0.20072022,-0.3462158,104.0
32408,-0.07503939,0.5010643,-0.12802505,0.11044922,-0.271875,-0.39506838,104.0
32409,-0.17619371,0.5469971,0.028133392,0.11044922,-0.271875,-0.39506838,104.0
32410,-0.17619371,0.5469971,0.028133392,-0.053100586,-0.32497558,-0.4619751,104.0
32411,-0.20291805,0.42171478,-0.20666504,-0.053100586,-0.32497558,-0.4619751,104.0
32412,-0.20291805,0.42171478,-0.20666504,0.010620117,-0.31116945,-0.4970215,104.0
32413,-0.13173103,0.2902527,-0.5611572,0.010620117,-0.31116945,-0.4970215,104.0
32414,-0.13173103,0.2902527,-0.5611572,0.18691407,-0.26125488,-0.5256958,104.0
32415,-0.00954771,0.3039322,-0.7509041,0.18691407,-0.26125488,-0.5256958,104.0
32416,-0.00954771,0.3039322,-0.7509041,0.24851075,-0.19753419,-0.55968016,104.0
32417,0.04964924,0.41026306,-0.67970276,0.24851075,-0.19753419,-0.55968016,104.0
32418,0.04964924,0.41026306,-0.67970276,0.1731079,-0.1731079,-0.5883545,104.0
32419,-0.04832983,0.3764534,-0.45632553,0.1731079,-0.1731079,-0.5883545,104.0
32420,-0.04832983,0.3764534,-0.45632553,0.10195313,-0.18797608,-0.6435791,104.0
32421,-0.24653721,0.14427948,-0.29041672,0.10195313,-0.18797608,-0.6435791,104.0
32422,-0.24653721,0.14427948,-0.29041672,0.09239502,-0.18691407,-0.6988037,104.0
32423,-0.3632455,-0.038749695,-0.28100204,0.09239502,-0.18691407,-0.6988037,104.0
32424,-0.3632455,-0.038749695,-0.28100204,0.04141846,-0.18054199,-0.71367186,104.0
32425,-0.32582617,-0.1629219,-0.33693314,0.04141846,-0.18054199,-0.71367186,104.0
32426,-0.32582617,-0.1629219,-0.33693314,0.059472658,-0.118945315,-0.68499756,104.0
32427,-0.25848818,-0.30836487,-0.2745514,0.059472658,-0.118945315,-0.68499756,104.0
32428,-0.25848818,-0.30836487,-0.2745514,0.22939454,-0.08283692,-0.64782715,104.0
32429,-0.2605505,-0.28074646,-0.07493591,0.22939454,-0.08283692,-0.64782715,104.0
32430,-0.2605505,-0.28074646,-0.07493591,0.24320069,-0.08814698,-0.5851685,104.0
32431,-0.3313775,-0.06712341,0.023132324,0.24320069,-0.08814698,-0.5851685,104.0
32432,-0.3313775,-0.06712341,0.023132324,0.070092775,-0.115759276,-0.53737795,104.0
32433,-0.44394684,0.1198349,-0.07778549,0.070092775,-0.115759276,-0.53737795,104.0
32434,-0.44394684,0.1198349,-0.07778549,-0.09239502,-0.13699952,-0.50445557,104.0
32435,-0.58637094,0.15544128,-0.22170258,-0.09239502,-0.13699952,-0.50445557,104.0
32436,-0.58637094,0.15544128,-0.22170258,-0.10938721,-0.16779785,-0.4980835,104.0
32437,-0.67270994,0.21907806,-0.31824493,-0.10938721,-0.16779785,-0.4980835,104.0
32438,-0.67270994,0.21907806,-0.31824493,-0.14549561,-0.16885987,-0.45454103,104.0
32439,-0.73416424,0.37225723,-0.41897583,-0.14549561,-0.16885987,-0.45454103,104.0
32440,-0.73416424,0.37225723,-0.41897583,-0.22089843,-0.16461182,-0.4088745,104.0
32441,-0.7977562,0.38858795,-0.46463776,-0.22089843,-0.16461182,-0.4088745,104.0
32442,-0.7977562,0.38858795,-0.46463776,-0.21983643,-0.16779785,-0.38657227,104.0
32443,-0.70245075,0.16500854,-0.25753784,-0.21983643,-0.16779785,-0.38657227,104.0
32444,-0.70245075,0.16500854,-0.25753784,-0.06903076,-0.23682861,-0.3812622,104.0
32445,-0.41530514,-0.18974686,0.06278229,-0.06903076,-0.23682861,-0.3812622,104.0
32446,-0.41530514,-0.18974686,0.06278229,0.009558106,-0.25913087,-0.4078125,104.0
32447,-0.20370388,-0.38768768,0.17450714,0.009558106,-0.25913087,-0.4078125,104.0
32448,-0.20370388,-0.38768768,0.17450714,-0.028674318,-0.2347046,-0.45560303,104.0
32449,-0.16182804,-0.28827286,0.12930298,-0.028674318,-0.2347046,-0.45560303,104.0
32450,-0.16182804,-0.28827286,0.12930298,-0.05522461,-0.2357666,-0.41843262,104.0
32451,-0.1475048,-0.11553192,0.17562485,-0.05522461,-0.2357666,-0.41843262,104.0
32452,-0.1475048,-0.11553192,0.17562485,-0.039294433,-0.2357666,-0.36745605,104.0
32453,-0.08704662,-0.1428299,0.35357285,-0.039294433,-0.2357666,-0.36745605,104.0
32454,-0.08704662,-0.1428299,0.35357285,-0.07540283,-0.24107666,-0.29417726,104.0
32455,-0.070308685,-0.3671341,0.43535995,-0.07540283,-0.24107666,-0.29417726,104.0
32456,-0.070308685,-0.3671341,0.43535995,-0.040356446,-0.22939454,-0.29311523,104.0
32457,-0.22339821,-0.3672905,0.33080673,-0.040356446,-0.22939454,-0.29311523,104.0
32458,-0.22339821,-0.3672905,0.33080673,0.04141846,-0.17629395,-0.24107666,104.0
32459,-0.22339821,-0.3672905,0.33080673,0.04141846,-0.17629395,-0.24107666,103.0
32460,-0.41553497,0.020706177,0.16418076,0.04141846,-0.17629395,-0.24107666,103.0
32461,-0.41553497,0.020706177,0.16418076,-0.0021240234,-0.18585205,-0.13487549,103.0
32462,-0.43257427,0.36662674,0.042510986,-0.0021240234,-0.18585205,-0.13487549,103.0
32463,-0.43257427,0.36662674,0.042510986,-0.046728518,-0.1709839,-0.05522461,103.0
32464,-0.2991724,0.38944244,0.08747864,-0.046728518,-0.1709839,-0.05522461,103.0
32465,-0.2991724,0.38944244,0.08747864,-0.10089111,-0.16036378,-0.032922365,103.0
32466,-0.19794369,0.24692917,0.24406815,-0.10089111,-0.16036378,-0.032922365,103.0
32467,-0.19794369,0.24692917,0.24406815,-0.13806152,-0.13381349,-0.0541626,103.0
32468,-0.17479801,0.15597916,0.2796669,-0.13806152,-0.13381349,-0.0541626,103.0
32469,-0.17479801,0.15597916,0.2796669,-0.15717773,-0.1274414,-0.05522461,103.0
32470,-0.19423294,0.1100502,0.19707489,-0.15717773,-0.1274414,-0.05522461,103.0
32471,-0.19423294,0.1100502,0.19707489,-0.15186767,-0.1178833,-0.0541626,103.0
32472,-0.22508907,0.06932449,0.1498375,-0.15186767,-0.1178833,-0.0541626,103.0
32473,-0.22508907,0.06932449,0.1498375,-0.1539917,-0.12000733,-0.05522461,103.0
32474,-0.2751398,-0.0059814453,0.17974472,-0.1539917,-0.12000733,-0.05522461,103.0
32475,-0.2751398,-0.0059814453,0.17974472,-0.1720459,-0.14018555,-0.078588866,103.0
32476,-0.29273129,-0.10146332,0.24915314,-0.1720459,-0.14018555,-0.078588866,103.0
32477,-0.29273129,-0.10146332,0.24915314,-0.21134034,-0.20390625,-0.09664307,103.0
32478,-0.2624197,-0.0671196,0.31316376,-0.21134034,-0.20390625,-0.09664307,103.0
32479,-0.2624197,-0.0671196,0.31316376,-0.30479738,-0.271875,-0.13168946,103.0
32480,-0.23919582,0.07828522,0.3467331,-0.30479738,-0.271875,-0.13168946,103.0
32481,-0.23919582,0.07828522,0.3467331,-0.3462158,-0.35471192,-0.16142578,103.0
32482,-0.120238304,0.046268463,0.39152145,-0.3462158,-0.35471192,-0.16142578,103.0
32483,-0.120238304,0.046268463,0.39152145,-0.3345337,-0.39506838,-0.2081543,103.0
32484,0.08438778,-0.10645294,0.38876724,-0.3345337,-0.39506838,-0.2081543,103.0
32485,0.08438778,-0.10645294,0.38876724,-0.27612305,-0.36002198,-0.2814331,103.0
32486,0.24065495,-0.115787506,0.44255447,-0.27612305,-0.36002198,-0.2814331,103.0
32487,0.24065495,-0.115787506,0.44255447,-0.28461915,-0.38657227,-0.28780517,103.0
32488,0.3483467,-0.12684631,0.56827545,-0.28461915,-0.38657227,-0.28780517,103.0
32489,0.3483467,-0.12684631,0.56827545,-0.33771974,-0.33665773,-0.2814331,103.0
32490,0.34396076,-0.3122177,0.5469208,-0.33771974,-0.33665773,-0.2814331,103.0
32491,0.34396076,-0.3122177,0.5469208,-0.36002198,-0.26868898,-0.27718505,103.0
32492,0.25191402,-0.5289726,0.3478508,-0.36002198,-0.26868898,-0.27718505,103.0
32493,0.25191402,-0.5289726,0.3478508,-0.3982544,-0.19328614,-0.26019287,103.0
32494,0.14229012,-0.67946625,0.07481384,-0.3982544,-0.19328614,-0.26019287,103.0
32495,0.14229012,-0.67946625,0.07481384,-0.4067505,-0.095581055,-0.25063476,103.0
32496,0.05681324,-0.81385803,-0.030200958,-0.4067505,-0.095581055,-0.25063476,103.0
32497,0.05681324,-0.81385803,-0.030200958,-0.3334717,-0.090270996,-0.19647217,103.0
32498,0.19744015,-0.9912491,0.10382843,-0.3334717,-0.090270996,-0.19647217,103.0
32499,0.19744015,-0.9912491,0.10382843,-0.23045655,-0.06690674,-0.13487549,103.0
32500,0.43295193,-0.9719887,0.22992325,-0.23045655,-0.06690674,-0.13487549,103.0
32501,0.43295193,-0.9719887,0.22992325,-0.19222413,-0.011682129,-0.043542482,103.0
32502,0.4683466,-0.7515907,0.13687897,-0.19222413,-0.011682129,-0.043542482,103.0
32503,0.4683466,-0.7515907,0.13687897,-0.18903808,0.039294433,0.059472658,103.0
32504,0.34046078,-0.60684204,-0.13430786,-0.18903808,0.039294433,0.059472658,103.0
32505,0.34046078,-0.60684204,-0.13430786,-0.0180542,0.15186767,0.09664307,103.0
32506,0.18261051,-0.44104004,-0.30757904,-0.0180542,0.15186767,0.09664307,103.0
32507,0.18261051,-0.44104004,-0.30757904,0.20178223,0.20072022,0.11363526,103.0
32508,0.06443596,-0.21901703,-0.17552185,0.20178223,0.20072022,0.11363526,103.0
32509,0.06443596,-0.21901703,-0.17552185,0.18266602,0.16779785,0.13487549,103.0
32510,-0.058387756,-0.06745148,0.07926178,0.18266602,0.16779785,0.13487549,103.0
32511,-0.058387756,-0.06745148,0.07926178,0.14549561,0.15611573,0.15717773,103.0
32512,-0.23351479,0.13324738,0.1388855,0.14549561,0.15611573,0.15717773,103.0
32513,-0.23351479,0.13324738,0.1388855,0.059472658,0.098767094,0.20921631,103.0
32514,-0.2591257,0.20197296,-0.09433746,0.059472658,0.098767094,0.20921631,103.0
32515,-0.2591257,0.20197296,-0.09433746,0.06159668,0.098767094,0.28780517,103.0
32516,-0.043323517,-0.10109329,-0.34508514,0.06159668,0.098767094,0.28780517,103.0
32517,-0.043323517,-0.10109329,-0.34508514,-0.08283692,0.093457036,0.20178223,103.0
32518,0.14097595,-0.317276,-0.34783554,-0.08283692,0.093457036,0.20178223,103.0
32519,0.14097595,-0.317276,-0.34783554,-0.23789063,0.06265869,0.22727051,103.0
32520,0.15478516,-0.16480637,-0.2351532,-0.23789063,0.06265869,0.22727051,103.0
32521,0.15478516,-0.16480637,-0.2351532,-0.1444336,-0.026550293,0.22939454,103.0
32522,0.120251656,0.15373993,-0.11885071,-0.1444336,-0.026550293,0.22939454,103.0
32523,0.120251656,0.15373993,-0.11885071,-0.18479005,-0.13275146,0.2516968,103.0
32524,0.13576412,0.29154968,-0.039218903,-0.18479005,-0.13275146,0.2516968,103.0
32525,0.13576412,0.29154968,-0.039218903,-0.37489015,-0.15717773,0.18266602,103.0
32526,0.18317223,0.026016235,-0.050956726,-0.37489015,-0.15717773,0.18266602,103.0
32527,0.18317223,0.026016235,-0.050956726,-0.20072022,-0.14655761,0.12213135,103.0
32528,0.08112049,-0.11727142,-0.011489868,-0.20072022,-0.14655761,0.12213135,103.0
32529,0.08112049,-0.11727142,-0.011489868,-0.11151123,-0.22196046,0.14655761,103.0
32530,-0.022603989,0.04664612,0.20324707,-0.11151123,-0.22196046,0.14655761,103.0
32531,-0.022603989,0.04664612,0.20324707,-0.07434082,-0.30054933,0.095581055,103.0
32532,-0.0039958954,0.2833023,0.3925171,-0.07434082,-0.30054933,0.095581055,103.0
32533,-0.0039958954,0.2833023,0.3925171,-0.020178223,-0.16354981,-0.022302246,103.0
32534,-0.03832817,0.45762253,0.48717117,-0.020178223,-0.16354981,-0.022302246,103.0
32535,-0.03832817,0.45762253,0.48717117,-0.033984374,-0.090270996,-0.07646485,103.0
32536,-0.09643364,0.36475372,0.57099915,-0.033984374,-0.090270996,-0.07646485,103.0
32537,-0.09643364,0.36475372,0.57099915,-0.032922365,-0.0010620117,-0.13062744,103.0
32538,-0.16822338,0.18231583,0.6454201,-0.032922365,-0.0010620117,-0.13062744,103.0
32539,-0.16822338,0.18231583,0.6454201,-0.2357666,-0.014868164,-0.13699952,103.0
32540,-0.26725674,-0.02785492,0.5800934,-0.2357666,-0.014868164,-0.13699952,103.0
32541,-0.26725674,-0.02785492,0.5800934,-0.34090576,-0.1539917,-0.08920898,103.0
32542,-0.25911808,-0.27184296,0.24339294,-0.34090576,-0.1539917,-0.08920898,103.0
32543,-0.25911808,-0.27184296,0.24339294,-0.24001466,-0.18266602,-0.08814698,103.0
32544,-0.12432289,-0.3436966,-0.09741211,-0.24001466,-0.18266602,-0.08814698,103.0
32545,-0.12432289,-0.3436966,-0.09741211,-0.1263794,-0.18160401,-0.06796875,103.0
32546,0.033525467,-0.23783875,-0.15410233,-0.1263794,-0.18160401,-0.06796875,103.0
32547,0.033525467,-0.23783875,-0.15410233,-0.20178223,-0.121069334,-0.11682129,103.0
32548,0.07494068,-0.23526764,-0.01838684,-0.20178223,-0.121069334,-0.11682129,103.0
32549,0.07494068,-0.23526764,-0.01838684,-0.15505372,-0.12956543,-0.1274414,103.0
32550,0.09193516,-0.40673447,0.11709976,-0.15505372,-0.12956543,-0.1274414,103.0
32551,0.09193516,-0.40673447,0.11709976,-0.09451904,-0.087084964,-0.05628662,103.0
32552,0.09193516,-0.40673447,0.11709976,-0.09451904,-0.087084964,-0.05628662,104.0
32553,0.16346455,-0.46437836,0.227005,-0.09451904,-0.087084964,-0.05628662,104.0
32554,0.16346455,-0.46437836,0.227005,-0.010620117,-0.13912354,-0.032922365,104.0
32555,0.21640396,-0.30075073,0.32082748,-0.010620117,-0.13912354,-0.032922365,104.0
32556,0.21640396,-0.30075073,0.32082748,0.06159668,-0.14230958,-0.07752686,104.0
32557,0.20375061,-0.06592941,0.4292717,0.06159668,-0.14230958,-0.07752686,104.0
32558,0.20375061,-0.06592941,0.4292717,0.009558106,-0.18903808,-0.12850343,104.0
32559,0.2066288,-0.038093567,0.4062233,0.009558106,-0.18903808,-0.12850343,104.0
32560,0.2066288,-0.038093567,0.4062233,0.1709839,-0.18479005,-0.09133301,104.0
32561,0.28228283,-0.10497284,0.23679352,0.1709839,-0.18479005,-0.09133301,104.0
32562,0.28228283,-0.10497284,0.23679352,0.33134767,-0.058410645,-0.093457036,104.0
32563,0.3283291,0.039505005,0.1557312,0.33134767,-0.058410645,-0.093457036,104.0
32564,0.3283291,0.039505005,0.1557312,0.2899292,-0.0180542,-0.0031860352,104.0
32565,0.2491622,0.27555847,0.0990448,0.2899292,-0.0180542,-0.0031860352,104.0
32566,0.2491622,0.27555847,0.0990448,0.20390625,0.026550293,-0.07327881,104.0
32567,0.116407394,0.40637207,-0.05891037,0.20390625,0.026550293,-0.07327881,104.0
32568,0.116407394,0.40637207,-0.05891037,0.14868164,-0.05628662,-0.05628662,104.0
32569,-0.01135397,0.40150452,-0.31877136,0.14868164,-0.05628662,-0.05628662,104.0
32570,-0.01135397,0.40150452,-0.31877136,0.16248779,-0.05628662,-0.090270996,104.0
32571,-0.07623434,0.27335358,-0.5090332,0.16248779,-0.05628662,-0.090270996,104.0
32572,-0.07623434,0.27335358,-0.5090332,0.24107666,-0.05628662,-0.14549561,104.0
32573,-0.053541183,0.1302681,-0.47050858,0.24107666,-0.05628662,-0.14549561,104.0
32574,-0.053541183,0.1302681,-0.47050858,0.24957275,-0.0541626,-0.17735596,104.0
32575,-0.012058735,0.10623932,-0.24913788,0.24957275,-0.0541626,-0.17735596,104.0
32576,-0.012058735,0.10623932,-0.24913788,0.1731079,-0.032922365,-0.19647217,104.0
32577,-0.065433025,0.16923523,-0.059394836,0.1731079,-0.032922365,-0.19647217,104.0
32578,-0.065433025,0.16923523,-0.059394836,0.08283692,-0.06478272,-0.13168946,104.0
32579,-0.19051743,0.17569733,-0.07947159,0.08283692,-0.06478272,-0.13168946,104.0
32580,-0.19051743,0.17569733,-0.07947159,0.014868164,-0.09664307,-0.118945315,104.0
32581,-0.21872234,0.03250122,-0.26744843,0.014868164,-0.09664307,-0.118945315,104.0
32582,-0.21872234,0.03250122,-0.26744843,0.0541626,-0.11682129,-0.09770508,104.0
32583,-0.17198658,-0.11514664,-0.47883987,0.0541626,-0.11682129,-0.09770508,104.0
32584,-0.17198658,-0.11514664,-0.47883987,0.23895264,-0.023364259,-0.06265869,104.0
32585,-0.21257687,0.05860138,-0.56666565,0.23895264,-0.023364259,-0.06265869,104.0
32586,-0.21257687,0.05860138,-0.56666565,0.18691407,0.004248047,-0.047790527,104.0
32587,-0.2746029,0.4025421,-0.53819656,0.18691407,0.004248047,-0.047790527,104.0
32588,-0.2746029,0.4025421,-0.53819656,0.083898924,-0.015930176,-0.016992187,104.0
32589,-0.15328789,0.45357513,-0.4925537,0.083898924,-0.015930176,-0.016992187,104.0
32590,-0.15328789,0.45357513,-0.4925537,0.08602295,-0.035046387,-0.07646485,104.0
32591,0.022450447,0.2250061,-0.4593773,0.08602295,-0.035046387,-0.07646485,104.0
32592,0.022450447,0.2250061,-0.4593773,0.14230958,-0.021240234,-0.1709839,104.0
32593,0.07334328,0.047180176,-0.40167236,0.14230958,-0.021240234,-0.1709839,104.0
32594,0.07334328,0.047180176,-0.40167236,0.12000733,-0.047790527,-0.2824951,104.0
32595,0.08717823,0.009254456,-0.26099777,0.12000733,-0.047790527,-0.2824951,104.0
32596,0.08717823,0.009254456,-0.26099777,0.019116212,-0.0637207,-0.31860352,104.0
32597,0.13788223,-0.07972717,-0.11966324,0.019116212,-0.0637207,-0.31860352,104.0
32598,0.13788223,-0.07972717,-0.11966324,0.011682129,-0.043542482,-0.33134767,104.0
32599,0.13456154,-0.21743011,-0.0073776245,0.011682129,-0.043542482,-0.33134767,104.0
32600,0.13456154,-0.21743011,-0.0073776245,0.124255374,-0.019116212,-0.3462158,104.0
32601,0.052119255,-0.22429657,0.16667938,0.124255374,-0.019116212,-0.3462158,104.0
32602,0.052119255,-0.22429657,0.16667938,0.093457036,-0.05628662,-0.33240968,104.0
32603,-0.03760147,-0.12521362,0.3245201,0.093457036,-0.05628662,-0.33240968,104.0
32604,-0.03760147,-0.12521362,0.3245201,0.046728518,-0.0998291,-0.3079834,104.0
32605,-0.1166172,-0.012161255,0.30719757,0.046728518,-0.0998291,-0.3079834,104.0
32606,-0.1166172,-0.012161255,0.30719757,0.043542482,-0.095581055,-0.2527588,104.0
32607,-0.1166172,-0.012161255,0.30719757,-0.035046387,-0.10195313,-0.22408448,104.0
32608,-0.20585442,0.16833496,0.22069931,-0.035046387,-0.10195313,-0.22408448,104.0
32609,-0.20585442,0.16833496,0.22069931,-0.26762697,-0.121069334,-0.18479005,104.0
32610,-0.22039604,0.25881577,0.22428894,-0.26762697,-0.121069334,-0.18479005,104.0
32611,0.0028333664,0.10209656,0.22993088,-0.26762697,-0.121069334,-0.18479005,104.0
32612,0.0028333664,0.10209656,0.22993088,0.009558106,0.04141846,-0.28780517,104.0
32613,0.31724453,0.008800507,0.26892853,0.009558106,0.04141846,-0.28780517,104.0
32614,0.31724453,0.008800507,0.26892853,0.12531738,0.23364258,-0.2516968,104.0
32615,0.24849796,0.21276474,0.42741013,0.12531738,0.23364258,-0.2516968,104.0
32616,0.24849796,0.21276474,0.42741013,-0.07327881,0.27506104,-0.24638672,104.0
32617,-0.12417507,0.32073593,0.48981476,-0.07327881,0.27506104,-0.24638672,104.0
32618,-0.12417507,0.32073593,0.48981476,-0.33240968,0.2347046,-0.18160401,104.0
32619,-0.44993782,0.08679962,0.24767303,-0.33240968,0.2347046,-0.18160401,104.0
32620,-0.44993782,0.08679962,0.24767303,-0.33878174,0.20072022,-0.14549561,104.0
32621,-0.6231098,-0.16305542,-0.13909149,-0.33878174,0.20072022,-0.14549561,104.0
32622,-0.6231098,-0.16305542,-0.13909149,-0.17947999,0.16036378,-0.028674318,104.0
32623,-0.687624,-0.22169113,-0.47951126,-0.17947999,0.16036378,-0.028674318,104.0
32624,-0.687624,-0.22169113,-0.47951126,-0.016992187,0.1529297,0.08283692,104.0
32625,-0.70389557,-0.1791954,-0.68530655,-0.016992187,0.1529297,0.08283692,104.0
32626,-0.70389557,-0.1791954,-0.68530655,0.14974366,0.20603028,0.15505372,104.0
32627,-0.71348286,-0.031600952,-0.6489296,0.14974366,0.20603028,0.15505372,104.0
32628,-0.71348286,-0.031600952,-0.6489296,0.25700685,0.24107666,0.20072022,104.0
32629,-0.6866188,0.2503662,-0.39448547,0.25700685,0.24107666,0.20072022,104.0
32630,-0.6866188,0.2503662,-0.39448547,0.20072022,0.20709229,0.25594482,104.0
32631,-0.61026955,0.46300125,-0.14897537,0.20072022,0.20709229,0.25594482,104.0
32632,-0.61026955,0.46300125,-0.14897537,0.08071289,0.16142578,0.2824951,104.0
32633,-0.4735918,0.47383118,-0.13934708,0.08071289,0.16142578,0.2824951,104.0
32634,-0.4735918,0.47383118,-0.13934708,-0.03186035,0.10938721,0.30267334,104.0
32635,-0.24416828,0.32617188,-0.31698227,-0.03186035,0.10938721,0.30267334,104.0
32636,-0.24416828,0.32617188,-0.31698227,-0.10938721,0.10513916,0.30161133,104.0
32637,0.07530689,0.1687851,-0.45713806,-0.10938721,0.10513916,0.30161133,104.0
32638,0.07530689,0.1687851,-0.45713806,-0.13381349,0.10195313,0.2888672,104.0
32639,0.32867813,0.091472626,-0.4569702,-0.13381349,0.10195313,0.2888672,104.0
32640,0.32867813,0.091472626,-0.4569702,-0.1359375,0.093457036,0.271875,104.0
32641,0.3654089,0.109565735,-0.34041595,-0.1359375,0.093457036,0.271875,104.0
32642,0.3654089,0.109565735,-0.34041595,-0.19647217,0.021240234,0.26975098,104.0
32643,0.2815237,0.13634872,-0.13996887,-0.19647217,0.021240234,0.26975098,104.0
32644,0.2815237,0.13634872,-0.13996887,-0.28355715,-0.09133301,0.2824951,104.0
32645,0.26177883,0.030136108,0.051475525,-0.28355715,-0.09133301,0.2824951,104.0
32646,0.26177883,0.030136108,0.051475525,-0.29736328,-0.20921631,0.2623169,104.0
32647,0.32764816,-0.010360718,0.10031128,-0.29736328,-0.20921631,0.2623169,104.0
32648,0.32764816,-0.010360718,0.10031128,-0.362146,-0.28780517,0.24744873,104.0
32649,0.3868866,0.09537506,-0.046791077,-0.362146,-0.28780517,0.24744873,104.0
32650,0.3868866,0.09537506,-0.046791077,-0.5150757,-0.36427003,0.271875,104.0
32651,0.40269756,0.03526306,-0.22549438,-0.5150757,-0.36427003,0.271875,104.0
32652,0.40269756,0.03526306,-0.22549438,-0.5968506,-0.4354248,0.3154175,104.0
32653,0.44736576,-0.3380127,-0.14186859,-0.5968506,-0.4354248,0.3154175,104.0
32654,0.44736576,-0.3380127,-0.14186859,-0.35577393,-0.5320679,0.33240968,104.0
32655,0.5467968,-0.66838455,0.18279266,-0.35577393,-0.5320679,0.33240968,104.0
32656,0.5467968,-0.66838455,0.18279266,0.023364259,-0.57242435,0.3791382,104.0
32657,0.5725689,-0.5381355,0.5325241,0.023364259,-0.57242435,0.3791382,104.0
32658,0.5725689,-0.5381355,0.5325241,0.023364259,-0.57242435,0.3791382,104.0
32659,0.5725689,-0.5381355,0.5325241,0.07752686,-0.67650145,0.45878908,104.0
32660,0.45573616,-0.14833069,0.66082,0.07752686,-0.67650145,0.45878908,104.0
32661,0.45573616,-0.14833069,0.66082,-0.10195313,-0.78164065,0.52250975,104.0
32662,0.36075592,0.022460938,0.5275345,-0.10195313,-0.78164065,0.52250975,104.0
32663,0.36075592,0.022460938,0.5275345,-0.20072022,-0.8846558,0.5703003,104.0
32664,0.42365074,-0.077819824,0.30812454,-0.20072022,-0.8846558,0.5703003,104.0
32665,0.42365074,-0.077819824,0.30812454,-0.0053100586,-0.9122681,0.58623046,104.0
32666,0.60535145,-0.06970215,0.1914978,-0.0053100586,-0.9122681,0.58623046,104.0
32667,0.60535145,-0.06970215,0.1914978,0.09239502,-0.92926025,0.5766724,104.0
32668,0.74847794,0.14461899,0.30976486,0.09239502,-0.92926025,0.5766724,104.0
32669,0.74847794,0.14461899,0.30976486,-0.028674318,-0.9876709,0.55755615,104.0
32670,0.7552762,0.17521667,0.55384445,-0.028674318,-0.9876709,0.55755615,104.0
32671,0.7552762,0.17521667,0.55384445,-0.11363526,-1.1321045,0.52675784,104.0
32672,0.79410124,-0.10770035,0.7187576,-0.11363526,-1.1321045,0.52675784,104.0
32673,0.79410124,-0.10770035,0.7187576,-0.20284425,-1.1660889,0.45135498,104.0
32674,0.9886017,-0.4087906,0.72981644,-0.20284425,-1.1660889,0.45135498,104.0
32675,0.9886017,-0.4087906,0.72981644,-0.04885254,-1.1597168,0.41949463,104.0
32676,1.2657595,-0.5561447,0.5946083,-0.04885254,-1.1597168,0.41949463,104.0
32677,1.2657595,-0.5561447,0.5946083,0.24320069,-0.98236084,0.34940186,104.0
32678,1.5066137,-0.4865036,0.43463135,0.24320069,-0.98236084,0.34940186,104.0
32679,1.5066137,-0.4865036,0.43463135,0.2899292,-0.7975708,0.33984375,104.0
32680,1.5816584,-0.3211136,0.38393402,0.2899292,-0.7975708,0.33984375,104.0
32681,1.5816584,-0.3211136,0.38393402,0.12956543,-0.6988037,0.36320803,104.0
32682,1.5575995,-0.26399612,0.40369415,0.12956543,-0.6988037,0.36320803,104.0
32683,1.5575995,-0.26399612,0.40369415,-0.07646485,-0.6860596,0.39082032,104.0
32684,1.5619731,-0.38913727,0.26486206,-0.07646485,-0.6860596,0.39082032,104.0
32685,1.5619731,-0.38913727,0.26486206,-0.16142578,-0.6425171,0.3812622,104.0
32686,1.5676084,-0.49460983,-0.10160065,-0.16142578,-0.6425171,0.3812622,104.0
32687,1.5676084,-0.49460983,-0.10160065,-0.09133301,-0.53737795,0.3164795,104.0
32688,1.4987888,-0.29794312,-0.47782516,-0.09133301,-0.53737795,0.3164795,104.0
32689,1.4987888,-0.29794312,-0.47782516,-0.13699952,-0.44816896,0.24320069,104.0
32690,1.2855177,-0.021289825,-0.6856308,-0.13699952,-0.44816896,0.24320069,104.0
32691,1.2855177,-0.021289825,-0.6856308,-0.21877442,-0.4598511,0.18797608,104.0
32692,1.0057335,-0.017860413,-0.675045,-0.21877442,-0.4598511,0.18797608,104.0
32693,1.0057335,-0.017860413,-0.675045,-0.28461915,-0.53525394,0.115759276,104.0
32694,0.8371918,-0.477314,-0.59288025,-0.28461915,-0.53525394,0.115759276,104.0
32695,0.8371918,-0.477314,-0.59288025,0.08602295,-0.68499756,-0.0180542,104.0
32696,0.91571283,-1.029129,-0.5241089,0.08602295,-0.68499756,-0.0180542,104.0
32697,0.91571283,-1.029129,-0.5241089,0.5161377,-0.6966797,-0.1996582,104.0
32698,1.1502094,-0.981163,-0.37718582,0.5161377,-0.6966797,-0.1996582,104.0
32699,1.1502094,-0.981163,-0.37718582,0.42799073,-0.724292,-0.21134034,104.0
32700,1.23141,-0.509285,-0.22905731,0.42799073,-0.724292,-0.21134034,104.0
32701,1.23141,-0.509285,-0.22905731,0.12319336,-0.7455322,-0.11257324,104.0
32702,1.1594443,-0.21257019,-0.175457,0.12319336,-0.7455322,-0.11257324,104.0
32703,1.1594443,-0.21257019,-0.175457,-0.1901001,-0.79969484,0.083898924,104.0
32704,1.0257854,-0.3656006,-0.18797302,-0.1901001,-0.79969484,0.083898924,104.0
32705,1.0257854,-0.3656006,-0.18797302,-0.24638672,-0.7391602,0.15186767,104.0
32706,0.738353,-0.70121,-0.4023323,-0.24638672,-0.7391602,0.15186767,104.0
32707,0.738353,-0.70121,-0.4023323,-0.13806152,-0.630835,0.1444336,104.0
32708,0.3805139,-0.8019371,-0.7885399,-0.13806152,-0.630835,0.1444336,104.0
32709,0.3805139,-0.8019371,-0.7885399,0.12531738,-0.5363159,0.12850343,104.0
32710,0.2648604,-0.62360764,-1.0209694,0.12531738,-0.5363159,0.12850343,104.0
32711,0.2648604,-0.62360764,-1.0209694,0.37382814,-0.52675784,0.17629395,104.0
32712,0.4039781,-0.3206749,-0.84142303,0.37382814,-0.52675784,0.17629395,104.0
32713,0.4039781,-0.3206749,-0.84142303,0.21983643,-0.6149048,0.21027832,104.0
32714,0.5576308,-0.09048462,-0.28468323,0.21983643,-0.6149048,0.21027832,104.0
32715,0.5576308,-0.09048462,-0.28468323,-0.17629395,-0.7784546,0.31223145,104.0
32716,0.52838004,-0.1147728,0.18793869,-0.17629395,-0.7784546,0.31223145,104.0
32717,0.52838004,-0.1147728,0.18793869,-0.53950197,-0.8963379,0.41843262,104.0
32718,0.36299944,-0.39310074,0.10295105,-0.53950197,-0.8963379,0.41843262,104.0
32719,0.36299944,-0.39310074,0.10295105,-0.5320679,-0.905896,0.4895874,104.0
32720,0.22227216,-0.62908936,-0.3822403,-0.5320679,-0.905896,0.4895874,104.0
32721,0.22227216,-0.62908936,-0.3822403,-0.1529297,-0.8623535,0.5628662,104.0
32722,0.20065713,-0.59770584,-0.70726776,-0.1529297,-0.8623535,0.5628662,104.0
32723,0.20065713,-0.59770584,-0.70726776,0.2516968,-0.83686525,0.68924564,104.0
32724,0.27861655,-0.22851562,-0.48846054,0.2516968,-0.83686525,0.68924564,104.0
32725,0.27861655,-0.22851562,-0.48846054,0.33240968,-0.89208984,0.7657105,104.0
32726,0.37755632,0.3846283,0.123062134,0.33240968,-0.89208984,0.7657105,104.0
32727,0.37755632,0.3846283,0.123062134,-0.06584473,-0.8995239,0.8230591,104.0
32728,0.43417406,0.55417633,0.4742546,-0.06584473,-0.8995239,0.8230591,104.0
32729,0.43417406,0.55417633,0.4742546,-0.3717041,-0.8602295,0.8050049,104.0
32730,0.49963415,0.09013367,0.3220291,-0.3717041,-0.8602295,0.8050049,104.0
32731,0.49963415,0.09013367,0.3220291,-0.24107666,-0.77526855,0.70305175,104.0
32732,0.6517093,-0.23191833,0.12024307,-0.24107666,-0.77526855,0.70305175,104.0
32733,0.6517093,-0.23191833,0.12024307,-0.014868164,-0.7593384,0.72004396,104.0
32734,0.8402762,0.0059814453,0.19429016,-0.014868164,-0.7593384,0.72004396,104.0
32735,0.8402762,0.0059814453,0.19429016,0.09664307,-0.7614624,0.7508423,104.0
32736,0.99873465,0.49723816,0.29058838,0.09664307,-0.7614624,0.7508423,104.0
32737,0.99873465,0.49723816,0.29058838,-0.11469727,-0.7147339,0.8496094,104.0
32738,1.0631723,0.5403595,0.13519287,-0.11469727,-0.7147339,0.8496094,104.0
32739,1.0631723,0.5403595,0.13519287,-0.37701416,-0.5787964,0.77951664,104.0
32740,1.095887,-0.13582611,-0.20850754,-0.37701416,-0.5787964,0.77951664,104.0
32741,1.095887,-0.13582611,-0.20850754,-0.10195313,-0.48215333,0.6680054,104.0
32742,1.180799,-0.6622734,-0.49323273,-0.10195313,-0.48215333,0.6680054,104.0
32743,1.180799,-0.6622734,-0.49323273,0.36745605,-0.38763428,0.5957886,104.0
32744,1.3080913,-0.4308319,-0.53791046,0.36745605,-0.38763428,0.5957886,104.0
32745,1.3080913,-0.4308319,-0.53791046,0.634021,-0.33134767,0.6425171,104.0
32746,1.3649056,0.07450867,-0.4724884,0.634021,-0.33134767,0.6425171,104.0
32747,1.3649056,0.07450867,-0.4724884,0.634021,-0.33134767,0.6425171,104.0
32748,1.3649056,0.07450867,-0.4724884,0.73597413,-0.31223145,0.7455322,104.0
32749,1.2867975,0.30462646,-0.49605942,0.73597413,-0.31223145,0.7455322,104.0
32750,1.2867975,0.30462646,-0.49605942,0.6573853,-0.2984253,0.7975708,104.0
32751,1.1457953,0.20349121,-0.63401794,0.6573853,-0.2984253,0.7975708,104.0
32752,1.1457953,0.20349121,-0.63401794,0.57561034,-0.2442627,0.8209351,104.0
32753,1.0083477,0.090782166,-0.68951416,0.57561034,-0.2442627,0.8209351,104.0
32754,1.0083477,0.090782166,-0.68951416,0.49489745,-0.22196046,0.8358032,104.0
32755,0.9217417,0.115448,-0.6270027,0.49489745,-0.22196046,0.8358032,104.0
32756,0.9217417,0.115448,-0.6270027,0.4630371,-0.21983643,0.84111327,104.0
32757,0.693619,0.5214958,-0.6716461,0.4630371,-0.21983643,0.84111327,104.0
32758,0.693619,0.5214958,-0.6716461,0.2814331,-0.15186767,0.83049315,104.0
32759,0.5433717,0.49155045,-0.6833763,0.2814331,-0.15186767,0.83049315,104.0
32760,0.5433717,0.49155045,-0.6833763,0.21452637,-0.13062744,0.80394286,104.0
32761,0.0022389889,0.38452148,-0.8122177,0.21452637,-0.13062744,0.80394286,104.0
32762,0.0022389889,0.38452148,-0.8122177,0.06690674,-0.15930176,0.7763306,104.0
32763,-0.032644987,0.25256348,-0.66838074,0.06690674,-0.15930176,0.7763306,104.0
32764,-0.032644987,0.25256348,-0.66838074,0.03717041,-0.1985962,0.7317261,104.0
32765,0.01391077,0.04421234,-0.41199875,0.03717041,-0.1985962,0.7317261,104.0
32766,0.01391077,0.04421234,-0.41199875,-0.026550293,-0.3058594,0.632959,104.0
32767,0.1898396,-0.06888962,-0.3173561,-0.026550293,-0.3058594,0.632959,104.0
32768,0.1898396,-0.06888962,-0.3173561,-0.08071289,-0.32391357,0.6202149,104.0
32769,0.4531777,-0.40893173,-0.44376755,-0.08071289,-0.32391357,0.6202149,104.0
32770,0.4531777,-0.40893173,-0.44376755,-0.22939454,-0.3079834,0.45878908,104.0
32771,0.44490314,-0.5109329,-0.42406845,-0.22939454,-0.3079834,0.45878908,104.0
32772,0.44490314,-0.5109329,-0.42406845,-0.1996582,-0.29099122,0.36639404,104.0
32773,0.40263867,-0.7399597,-0.4355812,-0.1996582,-0.29099122,0.36639404,104.0
32774,0.40263867,-0.7399597,-0.4355812,0.1083252,-0.2899292,0.27718505,104.0
32775,0.38205957,-0.60894775,-0.37165833,0.1083252,-0.2899292,0.27718505,104.0
32776,0.38205957,-0.60894775,-0.37165833,0.20709229,-0.28780517,0.21983643,104.0
32777,0.55772305,-0.3823738,-0.3317871,0.20709229,-0.28780517,0.21983643,104.0
32778,0.55772305,-0.3823738,-0.3317871,0.40144044,-0.24107666,0.17735596,104.0
32779,0.57603693,-0.24050903,-0.34228516,0.40144044,-0.24107666,0.17735596,104.0
32780,0.57603693,-0.24050903,-0.34228516,0.3802002,-0.22408448,0.18266602,104.0
32781,0.663918,-0.04409027,-0.3256073,0.3802002,-0.22408448,0.18266602,104.0
32782,0.663918,-0.04409027,-0.3256073,0.25063476,-0.16779785,0.18903808,104.0
32783,0.57305336,-0.021659851,-0.29612732,0.25063476,-0.16779785,0.18903808,104.0
32784,0.57305336,-0.021659851,-0.29612732,0.20390625,-0.1529297,0.18903808,104.0
32785,0.49027872,0.0184021,-0.25966644,0.20390625,-0.1529297,0.18903808,104.0
32786,0.49027872,0.0184021,-0.25966644,0.21346436,-0.14549561,0.20284425,104.0
32787,0.43298244,0.034423828,-0.23487091,0.21346436,-0.14549561,0.20284425,104.0
32788,0.43298244,0.034423828,-0.23487091,0.2516968,-0.14549561,0.20921631,104.0
32789,0.40804362,0.12033844,-0.19491577,0.2516968,-0.14549561,0.20921631,104.0
32790,0.40804362,0.12033844,-0.19491577,0.29736328,-0.14337158,0.19647217,104.0
32791,0.40412045,0.27146912,-0.16392899,0.29736328,-0.14337158,0.19647217,104.0
32792,0.40412045,0.27146912,-0.16392899,0.31435546,-0.11363526,0.15080567,104.0
32793,0.43840885,0.4806404,-0.11562729,0.31435546,-0.11363526,0.15080567,104.0
32794,0.43840885,0.4806404,-0.11562729,0.31223145,-0.08283692,0.050976563,104.0
32795,0.39342737,0.44342422,-0.0992775,0.31223145,-0.08283692,0.050976563,104.0
32796,0.39342737,0.44342422,-0.0992775,0.29523927,-0.0722168,0.019116212,104.0
32797,0.37762022,0.44427872,0.023384094,0.29523927,-0.0722168,0.019116212,104.0
32798,0.37762022,0.44427872,0.023384094,0.19647217,-0.028674318,-0.0637207,104.0
32799,0.28326082,0.39336395,0.024124146,0.19647217,-0.028674318,-0.0637207,104.0
32800,0.28326082,0.39336395,0.024124146,0.13381349,-0.011682129,-0.087084964,104.0
32801,0.115585804,0.42355347,0.007396698,0.13381349,-0.011682129,-0.087084964,104.0
32802,0.115585804,0.42355347,0.007396698,-0.046728518,0.026550293,-0.12213135,104.0
32803,-0.0829463,0.40873718,-0.01789856,-0.046728518,0.026550293,-0.12213135,104.0
32804,-0.0829463,0.40873718,-0.01789856,-0.19434814,0.04460449,-0.16248779,104.0
32805,-0.19053888,0.2687149,-0.013793945,-0.19434814,0.04460449,-0.16248779,104.0
32806,-0.19053888,0.2687149,-0.013793945,-0.23151855,0.039294433,-0.2177124,104.0
32807,-0.14842749,0.09451294,0.035568237,-0.23151855,0.039294433,-0.2177124,104.0
32808,-0.14842749,0.09451294,0.035568237,-0.18160401,0.035046387,-0.26868898,104.0
32809,-5.5360794E-4,0.040649414,0.18572998,-0.18160401,0.035046387,-0.26868898,104.0
32810,-5.5360794E-4,0.040649414,0.18572998,-0.18054199,0.06159668,-0.3058594,104.0
32811,0.17550945,0.16192627,0.43960953,-0.18054199,0.06159668,-0.3058594,104.0
32812,0.17550945,0.16192627,0.43960953,-0.31116945,0.09239502,-0.29630128,104.0
32813,0.31955814,0.38236237,0.5749054,-0.31116945,0.09239502,-0.29630128,104.0
32814,0.31955814,0.38236237,0.5749054,-0.5511841,0.15930176,-0.22833252,104.0
32815,0.3727975,0.4521904,0.4103775,-0.5511841,0.15930176,-0.22833252,104.0
32816,0.3727975,0.4521904,0.4103775,-0.85598147,0.2347046,-0.14655761,104.0
32817,0.27365303,0.17782593,0.020404816,-0.85598147,0.2347046,-0.14655761,104.0
32818,0.27365303,0.17782593,0.020404816,-0.9483765,0.3695801,-0.11151123,104.0
32819,-3.528595E-5,-0.25307846,-0.26770782,-0.9483765,0.3695801,-0.11151123,104.0
32820,-3.528595E-5,-0.25307846,-0.26770782,-0.8442993,0.4991455,-0.14124756,104.0
32821,-0.38779688,-0.36685562,-0.2843094,-0.8442993,0.4991455,-0.14124756,104.0
32822,-0.38779688,-0.36685562,-0.2843094,-0.6573853,0.5533081,-0.19434814,104.0
32823,-0.7953696,-0.07673645,-0.17798233,-0.6573853,0.5533081,-0.19434814,104.0
32824,-0.7953696,-0.07673645,-0.17798233,-0.5915405,0.5649902,-0.24744873,104.0
32825,-1.1416178,0.22989655,-0.08494949,-0.5915405,0.5649902,-0.24744873,104.0
32826,-1.1416178,0.22989655,-0.08494949,-0.61702883,0.5501221,-0.32603762,104.0
32827,-1.362159,0.31884003,-0.01600647,-0.61702883,0.5501221,-0.32603762,104.0
32828,-1.362159,0.31884003,-0.01600647,-0.69349366,0.46834716,-0.41524658,104.0
32829,-1.4067805,0.20985794,0.06034851,-0.69349366,0.46834716,-0.41524658,104.0
32830,-1.4067805,0.20985794,0.06034851,-0.79226077,0.35895997,-0.51082766,104.0
32831,-1.3284883,-0.0079574585,0.19006348,-0.79226077,0.35895997,-0.51082766,104.0
32832,-1.3284883,-0.0079574585,0.19006348,-0.83898926,0.23364258,-0.6064087,104.0
32833,-1.2113013,-0.19078827,0.36312485,-0.83898926,0.23364258,-0.6064087,104.0
32834,-1.2113013,-0.19078827,0.36312485,-0.8867798,0.08814698,-0.69349366,104.0
32835,-1.0193462,-0.31663513,0.4869461,-0.8867798,0.08814698,-0.69349366,104.0
32836,-1.0193462,-0.31663513,0.4869461,-0.9515625,-0.05628662,-0.77739257,104.0
32837,-0.59103847,-0.48137283,0.5000191,-0.9515625,-0.05628662,-0.77739257,104.0
32838,-0.59103847,-0.48137283,0.5000191,-0.95793456,-0.2081543,-0.8358032,104.0
32839,0.079232216,-0.7164688,0.46641922,-0.95793456,-0.2081543,-0.8358032,104.0
32840,0.079232216,-0.7164688,0.46641922,-0.83474123,-0.32816163,-0.8750977,104.0
32841,0.6909127,-0.97349167,0.51418686,-0.83474123,-0.32816163,-0.8750977,104.0
32842,0.6909127,-0.97349167,0.51418686,-0.60109866,-0.38551027,-0.86766356,104.0
32843,0.81471753,-1.0671349,0.64149094,-0.60109866,-0.38551027,-0.86766356,104.0
32844,0.81471753,-1.0671349,0.64149094,-0.4067505,-0.3971924,-0.82730716,104.0
32845,0.36760664,-0.8506088,0.7051239,-0.4067505,-0.3971924,-0.82730716,104.0
32846,0.36760664,-0.8506088,0.7051239,-0.46409914,-0.38551027,-0.75615233,104.0
32847,-0.23471093,-0.49207306,0.5846939,-0.46409914,-0.38551027,-0.75615233,104.0
32848,-0.23471093,-0.49207306,0.5846939,-0.6180908,-0.35046387,-0.6796875,104.0
32849,-0.50444365,-0.45004272,0.28248596,-0.6180908,-0.35046387,-0.6796875,104.0
32850,-0.50444365,-0.45004272,0.28248596,-0.4619751,-0.3334717,-0.72960204,104.0
32851,-0.2582667,-0.7388077,0.14756775,-0.4619751,-0.3334717,-0.72960204,104.0
32852,-0.2582667,-0.7388077,0.14756775,0.15080567,-0.36639404,-0.8591675,104.0
32853,0.3236723,-0.9835892,0.36533356,0.15080567,-0.36639404,-0.8591675,104.0
32854,0.3236723,-0.9835892,0.36533356,0.81243896,-0.43967286,-0.98236084,104.0
32855,0.73227763,-0.74357224,0.57621384,0.81243896,-0.43967286,-0.98236084,104.0
32856,0.73227763,-0.74357224,0.57621384,1.0482056,-0.45454103,-1.0152832,104.0
32857,0.5644598,0.07146454,0.5880356,1.0482056,-0.45454103,-1.0152832,104.0
32858,0.5644598,0.07146454,0.5880356,0.60109866,-0.4970215,-0.8729736,104.0
32859,0.020537615,0.83538055,0.55231476,0.60109866,-0.4970215,-0.8729736,104.0
32860,0.020537615,0.83538055,0.55231476,-0.18372802,-0.52888185,-0.6552612,104.0
32861,-0.40607953,1.1264725,0.61554337,-0.18372802,-0.52888185,-0.6552612,104.0
32862,-0.40607953,1.1264725,0.61554337,-0.8814697,-0.56817627,-0.48109132,104.0
32863,-0.5114238,0.9770584,0.6269798,-0.8814697,-0.56817627,-0.48109132,104.0
32864,-0.5114238,0.9770584,0.6269798,-0.8814697,-0.56817627,-0.48109132,103.0
32865,-0.5114238,0.9770584,0.6269798,-1.3179566,-0.5246338,-0.40250245,103.0
32866,-0.43406582,0.5351639,0.39476013,-1.3179566,-0.5246338,-0.40250245,103.0
32867,-0.43406582,0.5351639,0.39476013,-1.5016845,-0.4322388,-0.4067505,103.0
32868,-0.34028244,-0.023628235,0.038906097,-1.5016845,-0.4322388,-0.4067505,103.0
32869,-0.34028244,-0.023628235,0.038906097,-1.447522,-0.32603762,-0.5140137,103.0
32870,-0.28278518,-0.45726776,-0.18251038,-1.447522,-0.32603762,-0.5140137,103.0
32871,-0.28278518,-0.45726776,-0.18251038,-1.3710572,-0.19434814,-0.6531372,103.0
32872,-0.34015632,-0.6174774,-0.11582184,-1.3710572,-0.19434814,-0.6531372,103.0
32873,-0.34015632,-0.6174774,-0.11582184,-1.356189,-0.07752686,-0.7678345,103.0
32874,-0.5789976,-0.49436188,0.08300018,-1.356189,-0.07752686,-0.7678345,103.0
32875,-0.5789976,-0.49436188,0.08300018,-1.4273437,0.035046387,-0.7986328,103.0
32876,-0.9374291,-0.19102478,0.17024231,-1.4273437,0.035046387,-0.7986328,103.0
32877,-0.9374291,-0.19102478,0.17024231,-1.6747925,0.10089111,-0.77739257,103.0
32878,-1.1989666,0.0331192,0.09144211,-1.6747925,0.10089111,-0.77739257,103.0
32879,-1.1989666,0.0331192,0.09144211,-1.910559,0.081774905,-0.67650145,103.0
32880,-1.2042418,-0.004436493,0.005279541,-1.910559,0.081774905,-0.67650145,103.0
32881,-1.2042418,-0.004436493,0.005279541,-2.0167603,0.047790527,-0.5766724,103.0
32882,-0.9873314,-0.2815857,0.02319336,-2.0167603,0.047790527,-0.5766724,103.0
32883,-0.9873314,-0.2815857,0.02319336,-1.9551636,0.004248047,-0.5511841,103.0
32884,-0.70920104,-0.6029892,0.17147064,-1.9551636,0.004248047,-0.5511841,103.0
32885,-0.70920104,-0.6029892,0.17147064,-1.8224121,-0.014868164,-0.52888185,103.0
32886,-0.48026365,-0.82100296,0.37018204,-1.8224121,-0.014868164,-0.52888185,103.0
32887,-0.48026365,-0.82100296,0.37018204,-1.5685914,-0.098767094,-0.5501221,103.0
32888,-0.28098828,-0.9219742,0.44595337,-1.5685914,-0.098767094,-0.5501221,103.0
32889,-0.28098828,-0.9219742,0.44595337,-1.1246704,-0.15823975,-0.57561034,103.0
32890,-0.121445894,-0.805954,0.37236404,-1.1246704,-0.15823975,-0.57561034,103.0
32891,-0.121445894,-0.805954,0.37236404,-0.7827026,-0.16673584,-0.60109866,103.0
32892,-0.030249953,-0.4839592,0.25250244,-0.7827026,-0.16673584,-0.60109866,103.0
32893,-0.030249953,-0.4839592,0.25250244,-0.6669434,-0.18160401,-0.5957886,103.0
32894,0.08374679,-0.16564941,0.16069412,-0.6669434,-0.18160401,-0.5957886,103.0
32895,0.08374679,-0.16564941,0.16069412,-0.79119873,-0.20921631,-0.5671143,103.0
32896,0.23143834,-0.027492523,0.09825516,-0.79119873,-0.20921631,-0.5671143,103.0
32897,0.23143834,-0.027492523,0.09825516,-1.0460815,-0.20496826,-0.5235718,103.0
32898,0.19328058,-0.12958527,0.057289124,-1.0460815,-0.20496826,-0.5235718,103.0
32899,0.19328058,-0.12958527,0.057289124,-1.2807862,-0.25913087,-0.5076416,103.0
32900,0.03016156,-0.38196182,0.07867813,-1.2807862,-0.25913087,-0.5076416,103.0
32901,0.03016156,-0.38196182,0.07867813,-1.3073364,-0.3791382,-0.5649902,103.0
32902,0.07002771,-0.66827774,0.24227905,-1.3073364,-0.3791382,-0.5649902,103.0
32903,0.07002771,-0.66827774,0.24227905,-1.1968873,-0.541626,-0.6616333,103.0
32904,0.36538494,-0.864418,0.5076065,-1.1968873,-0.541626,-0.6616333,103.0
32905,0.36538494,-0.864418,0.5076065,-1.0120972,-0.7147339,-0.7678345,103.0
32906,0.6046493,-0.9102478,0.7369194,-1.0120972,-0.7147339,-0.7678345,103.0
32907,0.6046493,-0.9102478,0.7369194,-0.8506714,-0.91864014,-0.8687256,103.0
32908,0.5722449,-0.85339355,0.87223816,-0.8506714,-0.91864014,-0.8687256,103.0
32909,0.5722449,-0.85339355,0.87223816,-0.7720825,-1.1119263,-0.9674927,103.0
32910,0.37895072,-0.7803955,0.9402695,-0.7720825,-1.1119263,-0.9674927,103.0
32911,0.37895072,-0.7803955,0.9402695,-0.6818115,-1.2807862,-1.0875,103.0
32912,0.38347065,-0.66222,0.84869766,-0.6818115,-1.2807862,-1.0875,103.0
32913,0.38347065,-0.66222,0.84869766,-0.42905274,-1.4262818,-1.2574219,103.0
32914,1.2855729,-0.46074295,0.7660675,-0.42905274,-1.4262818,-1.2574219,103.0
32915,1.2855729,-0.46074295,0.7660675,-0.087084964,-1.6747925,-1.4708862,103.0
32916,2.7433631,-0.3199005,1.1068344,-0.087084964,-1.6747925,-1.4708862,103.0
32917,2.7433631,-0.3199005,1.1068344,0.23045655,-1.5271729,-1.4156617,103.0
32918,3.0060797,-0.12922668,1.6561203,0.23045655,-1.5271729,-1.4156617,103.0
32919,3.0060797,-0.12922668,1.6561203,-0.032922365,-1.2414917,-1.3997315,103.0
32920,1.6075249,0.33994293,1.7356377,-0.032922365,-1.2414917,-1.3997315,103.0
32921,1.6075249,0.33994293,1.7356377,-0.86978763,-0.8867798,-1.2053833,103.0
32922,-0.22904348,0.8002968,1.2256088,-0.86978763,-0.8867798,-1.2053833,103.0
32923,-0.22904348,0.8002968,1.2256088,-1.7300171,-0.54375,-0.7126099,103.0
32924,-1.3739452,0.8090477,0.61094284,-1.7300171,-0.54375,-0.7126099,103.0
32925,-1.3739452,0.8090477,0.61094284,-2.3799684,-0.31435546,-0.24320069,103.0
32926,-1.4229233,0.28212738,0.16818619,-2.3799684,-0.31435546,-0.24320069,103.0
32927,-1.4229233,0.28212738,0.16818619,-2.6752076,0.0063720704,0.24532472,103.0
32928,-0.85784554,-0.50954056,-0.16991806,-2.6752076,0.0063720704,0.24532472,103.0
32929,-0.85784554,-0.50954056,-0.16991806,-2.6698976,0.37807617,0.66481936,103.0
32930,-0.49413776,-1.3107224,-0.46144867,-2.6698976,0.37807617,0.66481936,103.0
32931,-0.49413776,-1.3107224,-0.46144867,-2.437317,0.77102053,0.94625247,103.0
32932,-0.69493175,-1.9093475,-0.6259804,-2.437317,0.77102053,0.94625247,103.0
32933,-0.69493175,-1.9093475,-0.6259804,-2.170752,1.1066163,1.0694458,103.0
32934,-1.2459357,-2.1093903,-0.57876205,-2.170752,1.1066163,1.0694458,103.0
32935,-1.2459357,-2.1093903,-0.57876205,-1.9785279,1.354065,1.1119263,103.0
32936,-1.8036822,-1.9697876,-0.32499695,-1.9785279,1.354065,1.1119263,103.0
32937,-1.8036822,-1.9697876,-0.32499695,-1.9371094,1.4772583,1.1384766,103.0
32938,-2.211403,-1.7334671,0.021095276,-1.9371094,1.4772583,1.1384766,103.0
32939,-2.211403,-1.7334671,0.021095276,-2.0072021,1.5059327,1.1448487,103.0
32940,-2.4079163,-1.5888367,0.34101868,-2.0072021,1.5059327,1.1448487,103.0
32941,-2.4079163,-1.5888367,0.34101868,-2.1102173,1.4220337,1.1236085,103.0
32942,-2.3755395,-1.6078339,0.48397064,-2.1102173,1.4220337,1.1236085,103.0
32943,-2.3755395,-1.6078339,0.48397064,-2.1888063,1.2563599,1.0598878,103.0
32944,-2.1488936,-1.7229614,0.3853836,-2.1888063,1.2563599,1.0598878,103.0
32945,-2.1488936,-1.7229614,0.3853836,-2.2089844,1.0673218,0.9451904,103.0
32946,-1.8067126,-1.8166351,0.19944382,-2.2089844,1.0673218,0.9451904,103.0
32947,-1.8067126,-1.8166351,0.19944382,-2.0518067,0.8506714,0.7975708,103.0
32948,-1.4027798,-1.7859879,0.22430038,-2.0518067,0.8506714,0.7975708,103.0
32949,-1.4027798,-1.7859879,0.22430038,-1.716211,0.6149048,0.6414551,103.0
32950,-1.0082223,-1.5801926,0.43152618,-1.716211,0.6149048,0.6414551,103.0
32951,-1.0082223,-1.5801926,0.43152618,-1.3891114,0.36745605,0.49489745,103.0
32952,-0.7502912,-1.2735443,0.5056572,-1.3891114,0.36745605,0.49489745,103.0
32953,-0.7502912,-1.2735443,0.5056572,-1.1522827,0.1539917,0.35895997,103.0
32954,-0.7502912,-1.2735443,0.5056572,-1.1522827,0.1539917,0.35895997,102.0
32955,-0.69716907,-1.0634918,0.44862747,-1.1522827,0.1539917,0.35895997,102.0
32956,-0.69716907,-1.0634918,0.44862747,-0.96430665,-0.033984374,0.16142578,102.0
32957,-0.71115327,-1.047142,0.5149231,-0.96430665,-0.033984374,0.16142578,102.0
32958,-0.71115327,-1.047142,0.5149231,-0.6425171,-0.26337892,-0.020178223,102.0
32959,-0.6378069,-1.0224304,0.7285423,-0.6425171,-0.26337892,-0.020178223,102.0
32960,-0.6378069,-1.0224304,0.7285423,-0.31010744,-0.5214478,-0.15080567,102.0
32961,-0.4683876,-0.8657837,0.9420395,-0.31010744,-0.5214478,-0.15080567,102.0
32962,-0.4683876,-0.8657837,0.9420395,0.011682129,-0.8007569,-0.2623169,102.0
32963,-0.014016628,-0.64199066,1.0965996,0.011682129,-0.8007569,-0.2623169,102.0
32964,-0.014016628,-0.64199066,1.0965996,0.3525879,-1.0683838,-0.38869628,102.0
32965,0.87288094,-0.4554062,1.1408882,0.3525879,-1.0683838,-0.38869628,102.0
32966,0.87288094,-0.4554062,1.1408882,0.65419924,-1.2319336,-0.53100586,102.0
32967,1.9718522,-0.27298737,0.94610596,0.65419924,-1.2319336,-0.53100586,102.0
32968,1.9718522,-0.27298737,0.94610596,0.83686525,-1.3062744,-0.6796875,102.0
32969,3.1468909,-0.027290344,0.37794113,0.83686525,-1.3062744,-0.6796875,102.0
32970,3.1468909,-0.027290344,0.37794113,0.83898926,-1.354065,-0.8878418,102.0
32971,4.648128,0.18024445,-0.17936325,0.83898926,-1.354065,-0.8878418,102.0
32972,4.648128,0.18024445,-0.17936325,0.86978763,-1.350879,-1.09281,102.0
32973,6.0476165,0.15408325,-0.28730392,0.86978763,-1.350879,-1.09281,102.0
32974,6.0476165,0.15408325,-0.28730392,0.84536135,-1.0195312,-1.1204224,102.0
32975,5.975654,0.07900238,-0.11151886,0.84536135,-1.0195312,-1.1204224,102.0
32976,5.975654,0.07900238,-0.11151886,0.50445557,-0.6042847,-1.0397094,102.0
32977,3.917511,0.2003479,-0.07498169,0.50445557,-0.6042847,-1.0397094,102.0
32978,3.917511,0.2003479,-0.07498169,-0.121069334,-0.2782471,-0.87403566,102.0
32979,1.1100097,0.40085602,-0.3804474,-0.121069334,-0.2782471,-0.87403566,102.0
32980,1.1100097,0.40085602,-0.3804474,-0.7742066,-0.038232423,-0.43754885,102.0
32981,-0.83542967,0.36296082,-0.70746994,-0.7742066,-0.038232423,-0.43754885,102.0
32982,-0.83542967,0.36296082,-0.70746994,-1.1352905,0.11151123,-0.058410645,102.0
32983,-1.2666714,-0.07685852,-0.6979332,-1.1352905,0.11151123,-0.058410645,102.0
32984,-1.2666714,-0.07685852,-0.6979332,-1.0259033,0.20921631,0.23364258,102.0
32985,-0.72680163,-0.80241394,-0.4476776,-1.0259033,0.20921631,0.23364258,102.0
32986,-0.72680163,-0.80241394,-0.4476776,-0.65419924,0.40037844,0.38338622,102.0
32987,-0.22467852,-1.3912201,-0.29902267,-0.65419924,0.40037844,0.38338622,102.0
32988,-0.22467852,-1.3912201,-0.29902267,0.046728518,0.5533081,0.4630371,102.0
32989,-0.2770207,-1.2774811,-0.3623352,0.046728518,0.5533081,0.4630371,102.0
32990,-0.2770207,-1.2774811,-0.3623352,0.5936646,0.74871826,0.5129517,102.0
32991,-0.83726597,-0.44968414,-0.48461914,0.5936646,0.74871826,0.5129517,102.0
32992,-0.83726597,-0.44968414,-0.48461914,0.724292,0.8708496,0.6552612,102.0
32993,-1.5565925,0.46245575,-0.5447769,0.724292,0.8708496,0.6552612,102.0
32994,-1.5565925,0.46245575,-0.5447769,0.4980835,0.95793456,0.813501,102.0
32995,-2.118028,0.9457321,-0.5527878,0.4980835,0.95793456,0.813501,102.0
32996,-2.118028,0.9457321,-0.5527878,0.13912354,1.0290893,1.0046631,102.0
32997,-2.4160776,0.93201447,-0.4910469,0.13912354,1.0290893,1.0046631,102.0
32998,-2.4160776,0.93201447,-0.4910469,-0.14337158,1.0503296,1.1554688,102.0
32999,-2.4128428,0.5784149,-0.361454,-0.14337158,1.0503296,1.1554688,102.0
33000,-2.4128428,0.5784149,-0.361454,-0.3430298,1.0227174,1.1990112,102.0
33001,-2.1955209,0.112098694,-0.2624054,-0.3430298,1.0227174,1.1990112,102.0
33002,-2.1955209,0.112098694,-0.2624054,-0.46622315,0.99722904,1.1894531,102.0
33003,-1.9659015,-0.2516098,-0.25730133,-0.46622315,0.99722904,1.1894531,102.0
33004,-1.9659015,-0.2516098,-0.25730133,-0.44816896,0.94625247,1.0821899,102.0
33005,-1.7368203,-0.41038513,-0.29733276,-0.44816896,0.94625247,1.0821899,102.0
33006,-1.7368203,-0.41038513,-0.29733276,-0.29205322,0.89102787,0.9409424,102.0
33007,-1.4339387,-0.37280273,-0.33161926,-0.29205322,0.89102787,0.9409424,102.0
33008,-1.4339387,-0.37280273,-0.33161926,-0.16036378,0.8612915,0.7720825,102.0
33009,-1.1396315,-0.18331146,-0.36510086,-0.16036378,0.8612915,0.7720825,102.0
33010,-1.1396315,-0.18331146,-0.36510086,-0.08920898,0.8496094,0.6552612,102.0
33011,-1.039232,0.04789734,-0.4206314,-0.08920898,0.8496094,0.6552612,102.0
33012,-1.039232,0.04789734,-0.4206314,-0.15505372,0.8527954,0.5171997,102.0
33013,-1.1436049,0.19516754,-0.48378372,-0.15505372,0.8527954,0.5171997,102.0
33014,-1.1436049,0.19516754,-0.48378372,-0.3334717,0.8219971,0.43011475,102.0
33015,-1.2283361,0.21082306,-0.5168495,-0.3334717,0.8219971,0.43011475,102.0
33016,-1.2283361,0.21082306,-0.5168495,-0.56392825,0.76464844,0.31010744,102.0
33017,-1.1501982,0.065582275,-0.4797516,-0.56392825,0.76464844,0.31010744,102.0
33018,-1.1501982,0.065582275,-0.4797516,-0.7688965,0.7062378,0.16354981,102.0
33019,-0.90344715,-0.18491364,-0.38272476,-0.7688965,0.7062378,0.16354981,102.0
33020,-0.90344715,-0.18491364,-0.38272476,-0.8772217,0.6042847,-0.007434082,102.0
33021,-0.4954872,-0.41173553,-0.3317299,-0.8772217,0.6042847,-0.007434082,102.0
33022,-0.4954872,-0.41173553,-0.3317299,-0.96643066,0.47365722,-0.20390625,102.0
33023,-0.0083527565,-0.5876007,-0.32219696,-0.96643066,0.47365722,-0.20390625,102.0
33024,-0.0083527565,-0.5876007,-0.32219696,-1.0875,0.34833986,-0.41312256,102.0
33025,0.3575635,-0.77326965,-0.21547318,-1.0875,0.34833986,-0.41312256,102.0
33026,0.3575635,-0.77326965,-0.21547318,-1.1236085,0.20709229,-0.5649902,102.0
33027,0.4794712,-0.9375,-0.07751846,-1.1236085,0.20709229,-0.5649902,102.0
33028,0.4794712,-0.9375,-0.07751846,-1.1459106,-0.019116212,-0.75296634,102.0
33029,0.8829911,-1.045723,0.001461029,-1.1459106,-0.019116212,-0.75296634,102.0
33030,0.8829911,-1.045723,0.001461029,-1.1140503,-0.3802002,-1.1395386,102.0
33031,1.935531,-1.3269806,0.21580505,-1.1140503,-0.3802002,-1.1395386,102.0
33032,1.935531,-1.3269806,0.21580505,-0.79226077,-0.5979126,-1.4167236,102.0
33033,2.7252436,-1.636116,0.6710701,-0.79226077,-0.5979126,-1.4167236,102.0
33034,2.7252436,-1.636116,0.6710701,-0.35577393,-0.8262451,-1.5346069,102.0
33035,2.4512765,-1.4848709,1.2329102,-0.35577393,-0.8262451,-1.5346069,102.0
33036,2.4512765,-1.4848709,1.2329102,-0.20072022,-1.0577637,-1.5792115,102.0
33037,1.3978865,-1.0379105,1.6351318,-0.20072022,-1.0577637,-1.5792115,102.0
33038,1.3978865,-1.0379105,1.6351318,-0.25594482,-1.2000732,-1.4517701,102.0
33039,0.17656116,-0.55420685,1.5989532,-0.25594482,-1.2000732,-1.4517701,102.0
33040,0.17656116,-0.55420685,1.5989532,-0.40356445,-1.2446778,-1.2298096,102.0
33041,-0.46949327,-0.15935516,1.2703094,-0.40356445,-1.2446778,-1.2298096,102.0
33042,-0.46949327,-0.15935516,1.2703094,-0.60959476,-1.2414917,-0.9855469,102.0
33043,-0.13485976,-0.21336365,0.9438019,-0.60959476,-1.2414917,-0.9855469,102.0
33044,-0.13485976,-0.21336365,0.9438019,-0.544812,-1.1108643,-0.75721437,102.0
33045,0.73560584,-0.57310486,0.59329987,-0.544812,-1.1108643,-0.75721437,102.0
33046,0.73560584,-0.57310486,0.59329987,-0.29099122,-0.815625,-0.541626,102.0
33047,1.4287069,-0.5853729,0.21630096,-0.29099122,-0.815625,-0.541626,102.0
33048,1.4287069,-0.5853729,0.21630096,-0.15717773,-0.5129517,-0.32072756,102.0
33049,1.5891204,-0.17802429,-0.10458374,-0.15717773,-0.5129517,-0.32072756,102.0
33050,1.5891204,-0.17802429,-0.10458374,-0.31329346,-0.19222413,-0.028674318,102.0
33051,1.1875439,0.1303482,-0.3275528,-0.31329346,-0.19222413,-0.028674318,102.0
33052,1.1875439,0.1303482,-0.3275528,-0.6510132,0.13168946,0.22196046,102.0
33053,0.3340683,0.04246521,-0.409832,-0.6510132,0.13168946,0.22196046,102.0
33054,0.3340683,0.04246521,-0.409832,-0.901648,0.37489015,0.42374268,102.0
33055,-0.65827024,-0.2217865,-0.36772156,-0.901648,0.37489015,0.42374268,102.0
33056,-0.65827024,-0.2217865,-0.36772156,-1.0959961,0.47365722,0.5522461,102.0
33057,-1.4725878,-0.48895264,-0.28190994,-1.0959961,0.47365722,0.5522461,102.0
33058,-1.4725878,-0.48895264,-0.28190994,-1.0959961,0.47365722,0.5522461,102.0
33059,-1.4725878,-0.48895264,-0.28190994,-1.2372437,0.53950197,0.65419924,102.0
33060,-1.9920474,-0.8253937,-0.22749329,-1.2372437,0.53950197,0.65419924,102.0
33061,-1.9920474,-0.8253937,-0.22749329,-1.1310425,0.4619751,0.6839356,102.0
33062,-2.1343973,-1.2055817,-0.22185135,-1.1310425,0.4619751,0.6839356,102.0
33063,-2.1343973,-1.2055817,-0.22185135,-0.7965088,0.3154175,0.63933104,102.0
33064,-1.8410139,-1.3658218,-0.21308899,-0.7965088,0.3154175,0.63933104,102.0
33065,-1.8410139,-1.3658218,-0.21308899,-0.4630371,0.20603028,0.55543214,102.0
33066,-1.3255211,-1.1542053,-0.15402985,-0.4630371,0.20603028,0.55543214,102.0
33067,-1.3255211,-1.1542053,-0.15402985,-0.22089843,0.08283692,0.50020754,102.0
33068,-0.87831235,-0.7318878,-0.10858536,-0.22089843,0.08283692,0.50020754,102.0
33069,-0.87831235,-0.7318878,-0.10858536,-0.033984374,0.009558106,0.4428589,102.0
33070,-0.6279551,-0.36818695,-0.13948059,-0.033984374,0.009558106,0.4428589,102.0
33071,-0.6279551,-0.36818695,-0.13948059,0.098767094,-0.03186035,0.35152587,102.0
33072,-0.50280356,-0.26783752,-0.106407166,0.098767094,-0.03186035,0.35152587,102.0
33073,-0.50280356,-0.26783752,-0.106407166,0.25063476,-0.057348635,0.24851075,102.0
33074,-0.35524583,-0.28871918,0.09169006,0.25063476,-0.057348635,0.24851075,102.0
33075,-0.35524583,-0.28871918,0.09169006,0.43861085,-0.098767094,0.21877442,102.0
33076,-0.29434073,-0.14883423,0.31959152,0.43861085,-0.098767094,0.21877442,102.0
33077,-0.29434073,-0.14883423,0.31959152,0.4991455,-0.09451904,0.23895264,102.0
33078,-0.36037493,0.114341736,0.42466736,0.4991455,-0.09451904,0.23895264,102.0
33079,-0.36037493,0.114341736,0.42466736,0.4619751,-0.14337158,0.26337892,102.0
33080,-0.121613026,0.19928741,0.42671967,0.4619751,-0.14337158,0.26337892,102.0
33081,-0.121613026,0.19928741,0.42671967,0.4885254,-0.22833252,0.2262085,102.0
33082,0.9188106,0.097221375,0.3445015,0.4885254,-0.22833252,0.2262085,102.0
33083,0.9188106,0.097221375,0.3445015,0.57561034,-0.40356445,0.04885254,102.0
33084,2.880056,-0.14080048,0.3900299,0.57561034,-0.40356445,0.04885254,102.0
33085,2.880056,-0.14080048,0.3900299,0.77314454,-0.4343628,-0.27399904,102.0
33086,4.4719405,-0.4157791,0.6393547,0.77314454,-0.4343628,-0.27399904,102.0
33087,4.4719405,-0.4157791,0.6393547,1.0089111,-0.2177124,-0.28674316,102.0
33088,3.7249036,-0.1857605,0.49060822,1.0089111,-0.2177124,-0.28674316,102.0
33089,3.7249036,-0.1857605,0.49060822,0.7890747,0.07752686,-0.2262085,102.0
33090,1.0806186,0.5872345,-0.24019241,0.7890747,0.07752686,-0.2262085,102.0
33091,1.0806186,0.5872345,-0.24019241,0.08071289,0.22408448,-0.052038576,102.0
33092,-1.1174388,1.1038818,-0.99939346,0.08071289,0.22408448,-0.052038576,102.0
33093,-1.1174388,1.1038818,-0.99939346,-0.5097656,0.41206056,0.20709229,102.0
33094,-1.7211484,0.9020157,-1.2131004,-0.5097656,0.41206056,0.20709229,102.0
33095,-1.7211484,0.9020157,-1.2131004,-0.5140137,0.51932377,0.452417,102.0
33096,-1.1207054,0.13957977,-0.7967262,-0.5140137,0.51932377,0.452417,102.0
33097,-1.1207054,0.13957977,-0.7967262,-0.070092775,0.4725952,0.5256958,102.0
33098,-0.18820244,-0.64977264,-0.19746399,-0.070092775,0.4725952,0.5256958,102.0
33099,-0.18820244,-0.64977264,-0.19746399,0.4895874,0.42692873,0.5161377,102.0
33100,0.3535518,-0.87431335,0.15789795,0.4895874,0.42692873,0.5161377,102.0
33101,0.3535518,-0.87431335,0.15789795,0.9781128,0.3993164,0.48533937,102.0
33102,0.30375212,-0.3881073,0.12413406,0.9781128,0.3993164,0.48533937,102.0
33103,0.30375212,-0.3881073,0.12413406,1.1034302,0.40993652,0.45347902,102.0
33104,0.01768434,0.28179932,-0.18915558,1.1034302,0.40993652,0.45347902,102.0
33105,0.01768434,0.28179932,-0.18915558,0.98448485,0.5150757,0.40356445,102.0
33106,-0.23450977,0.63773346,-0.4773636,0.98448485,0.5150757,0.40356445,102.0
33107,-0.23450977,0.63773346,-0.4773636,0.86766356,0.6860596,0.43967286,102.0
33108,-0.46857706,0.6821823,-0.5395546,0.86766356,0.6860596,0.43967286,102.0
33109,-0.46857706,0.6821823,-0.5395546,0.7072998,0.85385746,0.5214478,102.0
33110,-0.78109944,0.6141205,-0.47172165,0.7072998,0.85385746,0.5214478,102.0
33111,-0.78109944,0.6141205,-0.47172165,0.53100586,1.0280274,0.6244629,102.0
33112,-1.2229265,0.5513458,-0.44787216,0.53100586,1.0280274,0.6244629,102.0
33113,-1.2229265,0.5513458,-0.44787216,0.34833986,1.1469727,0.73597413,102.0
33114,-1.7031947,0.47849274,-0.458786,0.34833986,1.1469727,0.73597413,102.0
33115,-1.7031947,0.47849274,-0.458786,0.20603028,1.1915772,0.80606693,102.0
33116,-2.0668771,0.34563446,-0.4047737,0.20603028,1.1915772,0.80606693,102.0
33117,-2.0668771,0.34563446,-0.4047737,0.14761963,1.1852051,0.85704345,102.0
33118,-2.2626448,0.12645721,-0.2897873,0.14761963,1.1852051,0.85704345,102.0
33119,-2.2626448,0.12645721,-0.2897873,0.14124756,1.1161743,0.88996583,102.0
33120,-2.365011,-0.095565796,-0.18734741,0.14124756,1.1161743,0.88996583,102.0
33121,-2.365011,-0.095565796,-0.18734741,0.21134034,1.0174073,0.88040775,102.0
33122,-2.4202805,-0.19490814,-0.13478851,0.21134034,1.0174073,0.88040775,102.0
33123,-2.4202805,-0.19490814,-0.13478851,0.26762697,0.904834,0.8517334,102.0
33124,-2.357843,-0.17876434,-0.12171173,0.26762697,0.904834,0.8517334,102.0
33125,-2.357843,-0.17876434,-0.12171173,0.27718505,0.79013675,0.8400513,102.0
33126,-2.1251903,-0.18215942,-0.116680145,0.27718505,0.79013675,0.8400513,102.0
33127,-2.1251903,-0.18215942,-0.116680145,0.2516968,0.68499756,0.83474123,102.0
33128,-1.810821,-0.2041626,-0.0546875,0.2516968,0.68499756,0.83474123,102.0
33129,-1.810821,-0.2041626,-0.0546875,0.2548828,0.6117188,0.84323734,102.0
33130,-1.5392694,-0.14375305,0.075855255,0.2548828,0.6117188,0.84323734,102.0
33131,-1.5392694,-0.14375305,0.075855255,0.27506104,0.5384399,0.86341554,102.0
33132,-1.3681464,-0.031471252,0.1727066,0.27506104,0.5384399,0.86341554,102.0
33133,-1.3681464,-0.031471252,0.1727066,0.30373535,0.4715332,0.8857178,102.0
33134,-1.263804,0.076309204,0.16878128,0.30373535,0.4715332,0.8857178,102.0
33135,-1.263804,0.076309204,0.16878128,0.3462158,0.42905274,0.87615967,102.0
33136,-1.1226277,0.13759613,0.17226791,0.3462158,0.42905274,0.87615967,102.0
33137,-1.1226277,0.13759613,0.17226791,0.26550293,0.37807617,0.8219971,102.0
33138,-0.8689151,0.0471344,0.37236023,0.26550293,0.37807617,0.8219971,102.0
33139,-0.8689151,0.0471344,0.37236023,0.19222413,0.30373535,0.72641605,102.0
33140,-0.568203,-0.044509888,0.75749207,0.19222413,0.30373535,0.72641605,102.0
33141,-0.568203,-0.044509888,0.75749207,0.06796875,0.23151855,0.6223389,102.0
33142,-0.29136658,0.020095825,1.0265961,0.06796875,0.23151855,0.6223389,102.0
33143,-0.29136658,0.020095825,1.0265961,-0.124255374,0.12213135,0.53737795,102.0
33144,0.07508564,-0.108314514,1.0070305,-0.124255374,0.12213135,0.53737795,102.0
33145,0.07508564,-0.108314514,1.0070305,-0.29523927,0.035046387,0.4067505,102.0
33146,0.6062474,-0.7070389,0.97774506,-0.29523927,0.035046387,0.4067505,102.0
33147,0.6062474,-0.7070389,0.97774506,-0.14124756,-0.03186035,0.29948732,102.0
33148,1.0242801,-1.2156677,1.1536942,-0.14124756,-0.03186035,0.29948732,102.0
33149,1.0242801,-1.2156677,1.1536942,0.04460449,-0.058410645,0.34833986,102.0
33150,0.98869896,-0.98664093,1.4411812,0.04460449,-0.058410645,0.34833986,102.0
33151,0.98869896,-0.98664093,1.4411812,-0.043542482,-0.124255374,0.47684327,102.0
33152,0.62372255,-0.2932663,1.6640892,-0.043542482,-0.124255374,0.47684327,102.0
33153,0.62372255,-0.2932663,1.6640892,-0.17947999,-0.1985962,0.631897,102.0
33154,0.18110704,0.41908264,1.6353836,-0.17947999,-0.1985962,0.631897,102.0
33155,0.18110704,0.41908264,1.6353836,-0.34090576,-0.18797608,0.8878418,102.0
33156,-0.376379,0.9458847,1.317337,-0.34090576,-0.18797608,0.8878418,102.0
33157,-0.376379,0.9458847,1.317337,-0.50020754,-0.15505372,1.1214844,102.0
33158,-0.88712597,1.0569534,0.944397,-0.50020754,-0.15505372,1.1214844,102.0
33159,-0.88712597,1.0569534,0.944397,-0.29417726,-0.13168946,1.2712281,102.0
33160,-0.88712597,1.0569534,0.944397,-0.29417726,-0.13168946,1.2712281,102.0
33161,-1.0088463,0.84817505,0.7807884,-0.29417726,-0.13168946,1.2712281,102.0
33162,-1.0088463,0.84817505,0.7807884,0.18903808,-0.14549561,1.2468017,102.0
33163,-0.6035366,0.6897125,0.8170967,0.18903808,-0.14549561,1.2468017,102.0
33164,-0.6035366,0.6897125,0.8170967,0.7784546,-0.13062744,1.1321045,102.0
33165,0.12108898,0.8702545,0.7580223,0.7784546,-0.13062744,1.1321045,102.0
33166,0.12108898,0.8702545,0.7580223,1.3657471,-0.053100586,1.0099732,102.0
33167,0.6994834,1.4413834,0.4366684,1.3657471,-0.053100586,1.0099732,102.0
33168,0.6994834,1.4413834,0.4366684,1.6429322,0.09770508,0.86766356,102.0
33169,0.8999553,2.0126266,0.0605011,1.6429322,0.09770508,0.86766356,102.0
33170,0.8999553,2.0126266,0.0605011,1.532483,0.30267334,0.73809814,102.0
33171,0.8428402,2.2328415,-0.13716888,1.532483,0.30267334,0.73809814,102.0
33172,0.8428402,2.2328415,-0.13716888,1.3009644,0.4991455,0.6616333,102.0
33173,0.6393237,2.117218,-0.19072723,1.3009644,0.4991455,0.6616333,102.0
33174,0.6393237,2.117218,-0.19072723,0.99298096,0.65632325,0.6064087,102.0
33175,0.30170584,1.9023285,-0.25320435,0.99298096,0.65632325,0.6064087,102.0
33176,0.30170584,1.9023285,-0.25320435,0.6265869,0.7657105,0.5734863,102.0
33177,-0.16182137,1.7691803,-0.46619797,0.6265869,0.7657105,0.5734863,102.0
33178,-0.16182137,1.7691803,-0.46619797,0.24320069,0.85704345,0.55543214,102.0
33179,-0.6987567,1.6415253,-0.77695084,0.24320069,0.85704345,0.55543214,102.0
33180,-0.6987567,1.6415253,-0.77695084,-0.029736329,0.89846194,0.56392825,102.0
33181,-1.1939173,1.3669434,-0.98734283,-0.029736329,0.89846194,0.56392825,102.0
33182,-1.1939173,1.3669434,-0.98734283,-0.17947999,0.904834,0.52675784,102.0
33183,-1.5470037,1.0134735,-1.0658417,-0.17947999,0.904834,0.52675784,102.0
33184,-1.5470037,1.0134735,-1.0658417,-0.24107666,0.8581055,0.43754885,102.0
33185,-1.7352958,0.65670013,-1.0182152,-0.24107666,0.8581055,0.43754885,102.0
33186,-1.7352958,0.65670013,-1.0182152,-0.23682861,0.75615233,0.33771974,102.0
33187,-1.7662764,0.28952026,-0.9167595,-0.23682861,0.75615233,0.33771974,102.0
33188,-1.7662764,0.28952026,-0.9167595,-0.16885987,0.6616333,0.26550293,102.0
33189,-1.7254963,0.13040924,-0.92939377,-0.16885987,0.6616333,0.26550293,102.0
33190,-1.7254963,0.13040924,-0.92939377,-0.18585205,0.64570314,0.26975098,102.0
33191,-1.7744889,0.21138,-1.0248032,-0.18585205,0.64570314,0.26975098,102.0
33192,-1.7744889,0.21138,-1.0248032,-0.38657227,0.70198977,0.34833986,102.0
33193,-1.8993282,0.22149658,-1.0178032,-0.38657227,0.70198977,0.34833986,102.0
33194,-1.8993282,0.22149658,-1.0178032,-0.74022216,0.7147339,0.44073486,102.0
33195,-1.9078779,-0.044570923,-0.8497391,-0.74022216,0.7147339,0.44073486,102.0
33196,-1.9078779,-0.044570923,-0.8497391,-0.98448485,0.67331547,0.5055176,102.0
33197,-1.6883259,-0.6538849,-0.5844917,-0.98448485,0.67331547,0.5055176,102.0
33198,-1.6883259,-0.6538849,-0.5844917,-0.8846558,0.54693604,0.49064943,102.0
33199,-1.2351208,-1.6170807,-0.24637985,-0.8846558,0.54693604,0.49064943,102.0
33200,-1.2351208,-1.6170807,-0.24637985,-0.26656494,0.34090576,0.29523927,102.0
33201,-0.3685894,-2.717125,0.23464584,-0.26656494,0.34090576,0.29523927,102.0
33202,-0.3685894,-2.717125,0.23464584,0.68074954,0.16885987,-0.04885254,102.0
33203,1.0638447,-3.5391388,0.8611183,0.68074954,0.16885987,-0.04885254,102.0
33204,1.0638447,-3.5391388,0.8611183,1.3275146,0.11363526,-0.43754885,102.0
33205,2.5615988,-3.6429672,1.2287369,1.3275146,0.11363526,-0.43754885,102.0
33206,2.5615988,-3.6429672,1.2287369,1.44646,0.23045655,-0.5894165,102.0
33207,3.204833,-2.965126,1.0406189,1.44646,0.23045655,-0.5894165,102.0
33208,3.204833,-2.965126,1.0406189,1.1437867,0.49277344,-0.75509036,102.0
33209,2.8250117,-1.9446716,0.53273773,1.1437867,0.49277344,-0.75509036,102.0
33210,2.8250117,-1.9446716,0.53273773,0.5894165,0.77739257,-0.9547486,102.0
33211,2.001171,-0.98327637,0.10621643,0.5894165,0.77739257,-0.9547486,102.0
33212,2.001171,-0.98327637,0.10621643,-0.16142578,1.0726318,-1.09281,102.0
33213,1.0966158,-0.2302475,-0.061901093,-0.16142578,1.0726318,-1.09281,102.0
33214,1.0966158,-0.2302475,-0.061901093,-1.0598878,1.2213135,-1.1087402,102.0
33215,0.13688755,0.2582016,-0.28110123,-1.0598878,1.2213135,-1.1087402,102.0
33216,0.13688755,0.2582016,-0.28110123,-1.81604,1.3211426,-1.0651978,102.0
33217,-0.8438344,0.4968567,-0.78432846,-1.81604,1.3211426,-1.0651978,102.0
33218,-0.8438344,0.4968567,-0.78432846,-2.1176515,1.3530029,-1.0237793,102.0
33219,-1.6866522,0.52194977,-1.2885857,-2.1176515,1.3530029,-1.0237793,102.0
33220,-1.6866522,0.52194977,-1.2885857,-2.1187134,1.3232666,-1.0142212,102.0
33221,-2.2316217,0.41249084,-1.4620094,-2.1187134,1.3232666,-1.0142212,102.0
33222,-2.2316217,0.41249084,-1.4620094,-1.8001099,1.1883911,-1.0482056,102.0
33223,-2.4215775,0.26261902,-1.3509064,-1.8001099,1.1883911,-1.0482056,102.0
33224,-2.4215775,0.26261902,-1.3509064,-1.1469727,1.0651978,-1.081128,102.0
33225,-2.2901917,0.20063019,-1.1088638,-1.1469727,1.0651978,-1.081128,102.0
33226,-2.2901917,0.20063019,-1.1088638,-0.38444826,0.97492677,-1.1129884,102.0
33227,-2.0604,0.3916397,-0.8319397,-0.38444826,0.97492677,-1.1129884,102.0
33228,-2.0604,0.3916397,-0.8319397,0.2623169,0.93563235,-1.1565307,102.0
33229,-1.8526173,0.7850189,-0.6283684,0.2623169,0.93563235,-1.1565307,102.0
33230,-1.8526173,0.7850189,-0.6283684,0.5479981,0.9451904,-1.2436157,102.0
33231,-1.5608177,0.97406006,-0.50403595,0.5479981,0.9451904,-1.2436157,102.0
33232,-1.5608177,0.97406006,-0.50403595,0.3791382,1.0142212,-1.3806152,102.0
33233,-1.2047329,0.57735443,-0.39759064,0.3791382,1.0142212,-1.3806152,102.0
33234,-1.2047329,0.57735443,-0.39759064,0.20603028,1.088562,-1.5855836,102.0
33235,-0.8808155,-0.3388977,-0.24365997,0.20603028,1.088562,-1.5855836,102.0
33236,-0.8808155,-0.3388977,-0.24365997,0.11469727,1.1289185,-1.8638306,102.0
33237,-0.58862495,-1.2824097,-0.07408142,0.11469727,1.1289185,-1.8638306,102.0
33238,-0.58862495,-1.2824097,-0.07408142,0.07327881,1.176709,-2.170752,102.0
33239,-0.27054596,-1.9397125,0.0337677,0.07327881,1.176709,-2.170752,102.0
33240,-0.27054596,-1.9397125,0.0337677,-0.04991455,1.2234375,-2.4288208,102.0
33241,0.14109516,-2.463852,0.054969788,-0.04991455,1.2234375,-2.4288208,102.0
33242,0.14109516,-2.463852,0.054969788,-0.29948732,1.3137085,-2.623169,102.0
33243,0.44264984,-2.8581772,-0.16778183,-0.29948732,1.3137085,-2.623169,102.0
33244,0.44264984,-2.8581772,-0.16778183,-0.7391602,1.4825684,-2.6582153,102.0
33245,0.31760883,-2.8939896,-0.772068,-0.7391602,1.4825684,-2.6582153,102.0
33246,0.31760883,-2.8939896,-0.772068,-1.1034302,1.6864747,-2.5987427,102.0
33247,-0.16770172,-2.587654,-1.5133591,-1.1034302,1.6864747,-2.5987427,102.0
33248,-0.16770172,-2.587654,-1.5133591,-1.3774292,1.902063,-2.4808595,102.0
33249,-0.7466736,-2.1148605,-2.0135918,-1.3774292,1.902063,-2.4808595,102.0
33250,-0.7466736,-2.1148605,-2.0135918,-1.632312,1.987024,-2.3109376,102.0
33251,-1.2164917,-1.8066254,-2.1761932,-1.632312,1.987024,-2.3109376,102.0
33252,-1.2164917,-1.8066254,-2.1761932,-1.6885986,1.9084351,-2.2206666,102.0
33253,-1.4271116,-1.8066177,-2.0930634,-1.6885986,1.9084351,-2.2206666,102.0
33254,-1.4271116,-1.8066177,-2.0930634,-1.4995606,1.6822265,-2.2217286,102.0
33255,-1.2744894,-1.9806671,-1.7997589,-1.4995606,1.6822265,-2.2217286,102.0
33256,-1.2744894,-1.9806671,-1.7997589,-1.4995606,1.6822265,-2.2217286,102.0
33257,-1.2744894,-1.9806671,-1.7997589,-1.2266235,1.350879,-2.2822633,102.0
33258,-0.82672024,-2.1056747,-1.3650513,-1.2266235,1.350879,-2.2822633,102.0
33259,-0.82672024,-2.1056747,-1.3650513,-1.0726318,0.996167,-2.2812011,102.0
33260,-0.41020393,-2.001175,-1.1646843,-1.0726318,0.996167,-2.2812011,102.0
33261,-0.41020393,-2.001175,-1.1646843,-1.0991821,0.84111327,-2.2514648,102.0
33262,-0.056715965,-1.4439545,-1.1290627,-1.0991821,0.84111327,-2.2514648,102.0
33263,-0.056715965,-1.4439545,-1.1290627,-1.447522,0.57454836,-1.9413575,102.0
33264,0.06939793,-1.2199707,-1.2139053,-1.447522,0.57454836,-1.9413575,102.0
33265,0.06939793,-1.2199707,-1.2139053,-1.5282348,0.5363159,-1.7926759,102.0
33266,-0.0187006,-1.1052399,-1.0647659,-1.5282348,0.5363159,-1.7926759,102.0
33267,-0.0187006,-1.1052399,-1.0647659,-1.3891114,0.38551027,-1.3912354,102.0
33268,0.1327076,-1.1874619,-0.7143135,-1.3891114,0.38551027,-1.3912354,102.0
33269,0.1327076,-1.1874619,-0.7143135,-1.1990112,0.30054933,-1.3083985,102.0
33270,0.6407366,-1.404808,0.36846542,-1.1990112,0.30054933,-1.3083985,102.0
33271,0.6407366,-1.404808,0.36846542,-0.4885254,0.11682129,-1.1321045,102.0
33272,0.77804375,-1.0809174,0.3640213,-0.4885254,0.11682129,-1.1321045,102.0
33273,0.77804375,-1.0809174,0.3640213,-0.38444826,0.1444336,-1.0524536,102.0
33274,0.8823595,0.0021972656,0.18130493,-0.38444826,0.1444336,-1.0524536,102.0
33275,0.8823595,0.0021972656,0.18130493,-0.32922363,0.30054933,-0.8442993,102.0
33276,0.81229687,0.10688782,0.13367844,-0.32922363,0.30054933,-0.8442993,102.0
33277,0.81229687,0.10688782,0.13367844,-0.2782471,0.34727785,-0.8071289,102.0
33278,0.97614384,0.14385986,0.5643158,-0.2782471,0.34727785,-0.8071289,102.0
33279,0.97614384,0.14385986,0.5643158,-0.24320069,0.5235718,-0.7975708,102.0
33280,0.9727974,0.14889526,0.54006577,-0.24320069,0.5235718,-0.7975708,102.0
33281,0.9727974,0.14889526,0.54006577,-0.29523927,0.5787964,-0.7954468,102.0
33282,0.9638586,0.896286,0.48499298,-0.29523927,0.5787964,-0.7954468,102.0
33283,0.9638586,0.896286,0.48499298,-0.5883545,0.72960204,-0.7678345,102.0
33284,0.8794489,0.91174316,0.18793106,-0.5883545,0.72960204,-0.7678345,102.0
33285,0.8794489,0.91174316,0.18793106,-0.72323,0.7869507,-0.7593384,102.0
33286,0.82251644,0.8426056,-0.21020126,-0.72323,0.7869507,-0.7593384,102.0
33287,0.82251644,0.8426056,-0.21020126,-1.0747559,0.9420044,-0.7625244,102.0
33288,0.7243347,0.54898834,-0.4614601,-1.0747559,0.9420044,-0.7625244,102.0
33289,0.7243347,0.54898834,-0.4614601,-1.1342286,0.9791748,-0.77951664,102.0
33290,0.27855206,0.18874359,-0.88006973,-1.1342286,0.9791748,-0.77951664,102.0
33291,0.27855206,0.18874359,-0.88006973,-1.173523,1.0312134,-0.8315552,102.0
33292,0.18849087,0.062423706,-1.0018234,-1.173523,1.0312134,-0.8315552,102.0
33293,0.18849087,0.062423706,-1.0018234,-1.1098022,1.0089111,-0.86341554,102.0
33294,0.049498558,-0.12422943,-1.080574,-1.1098022,1.0089111,-0.86341554,102.0
33295,0.049498558,-0.12422943,-1.080574,-0.9897949,0.9866089,-0.90695804,102.0
33296,0.048229218,-0.38159943,-1.1227226,-0.9897949,0.9866089,-0.90695804,102.0
33297,0.048229218,-0.38159943,-1.1227226,-0.98236084,0.9154541,-0.9451904,102.0
33298,0.13886356,-0.6219406,-1.1912079,-0.98236084,0.9154541,-0.9451904,102.0
33299,0.13886356,-0.6219406,-1.1912079,-0.95581055,0.84748536,-0.96430665,102.0
33300,0.25032425,-0.7079544,-1.2851944,-0.95581055,0.84748536,-0.96430665,102.0
33301,0.25032425,-0.7079544,-1.2851944,-0.85385746,0.75721437,-0.9451904,102.0
33302,0.28652668,-0.5768738,-1.4837341,-0.85385746,0.75721437,-0.9451904,102.0
33303,0.28652668,-0.5768738,-1.4837341,-0.74022216,0.6786255,-0.92926025,102.0
33304,0.1765604,-0.15853119,-1.8791237,-0.74022216,0.6786255,-0.92926025,102.0
33305,0.1765604,-0.15853119,-1.8791237,-0.8591675,0.5915405,-0.9398804,102.0
33306,-0.054063797,0.3683777,-2.2740173,-0.8591675,0.5915405,-0.9398804,102.0
33307,-0.054063797,0.3683777,-2.2740173,-1.0864381,0.4609131,-1.0163453,102.0
33308,-0.09150505,0.3006363,-2.2638054,-1.0864381,0.4609131,-1.0163453,102.0
33309,-0.09150505,0.3006363,-2.2638054,-1.1363525,0.21134034,-1.1597168,102.0
33310,0.27929878,-0.6507187,-1.8113136,-1.1363525,0.21134034,-1.1597168,102.0
33311,0.27929878,-0.6507187,-1.8113136,-0.540564,-0.08602295,-1.3222046,102.0
33312,0.9399309,-1.9375687,-0.86738586,-0.540564,-0.08602295,-1.3222046,102.0
33313,0.9399309,-1.9375687,-0.86738586,0.36639404,-0.50020754,-1.4294678,102.0
33314,1.7652874,-2.514717,0.009117126,0.36639404,-0.50020754,-1.4294678,102.0
33315,1.7652874,-2.514717,0.009117126,0.89846194,-0.8644776,-1.5526612,102.0
33316,2.4586163,-2.132843,0.34396362,0.89846194,-0.8644776,-1.5526612,102.0
33317,2.4586163,-2.132843,0.34396362,1.1947632,-1.1182984,-1.538855,102.0
33318,3.1665144,-1.973999,0.7740822,1.1947632,-1.1182984,-1.538855,102.0
33319,3.1665144,-1.973999,0.7740822,1.5165528,-1.3264526,-1.5261109,102.0
33320,4.1264,-2.6398697,1.669838,1.5165528,-1.3264526,-1.5261109,102.0
33321,4.1264,-2.6398697,1.669838,1.9254273,-1.4942505,-1.447522,102.0
33322,4.8102875,-2.773285,2.1634064,1.9254273,-1.4942505,-1.447522,102.0
33323,4.8102875,-2.773285,2.1634064,1.6546143,-1.3115845,-1.2106934,102.0
33324,4.5317507,-1.4379044,1.8059311,1.6546143,-1.3115845,-1.2106934,102.0
33325,4.5317507,-1.4379044,1.8059311,1.0407715,-0.9451904,-0.75721437,102.0
33326,3.3258402,-0.20021057,1.1665611,1.0407715,-0.9451904,-0.75721437,102.0
33327,3.3258402,-0.20021057,1.1665611,1.2043213,-0.45029297,-0.27612305,102.0
33328,2.029398,-0.35016632,0.87740326,1.2043213,-0.45029297,-0.27612305,102.0
33329,2.029398,-0.35016632,0.87740326,2.092163,0.31860352,-0.13806152,102.0
33330,1.2416947,-0.4905777,1.4341354,2.092163,0.31860352,-0.13806152,102.0
33331,1.2416947,-0.4905777,1.4341354,3.2147095,0.9260742,-0.20284425,102.0
33332,0.7967615,1.0695267,2.6058922,3.2147095,0.9260742,-0.20284425,102.0
33333,0.7967615,1.0695267,2.6058922,3.354895,1.3721192,-0.29736328,102.0
33334,0.37002635,3.7590408,3.4637756,3.354895,1.3721192,-0.29736328,102.0
33335,0.37002635,3.7590408,3.4637756,2.5647583,1.5866455,-0.4439209,102.0
33336,-0.15009713,5.656746,3.3199463,2.5647583,1.5866455,-0.4439209,102.0
33337,-0.15009713,5.656746,3.3199463,1.5154908,1.7523193,-0.52888185,102.0
33338,-0.43521452,5.4912796,2.1218872,1.5154908,1.7523193,-0.52888185,102.0
33339,-0.43521452,5.4912796,2.1218872,0.63720703,1.9785279,-0.87615967,102.0
33340,-0.096108675,3.559639,0.66864014,0.63720703,1.9785279,-0.87615967,102.0
33341,-0.096108675,3.559639,0.66864014,0.47790527,2.3109376,-1.4315919,102.0
33342,0.5673392,1.4380798,0.046886444,0.47790527,2.3109376,-1.4315919,102.0
33343,0.5673392,1.4380798,0.046886444,0.3993164,2.2057984,-1.991272,102.0
33344,1.121596,0.70638275,0.43915558,0.3993164,2.2057984,-1.991272,102.0
33345,1.121596,0.70638275,0.43915558,0.10407715,1.5505371,-2.3045654,102.0
33346,1.5156605,0.8195343,0.11606979,0.10407715,1.5505371,-2.3045654,102.0
33347,1.5156605,0.8195343,0.11606979,-0.6159668,1.1639649,-2.53396,102.0
33348,1.5783731,0.6791229,-1.7673264,-0.6159668,1.1639649,-2.53396,102.0
33349,1.5783731,0.6791229,-1.7673264,-1.2882203,0.9218262,-2.7389283,102.0
33350,1.4301667,1.1691742,-3.481598,-1.2882203,0.9218262,-2.7389283,102.0
33351,1.4301667,1.1691742,-3.481598,-2.1962402,0.8591675,-2.7612305,102.0
33352,1.5152271,2.0787811,-3.7792587,-2.1962402,0.8591675,-2.7612305,102.0
33353,1.5152271,2.0787811,-3.7792587,-3.1456788,0.8241211,-2.71344,102.0
33354,1.6923087,1.5521317,-3.283516,-3.1456788,0.8241211,-2.71344,102.0
33355,1.6923087,1.5521317,-3.283516,-3.265686,0.8708496,-2.806897,102.0
33356,1.5570331,-0.0258255,-3.1413116,-3.265686,0.8708496,-2.806897,102.0
33357,1.5570331,-0.0258255,-3.1413116,-3.1796632,0.88040775,-2.9311523,102.0
33358,1.0272427,-1.0874939,-3.620739,-3.1796632,0.88040775,-2.9311523,102.0
33359,1.0272427,-1.0874939,-3.620739,-2.5870607,0.7423462,-2.822827,102.0
33360,0.3936081,-1.4090958,-3.650032,-2.5870607,0.7423462,-2.822827,102.0
33361,0.3936081,-1.4090958,-3.650032,-1.4815063,0.37489015,-2.4872315,102.0
33362,0.3936081,-1.4090958,-3.650032,-1.4815063,0.37489015,-2.4872315,101.0
33363,0.43549192,-1.8091583,-2.5307312,-1.4815063,0.37489015,-2.4872315,101.0
33364,0.43549192,-1.8091583,-2.5307312,-0.65207523,-0.2347046,-2.165442,101.0
33365,1.4604663,-3.9224472,-0.25231934,-0.65207523,-0.2347046,-2.165442,101.0
33366,1.4604663,-3.9224472,-0.25231934,1.7544434,0.29099122,-0.81987303,101.0
33367,1.9929458,-4.4491653,2.5582275,1.7544434,0.29099122,-0.81987303,101.0
33368,1.9929458,-4.4491653,2.5582275,1.1406006,0.2262085,-1.088562,101.0
33369,1.1173913,-1.4613495,4.437023,1.1406006,0.2262085,-1.088562,101.0
33370,1.1173913,-1.4613495,4.437023,-0.05522461,0.26125488,-0.58198243,101.0
33371,0.082829,0.9630127,4.3115196,-0.05522461,0.26125488,-0.58198243,101.0
33372,0.082829,0.9630127,4.3115196,-0.58304447,0.3058594,-0.5607422,101.0
33373,-0.5631069,1.9516754,2.5226898,-0.58304447,0.3058594,-0.5607422,101.0
33374,-0.5631069,1.9516754,2.5226898,-0.95793456,0.2824951,-0.5331299,101.0
33375,-0.7415867,2.602623,0.079566956,-0.95793456,0.2824951,-0.5331299,101.0
33376,-0.7415867,2.602623,0.079566956,-1.2213135,0.36745605,-0.81987303,101.0
33377,-0.0795486,2.7158127,-1.5138512,-1.2213135,0.36745605,-0.81987303,101.0
33378,-0.0795486,2.7158127,-1.5138512,-1.4400879,0.23364258,-1.453894,101.0
33379,1.1678919,1.9008255,-1.7086029,-1.4400879,0.23364258,-1.453894,101.0
33380,1.1678919,1.9008255,-1.7086029,-1.6185058,-0.11151123,-1.7671875,101.0
33381,2.0774045,0.5662155,-1.4502449,-1.6185058,-0.11151123,-1.7671875,101.0
33382,2.0774045,0.5662155,-1.4502449,-1.4581422,-0.3993164,-1.7512573,101.0
33383,1.959763,0.27404022,-0.94436264,-1.4581422,-0.3993164,-1.7512573,101.0
33384,1.959763,0.27404022,-0.94436264,-0.6510132,-0.36745605,-1.537793,101.0
33385,1.0701175,1.1754303,-0.1109581,-0.6510132,-0.36745605,-1.537793,101.0
33386,1.0701175,1.1754303,-0.1109581,0.021240234,-0.45347902,-1.1629028,101.0
33387,0.18453622,1.7839966,0.42815018,0.021240234,-0.45347902,-1.1629028,101.0
33388,0.18453622,1.7839966,0.42815018,0.023364259,-0.4088745,-0.998291,101.0
33389,-0.2352078,1.6841583,0.38872147,0.023364259,-0.4088745,-0.998291,101.0
33390,-0.2352078,1.6841583,0.38872147,-0.08920898,-0.3791382,-0.88040775,101.0
33391,-0.44887185,1.3289566,-0.11302185,-0.08920898,-0.3791382,-0.88040775,101.0
33392,-0.44887185,1.3289566,-0.11302185,-0.06265869,-0.23789063,-0.9366943,101.0
33393,-0.6141877,0.6768341,-0.3234024,-0.06265869,-0.23789063,-0.9366943,101.0
33394,-0.6141877,0.6768341,-0.3234024,0.45878908,-0.13699952,-0.9526245,101.0
33395,-0.40848875,-0.06034088,0.50405884,0.45878908,-0.13699952,-0.9526245,101.0
33396,-0.40848875,-0.06034088,0.50405884,0.71791995,-0.18160401,-0.8485474,101.0
33397,0.15041852,-0.2675476,1.7866211,0.71791995,-0.18160401,-0.8485474,101.0
33398,0.15041852,-0.2675476,1.7866211,0.4885254,-0.2548828,-0.70198977,101.0
33399,0.63123584,-0.27022552,2.132534,0.4885254,-0.2548828,-0.70198977,101.0
33400,0.63123584,-0.27022552,2.132534,-0.050976563,-0.32285157,-0.5851685,101.0
33401,0.6241293,-0.87623596,1.3922348,-0.050976563,-0.32285157,-0.5851685,101.0
33402,0.6241293,-0.87623596,1.3922348,-0.20390625,-0.4163086,-0.40144044,101.0
33403,0.09799743,-1.4989777,0.38526917,-0.20390625,-0.4163086,-0.40144044,101.0
33404,0.09799743,-1.4989777,0.38526917,0.04141846,-0.5777344,-0.3971924,101.0
33405,-0.15105772,-0.4459839,-0.7811775,0.04141846,-0.5777344,-0.3971924,101.0
33406,-0.15105772,-0.4459839,-0.7811775,-0.19222413,-0.6085327,-0.4088745,101.0
33407,0.27203703,1.1799088,-1.5555573,-0.19222413,-0.6085327,-0.4088745,101.0
33408,0.27203703,1.1799088,-1.5555573,-0.41949463,-0.3982544,-0.63720703,101.0
33409,0.7137356,1.7623215,-1.4292755,-0.41949463,-0.3982544,-0.63720703,101.0
33410,0.7137356,1.7623215,-1.4292755,-0.2177124,-0.45666504,-0.38551027,101.0
33411,0.73374486,1.7816238,-0.84882736,-0.2177124,-0.45666504,-0.38551027,101.0
33412,0.73374486,1.7816238,-0.84882736,-0.1996582,-0.3058594,-0.5214478,101.0
33413,0.6518884,1.5488434,-0.47685242,-0.1996582,-0.3058594,-0.5214478,101.0
33414,0.6518884,1.5488434,-0.47685242,-0.44816896,-0.17947999,-0.5628662,101.0
33415,0.77158403,1.2649765,-0.73519135,-0.44816896,-0.17947999,-0.5628662,101.0
33416,0.77158403,1.2649765,-0.73519135,-0.49383545,-0.20390625,-0.5809204,101.0
33417,0.662714,1.4362946,-1.1827354,-0.49383545,-0.20390625,-0.5809204,101.0
33418,0.662714,1.4362946,-1.1827354,-0.55755615,-0.2527588,-0.8867798,101.0
33419,0.21552277,1.510025,-1.0562096,-0.55755615,-0.2527588,-0.8867798,101.0
33420,0.21552277,1.510025,-1.0562096,0.12531738,-0.37701416,-0.9897949,101.0
33421,-0.09727192,0.8663101,-0.25291443,0.12531738,-0.37701416,-0.9897949,101.0
33422,-0.09727192,0.8663101,-0.25291443,0.7168579,-0.51826173,-0.91757816,101.0
33423,0.058693886,0.23709106,0.6304207,0.7168579,-0.51826173,-0.91757816,101.0
33424,0.058693886,0.23709106,0.6304207,0.5363159,-0.5511841,-1.0513916,101.0
33425,0.5926218,-0.05596924,0.9157753,0.5363159,-0.5511841,-1.0513916,101.0
33426,0.5926218,-0.05596924,0.9157753,0.14868164,-0.5256958,-1.1161743,101.0
33427,1.2457652,-0.15187073,0.4212532,0.14868164,-0.5256958,-1.1161743,101.0
33428,1.2457652,-0.15187073,0.4212532,-0.16885987,-0.4248047,-1.1204224,101.0
33429,1.5618954,-0.16226959,-0.4088974,-0.16885987,-0.4248047,-1.1204224,101.0
33430,1.5618954,-0.16226959,-0.4088974,-0.3695801,-0.5097656,-1.2043213,101.0
33431,1.5772386,-0.53484344,-1.2258148,-0.3695801,-0.5097656,-1.2043213,101.0
33432,1.5772386,-0.53484344,-1.2258148,-0.271875,-0.39400634,-1.1968873,101.0
33433,1.3097034,-1.7969208,-2.090149,-0.271875,-0.39400634,-1.1968873,101.0
33434,1.3097034,-1.7969208,-2.090149,1.358313,-0.71791995,-1.3391968,101.0
33435,0.7758999,-2.734581,-3.0440063,1.358313,-0.71791995,-1.3391968,101.0
33436,0.7758999,-2.734581,-3.0440063,2.1410158,-0.1720459,-0.52250975,101.0
33437,0.7572799,-1.6632385,-3.0487556,2.1410158,-0.1720459,-0.52250975,101.0
33438,0.7572799,-1.6632385,-3.0487556,2.077295,0.7317261,0.014868164,101.0
33439,0.5011606,0.14798737,-1.532898,2.077295,0.7317261,0.014868164,101.0
33440,0.5011606,0.14798737,-1.532898,1.7714356,1.0524536,1.2457398,101.0
33441,-0.65049934,0.0023880005,0.11883545,1.7714356,1.0524536,1.2457398,101.0
33442,-0.65049934,0.0023880005,0.11883545,2.0422485,1.0694458,2.2376587,101.0
33443,-1.9703627,-1.7389832,1.1682739,2.0422485,1.0694458,2.2376587,101.0
33444,-1.9703627,-1.7389832,1.1682739,2.151636,0.57454836,2.799463,101.0
33445,-2.733468,-2.806961,1.7569084,2.151636,0.57454836,2.799463,101.0
33446,-2.733468,-2.806961,1.7569084,2.071985,-0.09770508,3.1286867,101.0
33447,-2.7616887,-2.7159882,2.4749718,2.071985,-0.09770508,3.1286867,101.0
33448,-2.7616887,-2.7159882,2.4749718,2.0603027,-0.8071289,3.3379028,101.0
33449,-2.372254,-1.7944565,2.8309174,2.0603027,-0.8071289,3.3379028,101.0
33450,-2.372254,-1.7944565,2.8309174,1.6524903,-1.2754761,3.4961426,101.0
33451,-1.8119755,-1.1985321,1.8906708,1.6524903,-1.2754761,3.4961426,101.0
33452,-1.8119755,-1.1985321,1.8906708,1.6046997,-1.4145997,3.611902,101.0
33453,-1.2250075,-1.2858047,0.7360954,1.6046997,-1.4145997,3.611902,101.0
33454,-1.2250075,-1.2858047,0.7360954,1.6471802,-1.4199097,3.531189,101.0
33455,-0.65223503,-1.1657181,0.6999588,1.6471802,-1.4199097,3.531189,101.0
33456,-0.65223503,-1.1657181,0.6999588,1.812854,-1.2021973,3.4079957,101.0
33457,-0.19160008,-0.55950165,1.1349068,1.812854,-1.2021973,3.4079957,101.0
33458,-0.19160008,-0.55950165,1.1349068,1.7501954,-0.8527954,3.5779176,101.0
33459,-0.009090662,-0.14897156,0.8995247,1.7501954,-0.8527954,3.5779176,101.0
33460,-0.009090662,-0.14897156,0.8995247,1.7990478,-0.42161867,3.6437624,101.0
33461,-0.009090662,-0.14897156,0.8995247,1.7990478,-0.42161867,3.6437624,102.0
33462,-0.10447693,-0.23734283,0.062164307,1.7990478,-0.42161867,3.6437624,102.0
33463,-0.10447693,-0.23734283,0.062164307,1.7098389,-0.012744141,3.7584596,102.0
33464,-0.41201162,-0.38786316,-0.1933136,1.7098389,-0.012744141,3.7584596,102.0
33465,-0.41201162,-0.38786316,-0.1933136,1.6843506,0.05628662,3.7765138,102.0
33466,-0.81752443,0.13787842,0.53640366,1.6843506,0.05628662,3.7765138,102.0
33467,-0.81752443,0.13787842,0.53640366,1.8670167,0.081774905,3.7648315,102.0
33468,-1.3544347,1.1065826,1.1502533,1.8670167,0.081774905,3.7648315,102.0
33469,-1.3544347,1.1065826,1.1502533,1.9679078,0.107263185,3.6894288,102.0
33470,-0.2525785,9.186722,0.73597336,1.9679078,0.107263185,3.6894288,102.0
33471,-0.2525785,9.186722,0.73597336,1.9137452,0.32497558,3.4610963,102.0
33472,-0.38509512,7.194229,-7.879753,1.9137452,0.32497558,3.4610963,102.0
33473,-0.38509512,7.194229,-7.879753,1.7151489,0.18054199,3.2253296,102.0
33474,-0.34557605,5.5418243,-6.496834,1.7151489,0.18054199,3.2253296,102.0
33475,-0.34557605,5.5418243,-6.496834,1.8054199,0.14018555,2.8610597,102.0
33476,-0.32693696,4.6509247,-5.2431946,1.8054199,0.14018555,2.8610597,102.0
33477,-0.32693696,4.6509247,-5.2431946,1.6546143,0.32709962,2.526526,102.0
33478,-0.44906175,3.981224,-4.712925,1.6546143,0.32709962,2.526526,102.0
33479,-0.44906175,3.981224,-4.712925,1.175647,0.49489745,2.1526978,102.0
33480,-0.35105848,3.0374603,-4.4853554,1.175647,0.49489745,2.1526978,102.0
33481,-0.35105848,3.0374603,-4.4853554,0.43011475,0.45029297,1.803296,102.0
33482,0.02240026,2.061386,-3.8994522,0.43011475,0.45029297,1.803296,102.0
33483,0.02240026,2.061386,-3.8994522,-0.25806886,0.36745605,1.5059327,102.0
33484,0.24962187,1.4970093,-2.9740791,-0.25806886,0.36745605,1.5059327,102.0
33485,0.24962187,1.4970093,-2.9740791,-0.7869507,0.18054199,1.260608,102.0
33486,0.44601095,1.2415161,-2.185978,-0.7869507,0.18054199,1.260608,102.0
33487,0.44601095,1.2415161,-2.185978,-1.1682129,0.058410645,1.0970582,102.0
33488,0.7293308,0.52149963,-1.7845497,-1.1682129,0.058410645,1.0970582,102.0
33489,0.7293308,0.52149963,-1.7845497,-0.8602295,-0.06584473,0.97067875,102.0
33490,0.9698539,-0.75549316,-1.5425301,-0.8602295,-0.06584473,0.97067875,102.0
33491,0.9698539,-0.75549316,-1.5425301,-0.13487549,-0.053100586,0.84323734,102.0
33492,1.2453899,-1.6194458,-1.041542,-0.13487549,-0.053100586,0.84323734,102.0
33493,1.2453899,-1.6194458,-1.041542,0.52675784,0.1709839,0.7805786,102.0
33494,1.3312852,-1.5737534,-0.35951614,0.52675784,0.1709839,0.7805786,102.0
33495,1.3312852,-1.5737534,-0.35951614,0.7083618,0.50445557,0.8867798,102.0
33496,0.82133913,-1.4367447,0.14099884,0.7083618,0.50445557,0.8867798,102.0
33497,0.82133913,-1.4367447,0.14099884,0.8209351,0.55543214,0.9781128,102.0
33498,0.01913166,-1.7214661,0.6775589,0.8209351,0.55543214,0.9781128,102.0
33499,0.01913166,-1.7214661,0.6775589,0.7189819,0.5522461,0.72004396,102.0
33500,-0.8293114,-1.861206,1.5198555,0.7189819,0.5522461,0.72004396,102.0
33501,-0.8293114,-1.861206,1.5198555,0.6510132,0.3090454,0.5161377,102.0
33502,-1.6430514,-1.6897202,2.1738548,0.6510132,0.3090454,0.5161377,102.0
33503,-1.6430514,-1.6897202,2.1738548,0.36427003,0.21452637,0.42692873,102.0
33504,-2.1783938,-1.4975662,2.3355331,0.36427003,0.21452637,0.42692873,102.0
33505,-2.1783938,-1.4975662,2.3355331,0.121069334,0.32922363,0.49064943,102.0
33506,-2.249783,-1.5885315,2.333931,0.121069334,0.32922363,0.49064943,102.0
33507,-2.249783,-1.5885315,2.333931,0.022302246,0.53525394,0.6435791,102.0
33508,-2.0737276,-1.7840195,2.1252022,0.022302246,0.53525394,0.6435791,102.0
33509,-2.0737276,-1.7840195,2.1252022,0.05522461,0.88040775,0.79332274,102.0
33510,-2.0552347,-1.8476028,1.8555222,0.05522461,0.88040775,0.79332274,102.0
33511,-2.0552347,-1.8476028,1.8555222,0.5628662,1.1225464,0.89102787,102.0
33512,-2.134129,-1.5555954,1.7667046,0.5628662,1.1225464,0.89102787,102.0
33513,-2.134129,-1.5555954,1.7667046,0.77102053,1.2839721,0.89102787,102.0
33514,-2.1034093,-0.9897156,1.6666222,0.77102053,1.2839721,0.89102787,102.0
33515,-2.1034093,-0.9897156,1.6666222,0.81881106,1.2722901,0.9547486,102.0
33516,-1.6946172,-0.47763824,1.2430649,0.81881106,1.2722901,0.9547486,102.0
33517,-1.6946172,-0.47763824,1.2430649,0.6446411,1.453894,0.95793456,102.0
33518,-1.0780936,-0.17857361,0.31954956,0.6446411,1.453894,0.95793456,102.0
33519,-1.0780936,-0.17857361,0.31954956,0.61915284,1.6142578,1.0949341,102.0
33520,-0.6048944,-0.23876953,-0.35336685,0.61915284,1.6142578,1.0949341,102.0
33521,-0.6048944,-0.23876953,-0.35336685,0.53950197,1.7937378,1.1639649,102.0
33522,-0.3747847,-0.20056152,-0.14098358,0.53950197,1.7937378,1.1639649,102.0
33523,-0.3747847,-0.20056152,-0.14098358,0.33028564,1.808606,1.2584839,102.0
33524,-0.38511825,0.16694641,0.3829155,0.33028564,1.808606,1.2584839,102.0
33525,-0.38511825,0.16694641,0.3829155,0.32072756,1.6694825,1.3317627,102.0
33526,-0.23098278,0.20963287,0.48467636,0.32072756,1.6694825,1.3317627,102.0
33527,-0.23098278,0.20963287,0.48467636,0.7455322,1.7034668,1.1883911,102.0
33528,0.052640438,-0.27861023,0.07331085,0.7455322,1.7034668,1.1883911,102.0
33529,0.052640438,-0.27861023,0.07331085,1.1522827,1.4358399,1.0259033,102.0
33530,0.35971487,-0.39866638,-0.37532425,1.1522827,1.4358399,1.0259033,102.0
33531,0.35971487,-0.39866638,-0.37532425,1.1512207,1.3062744,0.8782837,102.0
33532,0.74411964,0.030960083,-0.22606659,1.1512207,1.3062744,0.8782837,102.0
33533,0.74411964,0.030960083,-0.22606659,0.8007569,1.2776002,0.92501223,102.0
33534,0.86386263,0.06450653,0.62753296,0.8007569,1.2776002,0.92501223,102.0
33535,0.86386263,0.06450653,0.62753296,0.42161867,1.0747559,0.9451904,102.0
33536,0.6022351,-0.43138123,1.3947906,0.42161867,1.0747559,0.9451904,102.0
33537,0.6022351,-0.43138123,1.3947906,0.15930176,0.89421386,0.82836914,102.0
33538,0.12649024,-0.77604675,1.339344,0.15930176,0.89421386,0.82836914,102.0
33539,0.12649024,-0.77604675,1.339344,0.10195313,0.52250975,0.6956177,102.0
33540,-0.114408374,-0.45088196,0.6812515,0.10195313,0.52250975,0.6956177,102.0
33541,-0.114408374,-0.45088196,0.6812515,0.21134034,0.4630371,0.65844727,102.0
33542,-0.109434485,0.20914459,0.12891388,0.21134034,0.4630371,0.65844727,102.0
33543,-0.109434485,0.20914459,0.12891388,0.33771974,0.62552494,0.7519043,102.0
33544,-0.3188709,0.40225983,0.06903839,0.33771974,0.62552494,0.7519043,102.0
33545,-0.3188709,0.40225983,0.06903839,0.4056885,0.88996583,0.83049315,102.0
33546,-0.81716955,0.11886597,0.34186554,0.4056885,0.88996583,0.83049315,102.0
33547,-0.81716955,0.11886597,0.34186554,0.35683593,0.8421753,0.78164065,102.0
33548,-1.2097292,-0.012184143,0.5301933,0.35683593,0.8421753,0.78164065,102.0
33549,-1.2097292,-0.012184143,0.5301933,0.18797608,0.78376466,0.7338501,102.0
33550,-1.3083596,0.3854599,0.37277603,0.18797608,0.78376466,0.7338501,102.0
33551,-1.3083596,0.3854599,0.37277603,-0.23789063,0.9218262,0.6786255,102.0
33552,-1.6520832,0.7848816,0.071388245,-0.23789063,0.9218262,0.6786255,102.0
33553,-1.6520832,0.7848816,0.071388245,-0.57454836,1.0365235,0.6711914,102.0
33554,-2.1881704,0.12080383,0.6578064,-0.57454836,1.0365235,0.6711914,102.0
33555,-2.1881704,0.12080383,0.6578064,0.010620117,0.7678345,0.44604492,102.0
33556,-1.6315789,-2.1127853,3.3149567,0.010620117,0.7678345,0.44604492,102.0
33557,-1.6315789,-2.1127853,3.3149567,1.1193603,0.270813,-0.270813,102.0
33558,-0.0058977604,-3.5209503,5.490196,1.1193603,0.270813,-0.270813,102.0
33559,-0.0058977604,-3.5209503,5.490196,-0.24744873,0.6701294,-0.44923097,102.0
33560,0.48912954,-2.0265503,3.302288,-0.24744873,0.6701294,-0.44923097,102.0
33561,0.48912954,-2.0265503,3.302288,-0.725354,0.8995239,0.24532472,102.0
33562,-0.82303977,0.53126526,-1.5788002,-0.725354,0.8995239,0.24532472,102.0
33563,-0.82303977,0.53126526,-1.5788002,-0.7519043,1.0736939,0.2527588,102.0
33564,-2.4457855,1.6858749,-4.1986237,-0.7519043,1.0736939,0.2527588,102.0
33565,-2.4457855,1.6858749,-4.1986237,-0.70942384,0.544812,0.2793091,102.0
