,accx,accy,accz,gyrox,gyroy,gyroz,heart rate
34524,type,type,type,type,type,type,type
34525,0.16728881,-0.4372475,0.77570724,-0.18797608,-0.20921631,-0.44710693,109.0
34526,0.16728881,-0.4372475,0.77570724,-0.21134034,-0.20390625,-0.4364868,109.0
34527,0.32125783,-0.3103205,0.68960875,-0.21134034,-0.20390625,-0.4364868,109.0
34528,0.32125783,-0.3103205,0.68960875,-0.27399904,-0.23364258,-0.40462646,109.0
34529,0.30749452,-0.124757856,0.48930907,-0.27399904,-0.23364258,-0.40462646,109.0
34530,0.30749452,-0.124757856,0.48930907,-0.30373535,-0.2623169,-0.3791382,109.0
34531,0.23553419,0.0026961565,0.3406294,-0.30373535,-0.2623169,-0.3791382,109.0
34532,0.23553419,0.0026961565,0.3406294,-0.31860352,-0.26444092,-0.32709962,109.0
34533,0.15994835,0.089827806,0.14883411,-0.31860352,-0.26444092,-0.32709962,109.0
34534,0.15994835,0.089827806,0.14883411,-0.2793091,-0.23364258,-0.26868898,109.0
34535,0.115983546,0.11143744,-0.09575206,-0.2793091,-0.23364258,-0.26868898,109.0
34536,0.115983546,0.11143744,-0.09575206,-0.11151123,-0.18372802,-0.21452637,109.0
34537,0.115983546,0.11143744,-0.09575206,0.09239502,-0.1263794,-0.20921631,109.0
34538,0.14641237,0.0605855,-0.26924086,0.09239502,-0.1263794,-0.20921631,109.0
34539,0.20915872,0.08978921,-0.3810299,0.09239502,-0.1263794,-0.20921631,109.0
34540,0.20915872,0.08978921,-0.3810299,0.20072022,-0.05522461,-0.23789063,109.0
34541,0.25842804,0.20829378,-0.4868796,0.20072022,-0.05522461,-0.23789063,109.0
34542,0.25842804,0.20829378,-0.4868796,0.14124756,0.008496094,-0.24957275,109.0
34543,0.28667408,0.21188648,-0.6089861,0.14124756,0.008496094,-0.24957275,109.0
34544,0.28667408,0.21188648,-0.6089861,0.06159668,0.043542482,-0.2888672,109.0
34545,0.3001889,0.042922273,-0.6816957,0.06159668,0.043542482,-0.2888672,109.0
34546,0.3001889,0.042922273,-0.6816957,0.016992187,0.03079834,-0.3695801,109.0
34547,0.35782695,-0.076636314,-0.62266374,0.016992187,0.03079834,-0.3695801,109.0
34548,0.35782695,-0.076636314,-0.62266374,-0.052038576,-0.0180542,-0.47896728,109.0
34549,0.5026678,0.0039009154,-0.43294543,-0.052038576,-0.0180542,-0.47896728,109.0
34550,0.5026678,0.0039009154,-0.43294543,-0.16567384,-0.059472658,-0.542688,109.0
34551,0.60745656,0.18551819,-0.20123917,-0.16567384,-0.059472658,-0.542688,109.0
34552,0.60745656,0.18551819,-0.20123917,-0.30479738,-0.09664307,-0.60109866,109.0
34553,0.6134188,0.24405664,0.043989122,-0.30479738,-0.09664307,-0.60109866,109.0
34554,0.6134188,0.24405664,0.043989122,-0.33771974,-0.12956543,-0.6425171,109.0
34555,0.6134188,0.24405664,0.043989122,-0.31435546,-0.11044922,-0.64995116,109.0
34556,0.60770273,0.16597286,0.2600082,-0.31435546,-0.11044922,-0.64995116,109.0
34557,0.50920916,0.14898923,0.26823604,-0.31435546,-0.11044922,-0.64995116,109.0
34558,0.50920916,0.14898923,0.26823604,-0.3175415,-0.058410645,-0.62127686,109.0
34559,0.2239933,0.2621357,0.04796286,-0.3175415,-0.058410645,-0.62127686,109.0
34560,0.2239933,0.2621357,0.04796286,-0.3430298,0.008496094,-0.5628662,109.0
34561,-0.17424774,0.399711,-0.25094855,-0.3430298,0.008496094,-0.5628662,109.0
34562,-0.17424774,0.399711,-0.25094855,-0.33665773,0.05628662,-0.5140137,109.0
34563,-0.53374636,0.41597244,-0.5072408,-0.33665773,0.05628662,-0.5140137,109.0
34564,-0.53374636,0.41597244,-0.5072408,-0.25700685,0.057348635,-0.50020754,109.0
34565,-0.7237377,0.3305929,-0.6296208,-0.25700685,0.057348635,-0.50020754,109.0
34566,-0.7237377,0.3305929,-0.6296208,-0.19116211,0.009558106,-0.51932377,109.0
34567,-0.7237377,0.3305929,-0.6296208,-0.19116211,0.009558106,-0.51932377,109.0
34568,-0.68616796,0.21907637,-0.55772495,-0.19116211,0.009558106,-0.51932377,109.0
34569,-0.68616796,0.21907637,-0.55772495,-0.18372802,-0.058410645,-0.541626,109.0
34570,-0.49475956,0.14541489,-0.37082595,-0.18372802,-0.058410645,-0.541626,109.0
34571,-0.49475956,0.14541489,-0.37082595,-0.24744873,-0.12956543,-0.54906005,109.0
34572,-0.2633736,0.10988659,-0.17294252,-0.24744873,-0.12956543,-0.54906005,109.0
34573,-0.2633736,0.10988659,-0.17294252,-0.32178956,-0.18479005,-0.544812,109.0
34574,-0.11462951,0.016266197,-0.049279273,-0.32178956,-0.18479005,-0.544812,109.0
34575,-0.11462951,0.016266197,-0.049279273,-0.33028564,-0.21558838,-0.51932377,109.0
34576,-0.056571722,-0.10324681,0.04341352,-0.33028564,-0.21558838,-0.51932377,109.0
34577,-0.056571722,-0.10324681,0.04341352,-0.27612305,-0.21452637,-0.45878908,109.0
34578,-0.07929063,-0.15321514,0.22625917,-0.27612305,-0.21452637,-0.45878908,109.0
34579,-0.07929063,-0.15321514,0.22625917,-0.22939454,-0.20178223,-0.37701416,109.0
34580,-0.116337776,-0.10048959,0.47988433,-0.22939454,-0.20178223,-0.37701416,109.0
34581,-0.116337776,-0.10048959,0.47988433,-0.23895264,-0.17735596,-0.26337892,109.0
34582,-0.116337776,-0.10048959,0.47988433,-0.2166504,-0.1529297,-0.18903808,109.0
34583,-0.15170062,-0.02211532,0.660177,-0.2166504,-0.1529297,-0.18903808,109.0
34584,-0.13127261,0.03590882,0.6669966,-0.2166504,-0.1529297,-0.18903808,109.0
34585,-0.13127261,0.03590882,0.6669966,-0.1720459,-0.09133301,-0.1359375,109.0
34586,-0.09629011,0.029007792,0.52402693,-0.1720459,-0.09133301,-0.1359375,109.0
34587,-0.09629011,0.029007792,0.52402693,-0.095581055,-0.012744141,-0.087084964,109.0
34588,-0.11642414,0.008814126,0.36866003,-0.095581055,-0.012744141,-0.087084964,109.0
34589,-0.11642414,0.008814126,0.36866003,-0.03079834,0.015930176,-0.07646485,109.0
34590,-0.17620814,0.016145527,0.35122687,-0.03079834,0.015930176,-0.07646485,109.0
34591,-0.17620814,0.016145527,0.35122687,-0.0637207,0.011682129,-0.10301514,109.0
34592,-0.13985562,0.04953751,0.44282234,-0.0637207,0.011682129,-0.10301514,109.0
34593,-0.13985562,0.04953751,0.44282234,-0.14337158,-0.008496094,-0.14549561,109.0
34594,-0.01616919,0.017999142,0.440647,-0.14337158,-0.008496094,-0.14549561,109.0
34595,-0.01616919,0.017999142,0.440647,-0.1709839,0.013806152,-0.16036378,109.0
34596,0.06442058,-0.05653575,0.28785697,-0.1709839,0.013806152,-0.16036378,109.0
34597,0.06442058,-0.05653575,0.28785697,-0.14868164,0.07115479,-0.16779785,109.0
34598,-0.06889814,-0.12696686,0.12298578,-0.14868164,0.07115479,-0.16779785,109.0
34599,-0.06889814,-0.12696686,0.12298578,-0.121069334,0.11469727,-0.15186767,109.0
34600,-0.32012093,-0.17101932,0.03488767,-0.121069334,0.11469727,-0.15186767,109.0
34601,-0.32012093,-0.17101932,0.03488767,-0.11044922,0.16779785,-0.10620117,109.0
34602,-0.55320364,-0.20356351,-0.014301777,-0.11044922,0.16779785,-0.10620117,109.0
34603,-0.55320364,-0.20356351,-0.014301777,-0.13168946,0.20496826,-0.06159668,109.0
34604,-0.657956,-0.2804045,-0.08834571,-0.13168946,0.20496826,-0.06159668,109.0
34605,-0.657956,-0.2804045,-0.08834571,-0.14018555,0.20921631,-0.03186035,109.0
34606,-0.60212165,-0.40977284,-0.12781769,-0.14018555,0.20921631,-0.03186035,109.0
34607,-0.60212165,-0.40977284,-0.12781769,-0.11469727,0.19647217,-0.004248047,109.0
34608,-0.41696343,-0.44095305,-0.155135,-0.11469727,0.19647217,-0.004248047,109.0
34609,-0.41696343,-0.44095305,-0.155135,-0.1274414,0.15823975,0.010620117,109.0
34610,-0.2190688,-0.3139807,-0.17785557,-0.1274414,0.15823975,0.010620117,109.0
34611,-0.2190688,-0.3139807,-0.17785557,-0.20284425,0.14018555,0.05522461,109.0
34612,-0.0866442,-0.20395556,-0.18118826,-0.20284425,0.14018555,0.05522461,109.0
34613,-0.0866442,-0.20395556,-0.18118826,-0.23258057,0.10407715,0.10938721,109.0
34614,-0.011112243,-0.23352578,-0.1985883,-0.23258057,0.10407715,0.10938721,109.0
34615,-0.011112243,-0.23352578,-0.1985883,-0.15717773,0.093457036,0.1731079,109.0
34616,0.027658053,-0.301701,-0.20784524,-0.15717773,0.093457036,0.1731079,109.0
34617,0.027658053,-0.301701,-0.20784524,-0.09133301,0.098767094,0.23895264,109.0
34618,0.027570784,-0.2875522,-0.15283626,-0.09133301,0.098767094,0.23895264,109.0
34619,0.027570784,-0.2875522,-0.15283626,-0.10301514,0.11363526,0.29523927,109.0
34620,-0.04217677,-0.24572778,-0.07844577,-0.10301514,0.11363526,0.29523927,109.0
34621,-0.04217677,-0.24572778,-0.07844577,-0.124255374,0.10513916,0.32709962,109.0
34622,-0.1333752,-0.278821,-0.01651638,-0.124255374,0.10513916,0.32709962,109.0
34623,-0.1333752,-0.278821,-0.01651638,-0.0722168,0.0722168,0.33878174,109.0
34624,-0.15504001,-0.29450452,0.01419168,-0.0722168,0.0722168,0.33878174,109.0
34625,-0.15504001,-0.29450452,0.01419168,-0.04991455,0.03186035,0.32709962,109.0
34626,-0.08105105,-0.18639708,-0.018871266,-0.04991455,0.03186035,0.32709962,109.0
34627,-0.08105105,-0.18639708,-0.018871266,-0.08602295,-0.0053100586,0.31966552,109.0
34628,0.0049955826,-0.08586085,-0.09085385,-0.08602295,-0.0053100586,0.31966552,109.0
34629,0.0049955826,-0.08586085,-0.09085385,-0.07965088,-0.0180542,0.3164795,109.0
34630,0.01125965,-0.08470428,-0.109340794,-0.07965088,-0.0180542,0.3164795,109.0
34631,0.01125965,-0.08470428,-0.109340794,-0.045666505,-0.03717041,0.31116945,109.0
34632,-0.04859726,-0.13020241,-0.008664043,-0.045666505,-0.03717041,0.31116945,109.0
34633,-0.04859726,-0.13020241,-0.008664043,0.0010620117,-0.07327881,0.29311523,109.0
34634,-0.07586512,-0.14079523,0.1523339,0.0010620117,-0.07327881,0.29311523,109.0
34635,-0.07586512,-0.14079523,0.1523339,-0.0180542,-0.10089111,0.271875,109.0
34636,-0.026146196,-0.071730375,0.23298773,-0.0180542,-0.10089111,0.271875,109.0
34637,-0.026146196,-0.071730375,0.23298773,-0.08071289,-0.1083252,0.2548828,109.0
34638,0.06832865,0.056824684,0.17445171,-0.08071289,-0.1083252,0.2548828,109.0
34639,0.06832865,0.056824684,0.17445171,-0.1274414,-0.09664307,0.23895264,109.0
34640,0.1471678,0.13512039,0.042771816,-0.1274414,-0.09664307,0.23895264,109.0
34641,0.1471678,0.13512039,0.042771816,-0.11257324,-0.06796875,0.22196046,109.0
34642,0.13931628,0.19171447,-0.07388801,-0.11257324,-0.06796875,0.22196046,109.0
34643,0.13931628,0.19171447,-0.07388801,-0.0637207,-0.043542482,0.19541016,109.0
34644,0.03945595,0.27500242,-0.15897614,-0.0637207,-0.043542482,0.19541016,109.0
34645,0.03945595,0.27500242,-0.15897614,-0.028674318,-0.04248047,0.16673584,109.0
34646,-0.07763934,0.36725536,-0.22281079,-0.028674318,-0.04248047,0.16673584,109.0
34647,-0.07763934,0.36725536,-0.22281079,-0.027612304,-0.05628662,0.12956543,109.0
34648,-0.13183804,0.43331844,-0.28139806,-0.027612304,-0.05628662,0.12956543,109.0
34649,-0.13183804,0.43331844,-0.28139806,-0.043542482,-0.08283692,0.07434082,109.0
34650,-0.08834397,0.34705758,-0.27030888,-0.043542482,-0.08283692,0.07434082,109.0
34651,-0.08834397,0.34705758,-0.27030888,0.004248047,-0.12213135,-0.010620117,109.0
34652,0.028763302,0.17068806,-0.14197953,0.004248047,-0.12213135,-0.010620117,109.0
34653,0.028763302,0.17068806,-0.14197953,0.033984374,-0.16567384,-0.121069334,109.0
34654,0.18026161,0.10732682,0.029653683,0.033984374,-0.16567384,-0.121069334,109.0
34655,0.18026161,0.10732682,0.029653683,-0.06159668,-0.2177124,-0.23258057,109.0
34656,0.3445877,0.15784633,0.100993454,-0.06159668,-0.2177124,-0.23258057,109.0
34657,0.3445877,0.15784633,0.100993454,-0.23682861,-0.2262085,-0.3069214,109.0
34658,0.40182984,0.23542014,-0.007352203,-0.23682861,-0.2262085,-0.3069214,109.0
34659,0.40182984,0.23542014,-0.007352203,-0.3971924,-0.2442627,-0.35577393,109.0
34660,0.33613673,0.24175408,-0.16262004,-0.3971924,-0.2442627,-0.35577393,109.0
34661,0.33613673,0.24175408,-0.16262004,-0.44816896,-0.26975098,-0.38763428,109.0
34662,0.32330394,0.072053164,-0.113140464,-0.44816896,-0.26975098,-0.38763428,109.0
34663,0.32330394,0.072053164,-0.113140464,-0.27612305,-0.27612305,-0.40250245,109.0
34664,0.3891363,-0.038036175,0.09195833,-0.27612305,-0.27612305,-0.40250245,109.0
34665,0.3891363,-0.038036175,0.09195833,-0.14230958,-0.2442627,-0.38657227,109.0
34666,0.35565722,0.23120436,0.14141335,-0.14230958,-0.2442627,-0.38657227,109.0
34667,0.35565722,0.23120436,0.14141335,-0.22196046,-0.27506104,-0.362146,109.0
34668,0.2241376,0.65005136,0.0013508946,-0.22196046,-0.27506104,-0.362146,109.0
34669,0.2241376,0.65005136,0.0013508946,-0.37807617,-0.30267334,-0.3430298,109.0
34670,0.11494243,0.8671358,-0.17842367,-0.37807617,-0.30267334,-0.3430298,109.0
34671,0.11494243,0.8671358,-0.17842367,-0.42905274,-0.35895997,-0.37382814,109.0
34672,-0.0024430156,0.99154806,-0.42373258,-0.42905274,-0.35895997,-0.37382814,109.0
34673,-0.0024430156,0.99154806,-0.42373258,-0.48427734,-0.42905274,-0.43117675,109.0
34674,-0.0024430156,0.99154806,-0.42373258,-0.48427734,-0.42905274,-0.43117675,108.0
34675,-0.15387094,1.3345226,-0.7737151,-0.48427734,-0.42905274,-0.43117675,108.0
34676,-0.15387094,1.3345226,-0.7737151,-0.7975708,-0.53100586,-0.48533937,108.0
34677,-0.3572154,1.8069003,-1.2345116,-0.7975708,-0.53100586,-0.48533937,108.0
34678,-0.3572154,1.8069003,-1.2345116,-1.2404298,-0.6690674,-0.5522461,108.0
34679,-0.60176355,1.9886599,-1.6925654,-1.2404298,-0.6690674,-0.5522461,108.0
34680,-0.60176355,1.9886599,-1.6925654,-1.6482422,-0.9133301,-0.6775635,108.0
34681,-0.71279514,1.7876198,-1.6555172,-1.6482422,-0.9133301,-0.6775635,108.0
34682,-0.71279514,1.7876198,-1.6555172,-1.6747925,-1.0588257,-0.8007569,108.0
34683,-0.6458342,1.0253351,-1.9091916,-1.6747925,-1.0588257,-0.8007569,108.0
34684,-0.6458342,1.0253351,-1.9091916,-1.5292969,-1.4645141,-1.1406006,108.0
34685,-0.6668627,0.90697455,-1.5291111,-1.5292969,-1.4645141,-1.1406006,108.0
34686,-0.6668627,0.90697455,-1.5291111,-1.4889405,-1.6397461,-1.2892822,108.0
34687,-0.45534077,1.2494566,-1.0094583,-1.4889405,-1.6397461,-1.2892822,108.0
34688,-0.45534077,1.2494566,-1.0094583,-1.8383423,-2.151636,-1.6631104,108.0
34689,-0.45859635,1.1251392,-0.36760068,-1.8383423,-2.151636,-1.6631104,108.0
34690,-0.45859635,1.1251392,-0.36760068,-1.8617066,-2.3385499,-1.8298463,108.0
34691,0.8519828,-0.13594818,1.1366324,-1.8617066,-2.3385499,-1.8298463,108.0
34692,0.8519828,-0.13594818,1.1366324,-1.6992188,-2.5127199,-2.2833252,108.0
34693,0.7622381,-0.3432312,1.3374188,-1.6992188,-2.5127199,-2.2833252,108.0
34694,0.7622381,-0.3432312,1.3374188,-1.6747925,-2.5605104,-2.447937,108.0
34695,1.3919804,-1.3007202,1.6222178,-1.6747925,-2.5605104,-2.447937,108.0
34696,1.3919804,-1.3007202,1.6222178,-1.2903442,-2.6433473,-2.7368042,108.0
34697,1.2168559,-1.8402834,1.8334554,-1.2903442,-2.6433473,-2.7368042,108.0
34698,1.2168559,-1.8402834,1.8334554,-0.9420044,-2.6454713,-2.7824707,108.0
34699,2.3660994,-3.6192117,2.626835,-0.9420044,-2.6454713,-2.7824707,108.0
34700,2.3660994,-3.6192117,2.626835,-0.08283692,-2.3767822,-2.704944,108.0
34701,1.9259851,-3.1780233,2.3300204,-0.08283692,-2.3767822,-2.704944,108.0
34702,1.9259851,-3.1780233,2.3300204,-0.10407715,-2.2015502,-2.5530763,108.0
34703,1.1850386,-1.432946,1.446133,-0.10407715,-2.2015502,-2.5530763,108.0
34704,1.1850386,-1.432946,1.446133,-0.69136965,-2.0677369,-2.1973023,108.0
34705,0.6352134,-1.2018865,1.269321,-0.69136965,-2.0677369,-2.1973023,108.0
34706,0.6352134,-1.2018865,1.269321,-0.64570314,-2.0443726,-2.1144655,108.0
34707,0.878886,-2.4302106,1.2309719,-0.64570314,-2.0443726,-2.1144655,108.0
34708,0.878886,-2.4302106,1.2309719,0.0053100586,-1.3997315,-1.6716064,108.0
34709,0.6306479,-2.3841953,1.119299,0.0053100586,-1.3997315,-1.6716064,108.0
34710,0.6306479,-2.3841953,1.119299,0.12956543,-1.1958252,-1.5165528,108.0
34711,-0.46683168,-0.8256668,0.6098192,0.12956543,-1.1958252,-1.5165528,108.0
34712,-0.46683168,-0.8256668,0.6098192,-0.1529297,-0.83686525,-1.0174073,108.0
34713,-0.9056065,-0.009666681,0.35177135,-0.1529297,-0.83686525,-1.0174073,108.0
34714,-0.9056065,-0.009666681,0.35177135,-0.3536499,-0.7890747,-0.8963379,108.0
34715,-1.4691019,0.7740904,-0.056729913,-0.3536499,-0.7890747,-0.8963379,108.0
34716,-1.4691019,0.7740904,-0.056729913,-0.4980835,-0.72216797,-0.77102053,108.0
34717,-1.2616341,0.036960363,-0.08533752,-0.4980835,-0.72216797,-0.77102053,108.0
34718,-1.2616341,0.036960363,-0.08533752,0.0,-0.5129517,-0.78164065,108.0
34719,-0.73439276,-0.59229445,0.1518228,0.0,-0.5129517,-0.78164065,108.0
34720,-0.73439276,-0.59229445,0.1518228,0.39082032,-0.16779785,-0.67225343,108.0
34721,-0.6805928,-0.22005141,0.08194411,0.39082032,-0.16779785,-0.67225343,108.0
34722,-0.6805928,-0.22005141,0.08194411,0.31435546,-0.14230958,-0.61278075,108.0
34723,-1.0331094,1.0737147,-0.58252823,0.31435546,-0.14230958,-0.61278075,108.0
34724,-1.0331094,1.0737147,-0.58252823,-0.053100586,-0.118945315,-0.4248047,108.0
34725,-0.92347246,0.99340785,-0.6712228,-0.053100586,-0.118945315,-0.4248047,108.0
34726,-0.92347246,0.99340785,-0.6712228,-0.1359375,-0.11044922,-0.37701416,108.0
34727,-0.70631945,0.7373166,-0.6966828,-0.1359375,-0.11044922,-0.37701416,108.0
34728,-0.70631945,0.7373166,-0.6966828,-0.18160401,-0.058410645,-0.2984253,108.0
34729,-0.43168154,0.47730446,-0.4846778,-0.18160401,-0.058410645,-0.2984253,108.0
34730,-0.43168154,0.47730446,-0.4846778,-0.22833252,0.021240234,-0.2166504,108.0
34731,-0.36971048,0.4566849,-0.46131402,-0.22833252,0.021240234,-0.2166504,108.0
34732,-0.36971048,0.4566849,-0.46131402,-0.2548828,0.059472658,-0.16036378,108.0
34733,-0.46770442,0.5258826,-0.69594336,-0.2548828,0.059472658,-0.16036378,108.0
34734,-0.46770442,0.5258826,-0.69594336,-0.30054933,-0.0021240234,-0.11044922,108.0
34735,-0.58479583,0.57480764,-0.8397381,-0.30054933,-0.0021240234,-0.11044922,108.0
34736,-0.58479583,0.57480764,-0.8397381,-0.24851075,-0.057348635,-0.07752686,108.0
34737,-0.7142112,0.5269848,-0.7088754,-0.24851075,-0.057348635,-0.07752686,108.0
34738,-0.7142112,0.5269848,-0.7088754,-0.15611573,-0.13806152,-0.043542482,108.0
34739,-0.70999205,0.34740573,-0.44086742,-0.15611573,-0.13806152,-0.043542482,108.0
34740,-0.70999205,0.34740573,-0.44086742,-0.025488282,-0.23682861,-0.028674318,108.0
34741,-0.4717534,0.22393286,-0.22463,-0.025488282,-0.23682861,-0.028674318,108.0
34742,-0.4717534,0.22393286,-0.22463,0.07646485,-0.28461915,-0.009558106,108.0
34743,-0.2826029,0.27365315,-0.12526064,0.07646485,-0.28461915,-0.009558106,108.0
34744,-0.2826029,0.27365315,-0.12526064,0.11469727,-0.36320803,0.012744141,108.0
34745,-0.26322836,0.37992108,-0.101221696,0.11469727,-0.36320803,0.012744141,108.0
34746,-0.26322836,0.37992108,-0.101221696,0.0722168,-0.44604492,0.033984374,108.0
34747,-0.21523356,0.35781872,-0.14223224,0.0722168,-0.44604492,0.033984374,108.0
34748,-0.21523356,0.35781872,-0.14223224,0.11469727,-0.48215333,0.039294433,108.0
34749,-0.087714195,0.22208261,-0.13882242,0.11469727,-0.48215333,0.039294433,108.0
34750,-0.087714195,0.22208261,-0.13882242,0.16461182,-0.51188964,0.057348635,108.0
34751,0.05702591,0.15078622,0.012501627,0.16461182,-0.51188964,0.057348635,108.0
34752,0.05702591,0.15078622,0.012501627,0.11469727,-0.4895874,0.10301514,108.0
34753,0.13751525,0.17473054,0.21999887,0.11469727,-0.4895874,0.10301514,108.0
34754,0.13751525,0.17473054,0.21999887,-0.03079834,-0.4354248,0.1539917,108.0
34755,0.060988784,0.11692065,0.27239802,-0.03079834,-0.4354248,0.1539917,108.0
34756,0.060988784,0.11692065,0.27239802,-0.04460449,-0.3717041,0.20709229,108.0
34757,-0.08891648,-0.024481058,0.14957125,-0.04460449,-0.3717041,0.20709229,108.0
34758,-0.08891648,-0.024481058,0.14957125,0.0722168,-0.32603762,0.26868898,108.0
34759,-0.18314493,-0.07498038,0.0588904,0.0722168,-0.32603762,0.26868898,108.0
34760,-0.18314493,-0.07498038,0.0588904,0.0722168,-0.32603762,0.26868898,109.0
34761,-0.18314493,-0.07498038,0.0588904,0.12531738,-0.29523927,0.3090454,109.0
34762,-0.14634502,-0.034898877,0.057170913,0.12531738,-0.29523927,0.3090454,109.0
34763,-0.14634502,-0.034898877,0.057170913,0.07540283,-0.2803711,0.3419678,109.0
34764,-0.014048696,-0.06333166,0.044833407,0.07540283,-0.2803711,0.3419678,109.0
34765,-0.014048696,-0.06333166,0.044833407,0.023364259,-0.28355715,0.39082032,109.0
34766,0.13118047,-0.19140017,-5.1023066E-4,0.023364259,-0.28355715,0.39082032,109.0
34767,0.13118047,-0.19140017,-5.1023066E-4,0.11151123,-0.31966552,0.41949463,109.0
34768,0.31403863,-0.2928418,-0.0051200986,0.11151123,-0.31966552,0.41949463,109.0
34769,0.31403863,-0.2928418,-0.0051200986,0.1901001,-0.33984375,0.4333008,109.0
34770,0.46713668,-0.2649619,0.05890441,0.1901001,-0.33984375,0.4333008,109.0
34771,0.46713668,-0.2649619,0.05890441,0.1985962,-0.35789797,0.46834716,109.0
34772,0.46954674,-0.095038384,0.16732617,0.1985962,-0.35789797,0.46834716,109.0
34773,0.46954674,-0.095038384,0.16732617,0.15611573,-0.38763428,0.5150757,109.0
34774,0.39087176,0.03183061,0.24842393,0.15611573,-0.38763428,0.5150757,109.0
34775,0.39087176,0.03183061,0.24842393,0.21877442,-0.39400634,0.53950197,109.0
34776,0.39384976,-0.008165896,0.25290173,0.21877442,-0.39400634,0.53950197,109.0
34777,0.39384976,-0.008165896,0.25290173,0.42905274,-0.32391357,0.52250975,109.0
34778,0.4269817,-0.016457051,0.21679896,0.42905274,-0.32391357,0.52250975,109.0
34779,0.4269817,-0.016457051,0.21679896,0.5065796,-0.23682861,0.542688,109.0
34780,0.39171964,0.13982508,0.14537519,0.5065796,-0.23682861,0.542688,109.0
34781,0.39171964,0.13982508,0.14537519,0.45135498,-0.14974366,0.5766724,109.0
34782,0.30913985,0.30419403,0.0886268,0.45135498,-0.14974366,0.5766724,109.0
34783,0.30913985,0.30419403,0.0886268,0.35577393,-0.07434082,0.59897465,109.0
34784,0.25389147,0.19514966,0.044900447,0.35577393,-0.07434082,0.59897465,109.0
34785,0.25389147,0.19514966,0.044900447,0.42268068,-0.010620117,0.58623046,109.0
34786,0.32484168,-0.055721104,-0.020659238,0.42268068,-0.010620117,0.58623046,109.0
34787,0.32484168,-0.055721104,-0.020659238,0.5501221,0.059472658,0.56605226,109.0
34788,0.4240213,-0.09414965,-0.105980515,0.5501221,0.059472658,0.56605226,109.0
34789,0.4240213,-0.09414965,-0.105980515,0.5214478,0.10089111,0.5479981,109.0
34790,0.45395094,0.06143564,-0.1467351,0.5214478,0.10089111,0.5479981,109.0
34791,0.45395094,0.06143564,-0.1467351,0.33665773,0.08920898,0.5363159,109.0
34792,0.5340836,0.06299126,-0.073100984,0.33665773,0.08920898,0.5363159,109.0
34793,0.5340836,0.06299126,-0.073100984,0.29523927,0.07540283,0.4704712,109.0
34794,0.70623416,-0.12929451,0.04901433,0.29523927,0.07540283,0.4704712,109.0
34795,0.70623416,-0.12929451,0.04901433,0.2899292,0.09451904,0.39506838,109.0
34796,0.8078463,-0.1697076,0.11196536,0.2899292,0.09451904,0.39506838,109.0
34797,0.8078463,-0.1697076,0.11196536,0.19541016,0.13275146,0.3334717,109.0
34798,0.6928103,0.05313772,0.0982759,0.19541016,0.13275146,0.3334717,109.0
34799,0.6928103,0.05313772,0.0982759,-0.09451904,0.16885987,0.29523927,109.0
34800,0.44704604,0.24500042,0.09247571,-0.09451904,0.16885987,0.29523927,109.0
34801,0.44704604,0.24500042,0.09247571,-0.3451538,0.21346436,0.26444092,109.0
34802,0.2147901,0.11117369,0.07322371,-0.3451538,0.21346436,0.26444092,109.0
34803,0.2147901,0.11117369,0.07322371,-0.40250245,0.29417726,0.23045655,109.0
34804,0.028033257,-0.19968408,-0.07473403,-0.40250245,0.29417726,0.23045655,109.0
34805,0.028033257,-0.19968408,-0.07473403,-0.32391357,0.38869628,0.19647217,109.0
34806,-0.1992042,-0.34080195,-0.2686129,-0.32391357,0.38869628,0.19647217,109.0
34807,-0.1992042,-0.34080195,-0.2686129,-0.2899292,0.4598511,0.18372802,109.0
34808,-0.44343328,-0.07918453,-0.35379413,-0.2899292,0.4598511,0.18372802,109.0
34809,-0.44343328,-0.07918453,-0.35379413,-0.45666504,0.5256958,0.19541016,109.0
34810,-0.62308156,0.30994338,-0.34502262,-0.45666504,0.5256958,0.19541016,109.0
34811,-0.62308156,0.30994338,-0.34502262,-0.71154785,0.5533081,0.20178223,109.0
34812,-0.6537631,0.28511292,-0.3683521,-0.71154785,0.5533081,0.20178223,109.0
34813,-0.6537631,0.28511292,-0.3683521,-0.72854006,0.5798584,0.12531738,109.0
34814,-0.61151147,-0.104954064,-0.4030801,-0.72854006,0.5798584,0.12531738,109.0
34815,-0.61151147,-0.104954064,-0.4030801,-0.5936646,0.6053467,0.021240234,109.0
34816,-0.67403585,-0.3459261,-0.36074534,-0.5936646,0.6053467,0.021240234,109.0
34817,-0.67403585,-0.3459261,-0.36074534,-0.4439209,0.60322267,-0.05628662,109.0
34818,-0.7697463,-0.22187027,-0.25777352,-0.4439209,0.60322267,-0.05628662,109.0
34819,-0.7697463,-0.22187027,-0.25777352,-0.4078125,0.5586182,-0.10938721,109.0
34820,-0.7792736,0.0037660003,-0.16196832,-0.4078125,0.5586182,-0.10938721,109.0
34821,-0.7792736,0.0037660003,-0.16196832,-0.45772704,0.4885254,-0.1359375,109.0
34822,-0.71038175,0.072214454,-0.054525852,-0.45772704,0.4885254,-0.1359375,109.0
34823,-0.71038175,0.072214454,-0.054525852,-0.48746338,0.4078125,-0.17416993,109.0
34824,-0.64319557,0.030256927,0.08756828,-0.48746338,0.4078125,-0.17416993,109.0
34825,-0.64319557,0.030256927,0.08756828,-0.50445557,0.33665773,-0.20284425,109.0
34826,-0.5938655,-0.047632813,0.17690277,-0.50445557,0.33665773,-0.20284425,109.0
34827,-0.5938655,-0.047632813,0.17690277,-0.45560303,0.24638672,-0.22833252,109.0
34828,-0.45650113,-0.16140947,0.17453003,-0.45560303,0.24638672,-0.22833252,109.0
34829,-0.45650113,-0.16140947,0.17453003,-0.37701416,0.15080567,-0.24744873,109.0
34830,-0.21351635,-0.26085365,0.20510255,-0.37701416,0.15080567,-0.24744873,109.0
34831,-0.21351635,-0.26085365,0.20510255,-0.30054933,0.06265869,-0.2516968,109.0
34832,0.063342184,-0.29222783,0.30954105,-0.30054933,0.06265869,-0.2516968,109.0
34833,0.063342184,-0.29222783,0.30954105,-0.27612305,0.009558106,-0.2262085,109.0
34834,0.24953851,-0.18663871,0.3694346,-0.27612305,0.009558106,-0.2262085,109.0
34835,0.24953851,-0.18663871,0.3694346,-0.3164795,0.0031860352,-0.17629395,109.0
34836,0.3098237,-0.014887154,0.32373372,-0.3164795,0.0031860352,-0.17629395,109.0
34837,0.3098237,-0.014887154,0.32373372,-0.37595215,0.035046387,-0.13912354,109.0
34838,0.31844002,0.094596624,0.21910661,-0.37595215,0.035046387,-0.13912354,109.0
34839,0.31844002,0.094596624,0.21910661,-0.41099855,0.10513916,-0.12213135,109.0
34840,0.30581403,0.08887309,0.09571986,-0.41099855,0.10513916,-0.12213135,109.0
34841,0.30581403,0.08887309,0.09571986,-0.42374268,0.18266602,-0.118945315,109.0
34842,0.30424595,0.047062814,-0.0034045875,-0.42374268,0.18266602,-0.118945315,109.0
34843,0.30424595,0.047062814,-0.0034045875,-0.4694092,0.2824951,-0.10938721,109.0
34844,0.2673958,0.16545787,-0.05391997,-0.4694092,0.2824951,-0.10938721,109.0
34845,0.2673958,0.16545787,-0.05391997,-0.6573853,0.40462646,-0.090270996,109.0
34846,0.13425355,0.33612606,-0.14781128,-0.6573853,0.40462646,-0.090270996,109.0
34847,0.13425355,0.33612606,-0.14781128,-0.9154541,0.49489745,-0.08496094,109.0
34848,-0.016815912,0.29521918,-0.33790234,-0.9154541,0.49489745,-0.08496094,109.0
34849,-0.016815912,0.29521918,-0.33790234,-1.0535157,0.57561034,-0.107263185,109.0
34850,-0.085193455,0.062322795,-0.4774996,-1.0535157,0.57561034,-0.107263185,109.0
34851,-0.085193455,0.062322795,-0.4774996,-1.0715698,0.6180908,-0.14337158,109.0
34852,-0.07236619,-0.116132975,-0.440154,-1.0715698,0.6180908,-0.14337158,109.0
34853,-0.07236619,-0.116132975,-0.440154,-1.1119263,0.63826907,-0.1731079,109.0
34854,-0.04948231,-0.1275011,-0.2839347,-1.1119263,0.63826907,-0.1731079,109.0
34855,-0.04948231,-0.1275011,-0.2839347,-1.2043213,0.61065674,-0.2081543,109.0
34856,-0.023069734,-0.071605384,-0.10749444,-1.2043213,0.61065674,-0.2081543,109.0
34857,-0.023069734,-0.071605384,-0.10749444,-1.3115845,0.59260255,-0.23682861,109.0
34858,-0.03519163,-0.094588995,0.020730525,-1.3115845,0.59260255,-0.23682861,109.0
34859,-0.03519163,-0.094588995,0.020730525,-1.3253907,0.5809204,-0.27718505,109.0
34860,-0.13172996,-0.23856181,0.06483881,-1.3253907,0.5809204,-0.27718505,109.0
34861,-0.13172996,-0.23856181,0.06483881,-1.3253907,0.5809204,-0.27718505,108.0
34862,-0.13172996,-0.23856181,0.06483881,-1.2924683,0.57242435,-0.31329346,108.0
34863,-0.27520818,-0.36462876,0.040030226,-1.2924683,0.57242435,-0.31329346,108.0
34864,-0.27520818,-0.36462876,0.040030226,-1.264856,0.5341919,-0.35577393,108.0
34865,-0.33806205,-0.38662487,0.026018322,-1.264856,0.5341919,-0.35577393,108.0
34866,-0.33806205,-0.38662487,0.026018322,-1.2521118,0.5065796,-0.38975832,108.0
34867,-0.28642866,-0.3140118,0.10163741,-1.2521118,0.5065796,-0.38975832,108.0
34868,-0.28642866,-0.3140118,0.10163741,-1.265918,0.51826173,-0.41099855,108.0
34869,-0.24817371,-0.19210301,0.19838756,-1.265918,0.51826173,-0.41099855,108.0
34870,-0.24817371,-0.19210301,0.19838756,-1.3158325,0.53950197,-0.4322388,108.0
34871,-0.2975014,-0.1432454,0.21225008,-1.3158325,0.53950197,-0.4322388,108.0
34872,-0.2975014,-0.1432454,0.21225008,-1.3391968,0.544812,-0.45772704,108.0
34873,-0.3988166,-0.14600502,0.16108425,-1.3391968,0.544812,-0.45772704,108.0
34874,-0.3988166,-0.14600502,0.16108425,-1.3731812,0.52675784,-0.47790527,108.0
34875,-0.53544736,-0.10213116,0.11677024,-1.3731812,0.52675784,-0.47790527,108.0
34876,-0.53544736,-0.10213116,0.11677024,-1.4114136,0.48640138,-0.5097656,108.0
34877,-0.6767466,-0.061953954,0.17027166,-1.4114136,0.48640138,-0.5097656,108.0
34878,-0.6767466,-0.061953954,0.17027166,-1.4528321,0.41312256,-0.53737795,108.0
34879,-0.77164626,-0.10228534,0.3357901,-1.4528321,0.41312256,-0.53737795,108.0
34880,-0.77164626,-0.10228534,0.3357901,-1.4124756,0.3164795,-0.58198243,108.0
34881,-0.7887404,-0.19111782,0.54189867,-1.4124756,0.3164795,-0.58198243,108.0
34882,-0.7887404,-0.19111782,0.54189867,-1.3307008,0.26550293,-0.635083,108.0
34883,-0.7781359,-0.20910764,0.65300137,-1.3307008,0.26550293,-0.635083,108.0
34884,-0.7781359,-0.20910764,0.65300137,-1.2829102,0.21346436,-0.62977296,108.0
34885,-0.8053944,-0.14311619,0.5933484,-1.2829102,0.21346436,-0.62977296,108.0
34886,-0.8053944,-0.14311619,0.5933484,-1.2468017,0.16461182,-0.62340087,108.0
34887,-0.7907877,-0.11489579,0.43151462,-1.2468017,0.16461182,-0.62340087,108.0
34888,-0.7907877,-0.11489579,0.43151462,-1.1873292,0.1083252,-0.61278075,108.0
34889,-0.624769,-0.16932142,0.34351492,-1.1873292,0.1083252,-0.61278075,108.0
34890,-0.624769,-0.16932142,0.34351492,-1.0991821,0.08602295,-0.60216063,108.0
34891,-0.33288407,-0.2572711,0.35171622,-1.0991821,0.08602295,-0.60216063,108.0
34892,-0.33288407,-0.2572711,0.35171622,-0.9494385,0.078588866,-0.6042847,108.0
34893,-0.008751154,-0.27977931,0.32406098,-0.9494385,0.078588866,-0.6042847,108.0
34894,-0.008751154,-0.27977931,0.32406098,-0.83049315,0.11363526,-0.5968506,108.0
34895,0.2554747,-0.13433373,0.1842854,-0.83049315,0.11363526,-0.5968506,108.0
34896,0.2554747,-0.13433373,0.1842854,-0.815625,0.14868164,-0.5649902,108.0
34897,0.4464085,0.1647498,-0.06387538,-0.815625,0.14868164,-0.5649902,108.0
34898,0.4464085,0.1647498,-0.06387538,-0.8952759,0.16142578,-0.54906005,108.0
34899,0.71475625,0.37727103,-0.44038254,-0.8952759,0.16142578,-0.54906005,108.0
34900,0.71475625,0.37727103,-0.44038254,-1.0482056,0.03079834,-0.5703003,108.0
34901,1.6412996,0.18760782,-0.675597,-1.0482056,0.03079834,-0.5703003,108.0
34902,1.6412996,0.18760782,-0.675597,-1.0301514,-0.3079834,-0.77739257,108.0
34903,2.955154,-0.19670328,-0.43343413,-1.0301514,-0.3079834,-0.77739257,108.0
34904,2.955154,-0.19670328,-0.43343413,-1.268042,-0.17416993,-0.82730716,108.0
34905,2.9683347,-0.23840511,0.0023371577,-1.268042,-0.17416993,-0.82730716,108.0
34906,2.9683347,-0.23840511,0.0023371577,-1.6705445,-0.09239502,-0.7349121,108.0
34907,1.6208591,0.08368999,0.07986045,-1.6705445,-0.09239502,-0.7349121,108.0
34908,1.6208591,0.08368999,0.07986045,-2.0581787,-0.13912354,-0.5894165,108.0
34909,0.43328398,0.20069224,-0.15615559,-2.0581787,-0.13912354,-0.5894165,108.0
34910,0.43328398,0.20069224,-0.15615559,-1.9710938,-0.21346436,-0.48109132,108.0
34911,-0.030679941,-0.1682182,-0.25275648,-1.9710938,-0.21346436,-0.48109132,108.0
34912,-0.030679941,-0.1682182,-0.25275648,-1.3763672,-0.21240234,-0.4088745,108.0
34913,-0.23142874,-0.37159848,-0.11211729,-1.3763672,-0.21240234,-0.4088745,108.0
34914,-0.23142874,-0.37159848,-0.11211729,-0.7104859,-0.19541016,-0.26337892,108.0
34915,-0.5062734,0.10821438,-0.003170371,-0.7104859,-0.19541016,-0.26337892,108.0
34916,-0.5062734,0.10821438,-0.003170371,-0.32072756,-0.1720459,-0.10513916,108.0
34917,-0.6939958,0.90026784,-0.05364713,-0.32072756,-0.1720459,-0.10513916,108.0
34918,-0.6939958,0.90026784,-0.05364713,-0.22302246,-0.13699952,0.118945315,108.0
34919,-0.6318446,1.436413,-0.18917012,-0.22302246,-0.13699952,0.118945315,108.0
34920,-0.6318446,1.436413,-0.18917012,-0.2081543,-0.047790527,0.31223145,108.0
34921,-0.3926339,1.5730562,-0.23751774,-0.2081543,-0.047790527,0.31223145,108.0
34922,-0.3926339,1.5730562,-0.23751774,-0.13168946,-0.0180542,0.3812622,108.0
34923,-0.11365545,1.4678688,-0.14578813,-0.13168946,-0.0180542,0.3812622,108.0
34924,-0.11365545,1.4678688,-0.14578813,-0.050976563,0.081774905,0.39082032,108.0
34925,-0.04103422,1.307779,-0.038651973,-0.050976563,0.081774905,0.39082032,108.0
34926,-0.04103422,1.307779,-0.038651973,-0.053100586,0.21877442,0.36427003,108.0
34927,-0.12594262,1.1603345,-0.037537783,-0.053100586,0.21877442,0.36427003,108.0
34928,-0.12594262,1.1603345,-0.037537783,-0.22302246,0.40462646,0.3802002,108.0
34929,-0.14444306,0.9461508,-0.092102975,-0.22302246,0.40462646,0.3802002,108.0
34930,-0.14444306,0.9461508,-0.092102975,-0.3462158,0.6042847,0.4056885,108.0
34931,-0.10450709,0.6268182,-0.06666334,-0.3462158,0.6042847,0.4056885,108.0
34932,-0.10450709,0.6268182,-0.06666334,-0.35683593,0.76677245,0.39506838,108.0
34933,-0.038329788,0.30608106,-3.7658215E-4,-0.35683593,0.76677245,0.39506838,108.0
34934,-0.038329788,0.30608106,-3.7658215E-4,-0.2793091,0.94731444,0.4163086,108.0
34935,0.019824453,0.15166426,0.007950693,-0.2793091,0.94731444,0.4163086,108.0
34936,0.019824453,0.15166426,0.007950693,-0.28780517,1.1448487,0.45772704,108.0
34937,0.08933368,0.18312335,-0.033873826,-0.28780517,1.1448487,0.45772704,108.0
34938,0.08933368,0.18312335,-0.033873826,-0.48109132,1.2860962,0.5586182,108.0
34939,0.30807585,0.008205175,0.13420466,-0.48109132,1.2860962,0.5586182,108.0
34940,0.30807585,0.008205175,0.13420466,-0.6945557,1.358313,0.64995116,108.0
34941,0.6342536,-0.22378254,0.40187055,-0.6945557,1.358313,0.64995116,108.0
34942,0.6342536,-0.22378254,0.40187055,-1.1182984,1.4687623,0.7508423,108.0
34943,0.6670953,-0.20029068,0.34097886,-1.1182984,1.4687623,0.7508423,108.0
34944,0.6670953,-0.20029068,0.34097886,-1.5250489,1.5123047,0.88253176,108.0
34945,0.5286225,-0.38461006,0.04358387,-1.5250489,1.5123047,0.88253176,108.0
34946,0.5286225,-0.38461006,0.04358387,-1.4623902,1.6153198,1.0312134,108.0
34947,0.45344,-0.7778419,-0.14143905,-1.4623902,1.6153198,1.0312134,108.0
34948,0.45344,-0.7778419,-0.14143905,-1.1937011,1.7353271,1.1883911,108.0
34949,0.25015432,-1.0474445,-0.2118451,-1.1937011,1.7353271,1.1883911,108.0
34950,0.25015432,-1.0474445,-0.2118451,-0.721106,1.8192261,1.2977784,108.0
34951,-0.104014754,-1.0261391,-0.24904153,-0.721106,1.8192261,1.2977784,108.0
34952,-0.104014754,-1.0261391,-0.24904153,-0.31329346,1.7608155,1.3784913,108.0
34953,-0.31889302,-0.8922614,-0.28521955,-0.31329346,1.7608155,1.3784913,108.0
34954,-0.31889302,-0.8922614,-0.28521955,0.06903076,1.720459,1.4634522,108.0
34955,-0.3332638,-0.8410308,-0.31765318,0.06903076,1.720459,1.4634522,108.0
34956,-0.3332638,-0.8410308,-0.31765318,0.40037844,1.6716064,1.6068238,108.0
34957,-0.31993136,-0.88360345,-0.18766746,0.40037844,1.6716064,1.6068238,108.0
34958,-0.31993136,-0.88360345,-0.18766746,0.72854006,1.5664673,1.7024049,108.0
34959,-0.25824,-0.87807417,0.04572785,0.72854006,1.5664673,1.7024049,108.0
34960,-0.25824,-0.87807417,0.04572785,0.8708496,1.4793824,1.7990478,108.0
34961,-0.12747824,-0.733807,0.18194361,0.8708496,1.4793824,1.7990478,108.0
34962,-0.12747824,-0.733807,0.18194361,1.0694458,1.3200806,1.8638306,108.0
34963,0.05773419,-0.64103734,0.1856794,1.0694458,1.3200806,1.8638306,108.0
34964,0.05773419,-0.64103734,0.1856794,1.2563599,1.2255615,1.8946289,108.0
34965,0.05773419,-0.64103734,0.1856794,1.2563599,1.2255615,1.8946289,108.0
34966,0.16808677,-0.60203886,0.16745222,1.2563599,1.2255615,1.8946289,108.0
34967,0.16808677,-0.60203886,0.16745222,1.4740723,1.1331666,1.9126831,108.0
34968,0.2311613,-0.65980494,0.37162048,1.4740723,1.1331666,1.9126831,108.0
34969,0.2311613,-0.65980494,0.37162048,1.8457764,0.98129886,1.8956909,108.0
34970,0.45668197,-0.72681856,0.79306054,1.8457764,0.98129886,1.8956909,108.0
34971,0.45668197,-0.72681856,0.79306054,2.2238526,0.8506714,1.8882569,108.0
34972,0.653224,-0.6666843,1.0670779,2.2238526,0.8506714,1.8882569,108.0
34973,0.653224,-0.6666843,1.0670779,2.4713013,0.7614624,1.8553345,108.0
34974,0.56166613,-0.42665803,0.87540305,2.4713013,0.7614624,1.8553345,108.0
34975,0.56166613,-0.42665803,0.87540305,2.5020998,0.66269535,1.808606,108.0
34976,0.29048282,-0.1437068,0.25894058,2.5020998,0.66269535,1.808606,108.0
34977,0.29048282,-0.1437068,0.25894058,2.3651001,0.5299439,1.7693115,108.0
34978,0.036939442,-0.1855343,-0.30656826,2.3651001,0.5299439,1.7693115,108.0
34979,0.036939442,-0.1855343,-0.30656826,2.342798,0.36745605,1.719397,108.0
34980,-0.24607098,-0.32686985,-0.23641676,2.342798,0.36745605,1.719397,108.0
34981,-0.24607098,-0.32686985,-0.23641676,2.2291627,-0.0053100586,1.7300171,108.0
34982,-0.47434705,-0.84541917,-0.20878673,2.2291627,-0.0053100586,1.7300171,108.0
34983,-0.47434705,-0.84541917,-0.20878673,1.7969239,-1.1108643,1.540979,108.0
34984,0.5455956,-1.1787279,0.41807806,1.7969239,-1.1108643,1.540979,108.0
34985,0.5455956,-1.1787279,0.41807806,1.7395753,-1.1852051,1.5866455,108.0
34986,0.8890766,-0.59195685,1.0959004,1.7395753,-1.1852051,1.5866455,108.0
34987,0.8890766,-0.59195685,1.0959004,3.1318727,-0.8602295,1.4921265,108.0
34988,-1.3885069,0.44116843,-0.2225107,3.1318727,-0.8602295,1.4921265,108.0
34989,-1.3885069,0.44116843,-0.2225107,3.1403687,-1.4645141,1.1883911,108.0
34990,-3.2499778,-0.1259104,-1.9010677,3.1403687,-1.4645141,1.1883911,108.0
34991,-3.2499778,-0.1259104,-1.9010677,4.3776126,-1.7236451,0.5564942,108.0
34992,-2.6959662,-1.482137,-1.9092941,4.3776126,-1.7236451,0.5564942,108.0
34993,-2.6959662,-1.482137,-1.9092941,4.636743,-1.988086,0.07965088,108.0
34994,-1.0979717,-0.5606365,-1.016156,4.636743,-1.988086,0.07965088,108.0
34995,-1.0979717,-0.5606365,-1.016156,3.606592,-1.7852417,-0.30161133,108.0
34996,-0.47204196,1.7783219,-0.53952396,3.606592,-1.7852417,-0.30161133,108.0
34997,-0.47204196,1.7783219,-0.53952396,1.7693115,-1.5611572,-0.92076415,108.0
34998,0.025991917,2.3700576,-0.28290087,1.7693115,-1.5611572,-0.92076415,108.0
34999,0.025991917,2.3700576,-0.28290087,0.2814331,-1.09281,-1.5027466,108.0
35000,1.0269704,0.88781846,-0.19920889,0.2814331,-1.09281,-1.5027466,108.0
35001,1.0269704,0.88781846,-0.19920889,-0.70092773,-0.39506838,-2.0188844,108.0
35002,1.2434757,0.066285074,-0.7730024,-0.70092773,-0.39506838,-2.0188844,108.0
35003,1.2434757,0.066285074,-0.7730024,-1.6758546,0.06690674,-2.3332398,108.0
35004,0.5307913,0.5106575,-1.1744323,-1.6758546,0.06690674,-2.3332398,108.0
35005,0.5307913,0.5106575,-1.1744323,-2.261023,0.18266602,-2.4882934,108.0
35006,0.24742356,0.9269953,-0.12905991,-2.261023,0.18266602,-2.4882934,108.0
35007,0.24742356,0.9269953,-0.12905991,-2.1325195,0.23258057,-2.4819214,108.0
35008,0.7217182,0.5340767,1.4216666,-2.1325195,0.23258057,-2.4819214,108.0
35009,0.7217182,0.5340767,1.4216666,-1.6110718,0.29099122,-2.2875733,108.0
35010,0.9573672,-0.30878603,1.3707684,-1.6110718,0.29099122,-2.2875733,108.0
35011,0.9573672,-0.30878603,1.3707684,-0.76358646,0.31223145,-2.1038454,108.0
35012,0.4537844,-0.5214063,-0.1865518,-0.76358646,0.31223145,-2.1038454,108.0
35013,0.4537844,-0.5214063,-0.1865518,0.03717041,0.38975832,-1.9615357,108.0
35014,-0.34161115,0.41705465,-1.4461409,0.03717041,0.38975832,-1.9615357,108.0
35015,-0.34161115,0.41705465,-1.4461409,0.26868898,0.45878908,-1.6015137,108.0
35016,-0.986912,1.4635388,-1.4043981,0.26868898,0.45878908,-1.6015137,108.0
35017,-0.986912,1.4635388,-1.4043981,-0.118945315,0.41206056,-1.351941,108.0
35018,-1.0045077,1.2489194,-0.4347123,-0.118945315,0.41206056,-1.351941,108.0
35019,-1.0045077,1.2489194,-0.4347123,-0.31860352,0.30479738,-1.0736939,108.0
35020,-0.58574724,0.26273417,0.4507287,-0.31860352,0.30479738,-1.0736939,108.0
35021,-0.58574724,0.26273417,0.4507287,-0.24638672,0.1985962,-0.79332274,108.0
35022,-0.39547765,-0.030217946,0.6277338,-0.24638672,0.1985962,-0.79332274,108.0
35023,-0.39547765,-0.030217946,0.6277338,-0.115759276,0.098767094,-0.6573853,108.0
35024,-0.46585727,0.43435836,0.32921344,-0.115759276,0.098767094,-0.6573853,108.0
35025,-0.46585727,0.43435836,0.32921344,-0.010620117,0.014868164,-0.5809204,108.0
35026,-0.40381372,0.5948622,0.09861243,-0.010620117,0.014868164,-0.5809204,108.0
35027,-0.40381372,0.5948622,0.09861243,0.09451904,-0.06159668,-0.58304447,108.0
35028,-0.044681787,0.006761372,0.21530354,0.09451904,-0.06159668,-0.58304447,108.0
35029,-0.044681787,0.006761372,0.21530354,0.10089111,-0.20178223,-0.64782715,108.0
35030,0.2988615,-0.5006212,0.5160661,0.10089111,-0.20178223,-0.64782715,108.0
35031,0.2988615,-0.5006212,0.5160661,-0.08920898,-0.33240968,-0.7062378,108.0
35032,0.30945057,-0.23893687,0.8087147,-0.08920898,-0.33240968,-0.7062378,108.0
35033,0.30945057,-0.23893687,0.8087147,-0.32285157,-0.47790527,-0.7083618,108.0
35034,0.1513691,0.38051796,1.1937613,-0.32285157,-0.47790527,-0.7083618,108.0
35035,0.1513691,0.38051796,1.1937613,-0.35471192,-0.6064087,-0.7189819,108.0
35036,0.23029935,0.61896515,1.6363446,-0.35471192,-0.6064087,-0.7189819,108.0
35037,0.23029935,0.61896515,1.6363446,-0.16567384,-0.5883545,-0.66269535,108.0
35038,0.4150012,0.5337219,1.9022886,-0.16567384,-0.5883545,-0.66269535,108.0
35039,0.4150012,0.5337219,1.9022886,0.047790527,-0.2814331,-0.5671143,108.0
35040,0.257416,0.84954834,1.8897874,0.047790527,-0.2814331,-0.5671143,108.0
35041,0.257416,0.84954834,1.8897874,-0.4704712,-0.0031860352,-0.38338622,108.0
35042,-0.37415755,1.1625977,1.2645887,-0.4704712,-0.0031860352,-0.38338622,108.0
35043,-0.37415755,1.1625977,1.2645887,-0.46834716,0.009558106,-0.18160401,108.0
35044,-1.0230931,0.9023926,0.20188093,-0.46834716,0.009558106,-0.18160401,108.0
35045,-1.0230931,0.9023926,0.20188093,-0.4248047,-0.03079834,-0.098767094,108.0
35046,-1.1179984,0.23404789,-0.6595036,-0.4248047,-0.03079834,-0.098767094,108.0
35047,-1.1179984,0.23404789,-0.6595036,0.13275146,-0.08283692,-0.06796875,108.0
35048,-0.82376885,-0.4698906,-1.186929,0.13275146,-0.08283692,-0.06796875,108.0
35049,-0.82376885,-0.4698906,-1.186929,0.6138428,-0.09133301,-0.04460449,108.0
35050,-0.5300478,-0.7533051,-1.38437,0.6138428,-0.09133301,-0.04460449,108.0
35051,-0.5300478,-0.7533051,-1.38437,0.75296634,-0.07752686,-0.032922365,108.0
35052,-0.20533705,-0.7228956,-1.2228646,0.75296634,-0.07752686,-0.032922365,108.0
35053,-0.20533705,-0.7228956,-1.2228646,0.45347902,-0.007434082,0.038232423,108.0
35054,0.08935583,-0.6471398,-0.896468,0.45347902,-0.007434082,0.038232423,108.0
35055,0.08935583,-0.6471398,-0.896468,-0.0053100586,0.0637207,0.087084964,108.0
35056,0.17142367,-0.6213862,-0.6670523,-0.0053100586,0.0637207,0.087084964,108.0
35057,0.17142367,-0.6213862,-0.6670523,-0.39613038,0.0637207,0.11682129,108.0
35058,0.21649694,-0.67097366,-0.54350513,-0.39613038,0.0637207,0.11682129,108.0
35059,0.21649694,-0.67097366,-0.54350513,-0.53100586,0.1263794,0.12319336,108.0
35060,0.37589526,-0.7821891,-0.38202092,-0.53100586,0.1263794,0.12319336,108.0
35061,0.37589526,-0.7821891,-0.38202092,-0.38551027,0.20284425,0.14018555,108.0
35062,0.43615317,-0.69498956,-0.13325346,-0.38551027,0.20284425,0.14018555,108.0
35063,0.43615317,-0.69498956,-0.13325346,-0.3069214,0.2793091,0.19116211,108.0
35064,0.31198406,-0.25269574,0.12603883,-0.3069214,0.2793091,0.19116211,108.0
35065,0.31198406,-0.25269574,0.12603883,-0.2984253,0.32072756,0.23789063,108.0
35066,0.18202138,0.26965737,0.3071543,-0.2984253,0.32072756,0.23789063,108.0
35067,0.18202138,0.26965737,0.3071543,-0.38763428,0.362146,0.24851075,108.0
35068,0.055663466,0.45040607,0.35655108,-0.38763428,0.362146,0.24851075,108.0
35069,0.055663466,0.45040607,0.35655108,-0.35895997,0.37701416,0.23364258,108.0
35070,-0.041443348,0.41672134,0.23919594,-0.35895997,0.37701416,0.23364258,108.0
35071,-0.041443348,0.41672134,0.23919594,-0.38232422,0.44923097,0.15717773,108.0
35072,-0.124011636,0.38841856,0.026976883,-0.38232422,0.44923097,0.15717773,108.0
35073,-0.124011636,0.38841856,0.026976883,-0.38551027,0.4428589,0.1720459,108.0
35074,-0.124011636,0.38841856,0.026976883,-0.38551027,0.4428589,0.1720459,107.0
35075,-0.2275784,0.2882617,-0.17525688,-0.38551027,0.4428589,0.1720459,107.0
35076,-0.2275784,0.2882617,-0.17525688,-0.38551027,0.40144044,0.15611573,107.0
35077,-0.17503142,0.21737695,-0.33983928,-0.38551027,0.40144044,0.15611573,107.0
35078,-0.17503142,0.21737695,-0.33983928,-0.32816163,0.35789797,0.14868164,107.0
35079,0.051930428,0.3031618,-0.42212778,-0.32816163,0.35789797,0.14868164,107.0
35080,0.051930428,0.3031618,-0.42212778,-0.23895264,0.32497558,0.107263185,107.0
35081,0.35137105,0.3462404,-0.4324288,-0.23895264,0.32497558,0.107263185,107.0
35082,0.35137105,0.3462404,-0.4324288,-0.115759276,0.32816163,0.029736329,107.0
35083,0.61276186,0.17129159,-0.43809393,-0.115759276,0.32816163,0.029736329,107.0
35084,0.61276186,0.17129159,-0.43809393,-0.04460449,0.2793091,-0.07327881,107.0
35085,0.8990962,-0.17179245,-0.48708403,-0.04460449,0.2793091,-0.07327881,107.0
35086,0.8990962,-0.17179245,-0.48708403,-0.08602295,0.2538208,-0.16248779,107.0
35087,1.2708151,-0.44430655,-0.4981145,-0.08602295,0.2538208,-0.16248779,107.0
35088,1.2708151,-0.44430655,-0.4981145,-0.14868164,0.23045655,-0.16992188,107.0
35089,1.6389787,-0.48134857,-0.34552526,-0.14868164,0.23045655,-0.16992188,107.0
35090,1.6389787,-0.48134857,-0.34552526,-0.29417726,0.21452637,-0.2538208,107.0
35091,1.8972425,-0.28098953,-0.102543265,-0.29417726,0.21452637,-0.2538208,107.0
35092,1.8972425,-0.28098953,-0.102543265,-0.1985962,0.24638672,-0.2177124,107.0
35093,1.7648156,0.18595058,0.03341949,-0.1985962,0.24638672,-0.2177124,107.0
35094,1.7648156,0.18595058,0.03341949,-0.3982544,0.26975098,-0.2623169,107.0
35095,1.1894525,0.5416926,-0.022043705,-0.3982544,0.26975098,-0.2623169,107.0
35096,1.1894525,0.5416926,-0.022043705,-0.66481936,0.25594482,-0.23258057,107.0
35097,0.54168653,0.54127645,-0.0038287938,-0.66481936,0.25594482,-0.23258057,107.0
35098,0.54168653,0.54127645,-0.0038287938,-0.7497803,0.19647217,-0.24001466,107.0
35099,0.165295,0.27201045,0.37868747,-0.7497803,0.19647217,-0.24001466,107.0
35100,0.165295,0.27201045,0.37868747,-0.6074707,0.20072022,-0.24532472,107.0
35101,0.011203289,-0.05855131,0.9207112,-0.6074707,0.20072022,-0.24532472,107.0
35102,0.011203289,-0.05855131,0.9207112,-0.48533937,0.22727051,-0.362146,107.0
35103,-0.22908676,-0.21135521,1.1880705,-0.48533937,0.22727051,-0.362146,107.0
35104,-0.22908676,-0.21135521,1.1880705,-0.69349366,0.25806886,-0.5161377,107.0
35105,-0.5699272,-0.17688447,1.063103,-0.69349366,0.25806886,-0.5161377,107.0
35106,-0.5699272,-0.17688447,1.063103,-1.0949341,0.3079834,-0.45347902,107.0
35107,-0.80133975,-0.11184448,0.7748842,-1.0949341,0.3079834,-0.45347902,107.0
35108,-0.80133975,-0.11184448,0.7748842,-1.3349488,0.3982544,-0.4970215,107.0
35109,-0.7855054,-0.23006397,0.51910174,-1.3349488,0.3982544,-0.4970215,107.0
35110,-0.7855054,-0.23006397,0.51910174,-1.183081,0.5479981,-0.55543214,107.0
35111,-0.7349351,-0.25547457,0.24891174,-1.183081,0.5479981,-0.55543214,107.0
35112,-0.7349351,-0.25547457,0.24891174,-1.1671509,0.6796875,-0.6403931,107.0
35113,-0.8128871,-0.1169163,-0.08977437,-1.1671509,0.6796875,-0.6403931,107.0
35114,-0.8128871,-0.1169163,-0.08977437,-1.2138795,0.7540283,-0.6786255,107.0
35115,-0.73870075,-0.027200043,-0.34006906,-1.2138795,0.7540283,-0.6786255,107.0
35116,-0.73870075,-0.027200043,-0.34006906,-1.3179566,0.7317261,-0.7051758,107.0
35117,-0.28966665,-0.15091044,-0.44084185,-1.3179566,0.7317261,-0.7051758,107.0
35118,-0.28966665,-0.15091044,-0.44084185,-1.270166,0.7582764,-0.6711914,107.0
35119,0.20135993,-0.3647713,-0.48790297,-1.270166,0.7582764,-0.6711914,107.0
35120,0.20135993,-0.3647713,-0.48790297,-1.0354614,0.81031495,-0.65632325,107.0
35121,0.21804595,-0.23854557,-0.53861344,-1.0354614,0.81031495,-0.65632325,107.0
35122,0.21804595,-0.23854557,-0.53861344,-1.0577637,0.7476563,-0.6775635,107.0
35123,-0.07573414,0.06192234,-0.6092843,-1.0577637,0.7476563,-0.6775635,107.0
35124,-0.07573414,0.06192234,-0.6092843,-1.0418335,0.6796875,-0.64782715,107.0
35125,-0.20060197,0.22558767,-0.64252996,-1.0418335,0.6796875,-0.64782715,107.0
35126,-0.20060197,0.22558767,-0.64252996,-1.0524536,0.59472656,-0.5809204,107.0
35127,-0.0933429,0.033082426,-0.64941216,-1.0524536,0.59472656,-0.5809204,107.0
35128,-0.0933429,0.033082426,-0.64941216,-0.95793456,0.42161867,-0.55968016,107.0
35129,0.05906591,-0.42717177,-0.6964707,-0.95793456,0.42161867,-0.55968016,107.0
35130,0.05906591,-0.42717177,-0.6964707,-0.8506714,0.26444092,-0.4428589,107.0
35131,0.03847587,-0.6982682,-0.73976934,-0.8506714,0.26444092,-0.4428589,107.0
35132,0.03847587,-0.6982682,-0.73976934,-0.544812,0.07327881,-0.3079834,107.0
35133,-0.031389713,-0.6640345,-0.58931303,-0.544812,0.07327881,-0.3079834,107.0
35134,-0.031389713,-0.6640345,-0.58931303,-0.32391357,-0.12213135,-0.14974366,107.0
35135,0.030991733,-0.6589864,-0.25324976,-0.32391357,-0.12213135,-0.14974366,107.0
35136,0.030991733,-0.6589864,-0.25324976,-0.040356446,-0.26868898,-0.03717041,107.0
35137,0.02045989,-0.8236369,0.001599431,-0.040356446,-0.26868898,-0.03717041,107.0
35138,0.02045989,-0.8236369,0.001599431,0.1529297,-0.3175415,-0.0021240234,107.0
35139,-0.40265065,-0.9678939,0.088950455,0.1529297,-0.3175415,-0.0021240234,107.0
35140,-0.40265065,-0.9678939,0.088950455,0.5341919,-0.43754885,0.115759276,107.0
35141,-0.80969375,-0.90489376,0.24414623,0.5341919,-0.43754885,0.115759276,107.0
35142,-0.80969375,-0.90489376,0.24414623,0.90802,-0.47578126,0.26868898,107.0
35143,-0.71270865,-0.59592426,0.5878097,0.90802,-0.47578126,0.26868898,107.0
35144,-0.71270865,-0.59592426,0.5878097,1.0184692,-0.45560303,0.3695801,107.0
35145,-0.3845346,-0.2356261,0.8042443,1.0184692,-0.45560303,0.3695801,107.0
35146,-0.3845346,-0.2356261,0.8042443,0.99298096,-0.45135498,0.5097656,107.0
35147,-0.108054936,-0.030590773,0.5388545,0.99298096,-0.45135498,0.5097656,107.0
35148,-0.108054936,-0.030590773,0.5388545,0.9759888,-0.4609131,0.68712157,107.0
35149,0.06454483,0.06410158,0.053410217,0.9759888,-0.4609131,0.68712157,107.0
35150,0.06454483,0.06410158,0.053410217,1.2319336,-0.544812,0.82836914,107.0
35151,0.19760755,0.26861525,-0.11087291,1.2319336,-0.544812,0.82836914,107.0
35152,0.19760755,0.26861525,-0.11087291,1.5016845,-0.56605226,0.8889038,107.0
35153,0.27456552,0.6841305,0.08046672,1.5016845,-0.56605226,0.8889038,107.0
35154,0.27456552,0.6841305,0.08046672,1.535669,-0.544812,0.88359374,107.0
35155,0.1045035,1.0722678,0.19147298,1.535669,-0.544812,0.88359374,107.0
35156,0.1045035,1.0722678,0.19147298,1.1979493,-0.5341919,0.88253176,107.0
35157,-0.27395335,1.0497576,-0.006892413,1.1979493,-0.5341919,0.88253176,107.0
35158,-0.27395335,1.0497576,-0.006892413,0.7614624,-0.5384399,0.8612915,107.0
35159,-0.49860603,0.7020986,-0.22757204,0.7614624,-0.5384399,0.8612915,107.0
35160,-0.49860603,0.7020986,-0.22757204,0.59260255,-0.56605226,0.8602295,107.0
35161,-0.44469783,0.55087566,-0.07201125,0.59260255,-0.56605226,0.8602295,107.0
35162,-0.44469783,0.55087566,-0.07201125,0.5787964,-0.5522461,0.8644776,107.0
35163,-0.27646136,0.6171776,0.3232748,0.5787964,-0.5522461,0.8644776,107.0
35164,-0.27646136,0.6171776,0.3232748,0.54375,-0.6000366,0.813501,107.0
35165,-0.07317102,0.5402387,0.43325362,0.54375,-0.6000366,0.813501,107.0
35166,-0.07317102,0.5402387,0.43325362,0.3791382,-0.62340087,0.77314454,107.0
35167,0.08808184,0.21825051,0.11857556,0.3791382,-0.62340087,0.77314454,107.0
35168,0.08808184,0.21825051,0.11857556,0.36851808,-0.61702883,0.6467652,107.0
35169,0.19555092,-0.23518965,-0.21575966,0.36851808,-0.61702883,0.6467652,107.0
35170,0.19555092,-0.23518965,-0.21575966,0.45878908,-0.58623046,0.5171997,107.0
35171,0.3273758,-0.4322069,-0.10459016,0.45878908,-0.58623046,0.5171997,107.0
35172,0.3273758,-0.4322069,-0.10459016,0.4248047,-0.45878908,0.45135498,107.0
35173,0.43328735,-0.15097792,0.45314428,0.4248047,-0.45878908,0.45135498,107.0
35174,0.43328735,-0.15097792,0.45314428,0.1263794,-0.34940186,0.31329346,107.0
35175,0.47514552,0.28388074,0.9246736,0.1263794,-0.34940186,0.31329346,107.0
35176,0.47514552,0.28388074,0.9246736,0.1263794,-0.34940186,0.31329346,107.0
35177,0.47514552,0.28388074,0.9246736,-0.033984374,-0.18691407,0.21983643,107.0
35178,0.4104631,0.48607677,0.8667775,-0.033984374,-0.18691407,0.21983643,107.0
35179,0.4104631,0.48607677,0.8667775,0.013806152,-0.010620117,0.1178833,107.0
35180,0.17583142,0.46513093,0.38521886,0.013806152,-0.010620117,0.1178833,107.0
35181,0.17583142,0.46513093,0.38521886,-0.13487549,0.057348635,0.009558106,107.0
35182,0.059610453,0.41702664,0.1016565,-0.13487549,0.057348635,0.009558106,107.0
35183,0.059610453,0.41702664,0.1016565,-0.25913087,0.13168946,-0.05522461,107.0
35184,-0.084403925,0.28115547,-0.4443096,-0.25913087,0.13168946,-0.05522461,107.0
35185,-0.084403925,0.28115547,-0.4443096,-0.57454836,0.24957275,-0.1985962,107.0
35186,-0.033526555,0.19284427,-0.47085294,-0.57454836,0.24957275,-0.1985962,107.0
35187,-0.033526555,0.19284427,-0.47085294,-0.6223389,0.26868898,-0.17416993,107.0
35188,0.048264205,-0.26582956,-0.6446511,-0.6223389,0.26868898,-0.17416993,107.0
35189,0.048264205,-0.26582956,-0.6446511,-0.6903076,0.26550293,-0.17735596,107.0
35190,0.09459281,-0.4109791,-0.5612409,-0.6903076,0.26550293,-0.17735596,107.0
35191,0.09459281,-0.4109791,-0.5612409,-0.6669434,0.271875,-0.18585205,107.0
35192,0.07369671,-0.74103916,-0.46066266,-0.6669434,0.271875,-0.18585205,107.0
35193,0.07369671,-0.74103916,-0.46066266,-0.45666504,0.25913087,-0.19647217,107.0
35194,0.063254245,-0.63056326,-0.34617907,-0.45666504,0.25913087,-0.19647217,107.0
35195,0.063254245,-0.63056326,-0.34617907,-0.4343628,0.23045655,-0.16142578,107.0
35196,-0.015033812,-0.54892087,-0.29692617,-0.4343628,0.23045655,-0.16142578,107.0
35197,-0.015033812,-0.54892087,-0.29692617,-0.2166504,0.1720459,-0.16779785,107.0
35198,-0.06667793,-0.45604342,-0.26799747,-0.2166504,0.1720459,-0.16779785,107.0
35199,-0.06667793,-0.45604342,-0.26799747,-0.10938721,0.10938721,-0.13168946,107.0
35200,-0.27609625,-0.6636995,-0.21282327,-0.10938721,0.10938721,-0.13168946,107.0
35201,-0.27609625,-0.6636995,-0.21282327,0.40356445,-0.07965088,-0.03079834,107.0
35202,-0.23265679,-0.75913346,-0.09872541,0.40356445,-0.07965088,-0.03079834,107.0
35203,-0.23265679,-0.75913346,-0.09872541,0.74447024,-0.11044922,-0.07752686,107.0
35204,-0.019084424,-0.69982386,0.31162027,0.74447024,-0.11044922,-0.07752686,107.0
35205,-0.019084424,-0.69982386,0.31162027,1.0195312,-0.13699952,0.0637207,107.0
35206,0.24429058,-0.22458076,0.86979187,1.0195312,-0.13699952,0.0637207,107.0
35207,0.24429058,-0.22458076,0.86979187,1.0057251,-0.1444336,0.20072022,107.0
35208,0.32476598,0.31971285,1.2293051,1.0057251,-0.1444336,0.20072022,107.0
35209,0.32476598,0.31971285,1.2293051,0.7391602,-0.060534667,0.37595215,107.0
35210,0.022678984,0.70041144,0.8666351,0.7391602,-0.060534667,0.37595215,107.0
35211,0.022678984,0.70041144,0.8666351,0.54587406,-0.0361084,0.4322388,107.0
35212,-0.4076991,0.61277056,-0.1567896,0.54587406,-0.0361084,0.4322388,107.0
35213,-0.4076991,0.61277056,-0.1567896,0.50020754,0.0,0.38657227,107.0
35214,-0.58168906,0.20614663,-1.1496626,0.50020754,0.0,0.38657227,107.0
35215,-0.58168906,0.20614663,-1.1496626,0.69136965,-0.02442627,0.33665773,107.0
35216,-0.46480197,0.007434398,-1.4669347,0.69136965,-0.02442627,0.33665773,107.0
35217,-0.46480197,0.007434398,-1.4669347,0.68287355,-0.05522461,0.2527588,107.0
35218,-0.24866045,0.1888699,-1.0105962,0.68287355,-0.05522461,0.2527588,107.0
35219,-0.24866045,0.1888699,-1.0105962,0.4333008,-0.06903076,0.21452637,107.0
35220,-0.02903092,0.31189913,-0.17936316,0.4333008,-0.06903076,0.21452637,107.0
35221,-0.02903092,0.31189913,-0.17936316,0.36851808,-0.13062744,0.17947999,107.0
35222,0.25464392,0.43446803,0.56376046,0.36851808,-0.13062744,0.17947999,107.0
35223,0.25464392,0.43446803,0.56376046,0.1996582,-0.09133301,0.26868898,107.0
35224,0.36211357,0.53754026,0.9213453,0.1996582,-0.09133301,0.26868898,107.0
35225,0.36211357,0.53754026,0.9213453,-0.12213135,-0.09451904,0.26656494,107.0
35226,0.18859223,0.39126268,0.6497838,-0.12213135,-0.09451904,0.26656494,107.0
35227,0.18859223,0.39126268,0.6497838,-0.13487549,-0.09770508,0.3090454,107.0
35228,-0.018718496,0.121860236,0.24293493,-0.13487549,-0.09770508,0.3090454,107.0
35229,-0.018718496,0.121860236,0.24293493,0.13912354,-0.09133301,0.26125488,107.0
35230,0.06788653,0.11958292,0.13317852,0.13912354,-0.09133301,0.26125488,107.0
35231,0.06788653,0.11958292,0.13317852,0.13912354,-0.06584473,0.27612305,107.0
35232,0.26632094,0.44040513,0.08874497,0.13912354,-0.06584473,0.27612305,107.0
35233,0.26632094,0.44040513,0.08874497,-0.10301514,-0.050976563,0.270813,107.0
35234,0.43456554,0.84943104,-0.15960705,-0.10301514,-0.050976563,0.270813,107.0
35235,0.43456554,0.84943104,-0.15960705,-0.48640138,-0.02442627,0.20921631,107.0
35236,0.52576524,1.0278358,-0.513086,-0.48640138,-0.02442627,0.20921631,107.0
35237,0.52576524,1.0278358,-0.513086,-0.6403931,-0.06903076,0.15186767,107.0
35238,0.46676698,0.638736,-0.583296,-0.6403931,-0.06903076,0.15186767,107.0
35239,0.46676698,0.638736,-0.583296,-0.5299439,-0.121069334,0.081774905,107.0
35240,0.2683965,-0.1895361,-0.05046247,-0.5299439,-0.121069334,0.081774905,107.0
35241,0.2683965,-0.1895361,-0.05046247,-0.61065674,-0.17416993,0.21877442,107.0
35242,0.10556191,-0.95018846,0.6163439,-0.61065674,-0.17416993,0.21877442,107.0
35243,0.10556191,-0.95018846,0.6163439,-0.66269535,-0.035046387,0.17629395,107.0
35244,-0.117344916,-0.8264472,0.6570278,-0.66269535,-0.035046387,0.17629395,107.0
35245,-0.117344916,-0.8264472,0.6570278,-0.82730716,-0.008496094,0.23045655,107.0
35246,-0.33053365,-0.13111627,0.25101286,-0.82730716,-0.008496094,0.23045655,107.0
35247,-0.33053365,-0.13111627,0.25101286,-1.1002442,0.052038576,0.17629395,107.0
35248,-0.3372419,0.026259303,0.018071026,-1.1002442,0.052038576,0.17629395,107.0
35249,-0.3372419,0.026259303,0.018071026,-1.1459106,0.10195313,0.15505372,107.0
35250,-0.32669047,-0.35836267,0.018240988,-1.1459106,0.10195313,0.15505372,107.0
35251,-0.32669047,-0.35836267,0.018240988,-0.89846194,0.10938721,0.11682129,107.0
35252,-0.32674545,-0.73445624,0.014775902,-0.89846194,0.10938721,0.11682129,107.0
35253,-0.32674545,-0.73445624,0.014775902,-0.540564,0.05522461,0.06584473,107.0
35254,-0.30963856,-0.7587686,-0.05630672,-0.540564,0.05522461,0.06584473,107.0
35255,-0.30963856,-0.7587686,-0.05630672,-0.2548828,0.033984374,0.040356446,107.0
35256,-0.23680997,-0.48598218,-0.1437148,-0.2548828,0.033984374,0.040356446,107.0
35257,-0.23680997,-0.48598218,-0.1437148,-0.06584473,-0.004248047,0.025488282,107.0
35258,-0.121320546,-0.12740879,-0.1476989,-0.06584473,-0.004248047,0.025488282,107.0
35259,-0.121320546,-0.12740879,-0.1476989,-0.039294433,-0.0180542,0.014868164,107.0
35260,-0.015000775,0.085487515,-0.07621576,-0.039294433,-0.0180542,0.014868164,107.0
35261,-0.015000775,0.085487515,-0.07621576,0.016992187,-0.009558106,0.022302246,107.0
35262,0.054759637,0.16858533,-0.005076617,0.016992187,-0.009558106,0.022302246,107.0
35263,0.054759637,0.16858533,-0.005076617,0.11044922,-0.009558106,0.019116212,107.0
35264,0.093258396,0.22927745,0.05376342,0.11044922,-0.009558106,0.019116212,107.0
35265,0.093258396,0.22927745,0.05376342,0.13699952,-0.013806152,-0.004248047,107.0
35266,0.10967752,0.18735263,0.08873828,0.13699952,-0.013806152,-0.004248047,107.0
35267,0.10967752,0.18735263,0.08873828,0.14124756,-0.02442627,-0.0010620117,107.0
35268,0.12831819,0.0974651,0.019977435,0.14124756,-0.02442627,-0.0010620117,107.0
35269,0.12831819,0.0974651,0.019977435,0.1529297,-0.023364259,0.010620117,107.0
35270,0.11793775,0.094585836,-0.081063956,0.1529297,-0.023364259,0.010620117,107.0
35271,0.11793775,0.094585836,-0.081063956,0.20284425,-0.011682129,0.011682129,107.0
35272,0.05660606,0.1265842,-0.07110116,0.20284425,-0.011682129,0.011682129,107.0
35273,0.05660606,0.1265842,-0.07110116,0.121069334,-0.0053100586,0.0010620117,107.0
35274,-0.030508608,0.042441666,0.022989675,0.121069334,-0.0053100586,0.0010620117,107.0
35275,-0.030508608,0.042441666,0.022989675,0.11363526,-0.0180542,-0.0010620117,107.0
35276,-0.08850601,-0.22000174,0.08976625,0.11363526,-0.0180542,-0.0010620117,107.0
35277,-0.08850601,-0.22000174,0.08976625,0.28674316,-0.046728518,0.007434082,107.0
35278,-0.10592444,-0.4188603,0.08278713,0.28674316,-0.046728518,0.007434082,107.0
35279,-0.10592444,-0.4188603,0.08278713,0.5501221,-0.009558106,-0.15080567,107.0
35280,-0.17348468,-0.36209017,0.11565596,0.5501221,-0.009558106,-0.15080567,107.0
35281,-0.17348468,-0.36209017,0.11565596,0.6064087,-0.05628662,0.04141846,107.0
35282,-0.2286559,-0.26957938,0.20960242,0.6064087,-0.05628662,0.04141846,107.0
35283,-0.2286559,-0.26957938,0.20960242,0.74659425,-0.058410645,0.04885254,107.0
35284,-0.14081046,-0.14164007,0.24526983,0.74659425,-0.058410645,0.04885254,107.0
35285,-0.14081046,-0.14164007,0.24526983,0.81031495,-0.045666505,0.032922365,107.0
35286,-0.14081046,-0.14164007,0.24526983,0.81031495,-0.045666505,0.032922365,106.0
35287,-0.106007755,-0.010162637,0.17196047,0.81031495,-0.045666505,0.032922365,106.0
35288,-0.106007755,-0.010162637,0.17196047,0.7943848,0.05628662,0.10301514,106.0
35289,-0.23838288,0.26702857,-0.12568846,0.7943848,0.05628662,0.10301514,106.0
35290,-0.23838288,0.26702857,-0.12568846,0.6669434,0.1359375,0.04248047,106.0
35291,-0.41291088,0.63170147,-0.4861587,0.6669434,0.1359375,0.04248047,106.0
35292,-0.41291088,0.63170147,-0.4861587,0.3993164,0.20390625,0.04248047,106.0
35293,-0.41891515,0.61827624,-0.5300524,0.3993164,0.20390625,0.04248047,106.0
35294,-0.41891515,0.61827624,-0.5300524,0.35683593,0.16354981,0.015930176,106.0
35295,-0.18996614,0.34227723,-0.22304098,0.35683593,0.16354981,0.015930176,106.0
35296,-0.18996614,0.34227723,-0.22304098,0.3706421,0.16567384,0.0,106.0
35297,0.033171177,0.11232275,0.09505354,0.3706421,0.16567384,0.0,106.0
35298,0.033171177,0.11232275,0.09505354,0.40037844,0.11363526,0.052038576,106.0
35299,0.1407215,0.15280986,0.034343615,0.40037844,0.11363526,0.052038576,106.0
35300,0.1407215,0.15280986,0.034343615,0.29417726,0.06159668,0.029736329,106.0
35301,0.22165924,0.24278009,-0.41743478,0.29417726,0.06159668,0.029736329,106.0
35302,0.22165924,0.24278009,-0.41743478,0.083898924,0.015930176,0.05522461,106.0
35303,0.27450758,0.2137065,-0.8179444,0.083898924,0.015930176,0.05522461,106.0
35304,0.27450758,0.2137065,-0.8179444,0.039294433,-0.052038576,0.028674318,106.0
35305,0.42142493,0.19968832,-0.6752052,0.039294433,-0.052038576,0.028674318,106.0
35306,0.42142493,0.19968832,-0.6752052,-0.10513916,-0.18691407,-0.016992187,106.0
35307,0.7771546,-0.035513043,0.06008002,-0.10513916,-0.18691407,-0.016992187,106.0
35308,0.7771546,-0.035513043,0.06008002,-0.3440918,-0.32709962,0.0361084,106.0
35309,0.9571607,-0.44161844,0.4885059,-0.3440918,-0.32709962,0.0361084,106.0
35310,0.9571607,-0.44161844,0.4885059,-0.6669434,-0.5097656,-0.011682129,106.0
35311,0.8573668,-0.5097157,-0.026578099,-0.6669434,-0.5097656,-0.011682129,106.0
35312,0.8573668,-0.5097157,-0.026578099,-0.53950197,-0.49064943,-0.06265869,106.0
35313,0.8247606,-0.31029937,0.54802465,-0.53950197,-0.49064943,-0.06265869,106.0
35314,0.8247606,-0.31029937,0.54802465,-0.2899292,-0.13381349,-0.26868898,106.0
35315,0.48248917,-0.08266333,1.4861736,-0.2899292,-0.13381349,-0.26868898,106.0
35316,0.48248917,-0.08266333,1.4861736,-0.6085327,0.29417726,0.08283692,106.0
35317,-0.29195058,-0.12632354,0.26169285,-0.6085327,0.29417726,0.08283692,106.0
35318,-0.29195058,-0.12632354,0.26169285,-0.26762697,0.0541626,-0.023364259,106.0
35319,-0.7565341,-0.44624928,-1.1357508,-0.26762697,0.0541626,-0.023364259,106.0
35320,-0.7565341,-0.44624928,-1.1357508,0.015930176,-0.18691407,-0.06584473,106.0
35321,-0.6861233,-0.52104974,-0.67689896,0.015930176,-0.18691407,-0.06584473,106.0
35322,-0.6861233,-0.52104974,-0.67689896,0.06584473,-0.07540283,-0.15505372,106.0
35323,-0.48725313,-0.019122493,0.4241913,0.06584473,-0.07540283,-0.15505372,106.0
35324,-0.48725313,-0.019122493,0.4241913,-0.033984374,-0.010620117,-0.13912354,106.0
35325,-0.42942655,0.5476781,0.65096194,-0.033984374,-0.010620117,-0.13912354,106.0
35326,-0.42942655,0.5476781,0.65096194,-0.058410645,-0.0021240234,-0.15823975,106.0
35327,-0.29670286,0.64937294,0.34816214,-0.058410645,-0.0021240234,-0.15823975,106.0
35328,-0.29670286,0.64937294,0.34816214,-0.26656494,-0.0031860352,-0.1996582,106.0
35329,-0.119161606,0.42383185,0.1293476,-0.26656494,-0.0031860352,-0.1996582,106.0
35330,-0.119161606,0.42383185,0.1293476,-0.43967286,-0.008496094,-0.21983643,106.0
35331,-0.024211124,0.23528129,0.047020555,-0.43967286,-0.008496094,-0.21983643,106.0
35332,-0.024211124,0.23528129,0.047020555,-0.52250975,-0.007434082,-0.2516968,106.0
35333,0.012161866,0.114079505,-0.0034968257,-0.52250975,-0.007434082,-0.2516968,106.0
35334,0.012161866,0.114079505,-0.0034968257,-0.58410645,0.008496094,-0.28355715,106.0
35335,0.048413575,-0.08192977,-0.05182089,-0.58410645,0.008496094,-0.28355715,106.0
35336,0.048413575,-0.08192977,-0.05182089,-0.54375,0.03079834,-0.2782471,106.0
35337,0.042624906,-0.24203306,-0.08670819,-0.54375,0.03079834,-0.2782471,106.0
35338,0.042624906,-0.24203306,-0.08670819,-0.43861085,0.04141846,-0.22196046,106.0
35339,0.011590153,-0.25226903,-0.09113169,-0.43861085,0.04141846,-0.22196046,106.0
35340,0.011590153,-0.25226903,-0.09113169,-0.34833986,0.027612304,-0.1731079,106.0
35341,-0.004973486,-0.185116,-0.0780323,-0.34833986,0.027612304,-0.1731079,106.0
35342,-0.004973486,-0.185116,-0.0780323,-0.29736328,0.012744141,-0.11257324,106.0
35343,-0.015099391,-0.19612746,-0.07206939,-0.29736328,0.012744141,-0.11257324,106.0
35344,-0.015099391,-0.19612746,-0.07206939,-0.16885987,-0.0180542,-0.046728518,106.0
35345,-0.03734806,-0.30651134,-0.10226001,-0.16885987,-0.0180542,-0.046728518,106.0
35346,-0.03734806,-0.30651134,-0.10226001,0.008496094,-0.038232423,0.0031860352,106.0
35347,-0.039644077,-0.3174381,-0.07738907,0.008496094,-0.038232423,0.0031860352,106.0
35348,-0.039644077,-0.3174381,-0.07738907,0.17841797,-0.012744141,0.02442627,106.0
35349,-0.025880307,-0.1329666,0.011892453,0.17841797,-0.012744141,0.02442627,106.0
35350,-0.025880307,-0.1329666,0.011892453,0.21983643,-0.007434082,0.03717041,106.0
35351,0.011412457,0.111290306,0.009501755,0.21983643,-0.007434082,0.03717041,106.0
35352,0.011412457,0.111290306,0.009501755,0.2166504,0.022302246,-0.009558106,106.0
35353,0.09014803,0.3148013,-0.05445914,0.2166504,0.022302246,-0.009558106,106.0
35354,0.09014803,0.3148013,-0.05445914,0.14655761,0.0021240234,-0.012744141,106.0
35355,0.1545281,0.3140359,-0.09528851,0.14655761,0.0021240234,-0.012744141,106.0
35356,0.1545281,0.3140359,-0.09528851,0.1178833,-0.007434082,0.052038576,106.0
35357,0.20133245,0.3446735,-0.011069678,0.1178833,-0.007434082,0.052038576,106.0
35358,0.20133245,0.3446735,-0.011069678,-0.07115479,0.004248047,0.121069334,106.0
35359,0.259772,0.5252627,0.16250657,-0.07115479,0.004248047,0.121069334,106.0
35360,0.259772,0.5252627,0.16250657,-0.31223145,0.06903076,0.22939454,106.0
35361,0.2371389,0.3795852,0.15488318,-0.31223145,0.06903076,0.22939454,106.0
35362,0.2371389,0.3795852,0.15488318,-0.41843262,0.14655761,0.2803711,106.0
35363,0.039784357,-0.1598084,-0.037372768,-0.41843262,0.14655761,0.2803711,106.0
35364,0.039784357,-0.1598084,-0.037372768,-0.22408448,0.107263185,0.29736328,106.0
35365,-0.21383902,-0.7273218,-0.17851882,-0.22408448,0.107263185,0.29736328,106.0
35366,-0.21383902,-0.7273218,-0.17851882,-0.057348635,-0.015930176,0.23789063,106.0
35367,-0.45776555,-1.1863252,-0.19900402,-0.057348635,-0.015930176,0.23789063,106.0
35368,-0.45776555,-1.1863252,-0.19900402,0.3419678,-0.1985962,0.14761963,106.0
35369,-0.51010895,-1.074756,-0.21812657,0.3419678,-0.1985962,0.14761963,106.0
35370,-0.51010895,-1.074756,-0.21812657,0.6616333,-0.124255374,-0.007434082,106.0
35371,-0.2534729,0.17909901,0.014036349,0.6616333,-0.124255374,-0.007434082,106.0
35372,-0.2534729,0.17909901,0.014036349,0.22514649,0.043542482,-0.16354981,106.0
35373,0.10781738,1.582244,0.40024275,0.22514649,0.043542482,-0.16354981,106.0
35374,0.10781738,1.582244,0.40024275,-0.52038574,0.18160401,-0.15080567,106.0
35375,0.28854883,1.456994,0.3189857,-0.52038574,0.18160401,-0.15080567,106.0
35376,0.28854883,1.456994,0.3189857,-0.68074954,0.20072022,-0.14018555,106.0
35377,0.28854883,1.456994,0.3189857,-0.68074954,0.20072022,-0.14018555,105.0
35378,0.13136399,0.19240189,-0.080871,-0.68074954,0.20072022,-0.14018555,105.0
35379,0.13136399,0.19240189,-0.080871,-0.45772704,0.16036378,-0.20603028,105.0
35380,-0.10700598,-0.42132264,-0.0654048,-0.45772704,0.16036378,-0.20603028,105.0
35381,-0.10700598,-0.42132264,-0.0654048,-0.32178956,0.15930176,-0.33028564,105.0
35382,-0.20060724,0.17738283,0.37251747,-0.32178956,0.15930176,-0.33028564,105.0
35383,-0.20060724,0.17738283,0.37251747,-0.6775635,0.2166504,-0.4885254,105.0
35384,-0.13663326,0.75466263,0.59407115,-0.6775635,0.2166504,-0.4885254,105.0
35385,-0.13663326,0.75466263,0.59407115,-1.0821899,0.31435546,-0.69349366,105.0
35386,-0.05894041,0.36613244,0.42911434,-1.0821899,0.31435546,-0.69349366,105.0
35387,-0.05894041,0.36613244,0.42911434,-0.71367186,0.3430298,-0.8050049,105.0
35388,-0.066488266,-0.22602719,0.179937,-0.71367186,0.3430298,-0.8050049,105.0
35389,-0.066488266,-0.22602719,0.179937,-0.39294434,0.22727051,-0.9133301,105.0
35390,-0.049565136,-0.24235743,-0.02682674,-0.39294434,0.22727051,-0.9133301,105.0
35391,-0.049565136,-0.24235743,-0.02682674,-0.22302246,0.06903076,-0.80819094,105.0
35392,-0.017056882,-0.18524337,-0.23642722,-0.22302246,0.06903076,-0.80819094,105.0
35393,-0.017056882,-0.18524337,-0.23642722,-0.15080567,-0.015930176,-0.6085327,105.0
35394,-0.18171191,-0.31379527,-0.33143914,-0.15080567,-0.015930176,-0.6085327,105.0
35395,-0.18171191,-0.31379527,-0.33143914,-0.13912354,-0.021240234,-0.4088745,105.0
35396,-0.1968588,-0.3369981,-0.31353998,-0.13912354,-0.021240234,-0.4088745,105.0
35397,-0.1968588,-0.3369981,-0.31353998,-0.8336792,-0.05628662,-0.40356445,105.0
35398,0.26369217,-0.94196177,-0.5840473,-0.8336792,-0.05628662,-0.40356445,105.0
35399,0.26369217,-0.94196177,-0.5840473,-0.1985962,-0.007434082,-0.15505372,105.0
35400,0.66107583,-1.4115772,-0.9886124,-0.1985962,-0.007434082,-0.15505372,105.0
35401,0.66107583,-1.4115772,-0.9886124,0.62977296,-0.016992187,0.10195313,105.0
35402,0.580826,-0.75726473,-0.88936406,0.62977296,-0.016992187,0.10195313,105.0
35403,0.580826,-0.75726473,-0.88936406,0.724292,-0.019116212,0.093457036,105.0
35404,0.2009401,0.2593127,-0.1699019,0.724292,-0.019116212,0.093457036,105.0
35405,0.2009401,0.2593127,-0.1699019,0.23045655,0.0053100586,-0.09239502,105.0
35406,-0.10583727,0.73968893,0.58929825,0.23045655,0.0053100586,-0.09239502,105.0
35407,-0.10583727,0.73968893,0.58929825,-0.03079834,0.026550293,-0.20921631,105.0
35408,-0.18023866,0.6581452,0.84840393,-0.03079834,0.026550293,-0.20921631,105.0
35409,-0.18023866,0.6581452,0.84840393,-0.3164795,0.06159668,-0.22514649,105.0
35410,-0.10300441,0.23669684,0.5684204,-0.3164795,0.06159668,-0.22514649,105.0
35411,-0.10300441,0.23669684,0.5684204,-0.24957275,0.038232423,-0.10938721,105.0
35412,-0.05991818,-0.2084819,0.13565674,-0.24957275,0.038232423,-0.10938721,105.0
35413,-0.05991818,-0.2084819,0.13565674,-0.098767094,0.0021240234,-0.029736329,105.0
35414,-0.074106425,-0.47913903,-0.19273193,-0.098767094,0.0021240234,-0.029736329,105.0
35415,-0.074106425,-0.47913903,-0.19273193,0.1178833,-0.033984374,0.07327881,105.0
35416,-0.07277392,-0.58299387,-0.55976415,0.1178833,-0.033984374,0.07327881,105.0
35417,-0.07277392,-0.58299387,-0.55976415,0.5713623,-0.05628662,0.06690674,105.0
35418,-0.03307265,-0.333607,-0.7102869,0.5713623,-0.05628662,0.06690674,105.0
35419,-0.03307265,-0.333607,-0.7102869,0.8400513,-0.10407715,-0.004248047,105.0
35420,0.043634653,0.10412271,-0.25465533,0.8400513,-0.10407715,-0.004248047,105.0
35421,0.043634653,0.10412271,-0.25465533,0.7476563,-0.1178833,-0.04885254,105.0
35422,0.13341847,0.6456029,0.5412464,0.7476563,-0.1178833,-0.04885254,105.0
35423,0.13341847,0.6456029,0.5412464,0.46409914,0.039294433,0.032922365,105.0
35424,0.08550675,1.2014189,1.0353165,0.46409914,0.039294433,0.032922365,105.0
35425,0.08550675,1.2014189,1.0353165,-0.22089843,0.083898924,0.08602295,105.0
35426,-0.13324255,1.0903953,0.8147156,-0.22089843,0.083898924,0.08602295,105.0
35427,-0.13324255,1.0903953,0.8147156,-0.635083,0.047790527,0.04141846,105.0
35428,-0.31430888,0.22550231,0.104201704,-0.635083,0.047790527,0.04141846,105.0
35429,-0.31430888,0.22550231,0.104201704,-0.631897,-0.0637207,-0.038232423,105.0
35430,-0.2587347,-0.6145689,-0.617249,-0.631897,-0.0637207,-0.038232423,105.0
35431,-0.2587347,-0.6145689,-0.617249,-0.1731079,-0.07434082,-0.06690674,105.0
35432,-0.040544897,-1.1553026,-0.8466312,-0.1731079,-0.07434082,-0.06690674,105.0
35433,-0.040544897,-1.1553026,-0.8466312,0.5150757,-0.0722168,-0.06690674,105.0
35434,0.17283751,-0.86032605,-0.3918802,0.5150757,-0.0722168,-0.06690674,105.0
35435,0.17283751,-0.86032605,-0.3918802,0.54906005,-0.026550293,0.0031860352,105.0
35436,0.20980321,0.23200281,0.26305833,0.54906005,-0.026550293,0.0031860352,105.0
35437,0.20980321,0.23200281,0.26305833,0.13806152,-0.025488282,0.03186035,105.0
35438,0.06836747,0.8790959,0.53117424,0.13806152,-0.025488282,0.03186035,105.0
35439,0.06836747,0.8790959,0.53117424,-0.11469727,0.0010620117,-0.032922365,105.0
35440,-0.10387537,0.71001506,0.32959026,-0.11469727,0.0010620117,-0.032922365,105.0
35441,-0.10387537,0.71001506,0.32959026,-0.14230958,0.026550293,-0.09133301,105.0
35442,-0.15995577,-0.022442073,0.038879722,-0.14230958,0.026550293,-0.09133301,105.0
35443,-0.15995577,-0.022442073,0.038879722,0.007434082,0.023364259,-0.07434082,105.0
35444,-0.06761305,-0.63313925,-0.11479467,0.007434082,0.023364259,-0.07434082,105.0
35445,-0.06761305,-0.63313925,-0.11479467,0.18479005,0.03717041,-0.019116212,105.0
35446,0.07415663,-0.5616505,-0.2214378,0.18479005,0.03717041,-0.019116212,105.0
35447,0.07415663,-0.5616505,-0.2214378,0.26550293,-0.0063720704,0.032922365,105.0
35448,0.10640782,-0.16881508,-0.25995052,0.26550293,-0.0063720704,0.032922365,105.0
35449,0.10640782,-0.16881508,-0.25995052,0.26868898,-0.06690674,0.0021240234,105.0
35450,0.03435722,0.21408124,-0.14736472,0.26868898,-0.06690674,0.0021240234,105.0
35451,0.03435722,0.21408124,-0.14736472,0.23151855,-0.04460449,-0.040356446,105.0
35452,-0.014738351,0.33646274,0.06632453,0.23151855,-0.04460449,-0.040356446,105.0
35453,-0.014738351,0.33646274,0.06632453,0.21134034,0.0021240234,-0.058410645,105.0
35454,0.036524758,0.1702322,0.20594049,0.21134034,0.0021240234,-0.058410645,105.0
35455,0.036524758,0.1702322,0.20594049,0.22302246,0.052038576,-0.009558106,105.0
35456,0.05166854,0.20249438,0.27687398,0.22302246,0.052038576,-0.009558106,105.0
35457,0.05166854,0.20249438,0.27687398,-0.050976563,0.038232423,-0.008496094,105.0
35458,-0.05262269,0.23009855,0.2886867,-0.050976563,0.038232423,-0.008496094,105.0
35459,-0.05262269,0.23009855,0.2886867,-0.2442627,-0.014868164,0.014868164,105.0
35460,-0.13813087,-0.041885525,0.08207241,-0.2442627,-0.014868164,0.014868164,105.0
35461,-0.13813087,-0.041885525,0.08207241,-0.20178223,-0.028674318,0.0021240234,105.0
35462,-0.11056572,-0.36431897,-0.29712284,-0.20178223,-0.028674318,0.0021240234,105.0
35463,-0.11056572,-0.36431897,-0.29712284,0.14655761,-0.020178223,-0.057348635,105.0
35464,0.03863482,-0.36914074,-0.36517632,0.14655761,-0.020178223,-0.057348635,105.0
35465,0.03863482,-0.36914074,-0.36517632,0.23682861,-0.033984374,-0.03186035,105.0
35466,0.15007289,0.083349526,-0.05868157,0.23682861,-0.033984374,-0.03186035,105.0
35467,0.15007289,0.083349526,-0.05868157,0.021240234,-0.007434082,0.03079834,105.0
35468,0.07502659,0.38138908,0.147232,0.021240234,-0.007434082,0.03079834,105.0
35469,0.07502659,0.38138908,0.147232,-0.0722168,0.004248047,0.0010620117,105.0
35470,-0.03912425,0.22290912,0.13885494,-0.0722168,0.004248047,0.0010620117,105.0
35471,-0.03912425,0.22290912,0.13885494,-0.039294433,0.004248047,-0.03717041,105.0
35472,-0.086218834,0.0029244423,0.091052204,-0.039294433,0.004248047,-0.03717041,105.0
35473,-0.086218834,0.0029244423,0.091052204,-0.08920898,0.0021240234,-0.06159668,105.0
35474,-0.068682104,-0.18589288,0.04837887,-0.08920898,0.0021240234,-0.06159668,105.0
35475,-0.068682104,-0.18589288,0.04837887,-0.09133301,-0.028674318,-0.021240234,105.0
35476,-0.0050067157,-0.30679536,-0.047209978,-0.09133301,-0.028674318,-0.021240234,105.0
35477,-0.0050067157,-0.30679536,-0.047209978,0.07646485,0.0063720704,0.046728518,105.0
35478,0.04122168,-0.19402027,-0.15971623,0.07646485,0.0063720704,0.046728518,105.0
35479,0.04122168,-0.19402027,-0.15971623,0.16142578,-0.025488282,0.008496094,105.0
35480,0.06642461,0.037984475,-0.1321187,0.16142578,-0.025488282,0.008496094,105.0
35481,0.06642461,0.037984475,-0.1321187,0.13487549,-0.0063720704,-0.0021240234,105.0
35482,0.06126958,0.24811219,0.030694209,0.13487549,-0.0063720704,-0.0021240234,105.0
35483,0.06126958,0.24811219,0.030694209,-0.0063720704,-0.009558106,0.008496094,105.0
35484,0.00687699,0.2945469,0.11652315,-0.0063720704,-0.009558106,0.008496094,105.0
35485,0.00687699,0.2945469,0.11652315,-0.10620117,0.004248047,-0.007434082,105.0
35486,-0.029959828,0.115801096,0.08012037,-0.10620117,0.004248047,-0.007434082,105.0
35487,-0.029959828,0.115801096,0.08012037,-0.13699952,-0.009558106,-0.03717041,105.0
35488,-0.046270102,-0.12800121,0.041537702,-0.13699952,-0.009558106,-0.03717041,105.0
35489,-0.046270102,-0.12800121,0.041537702,-0.1178833,0.0063720704,-0.04141846,105.0
35490,-0.046270102,-0.12800121,0.041537702,-0.1178833,0.0063720704,-0.04141846,105.0
35491,-0.039640605,-0.21829453,0.040456727,-0.1178833,0.0063720704,-0.04141846,105.0
35492,-0.039640605,-0.21829453,0.040456727,-0.07327881,0.012744141,-0.027612304,105.0
35493,0.003626883,-0.12965271,-0.009248391,-0.07327881,0.012744141,-0.027612304,105.0
35494,0.003626883,-0.12965271,-0.009248391,-0.0180542,0.03186035,0.012744141,105.0
35495,0.021834612,-0.051573724,-0.13939334,-0.0180542,0.03186035,0.012744141,105.0
35496,0.021834612,-0.051573724,-0.13939334,0.05522461,-0.023364259,0.0010620117,105.0
35497,0.011767,-0.029979676,-0.17014505,0.05522461,-0.023364259,0.0010620117,105.0
35498,0.011767,-0.029979676,-0.17014505,0.07965088,-0.023364259,-0.012744141,105.0
35499,0.012697294,0.09435123,-0.014900215,0.07965088,-0.023364259,-0.012744141,105.0
35500,0.012697294,0.09435123,-0.014900215,-0.026550293,-0.012744141,-0.021240234,105.0
35501,0.032008424,0.17560306,0.1612976,-0.026550293,-0.012744141,-0.021240234,105.0
35502,0.032008424,0.17560306,0.1612976,-0.11682129,0.039294433,-0.023364259,105.0
35503,0.037154585,0.18341458,0.21197265,-0.11682129,0.039294433,-0.023364259,105.0
35504,0.037154585,0.18341458,0.21197265,-0.25594482,0.027612304,-0.04141846,105.0
35505,-0.014648885,0.07966623,0.11447558,-0.25594482,0.027612304,-0.04141846,105.0
35506,-0.014648885,0.07966623,0.11447558,-0.28674316,-0.019116212,-0.046728518,105.0
35507,-0.050281122,-0.1770629,-0.017709091,-0.28674316,-0.019116212,-0.046728518,105.0
35508,-0.050281122,-0.1770629,-0.017709091,-0.21240234,-0.008496094,-0.015930176,105.0
35509,-0.0034695268,-0.39348137,-0.20806377,-0.21240234,-0.008496094,-0.015930176,105.0
35510,-0.0034695268,-0.39348137,-0.20806377,0.040356446,0.020178223,0.013806152,105.0
35511,0.08092798,-0.37306148,-0.30785728,0.040356446,0.020178223,0.013806152,105.0
35512,0.08092798,-0.37306148,-0.30785728,0.24107666,0.009558106,0.029736329,105.0
35513,0.07658321,-0.017016076,-0.15140057,0.24107666,0.009558106,0.029736329,105.0
35514,0.07658321,-0.017016076,-0.15140057,0.12000733,-0.015930176,0.013806152,105.0
35515,-0.006848663,0.2967021,0.06808853,0.12000733,-0.015930176,0.013806152,105.0
35516,-0.006848663,0.2967021,0.06808853,0.022302246,-0.027612304,-0.004248047,105.0
35517,-0.061130792,0.2655111,0.22330627,0.022302246,-0.027612304,-0.004248047,105.0
35518,-0.061130792,0.2655111,0.22330627,-0.027612304,0.022302246,-0.014868164,105.0
35519,-0.07908042,0.18244061,0.1980542,-0.027612304,0.022302246,-0.014868164,105.0
35520,-0.07908042,0.18244061,0.1980542,-0.11363526,0.013806152,-0.0637207,105.0
35521,-0.028791681,-0.050763816,0.021468252,-0.11363526,0.013806152,-0.0637207,105.0
35522,-0.028791681,-0.050763816,0.021468252,-0.08283692,0.0,-0.0180542,105.0
35523,0.09777965,-0.53364086,-0.1887458,-0.08283692,0.0,-0.0180542,105.0
35524,0.09777965,-0.53364086,-0.1887458,0.31860352,0.023364259,0.10301514,105.0
35525,0.22873642,-0.810482,-0.3703692,0.31860352,0.023364259,0.10301514,105.0
35526,0.22873642,-0.810482,-0.3703692,0.72004396,0.0180542,0.18903808,105.0
35527,0.30050623,-0.7295135,-0.47234517,0.72004396,0.0180542,0.18903808,105.0
35528,0.30050623,-0.7295135,-0.47234517,1.0471436,0.0010620117,0.2984253,105.0
35529,0.34283417,-0.55354494,-0.4515456,1.0471436,0.0010620117,0.2984253,105.0
35530,0.34283417,-0.55354494,-0.4515456,1.4177856,0.045666505,0.41418457,105.0
35531,0.39139384,-0.38667142,-0.28477162,1.4177856,0.045666505,0.41418457,105.0
35532,0.39139384,-0.38667142,-0.28477162,1.6737305,0.12956543,0.5129517,105.0
35533,0.3339769,0.12535524,-0.065927655,1.6737305,0.12956543,0.5129517,105.0
35534,0.3339769,0.12535524,-0.065927655,1.5218629,0.14230958,0.4991455,105.0
35535,0.09498912,0.84059185,0.20472857,1.5218629,0.14230958,0.4991455,105.0
35536,0.09498912,0.84059185,0.20472857,1.080066,0.14549561,0.56605226,105.0
35537,-0.29159904,1.0233035,0.4985729,1.080066,0.14549561,0.56605226,105.0
35538,-0.29159904,1.0233035,0.4985729,0.65419924,0.03717041,0.5607422,105.0
35539,-0.48712444,0.63272977,0.68378264,0.65419924,0.03717041,0.5607422,105.0
35540,-0.48712444,0.63272977,0.68378264,0.09133301,-0.09133301,0.35152587,105.0
35541,-0.5759789,0.40048313,0.56001437,0.09133301,-0.09133301,0.35152587,105.0
35542,-0.5759789,0.40048313,0.56001437,-0.44816896,-0.11682129,0.23364258,105.0
35543,-0.8708905,0.4210335,0.11101201,-0.44816896,-0.11682129,0.23364258,105.0
35544,-0.8708905,0.4210335,0.11101201,-0.46622315,0.015930176,0.25594482,105.0
35545,-0.7971763,0.5958722,0.041006878,-0.46622315,0.015930176,0.25594482,105.0
35546,-0.7971763,0.5958722,0.041006878,0.13168946,0.023364259,-0.083898924,105.0
35547,-0.23815608,0.8746226,0.34611118,0.13168946,0.023364259,-0.083898924,105.0
35548,-0.23815608,0.8746226,0.34611118,-0.4067505,0.02442627,-0.17735596,105.0
35549,0.26743412,0.35959798,0.15395191,-0.4067505,0.02442627,-0.17735596,105.0
35550,0.26743412,0.35959798,0.15395191,-0.35471192,0.023364259,-0.12000733,105.0
35551,0.5137154,-0.64595205,-0.40491465,-0.35471192,0.023364259,-0.12000733,105.0
35552,0.5137154,-0.64595205,-0.40491465,-0.08496094,0.0180542,0.020178223,105.0
35553,0.41763735,-1.1641005,-0.68076766,-0.08496094,0.0180542,0.020178223,105.0
35554,0.41763735,-1.1641005,-0.68076766,0.2081543,-0.046728518,0.13168946,105.0
35555,0.12804298,-0.9551086,-0.53152823,0.2081543,-0.046728518,0.13168946,105.0
35556,0.12804298,-0.9551086,-0.53152823,0.39400634,-0.07752686,0.13168946,105.0
35557,-0.085737005,-0.35468745,-0.2027128,0.39400634,-0.07752686,0.13168946,105.0
35558,-0.085737005,-0.35468745,-0.2027128,0.3993164,-0.10089111,0.040356446,105.0
35559,-0.09791088,0.31013432,0.18897721,0.3993164,-0.10089111,0.040356446,105.0
35560,-0.09791088,0.31013432,0.18897721,0.1359375,-0.083898924,0.0053100586,105.0
35561,0.020267487,0.82000685,0.48272476,0.1359375,-0.083898924,0.0053100586,105.0
35562,0.020267487,0.82000685,0.48272476,-0.12000733,-0.06584473,0.010620117,105.0
35563,0.09200744,0.8192624,0.4408551,-0.12000733,-0.06584473,0.010620117,105.0
35564,0.09200744,0.8192624,0.4408551,-0.33984375,-0.08071289,-0.007434082,105.0
35565,0.075693354,0.23963845,0.17535254,-0.33984375,-0.08071289,-0.007434082,105.0
35566,0.075693354,0.23963845,0.17535254,-0.33134767,-0.09133301,0.035046387,105.0
35567,0.02744922,-0.35290593,-0.045765325,-0.33134767,-0.09133301,0.035046387,105.0
35568,0.02744922,-0.35290593,-0.045765325,-0.28568116,-0.08496094,0.0722168,105.0
35569,0.01773575,-0.53745174,-0.14392427,-0.28568116,-0.08496094,0.0722168,105.0
35570,0.01773575,-0.53745174,-0.14392427,-0.22727051,-0.06478272,0.06159668,105.0
35571,0.04148352,-0.3431938,-0.08882105,-0.22727051,-0.06478272,0.06159668,105.0
35572,0.04148352,-0.3431938,-0.08882105,-0.21558838,-0.06903076,0.07965088,105.0
35573,0.02982989,-0.0088934,0.03865996,-0.21558838,-0.06903076,0.07965088,105.0
35574,0.02982989,-0.0088934,0.03865996,-0.17629395,-0.08283692,0.1359375,105.0
35575,0.008055806,0.12523392,0.047126696,-0.17629395,-0.08283692,0.1359375,105.0
35576,0.008055806,0.12523392,0.047126696,-0.26656494,-0.1083252,0.10301514,105.0
35577,0.008898258,-0.07995203,-0.067523256,-0.26656494,-0.1083252,0.10301514,105.0
35578,0.008898258,-0.07995203,-0.067523256,-0.25594482,-0.06796875,0.06265869,105.0
35579,-0.00683403,-0.38461593,-0.17251226,-0.25594482,-0.06796875,0.06265869,105.0
35580,-0.00683403,-0.38461593,-0.17251226,-0.07752686,-0.0637207,0.039294433,105.0
35581,-0.028868094,-0.39382556,-0.1739229,-0.07752686,-0.0637207,0.039294433,105.0
35582,-0.028868094,-0.39382556,-0.1739229,0.083898924,-0.06903076,0.029736329,105.0
35583,-0.028868094,-0.39382556,-0.1739229,0.083898924,-0.06903076,0.029736329,105.0
35584,-0.021812737,0.015359476,0.017270371,0.083898924,-0.06903076,0.029736329,105.0
35585,-0.021812737,0.015359476,0.017270371,0.0021240234,-0.06584473,-0.022302246,105.0
35586,-0.021332026,0.5800977,0.3620829,0.0021240234,-0.06584473,-0.022302246,105.0
35587,-0.021332026,0.5800977,0.3620829,-0.26444092,-0.121069334,-0.0053100586,105.0
35588,-0.055017292,0.59884375,0.49116778,-0.26444092,-0.121069334,-0.0053100586,105.0
35589,-0.055017292,0.59884375,0.49116778,-0.5214478,-0.1709839,0.08602295,105.0
35590,-0.16011491,-0.028334677,0.10903531,-0.5214478,-0.1709839,0.08602295,105.0
35591,-0.16011491,-0.028334677,0.10903531,-0.5872925,-0.20284425,0.07327881,105.0
35592,-0.14935657,-0.43690115,-0.4397859,-0.5872925,-0.20284425,0.07327881,105.0
35593,-0.14935657,-0.43690115,-0.4397859,-0.30267334,-0.07965088,-0.0361084,105.0
35594,0.18318808,-0.3880341,-0.6728004,-0.30267334,-0.07965088,-0.0361084,105.0
35595,0.18318808,-0.3880341,-0.6728004,0.020178223,0.083898924,0.06478272,105.0
35596,0.46591082,-0.3026514,-0.59340394,0.020178223,0.083898924,0.06478272,105.0
35597,0.46591082,-0.3026514,-0.59340394,0.21346436,0.16461182,0.08814698,105.0
35598,0.4158561,-0.16350785,-0.2552163,0.21346436,0.16461182,0.08814698,105.0
35599,0.4158561,-0.16350785,-0.2552163,0.21027832,0.07752686,0.039294433,105.0
35600,0.15126398,0.23762634,0.20211357,0.21027832,0.07752686,0.039294433,105.0
35601,0.15126398,0.23762634,0.20211357,-0.1274414,0.04460449,0.0010620117,105.0
35602,-0.058798384,0.49705908,0.3327602,-0.1274414,0.04460449,0.0010620117,105.0
35603,-0.058798384,0.49705908,0.3327602,-0.3430298,0.04248047,-0.070092775,105.0
35604,-0.1402516,0.2701326,0.15378141,-0.3430298,0.04248047,-0.070092775,105.0
35605,-0.1402516,0.2701326,0.15378141,-0.25063476,0.038232423,-0.12319336,105.0
35606,-0.1557926,-0.094868064,0.029946513,-0.25063476,0.038232423,-0.12319336,105.0
35607,-0.1557926,-0.094868064,0.029946513,-0.17735596,0.05628662,-0.16248779,105.0
35608,-0.12104521,-0.1768466,0.08292938,-0.17735596,0.05628662,-0.16248779,105.0
35609,-0.12104521,-0.1768466,0.08292938,-0.16992188,0.059472658,-0.16354981,105.0
35610,-0.06694114,0.01985085,0.16375563,-0.16992188,0.059472658,-0.16354981,105.0
35611,-0.06694114,0.01985085,0.16375563,-0.28568116,0.02442627,-0.16673584,105.0
35612,-0.030737966,0.1250726,0.17321642,-0.28568116,0.02442627,-0.16673584,105.0
35613,-0.030737966,0.1250726,0.17321642,-0.47578126,-0.0021240234,-0.19328614,105.0
35614,-0.030840367,-0.003372103,0.08726698,-0.47578126,-0.0021240234,-0.19328614,105.0
35615,-0.030840367,-0.003372103,0.08726698,-0.50020754,-0.029736329,-0.18903808,105.0
35616,-0.045778245,-0.18131098,-0.03386073,-0.50020754,-0.029736329,-0.18903808,105.0
35617,-0.045778245,-0.18131098,-0.03386073,-0.4354248,-0.011682129,-0.22408448,105.0
35618,-0.021620154,-0.17660396,-0.077357136,-0.4354248,-0.011682129,-0.22408448,105.0
35619,-0.021620154,-0.17660396,-0.077357136,-0.3430298,0.04460449,-0.2166504,105.0
35620,0.03419313,0.107825726,0.024430215,-0.3430298,0.04460449,-0.2166504,105.0
35621,0.03419313,0.107825726,0.024430215,-0.44710693,0.081774905,-0.2166504,105.0
35622,0.07830665,0.38712728,0.15493235,-0.44710693,0.081774905,-0.2166504,105.0
35623,0.07830665,0.38712728,0.15493235,-0.58623046,0.08602295,-0.18479005,105.0
35624,0.040294252,0.39070767,0.18188046,-0.58623046,0.08602295,-0.18479005,105.0
35625,0.040294252,0.39070767,0.18188046,-0.6839356,0.0637207,-0.13487549,105.0
35626,-0.023990184,0.17097676,0.06591453,-0.6839356,0.0637207,-0.13487549,105.0
35627,-0.023990184,0.17097676,0.06591453,-0.72641605,0.04248047,-0.11257324,105.0
35628,-0.038772225,-0.20279378,-0.10438508,-0.72641605,0.04248047,-0.11257324,105.0
35629,-0.038772225,-0.20279378,-0.10438508,-0.62764895,0.046728518,-0.04141846,105.0
35630,-0.034765348,-0.53047234,-0.2160398,-0.62764895,0.046728518,-0.04141846,105.0
35631,-0.034765348,-0.53047234,-0.2160398,-0.3451538,0.04991455,-0.08920898,105.0
35632,0.005561739,-0.27423137,-0.13751692,-0.3451538,0.04991455,-0.08920898,105.0
35633,0.005561739,-0.27423137,-0.13751692,-0.42905274,0.09239502,-0.115759276,105.0
35634,0.03357537,0.32885706,0.08144155,-0.42905274,0.09239502,-0.115759276,105.0
35635,0.03357537,0.32885706,0.08144155,-0.6000366,0.10407715,-0.107263185,105.0
35636,-0.032026425,0.479614,0.2077924,-0.6000366,0.10407715,-0.107263185,105.0
35637,-0.032026425,0.479614,0.2077924,-0.62764895,0.05628662,-0.028674318,105.0
35638,-0.11387798,0.052367955,0.11268169,-0.62764895,0.05628662,-0.028674318,105.0
35639,-0.11387798,0.052367955,0.11268169,-0.47578126,0.020178223,-0.059472658,105.0
35640,-0.08736704,-0.46633318,-0.0845861,-0.47578126,0.020178223,-0.059472658,105.0
35641,-0.08736704,-0.46633318,-0.0845861,-0.22302246,-0.028674318,0.038232423,105.0
35642,-0.015645593,-0.66438735,-0.20811078,-0.22302246,-0.028674318,0.038232423,105.0
35643,-0.015645593,-0.66438735,-0.20811078,-0.038232423,-0.05628662,0.060534667,105.0
35644,-0.009806514,-0.49097037,-0.1930267,-0.038232423,-0.05628662,0.060534667,105.0
35645,-0.009806514,-0.49097037,-0.1930267,0.07752686,-0.070092775,0.050976563,105.0
35646,-0.017500982,-0.13663615,-0.061098613,0.07752686,-0.070092775,0.050976563,105.0
35647,-0.017500982,-0.13663615,-0.061098613,0.11469727,-0.059472658,0.035046387,105.0
35648,0.038342968,0.21355486,0.10419728,0.11469727,-0.059472658,0.035046387,105.0
35649,0.038342968,0.21355486,0.10419728,0.03717041,-0.04141846,0.0021240234,105.0
35650,0.11575739,0.388422,0.1883505,0.03717041,-0.04141846,0.0021240234,105.0
35651,0.11575739,0.388422,0.1883505,-0.050976563,-0.021240234,-0.0021240234,105.0
35652,0.1279941,0.27902374,0.12309252,-0.050976563,-0.021240234,-0.0021240234,105.0
35653,0.1279941,0.27902374,0.12309252,-0.046728518,-0.025488282,0.0021240234,105.0
35654,0.057363547,0.054285884,-0.0070679784,-0.046728518,-0.025488282,0.0021240234,105.0
35655,0.057363547,0.054285884,-0.0070679784,-0.029736329,-0.020178223,-0.014868164,105.0
35656,-0.0091995,-0.050418958,-0.071804285,-0.029736329,-0.020178223,-0.014868164,105.0
35657,-0.0091995,-0.050418958,-0.071804285,-0.040356446,-0.014868164,0.08283692,105.0
35658,-0.045115948,-0.11673899,-0.06922321,-0.040356446,-0.014868164,0.08283692,105.0
35659,-0.045115948,-0.11673899,-0.06922321,0.010620117,0.016992187,-0.027612304,105.0
35660,-0.03381005,-0.13960701,-0.026081696,0.010620117,0.016992187,-0.027612304,105.0
35661,-0.03381005,-0.13960701,-0.026081696,0.06796875,0.009558106,-0.019116212,105.0
35662,0.013674617,0.03697163,0.044320196,0.06796875,0.009558106,-0.019116212,105.0
35663,0.013674617,0.03697163,0.044320196,0.02442627,0.0053100586,-0.013806152,105.0
35664,0.01191625,0.20013395,0.093683705,0.02442627,0.0053100586,-0.013806152,105.0
35665,0.01191625,0.20013395,0.093683705,-0.06265869,-0.009558106,-0.014868164,105.0
35666,0.22763604,0.32103246,0.016035825,-0.06265869,-0.009558106,-0.014868164,105.0
35667,0.22763604,0.32103246,0.016035825,-0.124255374,0.020178223,0.039294433,105.0
35668,0.15084663,0.15628886,-0.056910113,-0.124255374,0.020178223,0.039294433,105.0
35669,0.15084663,0.15628886,-0.056910113,-0.3079834,0.22302246,0.0361084,105.0
35670,-0.2084853,-0.22887516,-0.023714125,-0.3079834,0.22302246,0.0361084,105.0
35671,-0.2084853,-0.22887516,-0.023714125,-0.038232423,-0.010620117,-0.03079834,105.0
35672,-0.16503043,-0.28750688,-0.008046001,-0.038232423,-0.010620117,-0.03079834,105.0
35673,-0.16503043,-0.28750688,-0.008046001,0.004248047,0.0021240234,-0.014868164,105.0
35674,-0.04352337,-0.1353888,-0.022293732,0.004248047,0.0021240234,-0.014868164,105.0
35675,-0.04352337,-0.1353888,-0.022293732,-0.0031860352,0.008496094,-0.014868164,105.0
35676,0.04066959,0.011549801,-0.0022466034,-0.0031860352,0.008496094,-0.014868164,105.0
35677,0.04066959,0.011549801,-0.0022466034,-0.033984374,0.014868164,-0.020178223,105.0
35678,0.048404813,0.0739249,0.018490806,-0.033984374,0.014868164,-0.020178223,105.0
35679,0.048404813,0.0739249,0.018490806,-0.05628662,0.023364259,-0.021240234,105.0
35680,0.015445039,0.16392508,0.060263842,-0.05628662,0.023364259,-0.021240234,105.0
35681,0.015445039,0.16392508,0.060263842,-0.1274414,0.033984374,-0.013806152,105.0
35682,0.008596264,0.13415521,0.05825746,-0.1274414,0.033984374,-0.013806152,105.0
35683,0.008596264,0.13415521,0.05825746,-0.1274414,0.035046387,-0.019116212,105.0
35684,-0.09193891,0.14636225,0.11063185,-0.1274414,0.035046387,-0.019116212,105.0
35685,-0.09193891,0.14636225,0.11063185,-0.19222413,0.0637207,-0.060534667,105.0
35686,-0.10028453,0.1325683,0.1152633,-0.19222413,0.0637207,-0.060534667,105.0
35687,-0.10028453,0.1325683,0.1152633,-0.26125488,0.07965088,-0.124255374,105.0
35688,-0.18325497,-0.09068608,0.05095087,-0.26125488,0.07965088,-0.124255374,105.0
35689,-0.18325497,-0.09068608,0.05095087,-0.3090454,0.11363526,-0.3079834,105.0
35690,-0.17991696,-0.10453129,0.046412557,-0.3090454,0.11363526,-0.3079834,105.0
35691,-0.17991696,-0.10453129,0.046412557,-0.26444092,0.11257324,-0.3706421,105.0
35692,-0.13245898,0.32459033,0.31558466,-0.26444092,0.11257324,-0.3706421,105.0
35693,-0.13245898,0.32459033,0.31558466,-0.6435791,0.06903076,-0.362146,105.0
35694,-0.065635145,0.5743085,0.4459492,-0.6435791,0.06903076,-0.362146,105.0
35695,-0.065635145,0.5743085,0.4459492,-0.9505005,0.007434082,-0.26550293,105.0
35696,0.21666913,0.17673194,0.21524322,-0.9505005,0.007434082,-0.26550293,105.0
35697,0.21666913,0.17673194,0.21524322,-1.3115845,-0.047790527,-0.1274414,105.0
35698,0.21666913,0.17673194,0.21524322,-1.3115845,-0.047790527,-0.1274414,105.0
35699,0.31475377,-0.308529,-0.20953149,-1.3115845,-0.047790527,-0.1274414,105.0
35700,0.31475377,-0.308529,-0.20953149,-0.9133301,0.004248047,-0.06690674,105.0
35701,0.64956915,-1.5247285,-1.590074,-0.9133301,0.004248047,-0.06690674,105.0
35702,0.64956915,-1.5247285,-1.590074,0.3706421,0.052038576,0.04248047,105.0
35703,0.509731,-1.1178541,-1.3532847,0.3706421,0.052038576,0.04248047,105.0
35704,0.509731,-1.1178541,-1.3532847,0.41737062,0.0010620117,0.010620117,105.0
35705,0.13582435,-0.1031456,-0.42107993,0.41737062,0.0010620117,0.010620117,105.0
35706,0.13582435,-0.1031456,-0.42107993,0.16779785,-0.023364259,-0.022302246,105.0
35707,-0.20374286,0.6463043,0.6251722,0.16779785,-0.023364259,-0.022302246,105.0
35708,-0.20374286,0.6463043,0.6251722,-0.07540283,0.033984374,-0.05628662,105.0
35709,-0.26286003,0.8562891,0.9937291,-0.07540283,0.033984374,-0.05628662,105.0
35710,-0.26286003,0.8562891,0.9937291,-0.33134767,0.098767094,-0.04885254,105.0
35711,-0.17126215,0.40549028,0.68076205,-0.33134767,0.098767094,-0.04885254,105.0
35712,-0.17126215,0.40549028,0.68076205,-0.34090576,0.07646485,0.007434082,105.0
35713,-0.1553935,-0.3323949,0.09520781,-0.34090576,0.07646485,0.007434082,105.0
35714,-0.1553935,-0.3323949,0.09520781,-0.19116211,-0.052038576,-0.0031860352,105.0
35715,-0.20287925,-0.75033975,-0.3365901,-0.19116211,-0.052038576,-0.0031860352,105.0
35716,-0.20287925,-0.75033975,-0.3365901,0.035046387,-0.04460449,0.04141846,105.0
35717,-0.23282343,-0.85760826,-0.68675256,0.035046387,-0.04460449,0.04141846,105.0
35718,-0.23282343,-0.85760826,-0.68675256,0.57454836,-0.11044922,-0.0361084,105.0
35719,-0.06641011,-0.36238056,-0.60493183,0.57454836,-0.11044922,-0.0361084,105.0
35720,-0.06641011,-0.36238056,-0.60493183,0.65844727,-0.04141846,-0.078588866,105.0
35721,0.15704037,0.5172367,0.04832992,0.65844727,-0.04141846,-0.078588866,105.0
35722,0.15704037,0.5172367,0.04832992,0.32072756,-0.023364259,-0.083898924,105.0
35723,0.22990477,0.93427277,0.58262146,0.32072756,-0.023364259,-0.083898924,105.0
35724,0.22990477,0.93427277,0.58262146,-0.0031860352,0.0,-0.053100586,105.0
35725,0.16694383,0.7330139,0.6775474,-0.0031860352,0.0,-0.053100586,105.0
35726,0.16694383,0.7330139,0.6775474,-0.23682861,-0.0021240234,-0.033984374,105.0
35727,0.008933486,0.19477296,0.37713313,-0.23682861,-0.0021240234,-0.033984374,105.0
35728,0.008933486,0.19477296,0.37713313,-0.27718505,0.010620117,-0.010620117,105.0
35729,-0.14661297,-0.4392378,-0.04017581,-0.27718505,0.010620117,-0.010620117,105.0
35730,-0.14661297,-0.4392378,-0.04017581,0.0010620117,0.013806152,0.004248047,105.0
35731,-0.11812046,-0.6599962,-0.40892288,0.0010620117,0.013806152,0.004248047,105.0
35732,-0.11812046,-0.6599962,-0.40892288,0.24744873,-0.033984374,0.0010620117,105.0
35733,-0.05124686,-0.38156143,-0.39146936,0.24744873,-0.033984374,0.0010620117,105.0
35734,-0.05124686,-0.38156143,-0.39146936,0.31223145,-0.04885254,-0.013806152,105.0
35735,0.035711497,0.12757556,-0.2497966,0.31223145,-0.04885254,-0.013806152,105.0
35736,0.035711497,0.12757556,-0.2497966,0.3430298,0.009558106,-0.032922365,105.0
35737,0.053764515,0.4198827,0.0072305948,0.3430298,0.009558106,-0.032922365,105.0
35738,0.053764515,0.4198827,0.0072305948,0.24638672,0.046728518,-0.059472658,105.0
35739,0.09209608,0.26965863,0.2079207,0.24638672,0.046728518,-0.059472658,105.0
35740,0.09209608,0.26965863,0.2079207,0.21346436,0.083898924,-0.03079834,105.0
35741,0.10424327,0.08081479,0.3300817,0.21346436,0.083898924,-0.03079834,105.0
35742,0.10424327,0.08081479,0.3300817,0.06903076,0.0541626,0.032922365,105.0
35743,-0.037943274,0.06767918,0.30124798,0.06903076,0.0541626,0.032922365,105.0
35744,-0.037943274,0.06767918,0.30124798,-0.1444336,0.0021240234,0.033984374,105.0
35745,-0.22415344,-0.13905734,0.14995834,-0.1444336,0.0021240234,0.033984374,105.0
35746,-0.22415344,-0.13905734,0.14995834,-0.11682129,-0.03717041,0.009558106,105.0
35747,-0.24209131,-0.3994661,-0.12537025,-0.11682129,-0.03717041,0.009558106,105.0
35748,-0.24209131,-0.3994661,-0.12537025,0.11257324,-0.012744141,-0.025488282,105.0
35749,-0.060299024,-0.32931408,-0.41181964,0.11257324,-0.012744141,-0.025488282,105.0
35750,-0.060299024,-0.32931408,-0.41181964,0.3525879,-0.040356446,-0.06796875,105.0
35751,0.1557891,0.11490566,-0.341736,0.3525879,-0.040356446,-0.06796875,105.0
35752,0.1557891,0.11490566,-0.341736,0.23895264,0.026550293,-0.070092775,105.0
35753,0.20191401,0.43983713,-0.020092897,0.23895264,0.026550293,-0.070092775,105.0
35754,0.20191401,0.43983713,-0.020092897,0.13487549,0.040356446,-0.095581055,105.0
35755,0.14663863,0.26718953,0.3093163,0.13487549,0.040356446,-0.095581055,105.0
35756,0.14663863,0.26718953,0.3093163,0.07965088,0.07646485,-0.019116212,105.0
35757,0.034303095,0.16809733,0.42867863,0.07965088,0.07646485,-0.019116212,105.0
35758,0.034303095,0.16809733,0.42867863,-0.17735596,0.03079834,-0.040356446,105.0
35759,-0.1242543,0.124748856,0.26923686,-0.17735596,0.03079834,-0.040356446,105.0
35760,-0.1242543,0.124748856,0.26923686,-0.3812622,0.0031860352,0.0031860352,105.0
35761,-0.18662268,-0.35934398,-0.04166618,-0.3812622,0.0031860352,0.0031860352,105.0
35762,-0.18662268,-0.35934398,-0.04166618,-0.12000733,-0.03717041,0.02442627,105.0
35763,-0.04895635,-0.76574665,-0.51648724,-0.12000733,-0.03717041,0.02442627,105.0
35764,-0.04895635,-0.76574665,-0.51648724,0.5171997,0.020178223,0.039294433,105.0
35765,0.23181881,-0.54713106,-0.69418347,0.5171997,0.020178223,0.039294433,105.0
35766,0.23181881,-0.54713106,-0.69418347,0.74022216,-0.014868164,0.06478272,105.0
35767,0.42388278,-0.22884253,-0.4632447,0.74022216,-0.014868164,0.06478272,105.0
35768,0.42388278,-0.22884253,-0.4632447,0.9154541,-0.03186035,0.21558838,105.0
35769,0.4253245,-0.3877005,-0.35058844,0.9154541,-0.03186035,0.21558838,105.0
35770,0.4253245,-0.3877005,-0.35058844,1.4039795,-0.053100586,0.3164795,105.0
35771,0.29287192,-0.5281414,-0.33875933,1.4039795,-0.053100586,0.3164795,105.0
35772,0.29287192,-0.5281414,-0.33875933,1.8255981,-0.11151123,0.4959595,105.0
35773,0.13269842,-0.047952533,-0.02287513,1.8255981,-0.11151123,0.4959595,105.0
35774,0.13269842,-0.047952533,-0.02287513,1.7916138,-0.022302246,0.63933104,105.0
35775,0.049676806,0.5460618,0.44327217,1.7916138,-0.022302246,0.63933104,105.0
35776,0.049676806,0.5460618,0.44327217,1.5717773,0.11682129,0.6754395,105.0
35777,-0.19633032,0.7171351,0.5740391,1.5717773,0.11682129,0.6754395,105.0
35778,-0.19633032,0.7171351,0.5740391,1.2361816,0.14655761,0.63720703,105.0
35779,-0.4642542,0.6865865,0.50741243,1.2361816,0.14655761,0.63720703,105.0
35780,-0.4642542,0.6865865,0.50741243,0.62977296,0.02442627,0.2824951,105.0
35781,-0.52952105,0.6542741,0.48261455,0.62977296,0.02442627,0.2824951,105.0
35782,-0.52952105,0.6542741,0.48261455,-0.03717041,-0.012744141,0.20496826,105.0
35783,-0.63190544,0.46436167,0.36825716,-0.03717041,-0.012744141,0.20496826,105.0
35784,-0.63190544,0.46436167,0.36825716,0.03079834,-0.019116212,0.019116212,105.0
35785,-0.62195504,-0.009711832,0.023499772,0.03079834,-0.019116212,0.019116212,105.0
35786,-0.62195504,-0.009711832,0.023499772,0.5033936,-0.020178223,-0.09664307,105.0
35787,-0.17904595,-0.26569182,-0.23841454,0.5033936,-0.020178223,-0.09664307,105.0
35788,-0.17904595,-0.26569182,-0.23841454,0.362146,0.09239502,-0.2081543,105.0
35789,0.34925592,0.14693141,-0.10423261,0.362146,0.09239502,-0.2081543,105.0
35790,0.34925592,0.14693141,-0.10423261,-0.11363526,0.13381349,-0.17735596,105.0
35791,0.51850384,0.48202267,0.06890884,-0.11363526,0.13381349,-0.17735596,105.0
35792,0.51850384,0.48202267,0.06890884,-0.37382814,0.09133301,-0.090270996,105.0
35793,0.36631677,0.052793443,-0.007458374,-0.37382814,0.09133301,-0.090270996,105.0
35794,0.36631677,0.052793443,-0.007458374,-0.2793091,0.045666505,0.0063720704,105.0
35795,0.13115156,-0.46037754,-0.15723623,-0.2793091,0.045666505,0.0063720704,105.0
35796,0.13115156,-0.46037754,-0.15723623,-0.2793091,0.045666505,0.0063720704,105.0
35797,0.13115156,-0.46037754,-0.15723623,-0.14974366,0.043542482,0.004248047,105.0
35798,-0.055784315,-0.40963504,-0.13854533,-0.14974366,0.043542482,0.004248047,105.0
35799,-0.055784315,-0.40963504,-0.13854533,-0.07434082,0.03717041,0.023364259,105.0
35800,-0.14703223,-0.032920435,0.007327795,-0.07434082,0.03717041,0.023364259,105.0
35801,-0.14703223,-0.032920435,0.007327795,-0.12850343,0.05522461,-0.0063720704,105.0
35802,-0.12761115,0.25321686,0.07031536,-0.12850343,0.05522461,-0.0063720704,105.0
35803,-0.12761115,0.25321686,0.07031536,-0.24107666,0.06159668,-0.028674318,105.0
35804,-0.089210495,0.233616,0.03585434,-0.24107666,0.06159668,-0.028674318,105.0
35805,-0.089210495,0.233616,0.03585434,-0.29099122,0.03186035,-0.039294433,105.0
35806,-0.0423889,-0.041769296,-0.031399533,-0.29099122,0.03186035,-0.039294433,105.0
35807,-0.0423889,-0.041769296,-0.031399533,-0.2177124,0.015930176,-0.052038576,105.0
35808,0.010266125,-0.29210684,-0.061008297,-0.2177124,0.015930176,-0.052038576,105.0
35809,0.010266125,-0.29210684,-0.061008297,-0.16461182,0.021240234,-0.032922365,105.0
35810,0.038339853,-0.3759218,-0.049929686,-0.16461182,0.021240234,-0.032922365,105.0
35811,0.038339853,-0.3759218,-0.049929686,-0.04248047,0.019116212,-0.007434082,105.0
35812,0.04698047,-0.31892592,-0.04652334,-0.04248047,0.019116212,-0.007434082,105.0
35813,0.04698047,-0.31892592,-0.04652334,0.08920898,-0.009558106,0.019116212,105.0
35814,0.05131729,-0.187172,-0.09883977,0.08920898,-0.009558106,0.019116212,105.0
35815,0.05131729,-0.187172,-0.09883977,0.24001466,-0.029736329,0.04141846,105.0
35816,0.02788245,-0.10285039,-0.15442583,0.24001466,-0.029736329,0.04141846,105.0
35817,0.02788245,-0.10285039,-0.15442583,0.27506104,-0.025488282,0.02442627,105.0
35818,-0.011617377,5.688071E-4,-0.07498109,0.27506104,-0.025488282,0.02442627,105.0
35819,-0.011617377,5.688071E-4,-0.07498109,0.0998291,-0.013806152,0.03186035,105.0
35820,-0.05090767,0.2800327,0.14893848,0.0998291,-0.013806152,0.03186035,105.0
35821,-0.05090767,0.2800327,0.14893848,0.033984374,-0.04460449,0.04141846,105.0
35822,-0.089358956,0.51164824,0.2832621,0.033984374,-0.04460449,0.04141846,105.0
35823,-0.089358956,0.51164824,0.2832621,0.012744141,-0.053100586,0.028674318,105.0
35824,-0.07811558,0.3697556,0.21045978,0.012744141,-0.053100586,0.028674318,105.0
35825,-0.07811558,0.3697556,0.21045978,-0.0010620117,-0.090270996,0.027612304,105.0
35826,-0.010636985,0.05438602,0.06316763,-0.0010620117,-0.090270996,0.027612304,105.0
35827,-0.010636985,0.05438602,0.06316763,-0.08814698,-0.057348635,0.078588866,105.0
35828,0.05903192,-0.14319773,-0.028762773,-0.08814698,-0.057348635,0.078588866,105.0
35829,0.05903192,-0.14319773,-0.028762773,-0.16248779,-0.043542482,0.09133301,105.0
35830,0.06734273,-0.15716073,-0.029760703,-0.16248779,-0.043542482,0.09133301,105.0
35831,0.06734273,-0.15716073,-0.029760703,-0.115759276,-0.052038576,0.095581055,105.0
35832,-0.0016067773,-0.036006898,0.030451685,-0.115759276,-0.052038576,0.095581055,105.0
35833,-0.0016067773,-0.036006898,0.030451685,-0.12000733,-0.08071289,0.1359375,105.0
35834,-0.072354764,0.06402895,0.06144631,-0.12000733,-0.08071289,0.1359375,105.0
35835,-0.072354764,0.06402895,0.06144631,-0.1996582,-0.12000733,0.11469727,105.0
35836,-0.038035184,0.036049813,0.008886054,-0.1996582,-0.12000733,0.11469727,105.0
35837,-0.038035184,0.036049813,0.008886054,-0.28568116,-0.16248779,0.04460449,105.0
35838,0.064701244,-0.16033252,-0.07447074,-0.28568116,-0.16248779,0.04460449,105.0
35839,0.064701244,-0.16033252,-0.07447074,-0.19328614,-0.0998291,0.045666505,105.0
35840,0.07607742,-0.2657294,-0.07188129,-0.19328614,-0.0998291,0.045666505,105.0
35841,0.07607742,-0.2657294,-0.07188129,-0.052038576,-0.15080567,0.0541626,105.0
35842,0.07051769,-0.047666527,0.026918799,-0.052038576,-0.15080567,0.0541626,105.0
35843,0.07051769,-0.047666527,0.026918799,-0.098767094,-0.11682129,0.02442627,105.0
35844,0.06354306,0.21916659,0.12448914,-0.098767094,-0.11682129,0.02442627,105.0
35845,0.06354306,0.21916659,0.12448914,-0.20709229,-0.14761963,0.045666505,105.0
35846,0.037650853,0.11678836,0.06856105,-0.20709229,-0.14761963,0.045666505,105.0
35847,0.037650853,0.11678836,0.06856105,-0.23789063,-0.095581055,0.015930176,105.0
35848,-0.06522843,-0.4141621,-0.022104293,-0.23789063,-0.095581055,0.015930176,105.0
35849,-0.06522843,-0.4141621,-0.022104293,0.010620117,-0.115759276,0.004248047,105.0
35850,-0.28371352,-0.6714542,0.10829313,0.010620117,-0.115759276,0.004248047,105.0
35851,-0.28371352,-0.6714542,0.10829313,0.40144044,-0.18903808,0.03186035,105.0
35852,-0.29889464,-0.14987089,0.029298067,0.40144044,-0.18903808,0.03186035,105.0
35853,-0.29889464,-0.14987089,0.029298067,0.5129517,-0.107263185,0.050976563,105.0
35854,0.084541515,0.69110185,-0.29837552,0.5129517,-0.107263185,0.050976563,105.0
35855,0.084541515,0.69110185,-0.29837552,-0.0637207,0.010620117,-0.09133301,105.0
35856,0.59374404,0.7967047,-0.46510422,-0.0637207,0.010620117,-0.09133301,105.0
35857,0.59374404,0.7967047,-0.46510422,-0.1996582,0.03717041,0.043542482,105.0
35858,0.63209975,0.09207569,-0.48538905,-0.1996582,0.03717041,0.043542482,105.0
35859,0.63209975,0.09207569,-0.48538905,-0.13912354,-0.022302246,0.04460449,105.0
35860,0.21965685,-0.53012365,-0.3571589,-0.13912354,-0.022302246,0.04460449,105.0
35861,0.21965685,-0.53012365,-0.3571589,-0.0637207,-0.1178833,0.0180542,105.0
35862,-0.15785605,-0.65122294,-0.1261324,-0.0637207,-0.1178833,0.0180542,105.0
35863,-0.15785605,-0.65122294,-0.1261324,0.07965088,-0.09239502,-0.039294433,105.0
35864,-0.26915595,-0.32655698,0.038229823,0.07965088,-0.09239502,-0.039294433,105.0
35865,-0.26915595,-0.32655698,0.038229823,0.19328614,-0.06159668,-0.09239502,105.0
35866,-0.1596607,0.12023635,0.14844275,0.19328614,-0.06159668,-0.09239502,105.0
35867,-0.1596607,0.12023635,0.14844275,0.08283692,-0.023364259,-0.14018555,105.0
35868,-0.0034487695,0.3998512,0.26116145,0.08283692,-0.023364259,-0.14018555,105.0
35869,-0.0034487695,0.3998512,0.26116145,-0.060534667,0.0063720704,-0.1720459,105.0
35870,0.04583718,0.43011045,0.30670747,-0.060534667,0.0063720704,-0.1720459,105.0
35871,0.04583718,0.43011045,0.30670747,-0.19541016,0.022302246,-0.12000733,105.0
35872,-0.030346861,0.34079248,0.2976243,-0.19541016,0.022302246,-0.12000733,105.0
35873,-0.030346861,0.34079248,0.2976243,-0.31010744,0.05522461,-0.16673584,105.0
35874,-0.13776626,0.19756074,0.24806036,-0.31010744,0.05522461,-0.16673584,105.0
35875,-0.13776626,0.19756074,0.24806036,-0.36320803,0.03717041,-0.13487549,105.0
35876,-0.15370665,-0.026485085,0.15969096,-0.36320803,0.03717041,-0.13487549,105.0
35877,-0.15370665,-0.026485085,0.15969096,-0.32497558,0.05522461,-0.12213135,105.0
35878,-0.04733056,-0.16127597,0.051849455,-0.32497558,0.05522461,-0.12213135,105.0
35879,-0.04733056,-0.16127597,0.051849455,-0.3090454,0.043542482,-0.09133301,105.0
35880,0.016810842,-0.16399392,-0.04033196,-0.3090454,0.043542482,-0.09133301,105.0
35881,0.016810842,-0.16399392,-0.04033196,-0.33984375,0.035046387,-0.06159668,105.0
35882,-0.011429258,-0.11830451,-0.07170649,-0.33984375,0.035046387,-0.06159668,105.0
35883,-0.011429258,-0.11830451,-0.07170649,-0.33028564,0.004248047,-0.046728518,105.0
35884,-0.0329227,0.048142046,-0.0076337457,-0.33028564,0.004248047,-0.046728518,105.0
35885,-0.0329227,0.048142046,-0.0076337457,-0.36639404,0.023364259,-0.04248047,105.0
35886,-0.041535914,0.17876023,0.055831492,-0.36639404,0.023364259,-0.04248047,105.0
35887,-0.041535914,0.17876023,0.055831492,-0.3791382,0.021240234,-0.04885254,105.0
35888,0.024254173,0.053664923,0.0025753528,-0.3791382,0.021240234,-0.04885254,105.0
35889,0.024254173,0.053664923,0.0025753528,-0.2814331,0.020178223,-0.052038576,105.0
35890,0.087408714,-0.20959492,-0.09913601,-0.2814331,0.020178223,-0.052038576,105.0
35891,0.087408714,-0.20959492,-0.09913601,-0.11044922,0.012744141,-0.012744141,105.0
35892,0.066887416,-0.30538344,-0.111279026,-0.11044922,0.012744141,-0.012744141,105.0
35893,0.066887416,-0.30538344,-0.111279026,-0.053100586,0.0021240234,-0.004248047,105.0
35894,-7.13706E-4,-0.1889967,-0.0450657,-0.053100586,0.0021240234,-0.004248047,105.0
35895,-7.13706E-4,-0.1889967,-0.0450657,-0.04141846,-0.0180542,0.0,105.0
35896,-0.049154952,-0.019947369,0.01167693,-0.04141846,-0.0180542,0.0,105.0
35897,-0.049154952,-0.019947369,0.01167693,-0.046728518,-0.019116212,-0.010620117,105.0
35898,-0.024760976,0.08389562,0.06819164,-0.046728518,-0.019116212,-0.010620117,105.0
35899,-0.024760976,0.08389562,0.06819164,-0.03079834,-0.013806152,0.0031860352,105.0
35900,0.024820127,0.14113994,0.14289561,-0.03079834,-0.013806152,0.0031860352,105.0
35901,0.024820127,0.14113994,0.14289561,-0.038232423,-0.014868164,0.06903076,105.0
35902,0.056159817,0.13818051,0.09446785,-0.038232423,-0.014868164,0.06903076,105.0
35903,0.056159817,0.13818051,0.09446785,-0.090270996,-0.0180542,0.07540283,105.0
35904,0.056159817,0.13818051,0.09446785,-0.090270996,-0.0180542,0.07540283,106.0
35905,0.06267688,-0.034340844,-0.12355902,-0.090270996,-0.0180542,0.07540283,106.0
35906,0.06267688,-0.034340844,-0.12355902,0.0031860352,-0.016992187,0.045666505,106.0
35907,0.03319814,-0.14404982,-0.26526567,0.0031860352,-0.016992187,0.045666505,106.0
35908,0.03319814,-0.14404982,-0.26526567,0.025488282,-0.014868164,-0.0063720704,106.0
35909,-0.004545003,-0.04420715,-0.20099428,0.025488282,-0.014868164,-0.0063720704,106.0
35910,-0.004545003,-0.04420715,-0.20099428,-0.0180542,-0.03079834,-0.0010620117,106.0
35911,0.0013200492,0.17439991,0.0114091635,-0.0180542,-0.03079834,-0.0010620117,106.0
35912,0.0013200492,0.17439991,0.0114091635,-0.098767094,-0.027612304,0.021240234,106.0
35913,0.06535047,0.3550961,0.16371718,-0.098767094,-0.027612304,0.021240234,106.0
35914,0.06535047,0.3550961,0.16371718,-0.22196046,-0.0010620117,0.06690674,106.0
35915,0.11827159,0.34003392,0.10218956,-0.22196046,-0.0010620117,0.06690674,106.0
35916,0.11827159,0.34003392,0.10218956,-0.30479738,-0.0031860352,0.081774905,106.0
35917,0.12265682,0.23242754,-0.0030505955,-0.30479738,-0.0031860352,0.081774905,106.0
35918,0.12265682,0.23242754,-0.0030505955,-0.4885254,0.07115479,0.09133301,106.0
35919,0.037957005,-0.11779332,-0.040733933,-0.4885254,0.07115479,0.09133301,106.0
35920,0.037957005,-0.11779332,-0.040733933,-0.49383545,0.06903076,0.13699952,106.0
35921,-0.17535949,-0.86695194,-0.10407152,-0.49383545,0.06903076,0.13699952,106.0
35922,-0.17535949,-0.86695194,-0.10407152,0.06796875,-0.029736329,0.23364258,106.0
35923,-0.31381056,-1.355146,-0.09186318,0.06796875,-0.029736329,0.23364258,106.0
35924,-0.31381056,-1.355146,-0.09186318,0.57242435,-0.13275146,0.21983643,106.0
35925,-0.25971544,-0.91907775,-0.040800113,0.57242435,-0.13275146,0.21983643,106.0
35926,-0.25971544,-0.91907775,-0.040800113,0.8251831,-0.0998291,0.09239502,106.0
35927,-0.0568202,0.31321192,0.082447805,0.8251831,-0.0998291,0.09239502,106.0
35928,-0.0568202,0.31321192,0.082447805,0.38763428,0.020178223,-0.0361084,106.0
35929,0.18584268,1.2514485,0.079447016,0.38763428,0.020178223,-0.0361084,106.0
35930,0.18584268,1.2514485,0.079447016,-0.1996582,0.10513916,-0.011682129,106.0
35931,0.302617,0.8226676,-0.24075148,-0.1996582,0.10513916,-0.011682129,106.0
35932,0.302617,0.8226676,-0.24075148,-0.32178956,0.22089843,0.07434082,106.0
35933,0.40867078,-0.4582356,-0.5975816,-0.32178956,0.22089843,0.07434082,106.0
35934,0.40867078,-0.4582356,-0.5975816,0.2888672,0.3164795,-0.12956543,106.0
35935,0.14342833,-0.86044836,-0.4656874,0.2888672,0.3164795,-0.12956543,106.0
35936,0.14342833,-0.86044836,-0.4656874,0.7688965,0.30161133,-0.31329346,106.0
35937,-0.34226418,0.051594943,0.3268153,0.7688965,0.30161133,-0.31329346,106.0
35938,-0.34226418,0.051594943,0.3268153,0.35471192,0.32603762,-0.42905274,106.0
35939,-0.49351352,1.1849161,1.0346091,0.35471192,0.32603762,-0.42905274,106.0
35940,-0.49351352,1.1849161,1.0346091,-0.3058594,0.270813,-0.50445557,106.0
35941,-0.40738404,1.6098714,1.037758,-0.3058594,0.270813,-0.50445557,106.0
35942,-0.40738404,1.6098714,1.037758,-0.82730716,0.22196046,-0.54906005,106.0
35943,-0.22746974,0.65231365,0.30770886,-0.82730716,0.22196046,-0.54906005,106.0
35944,-0.22746974,0.65231365,0.30770886,-0.60959476,0.04141846,-0.45347902,106.0
35945,-0.046001673,-0.8643185,-0.4166503,-0.60959476,0.04141846,-0.45347902,106.0
35946,-0.046001673,-0.8643185,-0.4166503,-0.11469727,-0.043542482,-0.29630128,106.0
35947,0.035195738,-1.3966062,-0.49964103,-0.11469727,-0.043542482,-0.29630128,106.0
35948,0.035195738,-1.3966062,-0.49964103,0.04141846,-0.17841797,-0.040356446,106.0
35949,0.12611803,-1.0323241,-0.3644467,0.04141846,-0.17841797,-0.040356446,106.0
35950,0.12611803,-1.0323241,-0.3644467,-0.0361084,-0.22302246,0.016992187,106.0
35951,0.2277743,-0.5778246,-0.29716042,-0.0361084,-0.22302246,0.016992187,106.0
35952,0.2277743,-0.5778246,-0.29716042,0.28780517,-0.1709839,0.06584473,106.0
35953,0.24452414,-0.011893451,-0.084810846,0.28780517,-0.1709839,0.06584473,106.0
35954,0.24452414,-0.011893451,-0.084810846,0.6510132,-0.12319336,0.027612304,106.0
35955,0.3841325,0.6226752,0.16722213,0.6510132,-0.12319336,0.027612304,106.0
35956,0.3841325,0.6226752,0.16722213,0.3462158,-0.007434082,-0.007434082,106.0
35957,0.38535777,0.9354327,0.22727135,0.3462158,-0.007434082,-0.007434082,106.0
35958,0.38535777,0.9354327,0.22727135,-0.07965088,-0.013806152,0.03717041,106.0
35959,0.12521738,0.6919619,-0.01737725,-0.07965088,-0.013806152,0.03717041,106.0
35960,0.12521738,0.6919619,-0.01737725,-0.1720459,-0.020178223,-0.029736329,106.0
35961,-0.085080005,0.23030287,-0.18102828,-0.1720459,-0.020178223,-0.029736329,106.0
35962,-0.085080005,0.23030287,-0.18102828,-0.20921631,0.04248047,-0.04885254,106.0
35963,-0.11661137,-0.09413904,-0.14018394,-0.20921631,0.04248047,-0.04885254,106.0
35964,-0.11661137,-0.09413904,-0.14018394,-0.20921631,0.07540283,-0.013806152,106.0
35965,-0.07669974,-0.2165832,-0.20257685,-0.20921631,0.07540283,-0.013806152,106.0
35966,-0.07669974,-0.2165832,-0.20257685,-0.20921631,0.10089111,0.053100586,106.0
35967,-0.010541925,-0.33526608,-0.18082368,-0.20921631,0.10089111,0.053100586,106.0
35968,-0.010541925,-0.33526608,-0.18082368,-0.17629395,0.19222413,0.15080567,106.0
35969,0.038050834,-0.4911499,0.05188646,-0.17629395,0.19222413,0.15080567,106.0
35970,0.038050834,-0.4911499,0.05188646,0.06159668,0.11257324,0.035046387,106.0
35971,-0.07528444,-0.2368164,0.27029335,0.06159668,0.11257324,0.035046387,106.0
35972,-0.07528444,-0.2368164,0.27029335,0.060534667,0.090270996,0.02442627,106.0
35973,-0.1929424,0.19573976,0.30449152,0.060534667,0.090270996,0.02442627,106.0
35974,-0.1929424,0.19573976,0.30449152,-0.038232423,0.081774905,-0.019116212,106.0
35975,-0.17384854,0.25351563,0.18379098,-0.038232423,0.081774905,-0.019116212,106.0
35976,-0.17384854,0.25351563,0.18379098,-0.060534667,0.019116212,-0.0541626,106.0
35977,-0.0929973,0.041752942,0.010326244,-0.060534667,0.019116212,-0.0541626,106.0
35978,-0.0929973,0.041752942,0.010326244,-0.023364259,0.021240234,-0.07965088,106.0
35979,-0.06662196,-0.16900243,-0.09365551,-0.023364259,0.021240234,-0.07965088,106.0
35980,-0.06662196,-0.16900243,-0.09365551,0.053100586,0.0010620117,-0.0722168,106.0
35981,-0.070790246,-0.1976287,-0.0622291,0.053100586,0.0010620117,-0.0722168,106.0
35982,-0.070790246,-0.1976287,-0.0622291,0.035046387,-0.027612304,-0.06796875,106.0
35983,-0.018692747,-0.07935541,0.011288498,0.035046387,-0.027612304,-0.06796875,106.0
35984,-0.018692747,-0.07935541,0.011288498,-0.0063720704,-0.04141846,-0.06265869,106.0
35985,0.016210347,0.040824756,0.026218295,-0.0063720704,-0.04141846,-0.06265869,106.0
35986,0.016210347,0.040824756,0.026218295,-0.0541626,-0.038232423,-0.06796875,106.0
35987,0.017899916,0.08527211,0.0119658485,-0.0541626,-0.038232423,-0.06796875,106.0
35988,0.017899916,0.08527211,0.0119658485,-0.050976563,-0.027612304,-0.07540283,106.0
35989,0.027967393,0.1328295,0.02223137,-0.050976563,-0.027612304,-0.07540283,106.0
35990,0.027967393,0.1328295,0.02223137,-0.043542482,0.008496094,-0.08071289,106.0
35991,0.027967393,0.1328295,0.02223137,-0.043542482,0.008496094,-0.08071289,106.0
35992,0.05735927,0.16350238,0.03681586,-0.043542482,0.008496094,-0.08071289,106.0
35993,0.05735927,0.16350238,0.03681586,-0.118945315,0.016992187,-0.06903076,106.0
35994,0.05539669,0.03230337,-0.008413523,-0.118945315,0.016992187,-0.06903076,106.0
35995,0.05539669,0.03230337,-0.008413523,-0.10620117,0.0063720704,-0.06903076,106.0
35996,0.023492157,-0.13365437,-0.066203475,-0.10620117,0.0063720704,-0.06903076,106.0
35997,0.023492157,-0.13365437,-0.066203475,-0.026550293,0.0,-0.06265869,106.0
35998,-0.008598849,-0.107924476,-0.044149306,-0.026550293,0.0,-0.06265869,106.0
35999,-0.008598849,-0.107924476,-0.044149306,-0.0541626,-0.014868164,-0.08496094,106.0
36000,-0.01496014,-0.006017316,-6.636828E-4,-0.0541626,-0.014868164,-0.08496094,106.0
36001,-0.01496014,-0.006017316,-6.636828E-4,-0.09133301,0.0010620117,-0.083898924,106.0
36002,0.013178378,0.051497184,0.01836554,-0.09133301,0.0010620117,-0.083898924,106.0
36003,0.013178378,0.051497184,0.01836554,-0.081774905,0.010620117,-0.09451904,106.0
36004,0.041267797,0.12103173,0.024726614,-0.081774905,0.010620117,-0.09451904,106.0
36005,0.041267797,0.12103173,0.024726614,-0.06159668,0.019116212,-0.06265869,106.0
36006,0.051800862,0.120226264,0.02235698,-0.06159668,0.019116212,-0.06265869,106.0
36007,0.051800862,0.120226264,0.02235698,-0.08814698,0.02442627,-0.020178223,106.0
