,accx,accy,accz,gyrox,gyroy,gyroz,heart rate
35405,type,type,type,type,type,type,type
35406,-0.18847084,-0.109809875,0.3197403,-0.18054199,0.04248047,-0.06690674,102.0
35407,-0.18847084,-0.109809875,0.3197403,-0.16779785,0.035046387,-0.029736329,102.0
35408,-0.14097404,-0.06266403,-0.0024223328,-0.16779785,0.035046387,-0.029736329,102.0
35409,-0.14097404,-0.06266403,-0.0024223328,-0.043542482,0.019116212,0.058410645,102.0
35410,-0.06551361,-0.06364441,-0.21796799,-0.043542482,0.019116212,0.058410645,102.0
35411,-0.06551361,-0.06364441,-0.21796799,0.107263185,-0.0063720704,0.05522461,102.0
35412,7.915497E-5,-0.010875702,-0.1932106,0.107263185,-0.0063720704,0.05522461,102.0
35413,7.915497E-5,-0.010875702,-0.1932106,0.0637207,0.019116212,0.019116212,102.0
35414,7.915497E-5,-0.010875702,-0.1932106,0.03186035,0.011682129,0.03079834,102.0
35415,0.053016663,0.06327057,-0.053764343,0.03186035,0.011682129,0.03079834,102.0
35416,0.025091171,0.037345886,0.031742096,0.03186035,0.011682129,0.03079834,102.0
35417,0.025091171,0.037345886,0.031742096,-0.020178223,0.012744141,-0.043542482,102.0
35418,-0.05148506,-0.042671204,0.020694733,-0.020178223,0.012744141,-0.043542482,102.0
35419,-0.05148506,-0.042671204,0.020694733,-0.057348635,0.009558106,-0.07965088,102.0
35420,-0.06580925,-0.06304169,-0.036533356,-0.057348635,0.009558106,-0.07965088,102.0
35421,-0.06580925,-0.06304169,-0.036533356,-0.07115479,0.0021240234,-0.0637207,102.0
35422,-0.06580925,-0.06304169,-0.036533356,-0.052038576,-0.013806152,-0.043542482,102.0
35423,-0.01819992,-0.06653595,-0.08911514,-0.052038576,-0.013806152,-0.043542482,102.0
35424,0.040384293,-0.08192444,-0.09187317,-0.052038576,-0.013806152,-0.043542482,102.0
35425,0.040384293,-0.08192444,-0.09187317,-0.04248047,-0.020178223,-0.021240234,102.0
35426,0.057807922,-0.084228516,-0.020385742,-0.04248047,-0.020178223,-0.021240234,102.0
35427,0.057807922,-0.084228516,-0.020385742,-0.04991455,-0.023364259,-0.008496094,102.0
35428,0.028399467,-0.0488739,0.06311035,-0.04991455,-0.023364259,-0.008496094,102.0
35429,0.028399467,-0.0488739,0.06311035,-0.08283692,-0.013806152,-0.0361084,102.0
35430,-0.01863861,-0.01613617,0.090919495,-0.08283692,-0.013806152,-0.0361084,102.0
35431,-0.01863861,-0.01613617,0.090919495,-0.059472658,-0.020178223,-0.013806152,102.0
35432,-0.041851997,-0.018035889,0.061660767,-0.059472658,-0.020178223,-0.013806152,102.0
35433,-0.041851997,-0.018035889,0.061660767,0.0,-0.04248047,-0.009558106,102.0
35434,-0.02060318,-0.011451721,0.042369843,0.0,-0.04248047,-0.009558106,102.0
35435,-0.02060318,-0.011451721,0.042369843,0.039294433,-0.047790527,0.0063720704,102.0
35436,0.03305435,9.3460083E-4,0.05651474,0.039294433,-0.047790527,0.0063720704,102.0
35437,0.03305435,9.3460083E-4,0.05651474,-0.004248047,-0.03079834,0.004248047,102.0
35438,0.03305435,9.3460083E-4,0.05651474,-0.038232423,-0.025488282,0.008496094,102.0
35439,0.07541847,-0.002658844,0.06371689,-0.038232423,-0.025488282,0.008496094,102.0
35440,0.07541847,-0.002658844,0.06371689,-0.032922365,-0.021240234,-0.021240234,102.0
35441,0.08145332,-0.04730606,0.04978943,-0.032922365,-0.021240234,-0.021240234,102.0
35442,0.047792435,-0.07049942,0.026756287,-0.032922365,-0.021240234,-0.021240234,102.0
35443,0.047792435,-0.07049942,0.026756287,-0.013806152,-0.021240234,-0.032922365,102.0
35444,0.0018453598,-0.043510437,0.020050049,-0.013806152,-0.021240234,-0.032922365,102.0
35445,0.0018453598,-0.043510437,0.020050049,0.0010620117,-0.027612304,-0.0361084,102.0
35446,-0.030359268,-0.0032539368,0.07299805,0.0010620117,-0.027612304,-0.0361084,102.0
35447,-0.030359268,-0.0032539368,0.07299805,0.0010620117,-0.032922365,-0.058410645,102.0
35448,-0.030359268,-0.0032539368,0.07299805,0.0010620117,-0.023364259,-0.027612304,102.0
35449,-0.022285461,0.006576538,0.15670013,0.0010620117,-0.023364259,-0.027612304,102.0
35450,0.023968697,-0.038391113,0.23187637,0.0010620117,-0.023364259,-0.027612304,102.0
35451,0.023968697,-0.038391113,0.23187637,0.007434082,0.015930176,-0.013806152,102.0
35452,-0.018556595,-0.040893555,0.31511688,0.007434082,0.015930176,-0.013806152,102.0
35453,-0.018556595,-0.040893555,0.31511688,-0.15186767,0.11257324,-0.17523193,102.0
35454,-0.05709362,0.030128479,0.41756058,-0.15186767,0.11257324,-0.17523193,102.0
35455,-0.05709362,0.030128479,0.41756058,-0.07752686,0.14549561,0.013806152,102.0
35456,-0.06154442,0.041240692,0.4215355,-0.07752686,0.14549561,0.013806152,102.0
35457,-0.06154442,0.041240692,0.4215355,-0.17947999,0.24532472,0.0063720704,102.0
35458,-0.10867119,-0.008583069,0.26060486,-0.17947999,0.24532472,0.0063720704,102.0
35459,-0.10867119,-0.008583069,0.26060486,-0.095581055,0.29205322,0.009558106,102.0
35460,-0.13947582,-0.09876251,-0.024181366,-0.095581055,0.29205322,0.009558106,102.0
35461,-0.13947582,-0.09876251,-0.024181366,-0.013806152,0.32603762,0.025488282,102.0
35462,-0.15723515,-0.12870407,-0.3011551,-0.013806152,0.32603762,0.025488282,102.0
35463,-0.15723515,-0.12870407,-0.3011551,0.04991455,0.33771974,0.045666505,102.0
35464,-0.15723515,-0.12870407,-0.3011551,0.04991455,0.33771974,0.045666505,102.0
35465,-0.16731644,-0.08426285,-0.46221542,0.04991455,0.33771974,0.045666505,102.0
35466,-0.16731644,-0.08426285,-0.46221542,0.07540283,0.3355957,0.045666505,102.0
35467,-0.16731644,-0.08426285,-0.46221542,0.060534667,0.3355957,0.043542482,102.0
35468,-0.12510014,-0.02217102,-0.49913025,0.060534667,0.3355957,0.043542482,102.0
35469,-0.01643753,0.038002014,-0.49152756,0.060534667,0.3355957,0.043542482,102.0
35470,-0.01643753,0.038002014,-0.49152756,-0.033984374,0.36002198,0.03717041,102.0
35471,0.04192829,0.034820557,-0.5178833,-0.033984374,0.36002198,0.03717041,102.0
35472,0.04192829,0.034820557,-0.5178833,-0.08496094,0.37595215,0.05522461,102.0
35473,-0.032217026,-0.021766663,-0.56806564,-0.08496094,0.37595215,0.05522461,102.0
35474,-0.032217026,-0.021766663,-0.56806564,-0.08602295,0.35577393,0.057348635,102.0
35475,-0.1349287,0.010406494,-0.5553322,-0.08602295,0.35577393,0.057348635,102.0
35476,-0.1349287,0.010406494,-0.5553322,-0.10195313,0.3334717,0.015930176,102.0
35477,-0.18870449,0.088516235,-0.44322968,-0.10195313,0.3334717,0.015930176,102.0
35478,-0.18870449,0.088516235,-0.44322968,-0.1083252,0.3069214,0.007434082,102.0
35479,-0.21246338,0.10573959,-0.28019333,-0.1083252,0.3069214,0.007434082,102.0
35480,-0.21246338,0.10573959,-0.28019333,-0.08814698,0.26868898,-0.010620117,102.0
35481,-0.15412617,0.1251297,-0.13671494,-0.08814698,0.26868898,-0.010620117,102.0
35482,-0.15412617,0.1251297,-0.13671494,-0.16354981,0.27399904,-0.02442627,102.0
35483,-0.029074669,0.14496613,-0.069099426,-0.16354981,0.27399904,-0.02442627,102.0
35484,-0.029074669,0.14496613,-0.069099426,-0.2262085,0.29205322,-0.046728518,102.0
35485,0.047332764,0.087631226,-0.089717865,-0.2262085,0.29205322,-0.046728518,102.0
35486,0.047332764,0.087631226,-0.089717865,-0.1720459,0.2984253,-0.04141846,102.0
35487,-0.009801865,0.013755798,-0.14544678,-0.1720459,0.2984253,-0.04141846,102.0
35488,-0.009801865,0.013755798,-0.14544678,-0.09133301,0.2899292,-0.0541626,102.0
35489,-0.011259079,0.11577606,-0.106739044,-0.09133301,0.2899292,-0.0541626,102.0
35490,-0.011259079,0.11577606,-0.106739044,-0.17947999,0.3175415,-0.15186767,102.0
35491,0.3384056,0.4211731,0.013069153,-0.17947999,0.3175415,-0.15186767,102.0
35492,0.3384056,0.4211731,0.013069153,-0.53950197,0.45878908,-0.36427003,102.0
35493,0.97438717,0.6401825,-0.014923096,-0.53950197,0.45878908,-0.36427003,102.0
35494,0.97438717,0.6401825,-0.014923096,-1.0089111,0.66588134,-0.61915284,102.0
35495,1.479619,0.44062805,-0.29719162,-1.0089111,0.66588134,-0.61915284,102.0
35496,1.479619,0.44062805,-0.29719162,-1.5792115,0.94731444,-0.8262451,102.0
35497,1.2587194,-0.14925385,-0.63972855,-1.5792115,0.94731444,-0.8262451,102.0
35498,1.2587194,-0.14925385,-0.63972855,-1.8489624,1.1660889,-0.9611206,102.0
35499,0.46481228,-0.8023987,-0.8779831,-1.8489624,1.1660889,-0.9611206,102.0
35500,0.46481228,-0.8023987,-0.8779831,-2.0072021,1.260608,-1.2383057,102.0
35501,-0.38933182,-1.4826546,-1.0195007,-2.0072021,1.260608,-1.2383057,102.0
35502,-0.38933182,-1.4826546,-1.0195007,-2.1208375,1.2903442,-1.4825684,102.0
35503,-1.1374664,-2.2341232,-1.1028214,-2.1208375,1.2903442,-1.4825684,102.0
35504,-1.1374664,-2.2341232,-1.1028214,-2.0210083,1.1862671,-1.7321411,102.0
35505,-1.8527708,-2.9919968,-1.1571846,-2.0210083,1.1862671,-1.7321411,102.0
35506,-1.8527708,-2.9919968,-1.1571846,-2.075171,1.0556396,-1.8563966,102.0
35507,-2.4394684,-3.8089752,-1.1733398,-2.075171,1.0556396,-1.8563966,102.0
35508,-2.4394684,-3.8089752,-1.1733398,-2.0985353,0.8527954,-2.0475585,102.0
35509,-2.541687,-4.565628,-1.1167374,-2.0985353,0.8527954,-2.0475585,102.0
35510,-2.541687,-4.565628,-1.1167374,-1.6864747,0.6945557,-2.081543,102.0
35511,-2.4463387,-5.016945,-0.9910469,-1.6864747,0.6945557,-2.081543,102.0
35512,-2.4463387,-5.016945,-0.9910469,-1.260608,0.5968506,-2.1505737,102.0
35513,-2.4373322,-5.0639114,-0.9004059,-1.260608,0.5968506,-2.1505737,102.0
35514,-2.4373322,-5.0639114,-0.9004059,-0.9494385,0.43861085,-2.1973023,102.0
35515,-2.12323,-4.910843,-0.87496567,-0.9494385,0.43861085,-2.1973023,102.0
35516,-2.12323,-4.910843,-0.87496567,-0.5809204,0.30479738,-2.1580079,102.0
35517,-1.6577644,-4.654114,-0.8040886,-0.5809204,0.30479738,-2.1580079,102.0
35518,-1.6577644,-4.654114,-0.8040886,-0.48533937,0.27506104,-2.071985,102.0
35519,-1.5365753,-4.2789154,-0.7251816,-0.48533937,0.27506104,-2.071985,102.0
35520,-1.5365753,-4.2789154,-0.7251816,-0.5012695,0.12213135,-1.9243653,102.0
35521,-1.4693604,-3.974083,-0.643425,-0.5012695,0.12213135,-1.9243653,102.0
35522,-1.4693604,-3.974083,-0.643425,-0.40356445,-0.053100586,-1.6652344,102.0
35523,-1.1800289,-3.7361526,-0.4134369,-0.40356445,-0.053100586,-1.6652344,102.0
35524,-1.1800289,-3.7361526,-0.4134369,-0.3430298,-0.14868164,-1.3307008,102.0
35525,-1.0067425,-3.2736435,-0.09115982,-0.3430298,-0.14868164,-1.3307008,102.0
35526,-1.0067425,-3.2736435,-0.09115982,-0.37489015,-0.24107666,-1.0142212,102.0
35527,-1.0042095,-2.5005417,0.08851242,-0.37489015,-0.24107666,-1.0142212,102.0
35528,-1.0042095,-2.5005417,0.08851242,-0.43754885,-0.35046387,-0.7848267,102.0
35529,-0.86577034,-1.6508865,0.08634949,-0.43754885,-0.35046387,-0.7848267,102.0
35530,-0.86577034,-1.6508865,0.08634949,-0.5341919,-0.42268068,-0.59047854,102.0
35531,-0.62849236,-0.9810715,0.0495224,-0.5341919,-0.42268068,-0.59047854,102.0
35532,-0.62849236,-0.9810715,0.0495224,-0.5150757,-0.5278198,-0.41524658,102.0
35533,-0.4017067,-0.5522232,0.0798645,-0.5150757,-0.5278198,-0.41524658,102.0
35534,-0.4017067,-0.5522232,0.0798645,-0.43861085,-0.6711914,-0.33771974,102.0
35535,-0.050441742,-0.4148407,0.2977028,-0.43861085,-0.6711914,-0.33771974,102.0
35536,-0.050441742,-0.4148407,0.2977028,-0.30479738,-0.7540283,-0.22408448,102.0
35537,0.43458557,-0.42626953,0.7544594,-0.30479738,-0.7540283,-0.22408448,102.0
35538,0.43458557,-0.42626953,0.7544594,-0.1083252,-0.75615233,-0.059472658,102.0
35539,0.89097977,-0.30511475,1.1421661,-0.1083252,-0.75615233,-0.059472658,102.0
35540,0.89097977,-0.30511475,1.1421661,-0.027612304,-0.7943848,0.04460449,102.0
35541,1.3067055,-0.1175766,1.0431747,-0.027612304,-0.7943848,0.04460449,102.0
35542,1.3067055,-0.1175766,1.0431747,-0.0180542,-0.85491943,0.11044922,102.0
35543,1.6182766,-0.0362854,0.6712074,-0.0180542,-0.85491943,0.11044922,102.0
35544,1.6182766,-0.0362854,0.6712074,-0.007434082,-0.9239502,0.18903808,102.0
35545,1.7887859,0.20202637,0.5885773,-0.007434082,-0.9239502,0.18903808,102.0
35546,1.7887859,0.20202637,0.5885773,-0.08283692,-0.80394286,0.10620117,102.0
35547,1.816185,0.58532715,0.68553543,-0.08283692,-0.80394286,0.10620117,102.0
35548,1.816185,0.58532715,0.68553543,-0.11682129,-0.68499756,0.010620117,102.0
35549,1.7558899,0.6238556,0.41086578,-0.11682129,-0.68499756,0.010620117,102.0
35550,1.7558899,0.6238556,0.41086578,-0.04460449,-0.65419924,-0.07540283,102.0
35551,1.7317867,0.27547455,-0.11868286,-0.04460449,-0.65419924,-0.07540283,102.0
35552,1.7317867,0.27547455,-0.11868286,0.19328614,-0.6966797,-0.18797608,102.0
35553,1.8233566,-0.092819214,-0.2063713,0.19328614,-0.6966797,-0.18797608,102.0
35554,1.8233566,-0.092819214,-0.2063713,0.49383545,-0.7720825,-0.23045655,102.0
35555,1.8233566,-0.092819214,-0.2063713,0.49383545,-0.7720825,-0.23045655,101.0
35556,2.0248718,-0.19728088,0.40193176,0.49383545,-0.7720825,-0.23045655,101.0
35557,2.0248718,-0.19728088,0.40193176,0.632959,-0.6796875,-0.25913087,101.0
35558,2.1033936,-0.22975159,1.2965088,0.632959,-0.6796875,-0.25913087,101.0
35559,2.1033936,-0.22975159,1.2965088,0.5979126,-0.5564942,-0.40144044,101.0
35560,1.88097,-0.33558655,1.9825325,0.5979126,-0.5564942,-0.40144044,101.0
35561,1.88097,-0.33558655,1.9825325,0.59472656,-0.51188964,-0.37382814,101.0
35562,1.4621487,-0.22174072,2.2106094,0.59472656,-0.51188964,-0.37382814,101.0
35563,1.4621487,-0.22174072,2.2106094,0.5161377,-0.4258667,-0.17523193,101.0
35564,0.9422169,0.2279129,1.8764954,0.5161377,-0.4258667,-0.17523193,101.0
35565,0.9422169,0.2279129,1.8764954,0.54587406,-0.32816163,0.12000733,101.0
35566,0.45963287,0.6455765,1.0467796,0.54587406,-0.32816163,0.12000733,101.0
35567,0.45963287,0.6455765,1.0467796,0.6446411,-0.30161133,0.28355715,101.0
35568,0.12474918,0.70461273,0.14084244,0.6446411,-0.30161133,0.28355715,101.0
35569,0.12474918,0.70461273,0.14084244,0.71791995,-0.34940186,0.40462646,101.0
35570,0.02338314,0.57551575,-0.36662292,0.71791995,-0.34940186,0.40462646,101.0
35571,0.02338314,0.57551575,-0.36662292,0.8591675,-0.4248047,0.36533204,101.0
35572,0.06102848,0.67006683,-0.32370758,0.8591675,-0.4248047,0.36533204,101.0
35573,0.06102848,0.67006683,-0.32370758,1.0078491,-0.4725952,0.37807617,101.0
35574,0.058955193,0.93006897,0.15054321,1.0078491,-0.4725952,0.37807617,101.0
35575,0.058955193,0.93006897,0.15054321,0.9409424,-0.4970215,0.4078125,101.0
35576,0.09774971,1.070961,0.76298904,0.9409424,-0.4970215,0.4078125,101.0
35577,0.09774971,1.070961,0.76298904,0.76677245,-0.44498292,0.38338622,101.0
35578,0.28403473,1.382988,1.1612816,0.76677245,-0.44498292,0.38338622,101.0
35579,0.28403473,1.382988,1.1612816,0.88040775,-0.33028564,0.20921631,101.0
35580,0.5010681,1.9222565,1.11903,0.88040775,-0.33028564,0.20921631,101.0
35581,0.5010681,1.9222565,1.11903,0.29417726,-0.12319336,0.16461182,101.0
35582,0.53908634,2.0000763,0.6434059,0.29417726,-0.12319336,0.16461182,101.0
35583,0.53908634,2.0000763,0.6434059,-0.090270996,-0.04991455,0.07434082,101.0
35584,0.42578793,1.571518,0.35462952,-0.090270996,-0.04991455,0.07434082,101.0
35585,0.42578793,1.571518,0.35462952,-0.081774905,-0.029736329,0.043542482,101.0
35586,0.30946636,1.1260986,0.11691666,-0.081774905,-0.029736329,0.043542482,101.0
35587,0.30946636,1.1260986,0.11691666,-0.2888672,0.14124756,-0.07327881,101.0
35588,0.1772852,0.85614014,0.04133606,-0.2888672,0.14124756,-0.07327881,101.0
35589,0.1772852,0.85614014,0.04133606,-0.41737062,0.16461182,-0.14868164,101.0
35590,-0.16969585,0.19517517,-0.11351013,-0.41737062,0.16461182,-0.14868164,101.0
35591,-0.16969585,0.19517517,-0.11351013,-0.5363159,0.14018555,-0.27718505,101.0
35592,-0.17530727,-0.15647888,-0.14260101,-0.5363159,0.14018555,-0.27718505,101.0
35593,-0.17530727,-0.15647888,-0.14260101,-0.5150757,0.14549561,-0.25913087,101.0
35594,-0.0935297,-0.71593475,-0.17010117,-0.5150757,0.14549561,-0.25913087,101.0
35595,-0.0935297,-0.71593475,-0.17010117,-0.39400634,0.14018555,-0.15505372,101.0
35596,-0.031171799,-0.6903229,-0.1975174,-0.39400634,0.14018555,-0.15505372,101.0
35597,-0.031171799,-0.6903229,-0.1975174,-0.41843262,0.15930176,-0.20603028,101.0
35598,0.18029976,-0.7320938,-0.31344604,-0.41843262,0.15930176,-0.20603028,101.0
35599,0.18029976,-0.7320938,-0.31344604,-0.41418457,0.17416993,-0.18585205,101.0
35600,0.17813873,-0.67523956,-0.34980392,-0.41418457,0.17416993,-0.18585205,101.0
35601,0.17813873,-0.67523956,-0.34980392,-0.43861085,0.16461182,-0.22302246,101.0
35602,0.02423668,-0.7215805,-0.2606659,-0.43861085,0.16461182,-0.22302246,101.0
35603,0.02423668,-0.7215805,-0.2606659,-0.2984253,0.16885987,-0.16885987,101.0
35604,-0.08629894,-0.69477844,-0.17560959,-0.2984253,0.16885987,-0.16885987,101.0
35605,-0.08629894,-0.69477844,-0.17560959,-0.22514649,0.17523193,-0.12000733,101.0
35606,-0.26344872,-0.72062683,-0.137146,-0.22514649,0.17523193,-0.12000733,101.0
35607,-0.26344872,-0.72062683,-0.137146,-0.06796875,0.14868164,0.0010620117,101.0
35608,-0.34144783,-0.55555725,-0.1979866,-0.06796875,0.14868164,0.0010620117,101.0
35609,-0.34144783,-0.55555725,-0.1979866,-0.013806152,0.118945315,0.046728518,101.0
35610,-0.43170357,-0.28829193,-0.094558716,-0.013806152,0.118945315,0.046728518,101.0
35611,-0.43170357,-0.28829193,-0.094558716,0.07434082,0.1274414,0.18054199,101.0
35612,-0.6233778,-0.26527405,0.112838745,0.07434082,0.1274414,0.18054199,101.0
35613,-0.6233778,-0.26527405,0.112838745,0.20603028,0.1444336,0.30479738,101.0
35614,-0.7411709,-0.41402435,0.05735016,0.20603028,0.1444336,0.30479738,101.0
35615,-0.7411709,-0.41402435,0.05735016,0.38338622,0.13275146,0.3525879,101.0
35616,-0.60948944,-0.30207062,-0.32484818,0.38338622,0.13275146,0.3525879,101.0
35617,-0.60948944,-0.30207062,-0.32484818,0.62340087,0.06690674,0.33771974,101.0
35618,-0.38751888,0.016532898,-0.63981247,0.62340087,0.06690674,0.33771974,101.0
35619,-0.38751888,0.016532898,-0.63981247,0.5150757,0.057348635,0.3802002,101.0
35620,-0.2145567,0.28224945,-0.55391693,0.5150757,0.057348635,0.3802002,101.0
35621,-0.2145567,0.28224945,-0.55391693,0.2262085,0.0053100586,0.32072756,101.0
35622,-0.10116196,0.542099,-0.18539429,0.2262085,0.0053100586,0.32072756,101.0
35623,-0.10116196,0.542099,-0.18539429,-0.04141846,-0.0031860352,0.28355715,101.0
35624,0.004544258,0.892807,0.09916687,-0.04141846,-0.0031860352,0.28355715,101.0
35625,0.004544258,0.892807,0.09916687,-0.1539917,0.011682129,0.14868164,101.0
35626,0.01452446,1.1652832,0.063964844,-0.1539917,0.011682129,0.14868164,101.0
35627,0.01452446,1.1652832,0.063964844,-0.34727785,-0.11469727,0.090270996,101.0
35628,0.030625343,0.7145996,0.0892334,-0.34727785,-0.11469727,0.090270996,101.0
35629,0.030625343,0.7145996,0.0892334,-0.542688,-0.12319336,0.12319336,101.0
35630,0.23552322,-0.23744202,0.44430923,-0.542688,-0.12319336,0.12319336,101.0
35631,0.23552322,-0.23744202,0.44430923,0.1274414,-0.010620117,0.41949463,101.0
35632,0.41396713,-0.56456757,0.76550674,0.1274414,-0.010620117,0.41949463,101.0
35633,0.41396713,-0.56456757,0.76550674,0.9717407,0.010620117,0.41312256,101.0
35634,0.36681747,0.33169556,0.46487427,0.9717407,0.010620117,0.41312256,101.0
35635,0.36681747,0.33169556,0.46487427,0.38444826,0.07752686,0.28674316,101.0
35636,0.27395916,1.0819473,-0.012546539,0.38444826,0.07752686,0.28674316,101.0
35637,0.27395916,1.0819473,-0.012546539,0.045666505,0.1996582,0.20496826,101.0
35638,0.06903267,0.94664764,-0.4389572,0.045666505,0.1996582,0.20496826,101.0
35639,0.06903267,0.94664764,-0.4389572,0.06478272,0.17735596,0.081774905,101.0
35640,-0.24339485,0.48043823,-0.81092834,0.06478272,0.17735596,0.081774905,101.0
35641,-0.24339485,0.48043823,-0.81092834,-0.07434082,0.06159668,-0.039294433,101.0
35642,-0.36433315,0.093307495,-0.59143066,-0.07434082,0.06159668,-0.039294433,101.0
35643,-0.36433315,0.093307495,-0.59143066,-0.06159668,-0.033984374,-0.15186767,101.0
35644,-0.15727425,-0.012680054,0.08664322,-0.06159668,-0.033984374,-0.15186767,101.0
35645,-0.15727425,-0.012680054,0.08664322,-0.06690674,-0.007434082,-0.08283692,101.0
35646,0.14543343,0.07169342,0.4342308,-0.06690674,-0.007434082,-0.08283692,101.0
35647,0.14543343,0.07169342,0.4342308,-0.271875,0.008496094,-0.04141846,101.0
35648,0.4654436,0.22085571,0.37712097,-0.271875,0.008496094,-0.04141846,101.0
35649,0.4654436,0.22085571,0.37712097,0.10938721,-0.015930176,-0.052038576,101.0
35650,0.76863194,0.52983093,0.5831795,0.10938721,-0.015930176,-0.052038576,101.0
35651,0.76863194,0.52983093,0.5831795,-0.24532472,0.1996582,-0.13487549,101.0
35652,0.53491306,0.7385025,0.60902405,-0.24532472,0.1996582,-0.13487549,101.0
35653,0.53491306,0.7385025,0.60902405,-0.27612305,0.32816163,-0.2538208,101.0
35654,-0.1243515,0.41147614,-0.29405594,-0.27612305,0.32816163,-0.2538208,101.0
35655,-0.1243515,0.41147614,-0.29405594,-0.21558838,0.1529297,-0.42692873,101.0
35656,-0.52382183,-0.2856598,-1.1020889,-0.21558838,0.1529297,-0.42692873,101.0
35657,-0.52382183,-0.2856598,-1.1020889,-0.2623169,-0.004248047,-0.44816896,101.0
35658,-0.5350971,-0.8820801,-0.9081116,-0.2623169,-0.004248047,-0.44816896,101.0
35659,-0.5350971,-0.8820801,-0.9081116,-0.15717773,-0.070092775,-0.45135498,101.0
35660,-0.4319105,-1.0342407,-0.20420074,-0.15717773,-0.070092775,-0.45135498,101.0
35661,-0.4319105,-1.0342407,-0.20420074,-0.013806152,-0.07434082,-0.33665773,101.0
35662,-0.3493986,-0.71816254,0.40741348,-0.013806152,-0.07434082,-0.33665773,101.0
35663,-0.3493986,-0.71816254,0.40741348,0.04141846,-0.0180542,-0.2814331,101.0
35664,-0.3493986,-0.71816254,0.40741348,0.04141846,-0.0180542,-0.2814331,101.0
35665,-0.17262173,-0.3487625,0.8291435,0.04141846,-0.0180542,-0.2814331,101.0
35666,-0.17262173,-0.3487625,0.8291435,-0.14655761,0.06690674,-0.08496094,101.0
35667,0.062098503,-0.29010773,0.67004013,-0.14655761,0.06690674,-0.08496094,101.0
35668,0.062098503,-0.29010773,0.67004013,-0.5872925,0.1529297,0.10620117,101.0
35669,0.14766502,-0.2689743,-0.10786438,-0.5872925,0.1529297,0.10620117,101.0
35670,0.14766502,-0.2689743,-0.10786438,-0.07752686,0.11044922,0.047790527,101.0
35671,0.20220184,-0.23579407,-0.60590744,-0.07752686,0.11044922,0.047790527,101.0
35672,0.20220184,-0.23579407,-0.60590744,0.10407715,0.08920898,-0.07434082,101.0
35673,0.33361244,-0.114974976,-0.3780136,0.10407715,0.08920898,-0.07434082,101.0
35674,0.33361244,-0.114974976,-0.3780136,0.0063720704,0.16461182,-0.12531738,101.0
35675,0.2855177,0.14064026,-0.19618607,0.0063720704,0.16461182,-0.12531738,101.0
35676,0.2855177,0.14064026,-0.19618607,-0.2081543,0.20072022,-0.30054933,101.0
35677,-0.09440136,0.13475037,-0.4587555,-0.2081543,0.20072022,-0.30054933,101.0
35678,-0.09440136,0.13475037,-0.4587555,-0.44923097,0.14974366,-0.45772704,101.0
35679,-0.5647669,-0.1955185,-0.52840424,-0.44923097,0.14974366,-0.45772704,101.0
35680,-0.5647669,-0.1955185,-0.52840424,-0.54375,0.087084964,-0.57561034,101.0
35681,-0.7418041,-0.7435608,-0.15732956,-0.54375,0.087084964,-0.57561034,101.0
35682,-0.7418041,-0.7435608,-0.15732956,-0.6669434,0.16461182,-0.4609131,101.0
35683,-0.6095085,-1.2443161,-0.041648865,-0.6669434,0.16461182,-0.4609131,101.0
35684,-0.6095085,-1.2443161,-0.041648865,-0.7051758,0.17735596,-0.35152587,101.0
35685,-0.39180565,-1.336029,-0.4152527,-0.7051758,0.17735596,-0.35152587,101.0
35686,-0.39180565,-1.336029,-0.4152527,-0.6605713,0.11044922,-0.38232422,101.0
35687,-0.18301201,-1.2145844,-0.5963135,-0.6605713,0.11044922,-0.38232422,101.0
35688,-0.18301201,-1.2145844,-0.5963135,-0.32922363,0.07434082,-0.35577393,101.0
35689,-0.007041931,-1.0795975,-0.31750488,-0.32922363,0.07434082,-0.35577393,101.0
35690,-0.007041931,-1.0795975,-0.31750488,-0.25806886,0.08283692,-0.30161133,101.0
35691,0.0471735,-0.80127716,-0.080589294,-0.25806886,0.08283692,-0.30161133,101.0
35692,0.0471735,-0.80127716,-0.080589294,-0.4694092,0.115759276,-0.23682861,101.0
35693,0.07612991,-0.4727249,-0.17787552,-0.4694092,0.115759276,-0.23682861,101.0
35694,0.07612991,-0.4727249,-0.17787552,-0.29099122,0.035046387,-0.21558838,101.0
35695,0.1630764,-0.22005463,-0.3859024,-0.29099122,0.035046387,-0.21558838,101.0
35696,0.1630764,-0.22005463,-0.3859024,-0.46834716,-0.027612304,-0.2262085,101.0
35697,0.1394577,-0.32604218,-0.42534637,-0.46834716,-0.027612304,-0.2262085,101.0
35698,0.1394577,-0.32604218,-0.42534637,-0.74447024,-0.07752686,-0.10407715,101.0
35699,-0.042938232,-0.82240295,-0.35643005,-0.74447024,-0.07752686,-0.10407715,101.0
35700,-0.042938232,-0.82240295,-0.35643005,-0.44498292,-0.1539917,-0.121069334,101.0
35701,-0.12875938,-1.130043,-0.3363037,-0.44498292,-0.1539917,-0.121069334,101.0
35702,-0.12875938,-1.130043,-0.3363037,-0.08920898,-0.20921631,-0.1359375,101.0
35703,0.052425385,-0.85578156,-0.25504303,-0.08920898,-0.20921631,-0.1359375,101.0
35704,0.052425385,-0.85578156,-0.25504303,0.14230958,-0.2516968,-0.093457036,101.0
35705,0.38463974,-0.2700119,-0.022247314,0.14230958,-0.2516968,-0.093457036,101.0
35706,0.38463974,-0.2700119,-0.022247314,0.35789797,-0.25063476,-0.06903076,101.0
35707,0.5773897,0.23904419,0.28146744,0.35789797,-0.25063476,-0.06903076,101.0
35708,0.5773897,0.23904419,0.28146744,0.2538208,-0.19222413,-0.1274414,101.0
35709,0.60730934,0.52363586,0.5378189,0.2538208,-0.19222413,-0.1274414,101.0
35710,0.60730934,0.52363586,0.5378189,0.18054199,-0.08602295,-0.14974366,101.0
35711,0.56049347,0.137146,0.4644699,0.18054199,-0.08602295,-0.14974366,101.0
35712,0.56049347,0.137146,0.4644699,0.1720459,0.04460449,-0.0010620117,101.0
35713,0.2977476,-0.29764557,0.061149597,0.1720459,0.04460449,-0.0010620117,101.0
35714,0.2977476,-0.29764557,0.061149597,0.095581055,-0.04991455,0.026550293,101.0
35715,0.063503265,-0.2894516,0.01102829,0.095581055,-0.04991455,0.026550293,101.0
35716,0.063503265,-0.2894516,0.01102829,-0.04991455,0.087084964,0.08920898,101.0
35717,-0.0038728714,-0.12142944,0.10675812,-0.04991455,0.087084964,0.08920898,101.0
35718,-0.0038728714,-0.12142944,0.10675812,0.06690674,0.11363526,0.15080567,101.0
35719,-0.04955864,0.23903656,-0.20187378,0.06690674,0.11363526,0.15080567,101.0
35720,-0.04955864,0.23903656,-0.20187378,0.25063476,0.020178223,-0.010620117,101.0
35721,-0.059519768,0.4766159,-0.33834076,0.25063476,0.020178223,-0.010620117,101.0
35722,-0.059519768,0.4766159,-0.33834076,0.22196046,-0.035046387,-0.118945315,101.0
35723,-0.047542572,0.26113892,-0.18056107,0.22196046,-0.035046387,-0.118945315,101.0
35724,-0.047542572,0.26113892,-0.18056107,0.1083252,-0.04248047,-0.1263794,101.0
35725,-0.03472519,-0.08068085,0.05882263,0.1083252,-0.04248047,-0.1263794,101.0
35726,-0.03472519,-0.08068085,0.05882263,0.090270996,-0.04885254,-0.070092775,101.0
35727,0.018594742,-0.109954834,0.47314453,0.090270996,-0.04885254,-0.070092775,101.0
35728,0.018594742,-0.109954834,0.47314453,0.1263794,-0.022302246,0.058410645,101.0
35729,0.11477852,0.11634827,0.73026276,0.1263794,-0.022302246,0.058410645,101.0
35730,0.11477852,0.11634827,0.73026276,-0.4619751,0.06159668,0.19541016,101.0
35731,0.101306915,0.012130737,0.33289337,-0.4619751,0.06159668,0.19541016,101.0
35732,0.101306915,0.012130737,0.33289337,0.3536499,0.07540283,0.32072756,101.0
35733,-8.2683563E-4,-0.18548584,-0.3399582,0.3536499,0.07540283,0.32072756,101.0
35734,-8.2683563E-4,-0.18548584,-0.3399582,0.724292,-0.026550293,0.14868164,101.0
35735,-0.0038604736,0.1167984,-0.34337616,0.724292,-0.026550293,0.14868164,101.0
35736,-0.0038604736,0.1167984,-0.34337616,0.6945557,0.004248047,0.16354981,101.0
35737,-0.0036506653,0.5311203,0.049079895,0.6945557,0.004248047,0.16354981,101.0
35738,-0.0036506653,0.5311203,0.049079895,0.3334717,0.08496094,0.16885987,101.0
35739,-0.079226494,0.67365265,0.14899063,0.3334717,0.08496094,0.16885987,101.0
35740,-0.079226494,0.67365265,0.14899063,0.25700685,0.06159668,0.11044922,101.0
35741,-0.13311958,0.60704803,0.052028656,0.25700685,0.06159668,0.11044922,101.0
35742,-0.13311958,0.60704803,0.052028656,0.2793091,0.004248047,0.04885254,101.0
35743,-0.14217663,0.5820389,-0.02822876,0.2793091,0.004248047,0.04885254,101.0
35744,-0.14217663,0.5820389,-0.02822876,0.16885987,-0.04141846,0.011682129,101.0
35745,-0.11807442,0.5907364,0.019908905,0.16885987,-0.04141846,0.011682129,101.0
35746,-0.11807442,0.5907364,0.019908905,0.12000733,-0.046728518,-0.009558106,101.0
35747,-0.10492134,0.4653778,0.16817093,0.12000733,-0.046728518,-0.009558106,101.0
35748,-0.10492134,0.4653778,0.16817093,0.05522461,-0.026550293,0.008496094,101.0
35749,-0.13412094,0.19828796,0.2638588,0.05522461,-0.026550293,0.008496094,101.0
35750,-0.13412094,0.19828796,0.2638588,0.09239502,-0.026550293,0.06796875,101.0
35751,-0.16034794,0.0873642,0.33303452,0.09239502,-0.026550293,0.06796875,101.0
35752,-0.16034794,0.0873642,0.33303452,0.050976563,-0.027612304,0.06478272,101.0
35753,-0.1327095,0.19937134,0.38673782,0.050976563,-0.027612304,0.06478272,101.0
35754,-0.1327095,0.19937134,0.38673782,-0.0180542,0.022302246,0.1263794,101.0
35755,-0.096853256,0.22010803,0.27983856,-0.0180542,0.022302246,0.1263794,101.0
35756,-0.096853256,0.22010803,0.27983856,0.16992188,0.023364259,0.090270996,101.0
35757,-0.04066658,0.211586,0.094963074,0.16992188,0.023364259,0.090270996,101.0
35758,-0.04066658,0.211586,0.094963074,0.26444092,0.012744141,0.08602295,101.0
35759,0.032396317,0.31414032,0.1402626,0.26444092,0.012744141,0.08602295,101.0
35760,0.032396317,0.31414032,0.1402626,0.1901001,0.0722168,0.12213135,101.0
35761,-0.008506775,0.37954712,0.1760521,0.1901001,0.0722168,0.12213135,101.0
35762,-0.008506775,0.37954712,0.1760521,-0.045666505,0.12850343,0.17523193,101.0
35763,-0.16754723,0.24163818,-0.11567688,-0.045666505,0.12850343,0.17523193,101.0
35764,-0.16754723,0.24163818,-0.11567688,-0.09239502,0.039294433,0.13062744,101.0
35765,-0.20391083,0.21582794,-0.3484993,-0.09239502,0.039294433,0.13062744,101.0
35766,-0.20391083,0.21582794,-0.3484993,-0.25913087,-0.0180542,0.0063720704,101.0
35767,-0.20391083,0.21582794,-0.3484993,-0.25913087,-0.0180542,0.0063720704,101.0
35768,-0.041986465,0.384346,-0.32854462,-0.25913087,-0.0180542,0.0063720704,101.0
35769,-0.041986465,0.384346,-0.32854462,-0.61702883,-0.021240234,-0.18372802,101.0
35770,0.08638191,-0.08073425,-0.1966629,-0.61702883,-0.021240234,-0.18372802,101.0
35771,0.08638191,-0.08073425,-0.1966629,-0.62552494,0.012744141,-0.12956543,101.0
35772,0.061281204,-0.9436264,-0.23871231,-0.62552494,0.012744141,-0.12956543,101.0
35773,0.061281204,-0.9436264,-0.23871231,-0.817749,0.0063720704,0.011682129,101.0
35774,-0.023497581,-1.0571136,-0.34825516,-0.817749,0.0063720704,0.011682129,101.0
35775,-0.023497581,-1.0571136,-0.34825516,-0.3430298,0.023364259,-0.053100586,101.0
35776,-0.027806282,-0.27561188,0.08207703,-0.3430298,0.023364259,-0.053100586,101.0
35777,-0.027806282,-0.27561188,0.08207703,0.12000733,0.118945315,-0.12213135,101.0
35778,0.06619549,0.7867279,0.70043945,0.12000733,0.118945315,-0.12213135,101.0
35779,0.06619549,0.7867279,0.70043945,0.11151123,0.2442627,-0.38338622,101.0
35780,0.07253647,1.2032089,0.4099121,0.11151123,0.2442627,-0.38338622,101.0
35781,0.07253647,1.2032089,0.4099121,0.10089111,0.22302246,-0.74659425,101.0
35782,-0.121938705,0.26423645,-0.6444473,0.10089111,0.22302246,-0.74659425,101.0
35783,-0.121938705,0.26423645,-0.6444473,0.21452637,-0.008496094,-0.7423462,101.0
35784,-0.14205742,-1.3779068,-1.0180969,0.21452637,-0.008496094,-0.7423462,101.0
35785,-0.14205742,-1.3779068,-1.0180969,-0.18797608,-0.21346436,-0.540564,101.0
35786,0.2109642,-2.3471146,-0.15268707,-0.18797608,-0.21346436,-0.540564,101.0
35787,0.2109642,-2.3471146,-0.15268707,0.4343628,-0.07434082,0.21452637,101.0
35788,0.33252907,-1.7095184,0.54332733,0.4343628,-0.07434082,0.21452637,101.0
35789,0.33252907,-1.7095184,0.54332733,0.58198243,0.050976563,0.6159668,101.0
35790,0.01631546,0.0072402954,0.3370285,0.58198243,0.050976563,0.6159668,101.0
35791,0.01631546,0.0072402954,0.3370285,0.5522461,0.05522461,0.52250975,101.0
35792,-0.2663784,1.3498917,-0.031929016,0.5522461,0.05522461,0.52250975,101.0
35793,-0.2663784,1.3498917,-0.031929016,0.1709839,0.011682129,0.41949463,101.0
35794,-0.35902596,1.6522064,-0.19878387,0.1709839,0.011682129,0.41949463,101.0
35795,-0.35902596,1.6522064,-0.19878387,-0.20284425,-0.06265869,0.23682861,101.0
35796,-0.33835602,1.179924,-0.091033936,-0.20284425,-0.06265869,0.23682861,101.0
35797,-0.33835602,1.179924,-0.091033936,0.014868164,-0.1274414,0.09239502,101.0
35798,-0.21216393,0.6865387,0.07642746,0.014868164,-0.1274414,0.09239502,101.0
35799,-0.21216393,0.6865387,0.07642746,0.070092775,-0.11363526,-0.13062744,101.0
35800,-0.014409065,0.29177094,0.19301605,0.070092775,-0.11363526,-0.13062744,101.0
35801,-0.014409065,0.29177094,0.19301605,0.19434814,-0.08920898,-0.17735596,101.0
35802,0.10495186,-0.2790985,0.2038269,0.19434814,-0.08920898,-0.17735596,101.0
35803,0.10495186,-0.2790985,0.2038269,0.19753419,-0.16992188,-0.09133301,101.0
35804,0.17337799,-0.68331146,0.16568756,0.19753419,-0.16992188,-0.09133301,101.0
35805,0.17337799,-0.68331146,0.16568756,0.24638672,-0.28674316,0.040356446,101.0
35806,0.27494526,-0.49375153,0.18494415,0.24638672,-0.28674316,0.040356446,101.0
35807,0.27494526,-0.49375153,0.18494415,0.11257324,-0.31435546,0.08071289,101.0
35808,0.36417007,0.03250122,0.27161407,0.11257324,-0.31435546,0.08071289,101.0
35809,0.36417007,0.03250122,0.27161407,0.22939454,-0.32603762,0.14124756,101.0
35810,0.41748428,0.59407043,0.33232117,0.22939454,-0.32603762,0.14124756,101.0
35811,0.41748428,0.59407043,0.33232117,0.12531738,-0.2538208,0.052038576,101.0
35812,0.44618225,0.98457336,0.32315445,0.12531738,-0.2538208,0.052038576,101.0
35813,0.44618225,0.98457336,0.32315445,0.13168946,-0.14761963,-0.15930176,101.0
35814,0.34228516,0.65745544,0.38323212,0.13168946,-0.14761963,-0.15930176,101.0
35815,0.34228516,0.65745544,0.38323212,0.08920898,-0.04885254,-0.08920898,101.0
35816,0.08315468,0.06690216,0.43111038,0.08920898,-0.04885254,-0.08920898,101.0
35817,0.08315468,0.06690216,0.43111038,0.03079834,-0.07540283,0.06796875,101.0
35818,-0.078495026,-0.24397278,0.44522095,0.03079834,-0.07540283,0.06796875,101.0
35819,-0.078495026,-0.24397278,0.44522095,-0.13487549,-0.026550293,0.28780517,101.0
35820,-0.21091652,-0.3514862,0.30864334,-0.13487549,-0.026550293,0.28780517,101.0
35821,-0.21091652,-0.3514862,0.30864334,0.31329346,0.08602295,0.46516114,101.0
35822,-0.5077839,-0.1899643,-0.2271576,0.31329346,0.08602295,0.46516114,101.0
35823,-0.5077839,-0.1899643,-0.2271576,0.5968506,-0.0361084,0.34833986,101.0
35824,-0.4188242,0.17273712,-0.5350838,0.5968506,-0.0361084,0.34833986,101.0
35825,-0.4188242,0.17273712,-0.5350838,0.49064943,-0.1444336,0.18266602,101.0
35826,0.24936485,0.43856812,-0.20506668,0.49064943,-0.1444336,0.18266602,101.0
35827,0.24936485,0.43856812,-0.20506668,0.1720459,-0.11151123,0.18903808,101.0
35828,0.7276659,0.52264404,0.1757431,0.1720459,-0.11151123,0.18903808,101.0
35829,0.7276659,0.52264404,0.1757431,0.16354981,-0.057348635,0.25594482,101.0
35830,0.60907364,0.5319214,0.1822319,0.16354981,-0.057348635,0.25594482,101.0
35831,0.60907364,0.5319214,0.1822319,0.14655761,-0.14230958,0.16779785,101.0
35832,0.39681625,0.8466644,-0.003250122,0.14655761,-0.14230958,0.16779785,101.0
35833,0.39681625,0.8466644,-0.003250122,0.18054199,-0.15505372,-0.033984374,101.0
35834,0.71751404,1.3391266,0.4554062,0.18054199,-0.15505372,-0.033984374,101.0
35835,0.71751404,1.3391266,0.4554062,-0.45454103,0.013806152,-0.24957275,101.0
35836,0.7686281,1.0098877,0.8805084,-0.45454103,0.013806152,-0.24957275,101.0
35837,0.7686281,1.0098877,0.8805084,-0.48427734,0.2899292,-0.14549561,101.0
35838,0.07576752,-0.026351929,0.1296997,-0.48427734,0.2899292,-0.14549561,101.0
35839,0.07576752,-0.026351929,0.1296997,-0.093457036,0.1263794,-0.270813,101.0
35840,-0.4492855,-0.5278473,-0.7928238,-0.093457036,0.1263794,-0.270813,101.0
35841,-0.4492855,-0.5278473,-0.7928238,-0.27293703,-0.038232423,-0.4725952,101.0
35842,-0.39099598,-0.41203308,-0.7417679,-0.27293703,-0.038232423,-0.4725952,101.0
35843,-0.39099598,-0.41203308,-0.7417679,-0.33028564,-0.090270996,-0.5129517,101.0
35844,-0.14261818,-0.43467712,0.0065956116,-0.33028564,-0.090270996,-0.5129517,101.0
35845,-0.14261818,-0.43467712,0.0065956116,-0.28568116,-0.053100586,-0.26444092,101.0
35846,-0.009931564,-0.4705429,0.69839096,-0.28568116,-0.053100586,-0.26444092,101.0
35847,-0.009931564,-0.4705429,0.69839096,-0.4725952,0.081774905,0.05628662,101.0
35848,-0.10916519,-0.4952469,0.5911484,-0.4725952,0.081774905,0.05628662,101.0
35849,-0.10916519,-0.4952469,0.5911484,-0.7582764,0.13912354,0.070092775,101.0
35850,-0.37309837,-0.7214432,-0.26678085,-0.7582764,0.13912354,0.070092775,101.0
35851,-0.37309837,-0.7214432,-0.26678085,0.070092775,0.06584473,-0.0021240234,101.0
35852,-0.40240955,-0.76488495,-0.72598267,0.070092775,0.06584473,-0.0021240234,101.0
35853,-0.40240955,-0.76488495,-0.72598267,0.118945315,-0.020178223,-0.14018555,101.0
35854,-0.13030243,-0.5982132,-0.35272217,0.118945315,-0.020178223,-0.14018555,101.0
35855,-0.13030243,-0.5982132,-0.35272217,0.007434082,0.06584473,0.090270996,101.0
35856,0.052764893,-0.41304016,0.0065689087,0.007434082,0.06584473,0.090270996,101.0
35857,0.052764893,-0.41304016,0.0065689087,-0.081774905,0.18054199,0.14655761,101.0
35858,-0.057287216,-0.0046157837,-0.21504211,-0.081774905,0.18054199,0.14655761,101.0
35859,-0.057287216,-0.0046157837,-0.21504211,-0.11363526,0.11469727,-0.03186035,101.0
35860,-0.16883945,0.29323578,-0.46639252,-0.11363526,0.11469727,-0.03186035,101.0
35861,-0.16883945,0.29323578,-0.46639252,-0.16142578,0.023364259,-0.15186767,101.0
35862,-0.083473206,0.12445831,-0.32860565,-0.16142578,0.023364259,-0.15186767,101.0
35863,-0.083473206,0.12445831,-0.32860565,-0.13062744,-0.0053100586,-0.14124756,101.0
35864,0.044916153,-0.18678284,0.01083374,-0.13062744,-0.0053100586,-0.14124756,101.0
35865,0.044916153,-0.18678284,0.01083374,-0.0021240234,0.007434082,-0.083898924,101.0
35866,0.044916153,-0.18678284,0.01083374,-0.0021240234,0.007434082,-0.083898924,100.0
35867,0.108454704,-0.12502289,0.12784195,-0.0021240234,0.007434082,-0.083898924,100.0
35868,0.108454704,-0.12502289,0.12784195,-0.16779785,0.021240234,-0.14230958,100.0
35869,0.11156845,-0.032829285,-0.033187866,-0.16779785,0.021240234,-0.14230958,100.0
35870,0.11156845,-0.032829285,-0.033187866,-0.22727051,-0.008496094,-0.26656494,100.0
35871,0.10278034,-0.044929504,-0.16186523,-0.22727051,-0.008496094,-0.26656494,100.0
35872,0.10278034,-0.044929504,-0.16186523,-0.5150757,-0.0361084,-0.3706421,100.0
35873,0.18910885,-0.52965546,-0.16899109,-0.5150757,-0.0361084,-0.3706421,100.0
35874,0.18910885,-0.52965546,-0.16899109,-0.9781128,0.0010620117,-0.32922363,100.0
35875,0.28965378,-1.3628616,-0.017910004,-0.9781128,0.0010620117,-0.32922363,100.0
35876,0.28965378,-1.3628616,-0.017910004,0.016992187,0.08283692,-0.121069334,100.0
35877,0.1784153,-1.1336212,0.10254288,0.016992187,0.08283692,-0.121069334,100.0
35878,0.1784153,-1.1336212,0.10254288,0.23682861,0.26550293,-0.24744873,100.0
35879,-0.09641647,0.02645111,0.188797,0.23682861,0.26550293,-0.24744873,100.0
35880,-0.09641647,0.02645111,0.188797,0.5607422,0.41524658,-0.38975832,100.0
35881,-0.23711872,0.9241028,0.2639389,0.5607422,0.41524658,-0.38975832,100.0
35882,-0.23711872,0.9241028,0.2639389,0.9197022,0.45454103,-0.65419924,100.0
35883,-0.08810806,1.4684067,0.18008423,0.9197022,0.45454103,-0.65419924,100.0
35884,-0.08810806,1.4684067,0.18008423,0.724292,0.4725952,-0.9430664,100.0
35885,0.18052673,1.3414993,-0.095581055,0.724292,0.4725952,-0.9430664,100.0
35886,0.18052673,1.3414993,-0.095581055,0.14974366,0.38763428,-1.1151123,100.0
35887,0.20905781,0.13585663,-0.45481873,0.14974366,0.38763428,-1.1151123,100.0
35888,0.20905781,0.13585663,-0.45481873,-0.35577393,0.22196046,-0.9430664,100.0
35889,0.07496166,-1.4540863,-0.6568222,-0.35577393,0.22196046,-0.9430664,100.0
35890,0.07496166,-1.4540863,-0.6568222,-0.76358646,0.090270996,-0.72004396,100.0
35891,-0.06387043,-2.6814804,-0.48303986,-0.76358646,0.090270996,-0.72004396,100.0
35892,-0.06387043,-2.6814804,-0.48303986,-0.5299439,0.05628662,-0.16461182,100.0
35893,-0.32079887,-2.389656,-0.12017059,-0.5299439,0.05628662,-0.16461182,100.0
35894,-0.32079887,-2.389656,-0.12017059,-0.053100586,0.1359375,0.15505372,100.0
35895,-0.614769,-0.49812317,0.004508972,-0.053100586,0.1359375,0.15505372,100.0
35896,-0.614769,-0.49812317,0.004508972,-0.17735596,0.1901001,0.043542482,100.0
35897,-0.5128479,0.9396515,-0.13180542,-0.17735596,0.1901001,0.043542482,100.0
35898,-0.5128479,0.9396515,-0.13180542,-0.18479005,0.1539917,-0.15930176,100.0
35899,-0.050549507,0.86413574,-0.2329216,-0.18479005,0.1539917,-0.15930176,100.0
35900,-0.050549507,0.86413574,-0.2329216,-0.32072756,0.06796875,-0.21346436,100.0
35901,0.27983665,-0.057495117,-0.30612564,-0.32072756,0.06796875,-0.21346436,100.0
35902,0.27983665,-0.057495117,-0.30612564,-0.35046387,-0.06159668,-0.17841797,100.0
35903,0.33077812,-0.93735504,-0.3619995,-0.35046387,-0.06159668,-0.17841797,100.0
35904,0.33077812,-0.93735504,-0.3619995,-0.16142578,-0.14230958,-0.035046387,100.0
35905,0.27967453,-1.1583633,-0.20915222,-0.16142578,-0.14230958,-0.035046387,100.0
35906,0.27967453,-1.1583633,-0.20915222,0.087084964,-0.13168946,0.1529297,100.0
35907,0.16062927,-0.46089935,0.081287384,0.087084964,-0.13168946,0.1529297,100.0
35908,0.16062927,-0.46089935,0.081287384,0.06690674,-0.026550293,0.14655761,100.0
35909,-0.07525635,0.5179367,0.22337723,0.06690674,-0.026550293,0.14655761,100.0
35910,-0.07525635,0.5179367,0.22337723,-0.033984374,0.095581055,0.008496094,100.0
35911,-0.22087383,0.7434387,0.14901352,-0.033984374,0.095581055,0.008496094,100.0
35912,-0.22087383,0.7434387,0.14901352,-0.10407715,0.1444336,-0.1263794,100.0
35913,-0.10021019,0.21290588,-0.0045547485,-0.10407715,0.1444336,-0.1263794,100.0
35914,-0.10021019,0.21290588,-0.0045547485,-0.14655761,0.09451904,-0.09133301,100.0
35915,0.065571785,-0.42281342,-0.26218796,-0.14655761,0.09451904,-0.09133301,100.0
35916,0.065571785,-0.42281342,-0.26218796,-0.1985962,-0.021240234,0.0021240234,100.0
35917,0.07591915,-0.7552948,-0.46509933,-0.1985962,-0.021240234,0.0021240234,100.0
35918,0.07591915,-0.7552948,-0.46509933,-0.015930176,-0.09664307,0.045666505,100.0
35919,0.042339325,-0.59233093,-0.3022461,-0.015930176,-0.09664307,0.045666505,100.0
35920,0.042339325,-0.59233093,-0.3022461,0.10938721,-0.0998291,0.14761963,100.0
35921,0.00497818,0.017250061,0.13462067,0.10938721,-0.0998291,0.14761963,100.0
35922,0.00497818,0.017250061,0.13462067,0.10513916,0.014868164,0.12213135,100.0
35923,-0.11312008,0.60445404,0.3361969,0.10513916,0.014868164,0.12213135,100.0
35924,-0.11312008,0.60445404,0.3361969,-0.025488282,0.09239502,-0.016992187,100.0
35925,-0.1621151,0.5664139,0.18836594,-0.025488282,0.09239502,-0.016992187,100.0
35926,-0.1621151,0.5664139,0.18836594,-0.021240234,0.09133301,-0.09770508,100.0
35927,-0.06443405,0.022781372,-0.08944321,-0.021240234,0.09133301,-0.09770508,100.0
35928,-0.06443405,0.022781372,-0.08944321,-0.013806152,0.0053100586,-0.06159668,100.0
35929,0.042531967,-0.4223404,-0.28190613,-0.013806152,0.0053100586,-0.06159668,100.0
35930,0.042531967,-0.4223404,-0.28190613,0.011682129,-0.10089111,0.05628662,100.0
35931,0.073942184,-0.44739532,-0.19327164,0.011682129,-0.10089111,0.05628662,100.0
35932,0.073942184,-0.44739532,-0.19327164,0.08071289,-0.10620117,0.13699952,100.0
35933,0.05292797,-0.11778259,0.067352295,0.08071289,-0.10620117,0.13699952,100.0
35934,0.05292797,-0.11778259,0.067352295,0.12850343,-0.04991455,0.12000733,100.0
35935,-0.002298355,0.34340668,0.24860764,0.12850343,-0.04991455,0.12000733,100.0
35936,-0.002298355,0.34340668,0.24860764,0.087084964,0.039294433,0.043542482,100.0
35937,-0.080890656,0.5703049,0.21448517,0.087084964,0.039294433,0.043542482,100.0
35938,-0.080890656,0.5703049,0.21448517,-0.040356446,0.08814698,-0.08283692,100.0
35939,-0.09088516,0.3282776,0.043582916,-0.040356446,0.08814698,-0.08283692,100.0
35940,-0.09088516,0.3282776,0.043582916,-0.046728518,0.09133301,-0.12319336,100.0
35941,-0.0027008057,-0.062332153,-0.0044517517,-0.046728518,0.09133301,-0.12319336,100.0
35942,-0.0027008057,-0.062332153,-0.0044517517,-0.06796875,0.04991455,-0.04460449,100.0
35943,0.05430889,-0.2972412,-0.0153923035,-0.06796875,0.04991455,-0.04460449,100.0
35944,0.05430889,-0.2972412,-0.0153923035,-0.09451904,-0.029736329,0.098767094,100.0
35945,0.010353088,-0.33702087,-0.16238403,-0.09451904,-0.029736329,0.098767094,100.0
35946,0.010353088,-0.33702087,-0.16238403,-0.057348635,-0.0722168,0.1263794,100.0
35947,-0.053875923,-0.15661621,-0.16855621,-0.057348635,-0.0722168,0.1263794,100.0
35948,-0.053875923,-0.15661621,-0.16855621,0.09770508,-0.06903076,0.15080567,100.0
35949,-0.07289791,0.21877289,-0.001411438,0.09770508,-0.06903076,0.15080567,100.0
35950,-0.07289791,0.21877289,-0.001411438,0.007434082,-0.013806152,0.045666505,100.0
35951,-0.083171844,0.47844696,0.10493469,0.007434082,-0.013806152,0.045666505,100.0
35952,-0.083171844,0.47844696,0.10493469,-0.093457036,0.083898924,-0.11257324,100.0
35953,-0.07102966,0.3263855,0.043800354,-0.093457036,0.083898924,-0.11257324,100.0
35954,-0.07102966,0.3263855,0.043800354,-0.06478272,0.11363526,-0.16673584,100.0
35955,-0.020959854,0.020118713,0.0165596,-0.06478272,0.11363526,-0.16673584,100.0
35956,-0.020959854,0.020118713,0.0165596,-0.19541016,0.09239502,-0.21240234,100.0
35957,-0.007930756,-0.27955627,0.020706177,-0.19541016,0.09239502,-0.21240234,100.0
35958,-0.007930756,-0.27955627,0.020706177,-0.3430298,0.0021240234,-0.090270996,100.0
35959,-0.043819427,-0.5966873,-0.15571594,-0.3430298,0.0021240234,-0.090270996,100.0
35960,-0.043819427,-0.5966873,-0.15571594,-0.093457036,-0.10089111,0.11363526,100.0
35961,-0.04390526,-0.71949005,-0.34769058,-0.093457036,-0.10089111,0.11363526,100.0
35962,-0.04390526,-0.71949005,-0.34769058,0.26337892,-0.22196046,0.29311523,100.0
35963,0.030500412,-0.30599976,-0.1425209,0.26337892,-0.22196046,0.29311523,100.0
35964,0.030500412,-0.30599976,-0.1425209,0.2548828,-0.21346436,0.37595215,100.0
35965,0.08172417,0.44278717,0.19839478,0.2548828,-0.21346436,0.37595215,100.0
35966,0.08172417,0.44278717,0.19839478,0.26868898,-0.10513916,0.34940186,100.0
35967,0.0010719299,0.7929764,0.20458984,0.26868898,-0.10513916,0.34940186,100.0
35968,0.0010719299,0.7929764,0.20458984,0.19116211,-0.12000733,0.4163086,100.0
35969,0.0010719299,0.7929764,0.20458984,0.19116211,-0.12000733,0.4163086,100.0
35970,-0.120186806,0.55864716,0.04234314,0.19116211,-0.12000733,0.4163086,100.0
35971,-0.120186806,0.55864716,0.04234314,-0.10301514,-0.17523193,0.38975832,100.0
35972,-0.25860023,0.17372131,0.001991272,-0.10301514,-0.17523193,0.38975832,100.0
35973,-0.25860023,0.17372131,0.001991272,-0.012744141,-0.17947999,0.43754885,100.0
35974,-0.4326496,0.19769287,0.010726929,-0.012744141,-0.17947999,0.43754885,100.0
35975,-0.4326496,0.19769287,0.010726929,0.3717041,-0.16673584,0.2538208,100.0
35976,-0.5089493,0.24800873,0.020179749,0.3717041,-0.16673584,0.2538208,100.0
35977,-0.5089493,0.24800873,0.020179749,0.8241211,-0.14124756,0.2782471,100.0
35978,-0.31427574,-0.01386261,0.2009201,0.8241211,-0.14124756,0.2782471,100.0
35979,-0.31427574,-0.01386261,0.2009201,0.8814697,-0.2548828,0.2442627,100.0
35980,0.118891716,0.015312195,0.58563995,0.8814697,-0.2548828,0.2442627,100.0
35981,0.118891716,0.015312195,0.58563995,0.4895874,-0.3090454,0.31329346,100.0
35982,0.54416084,0.34803772,0.90219116,0.4895874,-0.3090454,0.31329346,100.0
35983,0.54416084,0.34803772,0.90219116,-0.046728518,-0.30479738,0.57561034,100.0
35984,0.6309948,0.80080414,0.5424652,-0.046728518,-0.30479738,0.57561034,100.0
35985,0.6309948,0.80080414,0.5424652,0.13275146,-0.29417726,0.38551027,100.0
35986,0.5141468,1.4667664,0.23978424,0.13275146,-0.29417726,0.38551027,100.0
35987,0.5141468,1.4667664,0.23978424,1.1098022,-0.25700685,0.12000733,100.0
35988,0.45460415,1.7202301,0.53530884,1.1098022,-0.25700685,0.12000733,100.0
35989,0.45460415,1.7202301,0.53530884,0.5734863,-0.039294433,0.16461182,100.0
35990,0.19472599,1.0194473,0.59062576,0.5734863,-0.039294433,0.16461182,100.0
35991,0.19472599,1.0194473,0.59062576,0.3154175,0.04248047,0.3440918,100.0
35992,-0.22437096,0.1530075,0.1937027,0.3154175,0.04248047,0.3440918,100.0
35993,-0.22437096,0.1530075,0.1937027,0.17416993,-0.025488282,0.27506104,100.0
35994,-0.36594677,0.06475067,-0.083343506,0.17416993,-0.025488282,0.27506104,100.0
35995,-0.36594677,0.06475067,-0.083343506,0.045666505,-0.021240234,0.19541016,100.0
35996,-0.23178387,0.4065094,-0.17720795,0.045666505,-0.021240234,0.19541016,100.0
35997,-0.23178387,0.4065094,-0.17720795,0.1720459,-0.09664307,0.14549561,100.0
35998,-0.016701698,0.6826019,-0.1020813,0.1720459,-0.09664307,0.14549561,100.0
35999,-0.016701698,0.6826019,-0.1020813,0.07965088,-0.19328614,0.004248047,100.0
36000,0.4598322,1.0391846,0.24227142,0.07965088,-0.19328614,0.004248047,100.0
36001,0.4598322,1.0391846,0.24227142,0.028674318,-0.1720459,-0.1985962,100.0
36002,0.9764595,0.93161774,0.8136673,0.028674318,-0.1720459,-0.1985962,100.0
36003,0.9764595,0.93161774,0.8136673,-0.53525394,0.21877442,-0.16248779,100.0
36004,0.5204258,0.13957977,0.676445,-0.53525394,0.21877442,-0.16248779,100.0
36005,0.5204258,0.13957977,0.676445,-0.093457036,0.20603028,-0.093457036,100.0
36006,-0.36683846,-0.31671906,-0.37789917,-0.093457036,0.20603028,-0.093457036,100.0
36007,-0.36683846,-0.31671906,-0.37789917,-0.11363526,0.008496094,-0.33028564,100.0
36008,-0.47833443,-0.18125916,-0.86867523,-0.11363526,0.008496094,-0.33028564,100.0
36009,-0.47833443,-0.18125916,-0.86867523,-0.28461915,-0.053100586,-0.47365722,100.0
36010,-0.13902664,-0.21253967,-0.47572327,-0.28461915,-0.053100586,-0.47365722,100.0
36011,-0.13902664,-0.21253967,-0.47572327,-0.2262085,-0.04460449,-0.36745605,100.0
36012,0.0148534775,-0.4480133,0.072826385,-0.2262085,-0.04460449,-0.36745605,100.0
36013,0.0148534775,-0.4480133,0.072826385,-0.14655761,-0.026550293,-0.28355715,100.0
36014,-0.11100578,-0.39619446,0.3033676,-0.14655761,-0.026550293,-0.28355715,100.0
36015,-0.11100578,-0.39619446,0.3033676,-0.06903076,-0.008496094,-0.1720459,100.0
36016,-0.19753265,-0.1621933,0.23412323,-0.06903076,-0.008496094,-0.1720459,100.0
36017,-0.19753265,-0.1621933,0.23412323,-0.15823975,0.038232423,-0.24638672,100.0
36018,-0.10422993,-0.23983765,0.067977905,-0.15823975,0.038232423,-0.24638672,100.0
36019,-0.10422993,-0.23983765,0.067977905,-0.20072022,0.078588866,-0.17841797,100.0
36020,0.08420563,-0.41322327,-0.031570435,-0.20072022,0.078588866,-0.17841797,100.0
36021,0.08420563,-0.41322327,-0.031570435,-0.093457036,0.07434082,-0.19222413,100.0
36022,0.22308922,-0.3667984,-0.061302185,-0.093457036,0.07434082,-0.19222413,100.0
36023,0.22308922,-0.3667984,-0.061302185,-0.19541016,0.09770508,-0.16567384,100.0
36024,0.20740223,-0.31731415,-0.12764359,-0.19541016,0.09770508,-0.16567384,100.0
36025,0.20740223,-0.31731415,-0.12764359,-0.26868898,0.0541626,-0.17523193,100.0
36026,0.07432079,-0.22531891,-0.20770645,-0.26868898,0.0541626,-0.17523193,100.0
36027,0.07432079,-0.22531891,-0.20770645,-0.32497558,-0.0031860352,-0.2548828,100.0
36028,-0.019742966,-0.17949677,-0.21761703,-0.32497558,-0.0031860352,-0.2548828,100.0
36029,-0.019742966,-0.17949677,-0.21761703,-0.49064943,-0.021240234,-0.29417726,100.0
36030,-0.025938034,-0.46479034,-0.17750168,-0.49064943,-0.021240234,-0.29417726,100.0
36031,-0.025938034,-0.46479034,-0.17750168,-0.5055176,-0.047790527,-0.24744873,100.0
36032,0.037989616,-0.6935501,-0.12570572,-0.5055176,-0.047790527,-0.24744873,100.0
36033,0.037989616,-0.6935501,-0.12570572,-0.38338622,-0.04885254,-0.20603028,100.0
36034,0.111299515,-0.63168335,-0.10895157,-0.38338622,-0.04885254,-0.20603028,100.0
36035,0.111299515,-0.63168335,-0.10895157,-0.35683593,-0.013806152,-0.18797608,100.0
36036,0.16875076,-0.43680573,-0.15764618,-0.35683593,-0.013806152,-0.18797608,100.0
36037,0.16875076,-0.43680573,-0.15764618,-0.2793091,-0.028674318,-0.2793091,100.0
36038,0.2359047,-0.4072113,-0.12849808,-0.2793091,-0.028674318,-0.2793091,100.0
36039,0.2359047,-0.4072113,-0.12849808,-0.16036378,0.0361084,-0.18691407,100.0
36040,0.16742325,-0.7724838,-0.086185455,-0.16036378,0.0361084,-0.18691407,100.0
36041,0.16742325,-0.7724838,-0.086185455,-0.026550293,0.0541626,0.0180542,100.0
36042,-0.041122437,-0.9041672,-0.124687195,-0.026550293,0.0541626,0.0180542,100.0
36043,-0.041122437,-0.9041672,-0.124687195,0.3058594,-0.027612304,0.1529297,100.0
36044,-0.1315918,-0.31358337,-0.11437607,0.3058594,-0.027612304,0.1529297,100.0
36045,-0.1315918,-0.31358337,-0.11437607,0.24107666,-0.023364259,0.090270996,100.0
36046,-0.025562286,0.21515656,0.01128006,0.24107666,-0.023364259,0.090270996,100.0
36047,-0.025562286,0.21515656,0.01128006,0.19222413,-0.0053100586,0.08920898,100.0
36048,0.17548561,0.06665802,0.20962143,0.19222413,-0.0053100586,0.08920898,100.0
36049,0.17548561,0.06665802,0.20962143,0.61702883,0.052038576,0.26019287,100.0
36050,0.16737843,0.18344879,0.17709732,0.61702883,0.052038576,0.26019287,100.0
36051,0.16737843,0.18344879,0.17709732,0.71154785,0.026550293,0.19541016,100.0
36052,-0.0630579,0.78990173,0.011222839,0.71154785,0.026550293,0.19541016,100.0
36053,-0.0630579,0.78990173,0.011222839,0.3334717,0.0361084,0.028674318,100.0
36054,-0.20758724,0.953125,0.021369934,0.3334717,0.0361084,0.028674318,100.0
36055,-0.20758724,0.953125,0.021369934,0.040356446,0.026550293,0.0361084,100.0
36056,-0.16915894,0.51021576,0.07501984,0.040356446,0.026550293,0.0361084,100.0
36057,-0.16915894,0.51021576,0.07501984,-0.107263185,0.033984374,0.04248047,100.0
36058,-0.07950401,0.13038635,0.111003876,-0.107263185,0.033984374,0.04248047,100.0
36059,-0.07950401,0.13038635,0.111003876,0.03079834,0.035046387,0.10513916,100.0
36060,-0.042510033,0.1459732,0.07347107,0.03079834,0.035046387,0.10513916,100.0
36061,-0.042510033,0.1459732,0.07347107,-0.15611573,0.04885254,-0.009558106,100.0
36062,-0.03212738,0.22372437,-0.050159454,-0.15611573,0.04885254,-0.009558106,100.0
36063,-0.03212738,0.22372437,-0.050159454,-0.23151855,0.029736329,-0.09239502,100.0
36064,0.03246498,0.090042114,-0.13116837,-0.23151855,0.029736329,-0.09239502,100.0
36065,0.03246498,0.090042114,-0.13116837,-0.16248779,-0.009558106,-0.14337158,100.0
36066,0.062152863,-0.13664246,-0.13285065,-0.16248779,-0.009558106,-0.14337158,100.0
36067,0.062152863,-0.13664246,-0.13285065,-0.30479738,-0.04460449,-0.15717773,100.0
36068,-0.002963066,-0.36452484,-0.1247406,-0.30479738,-0.04460449,-0.15717773,100.0
36069,-0.002963066,-0.36452484,-0.1247406,-0.29630128,-0.050976563,-0.12956543,100.0
36070,-0.08034897,-0.4415741,-0.075366974,-0.29630128,-0.050976563,-0.12956543,100.0
36071,-0.08034897,-0.4415741,-0.075366974,-0.21346436,-0.053100586,-0.10407715,100.0
36072,-0.06816101,-0.21803284,0.025302887,-0.21346436,-0.053100586,-0.10407715,100.0
36073,-0.06816101,-0.21803284,0.025302887,-0.14655761,0.0031860352,-0.1263794,100.0
36074,0.027733803,-0.09307861,0.05252838,-0.14655761,0.0031860352,-0.1263794,100.0
36075,0.027733803,-0.09307861,0.05252838,-0.22514649,0.019116212,-0.10301514,100.0
36076,0.09845734,-0.34230804,0.15277863,-0.22514649,0.019116212,-0.10301514,100.0
36077,0.09845734,-0.34230804,0.15277863,0.028674318,-0.0063720704,0.09239502,100.0
36078,0.16593552,-0.44438934,0.30680466,0.028674318,-0.0063720704,0.09239502,100.0
36079,0.16593552,-0.44438934,0.30680466,0.0021240234,0.11363526,0.37382814,100.0
36080,0.088814735,-0.1964798,0.021728516,0.0021240234,0.11363526,0.37382814,100.0
36081,0.088814735,-0.1964798,0.021728516,0.02442627,0.08920898,0.24320069,100.0
36082,-0.13364792,0.15876007,-0.43620682,0.02442627,0.08920898,0.24320069,100.0
36083,-0.13364792,0.15876007,-0.43620682,0.02442627,0.08920898,0.24320069,99.0
36084,-0.13364792,0.15876007,-0.43620682,0.06159668,0.04885254,0.11682129,99.0
36085,-0.15861511,0.2668152,-0.43743134,0.06159668,0.04885254,0.11682129,99.0
36086,-0.15861511,0.2668152,-0.43743134,-0.03186035,0.06159668,0.07115479,99.0
36087,-0.14311504,0.34454346,-0.14302444,-0.03186035,0.06159668,0.07115479,99.0
36088,-0.14311504,0.34454346,-0.14302444,-0.14974366,0.09133301,-0.07327881,99.0
36089,-0.14209175,0.18856049,-0.1055069,-0.14974366,0.09133301,-0.07327881,99.0
36090,-0.14209175,0.18856049,-0.1055069,-0.08283692,0.0722168,-0.10301514,99.0
36091,-0.21742058,-0.23316193,-0.16035843,-0.08283692,0.0722168,-0.10301514,99.0
36092,-0.21742058,-0.23316193,-0.16035843,-0.07327881,-0.008496094,-0.09451904,99.0
36093,-0.18167496,-0.28709412,-0.16095352,-0.07327881,-0.008496094,-0.09451904,99.0
36094,-0.18167496,-0.28709412,-0.16095352,-0.058410645,-0.07540283,-0.10513916,99.0
36095,-0.060721397,-0.2530365,-0.07806778,-0.058410645,-0.07540283,-0.10513916,99.0
36096,-0.060721397,-0.2530365,-0.07806778,0.022302246,-0.1178833,-0.070092775,99.0
36097,0.013068199,-0.13398743,0.014801025,0.022302246,-0.1178833,-0.070092775,99.0
36098,0.013068199,-0.13398743,0.014801025,0.012744141,-0.11151123,-0.07965088,99.0
36099,0.08014488,0.07524109,0.14688492,0.012744141,-0.11151123,-0.07965088,99.0
36100,0.08014488,0.07524109,0.14688492,-0.16779785,-0.10301514,-0.10407715,99.0
36101,0.09344959,0.038635254,0.117240906,-0.16779785,-0.10301514,-0.10407715,99.0
36102,0.09344959,0.038635254,0.117240906,-0.21452637,-0.10089111,-0.10938721,99.0
36103,0.16405392,-0.16591644,0.15062714,-0.21452637,-0.10089111,-0.10938721,99.0
36104,0.16405392,-0.16591644,0.15062714,0.0063720704,-0.059472658,-0.023364259,99.0
36105,0.1635437,-0.16686249,0.19225311,0.0063720704,-0.059472658,-0.023364259,99.0
36106,0.1635437,-0.16686249,0.19225311,0.0021240234,-0.020178223,0.02442627,99.0
36107,0.20582294,-0.17825317,0.3013115,0.0021240234,-0.020178223,0.02442627,99.0
36108,0.20582294,-0.17825317,0.3013115,-0.1359375,0.090270996,0.15823975,99.0
36109,0.14136696,-0.14976501,0.10829544,-0.1359375,0.090270996,0.15823975,99.0
36110,0.14136696,-0.14976501,0.10829544,-0.027612304,0.090270996,0.22196046,99.0
36111,-0.01726532,0.0096588135,-0.25852966,-0.027612304,0.090270996,0.22196046,99.0
36112,-0.01726532,0.0096588135,-0.25852966,-0.3462158,0.050976563,0.023364259,99.0
36113,-0.14988422,0.1665039,-0.38248444,-0.3462158,0.050976563,0.023364259,99.0
36114,-0.14988422,0.1665039,-0.38248444,-0.14018555,0.057348635,0.03717041,99.0
36115,-0.1889019,0.03011322,-0.3880806,-0.14018555,0.057348635,0.03717041,99.0
36116,-0.1889019,0.03011322,-0.3880806,-0.0637207,0.0,-0.087084964,99.0
36117,-0.13052845,-0.19737244,-0.23613739,-0.0637207,0.0,-0.087084964,99.0
36118,-0.13052845,-0.19737244,-0.23613739,-0.007434082,-0.019116212,-0.08814698,99.0
36119,-0.057352066,-0.30843353,-0.032684326,-0.007434082,-0.019116212,-0.08814698,99.0
36120,-0.057352066,-0.30843353,-0.032684326,0.13806152,-0.039294433,-0.06903076,99.0
36121,-0.036458015,-0.17430878,0.11257172,0.13806152,-0.039294433,-0.06903076,99.0
36122,-0.036458015,-0.17430878,0.11257172,0.15080567,-0.043542482,-0.0722168,99.0
36123,0.052254677,0.16163635,0.2702217,0.15080567,-0.043542482,-0.0722168,99.0
36124,0.052254677,0.16163635,0.2702217,0.038232423,-0.0063720704,-0.07327881,99.0
36125,0.14701653,0.15905762,0.40711975,0.038232423,-0.0063720704,-0.07327881,99.0
36126,0.14701653,0.15905762,0.40711975,-0.0722168,0.06159668,0.033984374,99.0
36127,0.25258636,0.11102295,0.47827148,-0.0722168,0.06159668,0.033984374,99.0
36128,0.25258636,0.11102295,0.47827148,-0.35895997,0.11363526,0.2899292,99.0
36129,0.047528267,-0.17964935,-0.19979477,-0.35895997,0.11363526,0.2899292,99.0
36130,0.047528267,-0.17964935,-0.19979477,0.37489015,0.045666505,0.1539917,99.0
36131,-0.17191315,-0.38648224,-0.547493,0.37489015,0.045666505,0.1539917,99.0
36132,-0.17191315,-0.38648224,-0.547493,0.52888185,-0.019116212,0.15505372,99.0
36133,-0.16119957,-0.084198,-0.1665802,0.52888185,-0.019116212,0.15505372,99.0
36134,-0.16119957,-0.084198,-0.1665802,0.19753419,0.059472658,0.29417726,99.0
36135,-0.13301182,0.35079193,0.029029846,0.19753419,0.059472658,0.29417726,99.0
36136,-0.13301182,0.35079193,0.029029846,0.045666505,0.07434082,0.15611573,99.0
36137,-0.17198563,0.60417175,-0.054656982,0.045666505,0.07434082,0.15611573,99.0
36138,-0.17198563,0.60417175,-0.054656982,0.0722168,0.014868164,0.0180542,99.0
36139,-0.19797707,0.6874161,-0.074596405,0.0722168,0.014868164,0.0180542,99.0
36140,-0.19797707,0.6874161,-0.074596405,0.13381349,-0.0180542,-0.083898924,99.0
36141,-0.18706894,0.5762634,-0.02161789,0.13381349,-0.0180542,-0.083898924,99.0
36142,-0.18706894,0.5762634,-0.02161789,-0.07752686,-0.029736329,-0.20496826,99.0
36143,-0.13804626,0.24985504,0.092033386,-0.07752686,-0.029736329,-0.20496826,99.0
36144,-0.13804626,0.24985504,0.092033386,-0.032922365,-0.015930176,-0.17947999,99.0
36145,-0.04598427,-0.16210175,0.18156052,-0.032922365,-0.015930176,-0.17947999,99.0
36146,-0.04598427,-0.16210175,0.18156052,0.004248047,-0.010620117,-0.10089111,99.0
36147,0.057645798,-0.30199432,0.17083359,0.004248047,-0.010620117,-0.10089111,99.0
36148,0.057645798,-0.30199432,0.17083359,-0.015930176,-0.020178223,-0.053100586,99.0
36149,0.094249725,-0.20518494,0.12481308,-0.015930176,-0.020178223,-0.053100586,99.0
36150,0.094249725,-0.20518494,0.12481308,-0.06478272,-0.0063720704,0.022302246,99.0
36151,0.045333862,-0.056762695,0.026557922,-0.06478272,-0.0063720704,0.022302246,99.0
36152,0.045333862,-0.056762695,0.026557922,-0.09239502,0.004248047,0.008496094,99.0
36153,0.011341095,-0.0028839111,-0.08123398,-0.09239502,0.004248047,0.008496094,99.0
36154,0.011341095,-0.0028839111,-0.08123398,-0.083898924,-0.009558106,-0.04991455,99.0
36155,0.018679619,-0.058181763,-0.08584976,-0.083898924,-0.009558106,-0.04991455,99.0
36156,0.018679619,-0.058181763,-0.08584976,-0.083898924,-0.035046387,-0.04460449,99.0
36157,-0.004380226,-0.0598526,0.0048217773,-0.083898924,-0.035046387,-0.04460449,99.0
36158,-0.004380226,-0.0598526,0.0048217773,-0.098767094,-0.059472658,-0.04460449,99.0
36159,0.034020424,-0.059524536,0.21810532,-0.098767094,-0.059472658,-0.04460449,99.0
36160,0.034020424,-0.059524536,0.21810532,-0.26868898,-0.043542482,0.025488282,99.0
36161,0.1421814,-0.16976166,0.25724792,-0.26868898,-0.043542482,0.025488282,99.0
36162,0.1421814,-0.16976166,0.25724792,-0.3812622,0.022302246,0.15186767,99.0
36163,0.10341835,-0.028656006,-0.1780281,-0.3812622,0.022302246,0.15186767,99.0
36164,0.10341835,-0.028656006,-0.1780281,-0.58623046,-0.0637207,-0.007434082,99.0
36165,0.01875782,0.089157104,-0.5055084,-0.58623046,-0.0637207,-0.007434082,99.0
36166,0.01875782,0.089157104,-0.5055084,-0.80181885,-0.0722168,-0.0722168,99.0
36167,0.04671955,-0.5462189,-0.4463501,-0.80181885,-0.0722168,-0.0722168,99.0
36168,0.04671955,-0.5462189,-0.4463501,-0.725354,-0.0053100586,0.008496094,99.0
36169,0.021958351,-1.300766,-0.45705795,-0.725354,-0.0053100586,0.008496094,99.0
36170,0.021958351,-1.300766,-0.45705795,-0.6265869,0.0361084,0.10301514,99.0
36171,-0.06101036,-1.317543,-0.5028038,-0.6265869,0.0361084,0.10301514,99.0
36172,-0.06101036,-1.317543,-0.5028038,0.20496826,0.027612304,0.12213135,99.0
36173,-0.035331726,-0.34022522,-0.065841675,0.20496826,0.027612304,0.12213135,99.0
36174,-0.035331726,-0.34022522,-0.065841675,0.4970215,0.13275146,-0.012744141,99.0
36175,-0.008050919,1.0819473,0.4850464,0.4970215,0.13275146,-0.012744141,99.0
36176,-0.008050919,1.0819473,0.4850464,0.16885987,0.24851075,-0.29205322,99.0
36177,0.008171082,1.5393524,0.5356331,0.16885987,0.24851075,-0.29205322,99.0
36178,0.008171082,1.5393524,0.5356331,0.27293703,0.24213867,-0.6425171,99.0
36179,0.008171082,1.5393524,0.5356331,0.27293703,0.24213867,-0.6425171,99.0
36180,0.10414505,0.8529892,0.20010376,0.27293703,0.24213867,-0.6425171,99.0
36181,0.10414505,0.8529892,0.20010376,0.34940186,0.20072022,-0.70198977,99.0
36182,0.020792007,-0.16080475,-0.57357407,0.34940186,0.20072022,-0.70198977,99.0
36183,0.020792007,-0.16080475,-0.57357407,-0.24851075,-0.087084964,-0.7083618,99.0
36184,-0.042057037,-1.4525299,-0.86698914,-0.24851075,-0.087084964,-0.7083618,99.0
36185,-0.042057037,-1.4525299,-0.86698914,-0.4088745,-0.1731079,-0.43861085,99.0
36186,0.12420273,-2.379799,-0.10014343,-0.4088745,-0.1731079,-0.43861085,99.0
36187,0.12420273,-2.379799,-0.10014343,0.635083,-0.032922365,0.4248047,99.0
36188,0.106674194,-1.6861877,0.46781158,0.635083,-0.032922365,0.4248047,99.0
36189,0.106674194,-1.6861877,0.46781158,1.0407715,0.04248047,0.7614624,99.0
36190,-0.14743614,0.397377,0.35626602,1.0407715,0.04248047,0.7614624,99.0
36191,-0.14743614,0.397377,0.35626602,0.51082766,0.0361084,0.59472656,99.0
36192,-0.31180954,2.031845,-0.04554367,0.51082766,0.0361084,0.59472656,99.0
36193,-0.31180954,2.031845,-0.04554367,-0.13912354,-0.016992187,0.29311523,99.0
36194,-0.24593163,2.014244,-0.2121315,-0.13912354,-0.016992187,0.29311523,99.0
36195,-0.24593163,2.014244,-0.2121315,-0.3451538,-0.03079834,0.038232423,99.0
36196,-0.1581707,0.9031143,-0.046058655,-0.3451538,-0.03079834,0.038232423,99.0
36197,-0.1581707,0.9031143,-0.046058655,-0.118945315,-0.03186035,-0.0541626,99.0
36198,-0.11130142,-0.110321045,0.10235977,-0.118945315,-0.03186035,-0.0541626,99.0
36199,-0.11130142,-0.110321045,0.10235977,0.15930176,-0.08283692,-0.011682129,99.0
36200,-0.017959595,-0.446167,0.16982651,0.15930176,-0.08283692,-0.011682129,99.0
36201,-0.017959595,-0.446167,0.16982651,0.24851075,-0.10513916,0.04885254,99.0
36202,0.03930664,-0.3978424,0.20771027,0.24851075,-0.10513916,0.04885254,99.0
36203,0.03930664,-0.3978424,0.20771027,0.38232422,-0.18691407,0.10407715,99.0
36204,0.034472466,-0.14542389,0.28512573,0.38232422,-0.18691407,0.10407715,99.0
36205,0.034472466,-0.14542389,0.28512573,0.49489745,-0.25913087,0.16885987,99.0
36206,0.046474457,0.33303833,0.3153305,0.49489745,-0.25913087,0.16885987,99.0
36207,0.046474457,0.33303833,0.3153305,0.33771974,-0.2623169,0.18797608,99.0
36208,0.18276024,0.5945587,0.33045197,0.33771974,-0.2623169,0.18797608,99.0
36209,0.18276024,0.5945587,0.33045197,0.27293703,-0.271875,0.17735596,99.0
36210,0.3715248,0.54382324,0.3602333,0.27293703,-0.271875,0.17735596,99.0
36211,0.3715248,0.54382324,0.3602333,0.2516968,-0.21134034,0.17947999,99.0
36212,0.42827415,0.57653046,0.3841591,0.2516968,-0.21134034,0.17947999,99.0
36213,0.42827415,0.57653046,0.3841591,0.18266602,-0.11469727,0.083898924,99.0
36214,0.35496044,0.54881287,0.48916245,0.18266602,-0.11469727,0.083898924,99.0
36215,0.35496044,0.54881287,0.48916245,0.098767094,-0.0053100586,0.11363526,99.0
36216,0.14608955,0.2002716,0.5075035,0.098767094,-0.0053100586,0.11363526,99.0
36217,0.14608955,0.2002716,0.5075035,0.3334717,0.081774905,0.4067505,99.0
36218,-0.31967545,0.0103302,0.105392456,0.3334717,0.081774905,0.4067505,99.0
36219,-0.31967545,0.0103302,0.105392456,0.5012695,0.0063720704,0.40250245,99.0
36220,-0.6236973,0.43121338,-0.27642822,0.5012695,0.0063720704,0.40250245,99.0
36221,-0.6236973,0.43121338,-0.27642822,0.65207523,-0.0722168,0.124255374,99.0
36222,-0.33169746,0.766037,-0.08936691,0.65207523,-0.0722168,0.124255374,99.0
36223,-0.33169746,0.766037,-0.08936691,0.3727661,-0.027612304,0.3334717,99.0
36224,0.048069,0.5113754,0.21931458,0.3727661,-0.027612304,0.3334717,99.0
36225,0.048069,0.5113754,0.21931458,-0.2623169,-0.0361084,0.3069214,99.0
36226,0.14035988,0.42112732,0.2835083,-0.2623169,-0.0361084,0.3069214,99.0
36227,0.14035988,0.42112732,0.2835083,0.09664307,0.03186035,0.28568116,99.0
36228,-0.008402824,0.64431,-0.0017852783,0.09664307,0.03186035,0.28568116,99.0
36229,-0.008402824,0.64431,-0.0017852783,0.078588866,0.010620117,0.090270996,99.0
36230,-0.09229374,0.68627167,-0.28366852,0.078588866,0.010620117,0.090270996,99.0
36231,-0.09229374,0.68627167,-0.28366852,0.20284425,-0.1539917,-0.059472658,99.0
36232,0.3648491,0.85474396,0.016803741,0.20284425,-0.1539917,-0.059472658,99.0
36233,0.3648491,0.85474396,0.016803741,0.06159668,-0.16461182,-0.17947999,99.0
36234,0.9494724,0.860466,0.7078743,0.06159668,-0.16461182,-0.17947999,99.0
36235,0.9494724,0.860466,0.7078743,-0.59472656,0.18479005,-0.10407715,99.0
36236,0.6196728,0.17279816,0.6724167,-0.59472656,0.18479005,-0.10407715,99.0
36237,0.6196728,0.17279816,0.6724167,-0.23682861,0.22833252,-0.10407715,99.0
36238,-0.24497223,-0.4175949,-0.3214798,-0.23682861,0.22833252,-0.10407715,99.0
36239,-0.24497223,-0.4175949,-0.3214798,-0.16461182,0.010620117,-0.24213867,99.0
36240,-0.5011654,-0.44141388,-0.84446716,-0.16461182,0.010620117,-0.24213867,99.0
36241,-0.5011654,-0.44141388,-0.84446716,-0.24001466,-0.118945315,-0.39294434,99.0
36242,-0.25144482,-0.3305359,-0.4412613,-0.24001466,-0.118945315,-0.39294434,99.0
36243,-0.25144482,-0.3305359,-0.4412613,-0.083898924,-0.1083252,-0.23895264,99.0
36244,-0.034029007,-0.39199066,0.2802887,-0.083898924,-0.1083252,-0.23895264,99.0
36245,-0.034029007,-0.39199066,0.2802887,-0.2081543,-0.06265869,-0.08814698,99.0
36246,0.027172089,-0.42435455,0.7142067,-0.2081543,-0.06265869,-0.08814698,99.0
36247,0.027172089,-0.42435455,0.7142067,-0.3440918,0.0021240234,0.24957275,99.0
36248,-0.09913635,-0.18252563,0.3592682,-0.3440918,0.0021240234,0.24957275,99.0
36249,-0.09913635,-0.18252563,0.3592682,-0.4333008,0.06796875,0.0180542,99.0
36250,-0.21901798,-0.10884094,-0.32066727,-0.4333008,0.06796875,0.0180542,99.0
36251,-0.21901798,-0.10884094,-0.32066727,0.12850343,0.013806152,-0.12956543,99.0
36252,-0.10178852,-0.41815186,-0.36764145,0.12850343,0.013806152,-0.12956543,99.0
36253,-0.10178852,-0.41815186,-0.36764145,0.18585205,0.06265869,0.021240234,99.0
36254,0.028298378,-0.51166534,-0.06791687,0.18585205,0.06265869,0.021240234,99.0
36255,0.028298378,-0.51166534,-0.06791687,-0.052038576,0.17416993,0.19541016,99.0
36256,-0.07588482,-0.12804413,-0.21433258,-0.052038576,0.17416993,0.19541016,99.0
36257,-0.07588482,-0.12804413,-0.21433258,-0.15823975,0.10407715,-0.0031860352,99.0
36258,-0.21002388,0.24425507,-0.4585266,-0.15823975,0.10407715,-0.0031860352,99.0
36259,-0.21002388,0.24425507,-0.4585266,-0.24744873,0.0010620117,-0.17735596,99.0
36260,-0.13512039,0.2157135,-0.31111908,-0.24744873,0.0010620117,-0.17735596,99.0
36261,-0.13512039,0.2157135,-0.31111908,-0.18585205,0.0010620117,-0.20709229,99.0
36262,-0.021718979,-0.07397461,-0.11106491,-0.18585205,0.0010620117,-0.20709229,99.0
36263,-0.021718979,-0.07397461,-0.11106491,-0.095581055,-0.04991455,-0.18054199,99.0
36264,0.03017044,-0.27052307,-0.11898041,-0.095581055,-0.04991455,-0.18054199,99.0
36265,0.03017044,-0.27052307,-0.11898041,-0.15611573,-0.15823975,-0.25063476,99.0
36266,0.12063217,-0.31841278,-0.051265717,-0.15611573,-0.15823975,-0.25063476,99.0
36267,0.12063217,-0.31841278,-0.051265717,-0.06796875,-0.12319336,-0.24851075,99.0
36268,0.12063217,-0.31841278,-0.051265717,-0.06796875,-0.12319336,-0.24851075,98.0
36269,0.20879745,-0.21549988,0.15834045,-0.06796875,-0.12319336,-0.24851075,98.0
36270,0.20879745,-0.21549988,0.15834045,-0.21452637,-0.059472658,-0.25913087,98.0
36271,0.22913456,-0.194664,0.2843399,-0.21452637,-0.059472658,-0.25913087,98.0
36272,0.22913456,-0.194664,0.2843399,-0.30373535,0.007434082,-0.17629395,98.0
36273,0.21012688,-0.39698792,0.40078735,-0.30373535,0.007434082,-0.17629395,98.0
36274,0.21012688,-0.39698792,0.40078735,-0.15717773,0.08602295,-0.04991455,98.0
36275,0.15010834,-0.557045,0.23896408,-0.15717773,0.08602295,-0.04991455,98.0
36276,0.15010834,-0.557045,0.23896408,0.016992187,0.11044922,0.16779785,98.0
36277,-0.040350914,-0.3854065,-0.4199524,0.016992187,0.11044922,0.16779785,98.0
36278,-0.040350914,-0.3854065,-0.4199524,0.13168946,-0.05628662,0.057348635,98.0
36279,-0.087078094,0.2577896,-0.63616943,0.13168946,-0.05628662,0.057348635,98.0
36280,-0.087078094,0.2577896,-0.63616943,-0.7943848,-0.14761963,-0.3164795,98.0
36281,0.11194229,0.17710876,-0.16267014,-0.7943848,-0.14761963,-0.3164795,98.0
36282,0.11194229,0.17710876,-0.16267014,-0.5171997,0.08283692,-0.060534667,98.0
36283,0.15362835,-0.5799713,0.13802719,-0.5171997,0.08283692,-0.060534667,98.0
36284,0.15362835,-0.5799713,0.13802719,0.04141846,0.12850343,-0.10195313,98.0
36285,-0.020944595,-0.7045746,-8.544922E-4,0.04141846,0.12850343,-0.10195313,98.0
36286,-0.020944595,-0.7045746,-8.544922E-4,-0.03717041,0.12213135,-0.10407715,98.0
36287,-0.18675041,-0.4395523,-0.26646805,-0.03717041,0.12213135,-0.10407715,98.0
36288,-0.18675041,-0.4395523,-0.26646805,0.010620117,0.027612304,-0.13062744,98.0
36289,-0.18177319,-0.221344,-0.27158356,0.010620117,0.027612304,-0.13062744,98.0
36290,-0.18177319,-0.221344,-0.27158356,0.07327881,-0.03717041,-0.1083252,98.0
36291,0.10297012,-0.0497818,0.27304077,0.07327881,-0.03717041,-0.1083252,98.0
36292,0.10297012,-0.0497818,0.27304077,-0.08602295,0.03717041,0.098767094,98.0
36293,0.29961205,0.054733276,0.41971588,-0.08602295,0.03717041,0.098767094,98.0
36294,0.29961205,0.054733276,0.41971588,-0.60959476,0.06796875,0.20496826,98.0
36295,0.105814934,-0.20546722,-0.2731247,-0.60959476,0.06796875,0.20496826,98.0
36296,0.105814934,-0.20546722,-0.2731247,0.36427003,0.0010620117,0.10195313,98.0
36297,-0.09779453,-0.5255661,-0.4550972,0.36427003,0.0010620117,0.10195313,98.0
36298,-0.09779453,-0.5255661,-0.4550972,0.5979126,-0.0031860352,0.1720459,98.0
36299,-0.106202126,-0.2012024,-0.026126862,0.5979126,-0.0031860352,0.1720459,98.0
36300,-0.106202126,-0.2012024,-0.026126862,0.32391357,0.078588866,0.32178956,98.0
36301,-0.12262058,0.39990234,0.032440186,0.32391357,0.078588866,0.32178956,98.0
36302,-0.12262058,0.39990234,0.032440186,0.047790527,0.09239502,0.16248779,98.0
36303,-0.15400505,0.65213776,-0.13392258,0.047790527,0.09239502,0.16248779,98.0
36304,-0.15400505,0.65213776,-0.13392258,0.06903076,0.035046387,0.019116212,98.0
36305,-0.1642561,0.58810425,-0.107040405,0.06903076,0.035046387,0.019116212,98.0
36306,-0.1642561,0.58810425,-0.107040405,0.1359375,0.0053100586,-0.093457036,98.0
36307,-0.17959785,0.42167664,0.016429901,0.1359375,0.0053100586,-0.093457036,98.0
36308,-0.17959785,0.42167664,0.016429901,-0.053100586,-0.013806152,-0.1539917,98.0
36309,-0.16456413,0.20866394,0.11954117,-0.053100586,-0.013806152,-0.1539917,98.0
36310,-0.16456413,0.20866394,0.11954117,-0.019116212,0.0021240234,-0.15505372,98.0
36311,-0.102098465,-0.025535583,0.17308807,-0.019116212,0.0021240234,-0.15505372,98.0
36312,-0.102098465,-0.025535583,0.17308807,-0.008496094,0.025488282,-0.12000733,98.0
36313,-0.0040416718,-0.1696701,0.13980103,-0.008496094,0.025488282,-0.12000733,98.0
36314,-0.0040416718,-0.1696701,0.13980103,0.032922365,0.028674318,-0.027612304,98.0
36315,0.05340767,-0.16929626,0.042346954,0.032922365,0.028674318,-0.027612304,98.0
36316,0.05340767,-0.16929626,0.042346954,-0.053100586,0.020178223,-0.022302246,98.0
36317,0.033961296,-0.07588959,-0.019943237,-0.053100586,0.020178223,-0.022302246,98.0
36318,0.033961296,-0.07588959,-0.019943237,-0.070092775,0.021240234,-0.026550293,98.0
36319,-0.007047653,-0.04536438,0.013561249,-0.070092775,0.021240234,-0.026550293,98.0
36320,-0.007047653,-0.04536438,0.013561249,-0.078588866,0.022302246,-0.025488282,98.0
36321,-0.010350227,-0.10764313,0.12472916,-0.078588866,0.022302246,-0.025488282,98.0
36322,-0.010350227,-0.10764313,0.12472916,-0.13912354,0.022302246,0.093457036,98.0
36323,-0.01621437,-0.10836792,0.0397377,-0.13912354,0.022302246,0.093457036,98.0
36324,-0.01621437,-0.10836792,0.0397377,-0.26762697,-0.013806152,0.08814698,98.0
36325,-0.034381866,0.015335083,-0.1666832,-0.26762697,-0.013806152,0.08814698,98.0
36326,-0.034381866,0.015335083,-0.1666832,-0.20921631,-0.04885254,-0.013806152,98.0
36327,-0.011758804,0.1484909,-0.22016144,-0.20921631,-0.04885254,-0.013806152,98.0
36328,-0.011758804,0.1484909,-0.22016144,-0.39506838,-0.059472658,-0.06478272,98.0
36329,0.05735302,-0.011039734,-0.15878296,-0.39506838,-0.059472658,-0.06478272,98.0
36330,0.05735302,-0.011039734,-0.15878296,-0.65207523,-0.029736329,-0.06903076,98.0
36331,0.10563564,-0.3276825,-0.13618088,-0.65207523,-0.029736329,-0.06903076,98.0
36332,0.10563564,-0.3276825,-0.13618088,-0.87615967,0.035046387,-0.05522461,98.0
36333,0.03253174,-0.6030121,-0.33610535,-0.87615967,0.035046387,-0.05522461,98.0
36334,0.03253174,-0.6030121,-0.33610535,-0.9834229,0.06796875,-0.025488282,98.0
36335,-0.10103798,-1.1505356,-0.60342026,-0.9834229,0.06796875,-0.025488282,98.0
36336,-0.10103798,-1.1505356,-0.60342026,-0.47578126,-0.0063720704,-0.027612304,98.0
36337,-0.07370186,-1.282402,-0.45581055,-0.47578126,-0.0063720704,-0.027612304,98.0
36338,-0.07370186,-1.282402,-0.45581055,0.118945315,0.07752686,0.03079834,98.0
36339,0.04700756,-0.36174774,0.044052124,0.118945315,0.07752686,0.03079834,98.0
36340,0.04700756,-0.36174774,0.044052124,0.41418457,0.15080567,-0.14549561,98.0
36341,0.10076523,0.7176056,0.50644684,0.41418457,0.15080567,-0.14549561,98.0
36342,0.10076523,0.7176056,0.50644684,0.27718505,0.25913087,-0.41312256,98.0
36343,0.15505123,1.1353989,0.52692413,0.27718505,0.25913087,-0.41312256,98.0
36344,0.15505123,1.1353989,0.52692413,0.5331299,0.22408448,-0.59260255,98.0
36345,0.08562565,0.73957825,-0.23709106,0.5331299,0.22408448,-0.59260255,98.0
36346,0.08562565,0.73957825,-0.23709106,0.023364259,0.10620117,-0.76464844,98.0
36347,-0.06671715,-0.37005615,-0.9416504,0.023364259,0.10620117,-0.76464844,98.0
36348,-0.06671715,-0.37005615,-0.9416504,-0.32603762,-0.12213135,-0.72004396,98.0
36349,0.03679943,-1.9569244,-0.54684067,-0.32603762,-0.12213135,-0.72004396,98.0
36350,0.03679943,-1.9569244,-0.54684067,0.29630128,-0.045666505,-0.07752686,98.0
36351,0.15999317,-2.2688446,0.24310684,0.29630128,-0.045666505,-0.07752686,98.0
36352,0.15999317,-2.2688446,0.24310684,0.83474123,0.014868164,0.55968016,98.0
36353,-0.04829979,-0.47961426,0.41698074,0.83474123,0.014868164,0.55968016,98.0
36354,-0.04829979,-0.47961426,0.41698074,0.59472656,0.0722168,0.5076416,98.0
36355,-0.2977333,1.4248886,0.23266983,0.59472656,0.0722168,0.5076416,98.0
36356,-0.2977333,1.4248886,0.23266983,0.25063476,0.06265869,0.36851808,98.0
36357,-0.31825256,1.7888718,0.0020523071,0.25063476,0.06265869,0.36851808,98.0
36358,-0.31825256,1.7888718,0.0020523071,-0.09664307,0.023364259,0.1709839,98.0
36359,-0.19481182,0.9793854,-0.08308792,-0.09664307,0.023364259,0.1709839,98.0
36360,-0.19481182,0.9793854,-0.08308792,0.025488282,-0.03186035,0.06265869,98.0
36361,-0.030544281,0.24127197,-0.051361084,0.025488282,-0.03186035,0.06265869,98.0
36362,-0.030544281,0.24127197,-0.051361084,0.081774905,-0.06584473,0.0053100586,98.0
36363,0.04125023,-0.0423584,0.050216675,0.081774905,-0.06584473,0.0053100586,98.0
36364,0.04125023,-0.0423584,0.050216675,0.17735596,-0.090270996,0.012744141,98.0
36365,-0.026533127,-0.09195709,0.22440338,0.17735596,-0.090270996,0.012744141,98.0
36366,-0.026533127,-0.09195709,0.22440338,0.23258057,-0.13487549,0.090270996,98.0
36367,-0.07538986,-0.028945923,0.3308792,0.23258057,-0.13487549,0.090270996,98.0
36368,-0.07538986,-0.028945923,0.3308792,0.24107666,-0.18903808,0.14230958,98.0
36369,-9.737015E-4,0.03643036,0.27622604,0.24107666,-0.18903808,0.14230958,98.0
36370,-9.737015E-4,0.03643036,0.27622604,0.18585205,-0.23895264,0.20603028,98.0
36371,0.12551498,0.059677124,0.2361641,0.18585205,-0.23895264,0.20603028,98.0
36372,0.12551498,0.059677124,0.2361641,0.25063476,-0.2782471,0.3334717,98.0
36373,0.20458698,0.22933197,0.26826477,0.25063476,-0.2782471,0.3334717,98.0
36374,0.20458698,0.22933197,0.26826477,0.3175415,-0.23682861,0.3334717,98.0
36375,0.2703476,0.68647003,0.2906227,0.3175415,-0.23682861,0.3334717,98.0
36376,0.2703476,0.68647003,0.2906227,0.36851808,-0.15717773,0.14761963,98.0
36377,0.2703476,0.68647003,0.2906227,0.36851808,-0.15717773,0.14761963,97.0
36378,0.29870033,1.0479889,0.32928848,0.36851808,-0.15717773,0.14761963,97.0
36379,0.29870033,1.0479889,0.32928848,0.045666505,-0.009558106,-0.028674318,97.0
36380,0.12213898,0.77674866,0.26820374,0.045666505,-0.009558106,-0.028674318,97.0
36381,0.12213898,0.77674866,0.26820374,-0.033984374,0.0361084,-0.029736329,97.0
36382,-0.07846069,0.21086884,0.24466705,-0.033984374,0.0361084,-0.029736329,97.0
36383,-0.07846069,0.21086884,0.24466705,0.04248047,0.04248047,0.012744141,97.0
36384,-0.18172646,-0.13224792,0.4048996,0.04248047,0.04248047,0.012744141,97.0
36385,-0.18172646,-0.13224792,0.4048996,0.14868164,0.090270996,0.270813,97.0
36386,-0.3340292,-0.24983978,0.21483612,0.14868164,0.090270996,0.270813,97.0
36387,-0.3340292,-0.24983978,0.21483612,0.27293703,0.10407715,0.44498292,97.0
36388,-0.55052376,-0.061698914,-0.2961502,0.27293703,0.10407715,0.44498292,97.0
36389,-0.55052376,-0.061698914,-0.2961502,0.6701294,0.011682129,0.3430298,97.0
36390,-0.48932076,0.36634064,-0.5002899,0.6701294,0.011682129,0.3430298,97.0
36391,-0.48932076,0.36634064,-0.5002899,0.69349366,-0.1083252,0.20390625,97.0
36392,0.06091118,0.6117096,-0.1887207,0.69349366,-0.1083252,0.20390625,97.0
36393,0.06091118,0.6117096,-0.1887207,0.34833986,-0.13699952,0.20496826,97.0
36394,0.60438156,0.65979004,0.4159546,0.34833986,-0.13699952,0.20496826,97.0
36395,0.60438156,0.65979004,0.4159546,0.05522461,-0.0031860352,0.31329346,97.0
36396,0.543808,0.8277817,0.5633812,0.05522461,-0.0031860352,0.31329346,97.0
36397,0.543808,0.8277817,0.5633812,-0.13381349,0.078588866,0.29311523,97.0
36398,0.14564228,0.98114777,0.09169769,-0.13381349,0.078588866,0.29311523,97.0
36399,0.14564228,0.98114777,0.09169769,0.15930176,0.0031860352,0.09451904,97.0
36400,0.24758053,1.2068634,0.053329468,0.15930176,0.0031860352,0.09451904,97.0
36401,0.24758053,1.2068634,0.053329468,-0.271875,0.052038576,-0.23364258,97.0
36402,0.4329157,0.9833145,0.3645134,-0.271875,0.052038576,-0.23364258,97.0
36403,0.4329157,0.9833145,0.3645134,-0.52675784,0.27399904,-0.21983643,97.0
36404,-0.033904076,-0.013748169,0.07146835,-0.52675784,0.27399904,-0.21983643,97.0
36405,-0.033904076,-0.013748169,0.07146835,-0.2548828,0.16461182,-0.22196046,97.0
36406,-0.5242424,-0.7386322,-0.5118065,-0.2548828,0.16461182,-0.22196046,97.0
36407,-0.5242424,-0.7386322,-0.5118065,-0.2888672,-0.029736329,-0.32285157,97.0
36408,-0.4461031,-0.706604,-0.64276886,-0.2888672,-0.029736329,-0.32285157,97.0
36409,-0.4461031,-0.706604,-0.64276886,-0.31223145,-0.10938721,-0.41312256,97.0
36410,-0.06353569,-0.56668854,-0.24169159,-0.31223145,-0.10938721,-0.41312256,97.0
36411,-0.06353569,-0.56668854,-0.24169159,-0.28674316,-0.081774905,-0.33134767,97.0
36412,0.13700104,-0.59999084,0.21918488,-0.28674316,-0.081774905,-0.33134767,97.0
36413,0.13700104,-0.59999084,0.21918488,-0.043542482,-0.007434082,-0.11044922,97.0
36414,-0.015838623,-0.47714996,0.3010292,-0.043542482,-0.007434082,-0.11044922,97.0
36415,-0.015838623,-0.47714996,0.3010292,-0.095581055,0.040356446,-0.04885254,97.0
36416,-0.27270508,-0.36758423,0.05337143,-0.095581055,0.040356446,-0.04885254,97.0
36417,-0.27270508,-0.36758423,0.05337143,-0.35471192,0.0,-0.08814698,97.0
36418,-0.23864746,-0.644577,-0.031288147,-0.35471192,0.0,-0.08814698,97.0
36419,-0.23864746,-0.644577,-0.031288147,-0.08496094,-0.027612304,-0.07646485,97.0
36420,0.05690956,-0.4631958,0.08771515,-0.08496094,-0.027612304,-0.07646485,97.0
36421,0.05690956,-0.4631958,0.08771515,-0.016992187,0.08283692,-0.12319336,97.0
36422,0.16934395,0.29200745,-4.348755E-4,-0.016992187,0.08283692,-0.12319336,97.0
36423,0.16934395,0.29200745,-4.348755E-4,-0.0021240234,0.16673584,-0.44179687,97.0
36424,0.091005325,0.7649689,-0.06853485,-0.0021240234,0.16673584,-0.44179687,97.0
36425,0.091005325,0.7649689,-0.06853485,0.052038576,0.2623169,-0.81031495,97.0
36426,0.16247654,0.8072052,0.07002258,0.052038576,0.2623169,-0.81031495,97.0
36427,0.16247654,0.8072052,0.07002258,0.38975832,0.29205322,-0.99510497,97.0
36428,0.48736668,0.6841049,0.13652039,0.38975832,0.29205322,-0.99510497,97.0
36429,0.48736668,0.6841049,0.13652039,0.058410645,0.35046387,-1.1682129,97.0
36430,0.6980963,0.09276581,-0.12129974,0.058410645,0.35046387,-1.1682129,97.0
36431,0.6980963,0.09276581,-0.12129974,-0.3717041,0.29099122,-0.9430664,97.0
36432,0.4495659,-1.2859039,-0.67959595,-0.3717041,0.29099122,-0.9430664,97.0
36433,0.4495659,-1.2859039,-0.67959595,-0.8591675,0.058410645,-0.8591675,97.0
36434,-0.08227825,-2.9077377,-0.8032112,-0.8591675,0.058410645,-0.8591675,97.0
36435,-0.08227825,-2.9077377,-0.8032112,-0.31966552,0.033984374,-0.12213135,97.0
36436,-0.55129623,-3.1719818,-0.26810837,-0.31966552,0.033984374,-0.12213135,97.0
36437,-0.55129623,-3.1719818,-0.26810837,0.23895264,0.039294433,0.3971924,97.0
36438,-0.8412571,-1.084671,0.03643799,0.23895264,0.039294433,0.3971924,97.0
36439,-0.8412571,-1.084671,0.03643799,-0.047790527,0.16036378,0.3334717,97.0
36440,-0.681612,1.2587509,-0.07588196,-0.047790527,0.16036378,0.3334717,97.0
36441,-0.681612,1.2587509,-0.07588196,-0.07752686,0.16461182,0.0010620117,97.0
36442,-0.10352898,1.6548996,-0.16477203,-0.07752686,0.16461182,0.0010620117,97.0
36443,-0.10352898,1.6548996,-0.16477203,-0.26868898,0.11044922,-0.21877442,97.0
36444,0.35561657,0.48788452,-0.0957222,-0.26868898,0.11044922,-0.21877442,97.0
36445,0.35561657,0.48788452,-0.0957222,-0.28568116,0.0053100586,-0.13168946,97.0
36446,0.4302826,-0.78230286,-0.25766754,-0.28568116,0.0053100586,-0.13168946,97.0
36447,0.4302826,-0.78230286,-0.25766754,-0.1274414,-0.10407715,0.0031860352,97.0
36448,0.25914383,-1.196907,-0.38445663,-0.1274414,-0.10407715,0.0031860352,97.0
36449,0.25914383,-1.196907,-0.38445663,0.14018555,-0.1720459,0.14974366,97.0
36450,0.074417114,-0.6318283,-0.06503677,0.14018555,-0.1720459,0.14974366,97.0
36451,0.074417114,-0.6318283,-0.06503677,0.17523193,-0.12850343,0.2262085,97.0
36452,-0.07557297,0.36219025,0.30506134,0.17523193,-0.12850343,0.2262085,97.0
36453,-0.07557297,0.36219025,0.30506134,-0.0021240234,0.015930176,0.12850343,97.0
36454,-0.20536804,0.9267044,0.29767227,-0.0021240234,0.015930176,0.12850343,97.0
36455,-0.20536804,0.9267044,0.29767227,-0.07540283,0.1083252,-0.06903076,97.0
36456,-0.1763668,0.5926056,0.088150024,-0.07540283,0.1083252,-0.06903076,97.0
36457,-0.1763668,0.5926056,0.088150024,-0.022302246,0.118945315,-0.13487549,97.0
36458,-0.01292038,-0.16326904,-0.10408783,-0.022302246,0.118945315,-0.13487549,97.0
36459,-0.01292038,-0.16326904,-0.10408783,-0.20603028,0.040356446,-0.08920898,97.0
36460,0.06260109,-0.7281723,-0.295578,-0.20603028,0.040356446,-0.08920898,97.0
36461,0.06260109,-0.7281723,-0.295578,-0.083898924,-0.07646485,0.09133301,97.0
36462,0.04622364,-0.6912308,-0.33235168,-0.083898924,-0.07646485,0.09133301,97.0
36463,0.04622364,-0.6912308,-0.33235168,0.083898924,-0.121069334,0.15611573,97.0
36464,0.014469147,-0.07157898,-0.08099365,0.083898924,-0.121069334,0.15611573,97.0
36465,0.014469147,-0.07157898,-0.08099365,0.078588866,-0.11363526,0.10089111,97.0
36466,-0.008676529,0.49853516,0.2434082,0.078588866,-0.11363526,0.10089111,97.0
36467,-0.008676529,0.49853516,0.2434082,0.015930176,-0.038232423,0.02442627,97.0
36468,-0.0258255,0.635437,0.3024063,0.015930176,-0.038232423,0.02442627,97.0
36469,-0.0258255,0.635437,0.3024063,-0.1178833,0.07646485,-0.093457036,97.0
36470,-0.015325546,0.30910492,0.15711212,-0.1178833,0.07646485,-0.093457036,97.0
36471,-0.015325546,0.30910492,0.15711212,-0.07965088,0.115759276,-0.15611573,97.0
36472,0.064546585,-0.098236084,0.14496613,-0.07965088,0.115759276,-0.15611573,97.0
36473,0.064546585,-0.098236084,0.14496613,-0.20603028,0.124255374,-0.058410645,97.0
36474,0.082325935,-0.4600296,-0.026874542,-0.20603028,0.124255374,-0.058410645,97.0
36475,0.082325935,-0.4600296,-0.026874542,-0.20603028,0.124255374,-0.058410645,96.0
36476,0.082325935,-0.4600296,-0.026874542,-0.26762697,0.029736329,0.06584473,96.0
36477,-0.03459072,-0.7282257,-0.47977448,-0.26762697,0.029736329,0.06584473,96.0
36478,-0.03459072,-0.7282257,-0.47977448,-0.022302246,-0.121069334,0.17629395,96.0
36479,-0.07840538,-0.47607422,-0.47533417,-0.022302246,-0.121069334,0.17629395,96.0
36480,-0.07840538,-0.47607422,-0.47533417,0.12531738,-0.18160401,0.2803711,96.0
36481,0.029744148,0.23484802,-0.01964569,0.12531738,-0.18160401,0.2803711,96.0
36482,0.029744148,0.23484802,-0.01964569,0.0010620117,-0.027612304,0.2166504,96.0
36483,0.030386925,0.5923691,0.23679733,0.0010620117,-0.027612304,0.2166504,96.0
36484,0.030386925,0.5923691,0.23679733,-0.013806152,0.07646485,0.1731079,96.0
36485,-0.18092728,0.29658508,0.13014984,-0.013806152,0.07646485,0.1731079,96.0
36486,-0.18092728,0.29658508,0.13014984,0.035046387,0.03186035,0.3175415,96.0
36487,-0.34547424,-0.020736694,-0.14995575,0.035046387,0.03186035,0.3175415,96.0
36488,-0.34547424,-0.020736694,-0.14995575,-0.18479005,-0.033984374,0.2888672,96.0
36489,-0.3563347,0.0068740845,-0.28715134,-0.18479005,-0.033984374,0.2888672,96.0
36490,-0.3563347,0.0068740845,-0.28715134,-0.10089111,-0.06690674,0.28355715,96.0
36491,-0.31154442,0.29212952,-0.17775726,-0.10089111,-0.06690674,0.28355715,96.0
36492,-0.31154442,0.29212952,-0.17775726,0.21452637,-0.04991455,0.11044922,96.0
36493,-0.28901863,0.110557556,0.027801514,0.21452637,-0.04991455,0.11044922,96.0
36494,-0.28901863,0.110557556,0.027801514,0.66269535,-0.07115479,0.23789063,96.0
36495,-0.20576382,-0.51763153,0.21600342,0.66269535,-0.07115479,0.23789063,96.0
36496,-0.20576382,-0.51763153,0.21600342,0.72854006,-0.21558838,0.32178956,96.0
36497,-0.0119133,-0.31639862,0.3064804,0.72854006,-0.21558838,0.32178956,96.0
36498,-0.0119133,-0.31639862,0.3064804,0.72004396,-0.28461915,0.3706421,96.0
36499,0.15969563,0.51103973,0.34910202,0.72004396,-0.28461915,0.3706421,96.0
36500,0.15969563,0.51103973,0.34910202,0.33028564,-0.29311523,0.2888672,96.0
36501,0.24398041,1.0385208,0.5000839,0.33028564,-0.29311523,0.2888672,96.0
36502,0.24398041,1.0385208,0.5000839,0.42268068,-0.31966552,0.23045655,96.0
36503,0.33693218,1.4041672,0.767025,0.42268068,-0.31966552,0.23045655,96.0
36504,0.33693218,1.4041672,0.767025,0.24320069,-0.20390625,0.24957275,96.0
36505,0.35671616,1.4357986,0.69986343,0.24320069,-0.20390625,0.24957275,96.0
36506,0.35671616,1.4357986,0.69986343,-0.07752686,-0.06478272,0.18479005,96.0
36507,0.19264793,0.9181366,0.2730713,-0.07752686,-0.06478272,0.18479005,96.0
36508,0.19264793,0.9181366,0.2730713,0.3430298,-0.058410645,0.039294433,96.0
36509,0.037077904,0.20593262,0.15293121,0.3430298,-0.058410645,0.039294433,96.0
36510,0.037077904,0.20593262,0.15293121,0.5246338,0.083898924,0.10620117,96.0
36511,-0.22428131,-0.3673706,0.10558319,0.5246338,0.083898924,0.10620117,96.0
36512,-0.22428131,-0.3673706,0.10558319,0.16885987,0.03186035,0.38657227,96.0
36513,-0.4194517,-0.22982025,-0.10063934,0.16885987,0.03186035,0.38657227,96.0
36514,-0.4194517,-0.22982025,-0.10063934,-0.06584473,-0.05628662,0.34940186,96.0
36515,-0.19913578,0.41645813,-0.11887741,-0.06584473,-0.05628662,0.34940186,96.0
36516,-0.19913578,0.41645813,-0.11887741,0.022302246,-0.043542482,0.2262085,96.0
36517,0.018731117,0.6263046,-0.13059998,0.022302246,-0.043542482,0.2262085,96.0
36518,0.018731117,0.6263046,-0.13059998,0.21240234,-0.098767094,0.22514649,96.0
36519,0.05838108,0.65961456,-0.11692047,0.21240234,-0.098767094,0.22514649,96.0
36520,0.05838108,0.65961456,-0.11692047,0.22196046,-0.24957275,0.043542482,96.0
36521,0.3752327,1.1354294,0.06334686,0.22196046,-0.24957275,0.043542482,96.0
36522,0.3752327,1.1354294,0.06334686,-0.021240234,-0.20921631,-0.22302246,96.0
36523,1.0367956,1.0307922,0.6784973,-0.021240234,-0.20921631,-0.22302246,96.0
36524,1.0367956,1.0307922,0.6784973,-0.79013675,0.1359375,-0.25063476,96.0
36525,0.85162926,0.03517914,0.86208344,-0.79013675,0.1359375,-0.25063476,96.0
36526,0.85162926,0.03517914,0.86208344,-0.098767094,0.25913087,-0.12956543,96.0
36527,-0.13220978,-0.70118713,-0.030410767,-0.098767094,0.25913087,-0.12956543,96.0
36528,-0.13220978,-0.70118713,-0.030410767,-0.05628662,0.13806152,-0.14761963,96.0
36529,-0.7024107,-0.53391266,-0.785511,-0.05628662,0.13806152,-0.14761963,96.0
36530,-0.7024107,-0.53391266,-0.785511,-0.30161133,-0.03186035,-0.29099122,96.0
36531,-0.534256,-0.1453476,-0.6879921,-0.30161133,-0.03186035,-0.29099122,96.0
36532,-0.534256,-0.1453476,-0.6879921,-0.5171997,-0.057348635,-0.35895997,96.0
36533,-0.046289444,-0.24115753,-0.07772827,-0.5171997,-0.057348635,-0.35895997,96.0
36534,-0.046289444,-0.24115753,-0.07772827,-0.20603028,0.011682129,-0.22408448,96.0
36535,0.12305069,-0.48588562,0.23220062,-0.20603028,0.011682129,-0.22408448,96.0
36536,0.12305069,-0.48588562,0.23220062,-0.18054199,0.039294433,-0.11044922,96.0
36537,-0.024593353,-0.5486679,0.13762665,-0.18054199,0.039294433,-0.11044922,96.0
36538,-0.024593353,-0.5486679,0.13762665,-0.29523927,0.004248047,-0.14974366,96.0
36539,-0.057149887,-0.74723816,0.036819458,-0.29523927,0.004248047,-0.14974366,96.0
36540,-0.057149887,-0.74723816,0.036819458,-0.29630128,-0.06159668,-0.06265869,96.0
36541,0.077791214,-0.5899048,0.022228241,-0.29630128,-0.06159668,-0.06265869,96.0
36542,0.077791214,-0.5899048,0.022228241,0.0053100586,0.033984374,-0.16885987,96.0
36543,0.14369011,0.0138549805,-0.034706116,0.0053100586,0.033984374,-0.16885987,96.0
36544,0.14369011,0.0138549805,-0.034706116,-0.047790527,0.12000733,-0.4439209,96.0
36545,0.12639046,0.19797516,-0.07477188,-0.047790527,0.12000733,-0.4439209,96.0
36546,0.12639046,0.19797516,-0.07477188,0.039294433,0.20709229,-0.50445557,96.0
36547,0.08774567,0.23660278,-0.02721405,0.039294433,0.20709229,-0.50445557,96.0
36548,0.08774567,0.23660278,-0.02721405,0.37595215,0.23682861,-0.66588134,96.0
36549,0.22388363,0.6630478,0.1966362,0.37595215,0.23682861,-0.66588134,96.0
36550,0.22388363,0.6630478,0.1966362,0.27293703,0.2793091,-0.7147339,96.0
36551,0.44562244,0.8688278,0.11023712,0.27293703,0.2793091,-0.7147339,96.0
36552,0.44562244,0.8688278,0.11023712,-0.4258667,0.30161133,-0.77102053,96.0
36553,0.4527378,-0.13621521,-0.51498413,-0.4258667,0.30161133,-0.77102053,96.0
36554,0.4527378,-0.13621521,-0.51498413,-0.63720703,0.16142578,-0.7317261,96.0
36555,-0.054728508,-2.4773407,-0.8663597,-0.63720703,0.16142578,-0.7317261,96.0
36556,-0.054728508,-2.4773407,-0.8663597,-0.5246338,0.0637207,-0.09451904,96.0
36557,-0.8191376,-3.4876862,-0.51485443,-0.5246338,0.0637207,-0.09451904,96.0
36558,-0.8191376,-3.4876862,-0.51485443,0.17416993,0.022302246,0.44073486,96.0
36559,-1.0269289,-1.4173431,-0.13710022,0.17416993,0.022302246,0.44073486,96.0
36560,-1.0269289,-1.4173431,-0.13710022,-0.18479005,0.16673584,0.2538208,96.0
36561,-0.48364067,1.1345215,-0.05256653,-0.18479005,0.16673584,0.2538208,96.0
36562,-0.48364067,1.1345215,-0.05256653,-0.15930176,0.13381349,-0.124255374,96.0
36563,0.18958855,1.6640854,-0.03564453,-0.15930176,0.13381349,-0.124255374,96.0
36564,0.18958855,1.6640854,-0.03564453,-0.31223145,0.083898924,-0.3069214,96.0
36565,0.41268158,0.50099945,-0.09884262,-0.31223145,0.083898924,-0.3069214,96.0
36566,0.41268158,0.50099945,-0.09884262,-0.24107666,-0.028674318,-0.26019287,96.0
36567,0.29351234,-0.85801697,-0.38289642,-0.24107666,-0.028674318,-0.26019287,96.0
36568,0.29351234,-0.85801697,-0.38289642,-0.17523193,-0.15080567,-0.16248779,96.0
36569,0.19886017,-1.3284912,-0.36317825,-0.17523193,-0.15080567,-0.16248779,96.0
36570,0.19886017,-1.3284912,-0.36317825,0.07752686,-0.21134034,0.10089111,96.0
36571,0.12454224,-0.8013687,0.043304443,0.07752686,-0.21134034,0.10089111,96.0
36572,0.12454224,-0.8013687,0.043304443,0.10195313,-0.115759276,0.16354981,96.0
36573,-0.0013179779,0.30174255,0.33560944,0.10195313,-0.115759276,0.16354981,96.0
36574,-0.0013179779,0.30174255,0.33560944,-0.0021240234,0.025488282,0.040356446,96.0
36575,-0.055351257,0.94893646,0.35209274,-0.0021240234,0.025488282,0.040356446,96.0
36576,-0.055351257,0.94893646,0.35209274,-0.1539917,0.15505372,-0.1901001,96.0
36577,0.013519287,0.54896545,0.26943207,-0.1539917,0.15505372,-0.1901001,96.0
36578,0.013519287,0.54896545,0.26943207,-0.17735596,0.18691407,-0.10513916,96.0
36579,0.02517128,-0.34126282,-0.18593216,-0.17735596,0.18691407,-0.10513916,96.0
36580,0.02517128,-0.34126282,-0.18593216,0.027612304,0.004248047,0.038232423,96.0
36581,-0.011137962,-0.7128906,-0.49734497,0.027612304,0.004248047,0.038232423,96.0
36582,-0.011137962,-0.7128906,-0.49734497,-0.0063720704,-0.13381349,0.1274414,96.0
36583,-0.011137962,-0.7128906,-0.49734497,-0.0063720704,-0.13381349,0.1274414,95.0
36584,0.090332985,-0.8856659,-0.5379486,-0.0063720704,-0.13381349,0.1274414,95.0
36585,0.090332985,-0.8856659,-0.5379486,0.07540283,-0.23682861,0.362146,95.0
36586,0.122535706,-0.38210297,-0.12615967,0.07540283,-0.23682861,0.362146,95.0
36587,0.122535706,-0.38210297,-0.12615967,0.012744141,-0.124255374,0.3695801,95.0
36588,-0.09827232,0.59980774,0.39595795,0.012744141,-0.124255374,0.3695801,95.0
36589,-0.09827232,0.59980774,0.39595795,-0.07327881,-0.009558106,0.48321533,95.0
36590,-0.26907253,0.60528564,0.22588348,-0.07327881,-0.009558106,0.48321533,95.0
36591,-0.26907253,0.60528564,0.22588348,-0.21877442,-0.040356446,0.4163086,95.0
36592,-0.375,0.648674,-0.20377731,-0.21877442,-0.040356446,0.4163086,95.0
36593,-0.375,0.648674,-0.20377731,0.10407715,-0.04141846,0.21027832,95.0
36594,-0.33228683,0.54772186,-0.18850708,0.10407715,-0.04141846,0.21027832,95.0
36595,-0.33228683,0.54772186,-0.18850708,0.1539917,-0.0031860352,0.07965088,95.0
36596,-0.33782673,-0.5672455,-0.16434097,0.1539917,-0.0031860352,0.07965088,95.0
36597,-0.33782673,-0.5672455,-0.16434097,0.817749,-0.13062744,0.24957275,95.0
36598,-0.22741508,-0.741066,0.10448837,0.817749,-0.13062744,0.24957275,95.0
36599,-0.22741508,-0.741066,0.10448837,0.8793457,-0.19541016,0.3717041,95.0
36600,0.21316051,-0.16636658,0.78469086,0.8793457,-0.19541016,0.3717041,95.0
36601,0.21316051,-0.16636658,0.78469086,0.17841797,-0.22302246,0.6000366,95.0
36602,0.20740509,0.17393494,0.7113838,0.17841797,-0.22302246,0.6000366,95.0
36603,0.20740509,0.17393494,0.7113838,-0.047790527,-0.24107666,0.7720825,95.0
36604,0.008575439,1.1243744,0.015151978,-0.047790527,-0.24107666,0.7720825,95.0
36605,0.008575439,1.1243744,0.015151978,0.8963379,-0.37701416,0.3164795,95.0
36606,0.07524395,1.6597519,0.06781006,0.8963379,-0.37701416,0.3164795,95.0
36607,0.07524395,1.6597519,0.06781006,1.2425537,-0.38975832,0.11151123,95.0
36608,0.492898,2.2358704,0.6140518,1.2425537,-0.38975832,0.11151123,95.0
36609,0.492898,2.2358704,0.6140518,0.37382814,-0.046728518,0.07646485,95.0
36610,0.48501682,1.1575317,0.719368,0.37382814,-0.046728518,0.07646485,95.0
36611,0.48501682,1.1575317,0.719368,0.032922365,0.015930176,0.32603762,95.0
36612,-0.11060715,-0.13960266,0.20166779,0.032922365,0.015930176,0.32603762,95.0
36613,-0.11060715,-0.13960266,0.20166779,0.019116212,-0.07327881,0.23895264,95.0
36614,-0.34956932,-0.006362915,0.054218292,0.019116212,-0.07327881,0.23895264,95.0
36615,-0.34956932,-0.006362915,0.054218292,0.11151123,0.028674318,0.13699952,95.0
36616,-0.05164051,0.6752167,-0.0018997192,0.11151123,0.028674318,0.13699952,95.0
36617,-0.05164051,0.6752167,-0.0018997192,0.019116212,0.023364259,-0.10301514,95.0
36618,0.055049896,0.46842194,0.00786972,0.019116212,0.023364259,-0.10301514,95.0
36619,0.055049896,0.46842194,0.00786972,0.1263794,-0.014868164,-0.04885254,95.0
36620,0.2693205,0.27394104,0.07775879,0.1263794,-0.014868164,-0.04885254,95.0
36621,0.2693205,0.27394104,0.07775879,0.0180542,-0.043542482,-0.09133301,95.0
36622,0.3756485,0.450943,0.16508865,0.0180542,-0.043542482,-0.09133301,95.0
36623,0.3756485,0.450943,0.16508865,-0.30054933,-0.06796875,-0.32497558,95.0
36624,0.30613327,0.072891235,0.5187645,-0.30054933,-0.06796875,-0.32497558,95.0
36625,0.30613327,0.072891235,0.5187645,-0.4163086,0.26444092,-0.07965088,95.0
36626,0.03890133,-0.26167297,0.2326889,-0.4163086,0.26444092,-0.07965088,95.0
36627,0.03890133,-0.26167297,0.2326889,-0.18797608,0.17629395,-0.15186767,95.0
36628,-0.3495674,-0.5197296,-0.5168648,-0.18797608,0.17629395,-0.15186767,95.0
36629,-0.3495674,-0.5197296,-0.5168648,-0.16992188,0.060534667,-0.2166504,95.0
36630,-0.24833012,-0.31546783,-0.7724762,-0.16992188,0.060534667,-0.2166504,95.0
36631,-0.24833012,-0.31546783,-0.7724762,-0.19434814,-0.03186035,-0.32391357,95.0
36632,-0.11070061,-0.28364563,-0.38100815,-0.19434814,-0.03186035,-0.32391357,95.0
36633,-0.11070061,-0.28364563,-0.38100815,0.020178223,-0.04460449,-0.2548828,95.0
36634,-0.13383675,-0.31935883,0.20124817,0.020178223,-0.04460449,-0.2548828,95.0
36635,-0.13383675,-0.31935883,0.20124817,0.012744141,-0.025488282,-0.07965088,95.0
36636,-0.15561676,-0.20410919,0.59638596,0.012744141,-0.025488282,-0.07965088,95.0
36637,-0.15561676,-0.20410919,0.59638596,-0.12531738,-0.0053100586,0.06265869,95.0
36638,-0.094049454,0.089523315,0.50083923,-0.12531738,-0.0053100586,0.06265869,95.0
36639,-0.094049454,0.089523315,0.50083923,-0.4088745,0.04248047,0.0722168,95.0
36640,-0.04386711,0.093307495,-0.26953125,-0.4088745,0.04248047,0.0722168,95.0
36641,-0.04386711,0.093307495,-0.26953125,-0.28674316,-0.0010620117,-0.18903808,95.0
36642,0.02754116,-0.5019913,-0.6288452,-0.28674316,-0.0010620117,-0.18903808,95.0
36643,0.02754116,-0.5019913,-0.6288452,0.14761963,-0.012744141,-0.13806152,95.0
36644,0.17081165,-0.9320221,0.023742676,0.14761963,-0.012744141,-0.13806152,95.0
36645,0.17081165,-0.9320221,0.023742676,0.09133301,0.1274414,0.24213867,95.0
36646,0.030485153,-0.43945312,0.31010818,0.09133301,0.1274414,0.24213867,95.0
36647,0.030485153,-0.43945312,0.31010818,0.047790527,0.23364258,0.30267334,95.0
36648,-0.26585865,0.40181732,-0.25952148,0.047790527,0.23364258,0.30267334,95.0
36649,-0.26585865,0.40181732,-0.25952148,-0.04885254,0.11151123,-0.015930176,95.0
36650,-0.26683712,0.68125916,-0.6078491,-0.04885254,0.11151123,-0.015930176,95.0
36651,-0.26683712,0.68125916,-0.6078491,-0.16036378,-0.008496094,-0.22727051,95.0
36652,-0.074406624,0.20629883,-0.3927002,-0.16036378,-0.008496094,-0.22727051,95.0
36653,-0.074406624,0.20629883,-0.3927002,-0.25063476,-0.05628662,-0.18266602,95.0
36654,-0.005839348,-0.38446045,-0.1819191,-0.25063476,-0.05628662,-0.18266602,95.0
36655,-0.005839348,-0.38446045,-0.1819191,-0.14337158,-0.15930176,-0.15505372,95.0
36656,-0.00762558,-0.44769287,-0.11941147,-0.14337158,-0.15930176,-0.15505372,95.0
36657,-0.00762558,-0.44769287,-0.11941147,-0.014868164,-0.18585205,-0.23895264,95.0
36658,0.07176876,-0.045448303,0.12902069,-0.014868164,-0.18585205,-0.23895264,95.0
36659,0.07176876,-0.045448303,0.12902069,-0.16142578,-0.12319336,-0.32816163,95.0
36660,0.25928307,0.0818634,0.5846863,-0.16142578,-0.12319336,-0.32816163,95.0
36661,0.25928307,0.0818634,0.5846863,-0.23682861,0.0,-0.07540283,95.0
36662,0.36728954,-0.34107208,0.70944595,-0.23682861,0.0,-0.07540283,95.0
36663,0.36728954,-0.34107208,0.70944595,-0.12319336,0.08283692,0.13699952,95.0
36664,0.14389324,-0.66535187,-0.060009003,-0.12319336,0.08283692,0.13699952,95.0
36665,0.14389324,-0.66535187,-0.060009003,0.22939454,-0.059472658,0.18797608,95.0
36666,-0.13738728,-0.12146759,-0.7404251,0.22939454,-0.059472658,0.18797608,95.0
36667,-0.13738728,-0.12146759,-0.7404251,0.039294433,-0.22833252,-0.023364259,95.0
36668,0.028273582,0.5325012,-0.41392136,0.039294433,-0.22833252,-0.023364259,95.0
36669,0.028273582,0.5325012,-0.41392136,-1.0503296,-0.09664307,-0.28780517,95.0
36670,0.2888298,0.013427734,0.2247963,-1.0503296,-0.09664307,-0.28780517,95.0
36671,0.2888298,0.013427734,0.2247963,0.17947999,0.118945315,-0.05522461,95.0
36672,0.2888298,0.013427734,0.2247963,0.17947999,0.118945315,-0.05522461,94.0
36673,0.18993855,-0.748497,0.2901039,0.17947999,0.118945315,-0.05522461,94.0
36674,0.18993855,-0.748497,0.2901039,-0.035046387,0.14868164,-0.022302246,94.0
36675,-0.09322739,-0.5912628,-0.14316177,-0.035046387,0.14868164,-0.022302246,94.0
36676,-0.09322739,-0.5912628,-0.14316177,0.10407715,0.07434082,-0.08602295,94.0
36677,-0.2555275,-0.088272095,-0.3078766,0.10407715,0.07434082,-0.08602295,94.0
36678,-0.2555275,-0.088272095,-0.3078766,0.13806152,-0.04885254,-0.14124756,94.0
36679,-0.056497574,0.053024292,0.040626526,0.13806152,-0.04885254,-0.14124756,94.0
36680,-0.056497574,0.053024292,0.040626526,0.0021240234,-0.027612304,-0.053100586,94.0
36681,0.25458145,0.1815033,0.6144829,0.0021240234,-0.027612304,-0.053100586,94.0
36682,0.25458145,0.1815033,0.6144829,-0.3430298,0.09770508,0.30054933,94.0
36683,0.22348976,0.059631348,0.01177597,-0.3430298,0.09770508,0.30054933,94.0
36684,0.22348976,0.059631348,0.01177597,-0.58304447,-0.020178223,-0.025488282,94.0
36685,-0.06554413,-0.28259277,-0.6839981,-0.58304447,-0.020178223,-0.025488282,94.0
36686,-0.06554413,-0.28259277,-0.6839981,0.36533204,-0.115759276,-0.009558106,94.0
36687,-0.08263588,-0.5452652,-0.2537079,0.36533204,-0.115759276,-0.009558106,94.0
36688,-0.08263588,-0.5452652,-0.2537079,0.41099855,-0.02442627,0.21346436,94.0
36689,-0.020112991,-0.1947937,0.21006012,0.41099855,-0.02442627,0.21346436,94.0
36690,-0.020112991,-0.1947937,0.21006012,0.038232423,0.10938721,0.2899292,94.0
36691,-0.1122818,0.36508942,0.03699112,0.038232423,0.10938721,0.2899292,94.0
36692,-0.1122818,0.36508942,0.03699112,0.011682129,0.07965088,0.050976563,94.0
36693,-0.18435669,0.57128143,-0.17902756,0.011682129,0.07965088,0.050976563,94.0
36694,-0.18435669,0.57128143,-0.17902756,0.16248779,0.020178223,-0.08071289,94.0
36695,-0.13511944,0.4889679,-0.14089203,0.16248779,0.020178223,-0.08071289,94.0
36696,-0.13511944,0.4889679,-0.14089203,-0.021240234,-0.023364259,-0.19116211,94.0
36697,-0.033633232,0.22397614,0.05077362,-0.021240234,-0.023364259,-0.19116211,94.0
36698,-0.033633232,0.22397614,0.05077362,0.033984374,0.0031860352,-0.16461182,94.0
36699,0.018136978,-0.084358215,0.20920944,0.033984374,0.0031860352,-0.16461182,94.0
36700,0.018136978,-0.084358215,0.20920944,0.057348635,0.025488282,-0.08602295,94.0
36701,0.019025803,-0.19460297,0.1870575,0.057348635,0.025488282,-0.08602295,94.0
36702,0.019025803,-0.19460297,0.1870575,0.06903076,0.03079834,-0.0361084,94.0
36703,0.017576218,-0.13217163,0.084095,0.06903076,0.03079834,-0.0361084,94.0
36704,0.017576218,-0.13217163,0.084095,0.03717041,0.021240234,-0.016992187,94.0
36705,0.011753082,-0.0361557,0.023330688,0.03717041,0.021240234,-0.016992187,94.0
36706,0.011753082,-0.0361557,0.023330688,-0.007434082,0.027612304,-0.0063720704,94.0
36707,-0.023691177,0.04637909,0.03746414,-0.007434082,0.027612304,-0.0063720704,94.0
36708,-0.023691177,0.04637909,0.03746414,-0.02442627,0.0361084,-0.026550293,94.0
36709,-0.0010204315,0.03917694,0.18228912,-0.02442627,0.0361084,-0.026550293,94.0
36710,-0.0010204315,0.03917694,0.18228912,-0.16461182,0.05522461,0.08496094,94.0
36711,0.017542839,-0.08721161,0.13541794,-0.16461182,0.05522461,0.08496094,94.0
36712,0.017542839,-0.08721161,0.13541794,-0.2347046,0.0063720704,0.1709839,94.0
36713,-0.06630039,-0.16570282,-0.24589157,-0.2347046,0.0063720704,0.1709839,94.0
36714,-0.06630039,-0.16570282,-0.24589157,-0.12319336,-0.06265869,0.032922365,94.0
36715,-0.09799862,-0.014694214,-0.40524673,-0.12319336,-0.06265869,0.032922365,94.0
36716,-0.09799862,-0.014694214,-0.40524673,-0.2814331,-0.10620117,-0.045666505,94.0
36717,0.013238907,-0.03830719,-0.23316956,-0.2814331,-0.10620117,-0.045666505,94.0
36718,0.013238907,-0.03830719,-0.23316956,-0.6988037,-0.04460449,-0.011682129,94.0
36719,0.076911926,-0.4745407,-0.1391449,-0.6988037,-0.04460449,-0.011682129,94.0
36720,0.076911926,-0.4745407,-0.1391449,-0.8782837,0.046728518,0.02442627,94.0
36721,-0.018609047,-0.9339981,-0.31808853,-0.8782837,0.046728518,0.02442627,94.0
36722,-0.018609047,-0.9339981,-0.31808853,-0.65632325,0.10195313,0.09133301,94.0
36723,-0.13469887,-0.84477997,-0.28940964,-0.65632325,0.10195313,0.09133301,94.0
36724,-0.13469887,-0.84477997,-0.28940964,0.10195313,0.09664307,0.060534667,94.0
36725,-0.1094923,0.22317505,0.18951797,0.10195313,0.09664307,0.060534667,94.0
36726,-0.1094923,0.22317505,0.18951797,0.29099122,0.16885987,-0.21240234,94.0
36727,0.07161045,1.4845581,0.53608704,0.29099122,0.16885987,-0.21240234,94.0
36728,0.07161045,1.4845581,0.53608704,0.12956543,0.2793091,-0.72641605,94.0
36729,0.18706131,1.5121613,0.09212875,0.12956543,0.2793091,-0.72641605,94.0
36730,0.18706131,1.5121613,0.09212875,0.21027832,0.17416993,-0.96643066,94.0
36731,1.5258789E-5,0.028701782,-0.88025284,0.21027832,0.17416993,-0.96643066,94.0
36732,1.5258789E-5,0.028701782,-0.88025284,-0.64570314,-0.1731079,-0.86978763,94.0
36733,0.034168243,-2.345665,-0.87064743,-0.64570314,-0.1731079,-0.86978763,94.0
36734,0.034168243,-2.345665,-0.87064743,-0.40250245,-0.1731079,-0.36533204,94.0
36735,0.32108498,-3.4267044,0.10057831,-0.40250245,-0.1731079,-0.36533204,94.0
36736,0.32108498,-3.4267044,0.10057831,0.70198977,-0.039294433,0.63826907,94.0
36737,0.15769768,-1.7376633,0.48809052,0.70198977,-0.039294433,0.63826907,94.0
36738,0.15769768,-1.7376633,0.48809052,0.6956177,0.124255374,0.7189819,94.0
36739,-0.32948112,0.79857635,0.18598175,0.6956177,0.124255374,0.7189819,94.0
36740,-0.32948112,0.79857635,0.18598175,0.42055663,0.087084964,0.5140137,94.0
36741,-0.49942493,2.1211243,-0.18592072,0.42055663,0.087084964,0.5140137,94.0
36742,-0.49942493,2.1211243,-0.18592072,0.010620117,0.0063720704,0.2081543,94.0
36743,-0.22673798,1.8618088,-0.20420837,0.010620117,0.0063720704,0.2081543,94.0
36744,-0.22673798,1.8618088,-0.20420837,0.029736329,-0.03186035,0.0031860352,94.0
36745,0.08141518,0.74598694,0.023353577,0.029736329,-0.03186035,0.0031860352,94.0
36746,0.08141518,0.74598694,0.023353577,0.015930176,-0.032922365,-0.04141846,94.0
36747,0.18556595,-0.06298828,0.17141724,0.015930176,-0.032922365,-0.04141846,94.0
36748,0.18556595,-0.06298828,0.17141724,-0.090270996,-0.0180542,-0.058410645,94.0
36749,0.07246399,-0.31276703,0.14239502,-0.090270996,-0.0180542,-0.058410645,94.0
36750,0.07246399,-0.31276703,0.14239502,-0.04885254,-0.057348635,-0.058410645,94.0
36751,-0.09631348,-0.29322052,0.11746597,-0.04885254,-0.057348635,-0.058410645,94.0
36752,-0.09631348,-0.29322052,0.11746597,0.04885254,-0.098767094,0.012744141,94.0
36753,-0.12550068,-0.26636505,0.14159393,0.04885254,-0.098767094,0.012744141,94.0
36754,-0.12550068,-0.26636505,0.14159393,0.2166504,-0.12956543,0.090270996,94.0
36755,-0.030564308,-0.35486603,0.12660599,0.2166504,-0.12956543,0.090270996,94.0
36756,-0.030564308,-0.35486603,0.12660599,0.31223145,-0.21346436,0.21452637,94.0
36757,0.121679306,-0.13010406,0.16628647,0.31223145,-0.21346436,0.21452637,94.0
36758,0.121679306,-0.13010406,0.16628647,0.42161867,-0.23682861,0.31116945,94.0
36759,0.22653008,0.6171951,0.23921967,0.42161867,-0.23682861,0.31116945,94.0
36760,0.22653008,0.6171951,0.23921967,0.19541016,-0.1720459,0.19753419,94.0
36761,0.24817944,1.1458588,0.21714401,0.19541016,-0.1720459,0.19753419,94.0
36762,0.24817944,1.1458588,0.21714401,-0.16779785,-0.08602295,-0.032922365,94.0
36763,0.2337122,0.7320175,0.17906189,-0.16779785,-0.08602295,-0.032922365,94.0
36764,0.2337122,0.7320175,0.17906189,-0.13168946,-0.011682129,-0.081774905,94.0
36765,0.13640785,-0.05760193,0.15812683,-0.13168946,-0.011682129,-0.081774905,94.0
36766,0.13640785,-0.05760193,0.15812683,0.0541626,0.025488282,0.007434082,94.0
36767,-0.04032421,-0.29949188,0.088523865,0.0541626,0.025488282,0.007434082,94.0
36768,-0.04032421,-0.29949188,0.088523865,0.045666505,0.027612304,0.052038576,94.0
36769,-0.13448048,-0.09284973,0.02029419,0.045666505,0.027612304,0.052038576,94.0
36770,-0.13448048,-0.09284973,0.02029419,0.047790527,0.008496094,0.040356446,94.0
36771,-0.09034729,0.10926819,0.019424438,0.047790527,0.008496094,0.040356446,94.0
36772,-0.09034729,0.10926819,0.019424438,0.1263794,0.009558106,0.04141846,94.0
36773,-0.034814835,0.2385025,0.048423767,0.1263794,0.009558106,0.04141846,94.0
36774,-0.034814835,0.2385025,0.048423767,0.10301514,0.0180542,0.011682129,94.0
36775,-0.058698654,0.22361755,-4.9591064E-4,0.10301514,0.0180542,0.011682129,94.0
36776,-0.058698654,0.22361755,-4.9591064E-4,0.057348635,-0.0031860352,0.023364259,94.0
36777,-0.093663216,0.1097641,0.0033988953,0.057348635,-0.0031860352,0.023364259,94.0
36778,-0.093663216,0.1097641,0.0033988953,0.052038576,-0.029736329,0.015930176,94.0
36779,-0.0691452,-0.041740417,0.25518417,0.052038576,-0.029736329,0.015930176,94.0
36780,-0.0691452,-0.041740417,0.25518417,0.04991455,0.027612304,0.17416993,94.0
36781,-0.096930504,-0.2454071,0.32422638,0.04991455,0.027612304,0.17416993,94.0
36782,-0.096930504,-0.2454071,0.32422638,0.04991455,0.027612304,0.17416993,94.0
36783,-0.096930504,-0.2454071,0.32422638,0.21452637,0.038232423,0.5076416,94.0
36784,-0.33366013,-0.027999878,-0.14152145,0.21452637,0.038232423,0.5076416,94.0
36785,-0.33366013,-0.027999878,-0.14152145,0.7593384,-0.081774905,0.24001466,94.0
36786,-0.32430077,0.48983002,-0.3521309,0.7593384,-0.081774905,0.24001466,94.0
36787,-0.32430077,0.48983002,-0.3521309,0.6000366,-0.07434082,0.070092775,94.0
36788,-0.020183563,0.6895218,0.03305435,0.6000366,-0.07434082,0.070092775,94.0
36789,-0.020183563,0.6895218,0.03305435,0.17947999,-0.043542482,0.31116945,94.0
36790,0.10144329,0.56651306,0.37584305,0.17947999,-0.043542482,0.31116945,94.0
36791,0.10144329,0.56651306,0.37584305,-0.07115479,0.014868164,0.25806886,94.0
36792,0.11710453,0.5407562,0.40309143,-0.07115479,0.014868164,0.25806886,94.0
36793,0.11710453,0.5407562,0.40309143,0.19328614,0.09451904,0.20603028,94.0
36794,0.1508131,0.57481384,0.061157227,0.19328614,0.09451904,0.20603028,94.0
36795,0.1508131,0.57481384,0.061157227,0.13699952,-0.035046387,0.0637207,94.0
36796,0.39273262,0.7189789,-0.12076187,0.13699952,-0.035046387,0.0637207,94.0
36797,0.39273262,0.7189789,-0.12076187,0.14655761,-0.1083252,-0.023364259,94.0
36798,0.73495007,0.8641739,0.2308197,0.14655761,-0.1083252,-0.023364259,94.0
36799,0.73495007,0.8641739,0.2308197,-0.5511841,0.1709839,-0.14655761,94.0
36800,0.38189316,0.37236023,0.31340408,-0.5511841,0.1709839,-0.14655761,94.0
36801,0.38189316,0.37236023,0.31340408,-0.2899292,0.19328614,-0.21558838,94.0
36802,-0.37010765,-0.37406158,-0.292305,-0.2899292,0.19328614,-0.21558838,94.0
36803,-0.37010765,-0.37406158,-0.292305,-0.09239502,0.026550293,-0.21558838,94.0
36804,-0.6278496,-0.5449066,-0.6721153,-0.09239502,0.026550293,-0.21558838,94.0
36805,-0.6278496,-0.5449066,-0.6721153,-0.24107666,-0.1178833,-0.35046387,94.0
36806,-0.42222595,-0.34867096,-0.34285736,-0.24107666,-0.1178833,-0.35046387,94.0
36807,-0.42222595,-0.34867096,-0.34285736,-0.18266602,-0.14337158,-0.22727051,94.0
36808,-0.07845497,-0.2342987,0.3509941,-0.18266602,-0.14337158,-0.22727051,94.0
36809,-0.07845497,-0.2342987,0.3509941,-0.2516968,-0.07327881,-0.012744141,94.0
36810,0.12141609,-0.20274353,0.69605255,-0.2516968,-0.07327881,-0.012744141,94.0
36811,0.12141609,-0.20274353,0.69605255,-0.39613038,0.026550293,0.24532472,94.0
36812,0.057704926,-0.19431305,0.20823288,-0.39613038,0.026550293,0.24532472,94.0
36813,0.057704926,-0.19431305,0.20823288,-0.64995116,-0.015930176,-0.0053100586,94.0
36814,-0.07044983,-0.28842163,-0.51974106,-0.64995116,-0.015930176,-0.0053100586,94.0
36815,-0.07044983,-0.28842163,-0.51974106,0.21027832,-0.06265869,-0.17629395,94.0
36816,0.052734375,-0.60245514,-0.50645447,0.21027832,-0.06265869,-0.17629395,94.0
36817,0.052734375,-0.60245514,-0.50645447,0.24532472,-0.06796875,-0.039294433,94.0
36818,0.21295166,-0.69104767,0.15089035,0.24532472,-0.06796875,-0.039294433,94.0
36819,0.21295166,-0.69104767,0.15089035,0.06796875,0.07965088,0.23045655,94.0
36820,0.03980732,-0.09996796,0.33374786,0.06796875,0.07965088,0.23045655,94.0
36821,0.03980732,-0.09996796,0.33374786,-0.032922365,0.21346436,0.18372802,94.0
36822,-0.2621975,0.5791702,-0.14891052,-0.032922365,0.21346436,0.18372802,94.0
36823,-0.2621975,0.5791702,-0.14891052,-0.26550293,0.14337158,-0.16354981,94.0
36824,-0.31356716,0.42829895,-0.5065689,-0.26550293,0.14337158,-0.16354981,94.0
36825,-0.31356716,0.42829895,-0.5065689,-0.3164795,0.039294433,-0.23364258,94.0
36826,-0.12895393,-0.21166992,-0.40341187,-0.3164795,0.039294433,-0.23364258,94.0
36827,-0.12895393,-0.21166992,-0.40341187,-0.22833252,-0.027612304,-0.13806152,94.0
36828,0.04483509,-0.5652237,-0.17774582,-0.22833252,-0.027612304,-0.13806152,94.0
36829,0.04483509,-0.5652237,-0.17774582,-0.20709229,-0.081774905,-0.13168946,94.0
36830,0.09020138,-0.4710617,-0.11850357,-0.20709229,-0.081774905,-0.13168946,94.0
36831,0.09020138,-0.4710617,-0.11850357,-0.10301514,-0.1359375,-0.13062744,94.0
36832,0.07897186,-0.08848572,-0.07638168,-0.10301514,-0.1359375,-0.13062744,94.0
36833,0.07897186,-0.08848572,-0.07638168,-0.1709839,-0.11257324,-0.2442627,94.0
36834,0.09132671,0.06290436,0.1359253,-0.1709839,-0.11257324,-0.2442627,94.0
36835,0.09132671,0.06290436,0.1359253,-0.20496826,-0.04991455,-0.23258057,94.0
36836,0.16892242,-0.10896301,0.4335785,-0.20496826,-0.04991455,-0.23258057,94.0
36837,0.16892242,-0.10896301,0.4335785,-0.083898924,0.04885254,-0.1359375,94.0
36838,0.2063179,-0.39649963,0.40515137,-0.083898924,0.04885254,-0.1359375,94.0
36839,0.2063179,-0.39649963,0.40515137,-0.07434082,0.09239502,0.06159668,94.0
36840,0.056790352,-0.46697998,-0.20420074,-0.07434082,0.09239502,0.06159668,94.0
36841,0.056790352,-0.46697998,-0.20420074,0.10195313,-0.013806152,0.023364259,94.0
36842,-0.002248764,-0.004798889,-0.5592232,0.10195313,-0.013806152,0.023364259,94.0
36843,-0.002248764,-0.004798889,-0.5592232,-0.49489745,-0.10195313,-0.1996582,94.0
36844,0.12747383,0.19451141,-0.2968521,-0.49489745,-0.10195313,-0.1996582,94.0
36845,0.12747383,0.19451141,-0.2968521,-0.63720703,0.02442627,-0.16142578,94.0
36846,0.15409088,-0.35985565,-0.033733368,-0.63720703,0.02442627,-0.16142578,94.0
36847,0.15409088,-0.35985565,-0.033733368,-0.15080567,0.09239502,-0.12531738,94.0
36848,0.006378174,-0.6794739,0.029151917,-0.15080567,0.09239502,-0.12531738,94.0
36849,0.006378174,-0.6794739,0.029151917,0.0063720704,0.11044922,-0.16354981,94.0
36850,-0.15240479,-0.5400467,-0.15105438,0.0063720704,0.11044922,-0.16354981,94.0
36851,-0.15240479,-0.5400467,-0.15105438,-0.14655761,0.081774905,-0.16036378,94.0
36852,-0.19560623,-0.4488449,-0.33420944,-0.14655761,0.081774905,-0.16036378,94.0
36853,-0.19560623,-0.4488449,-0.33420944,0.095581055,-0.03717041,-0.14655761,94.0
36854,-0.04885578,-0.3330841,-0.07481384,0.095581055,-0.03717041,-0.14655761,94.0
36855,-0.04885578,-0.3330841,-0.07481384,0.04460449,-0.027612304,-0.08920898,94.0
36856,0.24703598,-0.06186676,0.47590256,0.04460449,-0.027612304,-0.08920898,94.0
36857,0.24703598,-0.06186676,0.47590256,-0.14018555,0.07752686,0.1901001,94.0
36858,0.2998619,0.13957977,0.28662872,-0.14018555,0.07752686,0.1901001,94.0
36859,0.2998619,0.13957977,0.28662872,-0.60959476,0.0541626,0.10407715,94.0
36860,0.008077621,-0.05770874,-0.4372635,-0.60959476,0.0541626,0.10407715,94.0
36861,0.008077621,-0.05770874,-0.4372635,0.30373535,-0.008496094,-0.04248047,94.0
36862,-0.13992405,-0.46089172,-0.4811592,0.30373535,-0.008496094,-0.04248047,94.0
36863,-0.13992405,-0.46089172,-0.4811592,0.33771974,-0.029736329,0.0722168,94.0
36864,-0.045728683,-0.40696716,-0.024150848,0.33771974,-0.029736329,0.0722168,94.0
36865,-0.045728683,-0.40696716,-0.024150848,0.40356445,0.035046387,0.26762697,94.0
36866,-0.039756775,0.09378815,0.119571686,0.40356445,0.035046387,0.26762697,94.0
36867,-0.039756775,0.09378815,0.119571686,0.2824951,0.07540283,0.11257324,94.0
36868,-0.14243698,0.5542526,0.024879456,0.2824951,0.07540283,0.11257324,94.0
36869,-0.14243698,0.5542526,0.024879456,0.31116945,0.0637207,-0.023364259,94.0
36870,-0.13394451,0.596756,0.058403015,0.31116945,0.0637207,-0.023364259,94.0
36871,-0.13394451,0.596756,0.058403015,0.34940186,0.0541626,-0.045666505,94.0
36872,-0.13394451,0.596756,0.058403015,0.34940186,0.0541626,-0.045666505,92.0
36873,-0.05514145,0.39826965,0.104595184,0.34940186,0.0541626,-0.045666505,92.0
36874,-0.05514145,0.39826965,0.104595184,0.23258057,0.035046387,-0.0361084,92.0
36875,-0.038986206,0.25045013,0.073581696,0.23258057,0.035046387,-0.0361084,92.0
36876,-0.038986206,0.25045013,0.073581696,0.23682861,0.020178223,-0.04991455,92.0
36877,-0.056970596,0.1750412,0.12126541,0.23682861,0.020178223,-0.04991455,92.0
36878,-0.056970596,0.1750412,0.12126541,0.19647217,0.029736329,-0.04141846,92.0
36879,-0.045125008,0.1996994,0.1941185,0.19647217,0.029736329,-0.04141846,92.0
36880,-0.045125008,0.1996994,0.1941185,0.18797608,0.04460449,-0.012744141,92.0
36881,-0.052433014,0.30794525,0.142025,0.18797608,0.04460449,-0.012744141,92.0
36882,-0.052433014,0.30794525,0.142025,0.010620117,0.045666505,-0.022302246,92.0
36883,-0.08982277,0.32343292,0.014854431,0.010620117,0.045666505,-0.022302246,92.0
36884,-0.08982277,0.32343292,0.014854431,-0.10513916,0.032922365,-0.07115479,92.0
36885,-0.07711983,0.13711548,-0.0053863525,-0.10513916,0.032922365,-0.07115479,92.0
36886,-0.07711983,0.13711548,-0.0053863525,-0.07965088,0.0180542,-0.043542482,92.0
36887,-0.024342537,-0.05101013,0.13158035,-0.07965088,0.0180542,-0.043542482,92.0
36888,-0.024342537,-0.05101013,0.13158035,-0.10301514,0.021240234,0.040356446,92.0
36889,0.0077724457,-0.10727692,0.24332428,-0.10301514,0.021240234,0.040356446,92.0
36890,0.0077724457,-0.10727692,0.24332428,-0.24532472,0.045666505,0.18372802,92.0
36891,-0.05301094,-0.081329346,0.057281494,-0.24532472,0.045666505,0.18372802,92.0
36892,-0.05301094,-0.081329346,0.057281494,-0.16248779,-0.0021240234,0.15930176,92.0
36893,-0.09884167,0.14829254,-0.27908707,-0.16248779,-0.0021240234,0.15930176,92.0
