,accx,accy,accz,gyrox,gyroy,gyroz,heart rate
34935,type,type,type,type,type,type,type
34936,0.5213785,-0.2144165,-0.41384888,0.18797608,0.028674318,-0.5341919,104.0
34937,0.5213785,-0.2144165,-0.41384888,0.34940186,0.03079834,-0.44073486,104.0
34938,0.55035496,-0.36048508,-0.919281,0.34940186,0.03079834,-0.44073486,104.0
34939,0.55035496,-0.36048508,-0.919281,0.38763428,0.23258057,-0.35789797,104.0
34940,0.4232793,-0.4187584,-1.0806732,0.38763428,0.23258057,-0.35789797,104.0
34941,0.4232793,-0.4187584,-1.0806732,0.32391357,0.27506104,0.20072022,104.0
34942,0.26278114,-0.83525085,-0.8276062,0.32391357,0.27506104,0.20072022,104.0
34943,0.26278114,-0.83525085,-0.8276062,0.3727661,0.21027832,0.2814331,104.0
34944,0.29975128,-1.3333015,-0.2600708,0.3727661,0.21027832,0.2814331,104.0
34945,0.29975128,-1.3333015,-0.2600708,-0.028674318,0.17523193,-0.5299439,104.0
34946,0.5126767,-1.4874668,0.21871948,-0.028674318,0.17523193,-0.5299439,104.0
34947,0.5126767,-1.4874668,0.21871948,-0.1444336,0.16567384,-0.29311523,104.0
34948,0.6977391,-1.3710785,0.22686768,-0.1444336,0.16567384,-0.29311523,104.0
34949,0.6977391,-1.3710785,0.22686768,-0.033984374,0.41843262,-0.15717773,104.0
34950,0.6355839,-0.9038582,-0.13369751,-0.033984374,0.41843262,-0.15717773,104.0
34951,0.6355839,-0.9038582,-0.13369751,0.16567384,0.54906005,0.1359375,104.0
34952,0.31570625,-0.041130066,-0.4510193,0.16567384,0.54906005,0.1359375,104.0
34953,0.31570625,-0.041130066,-0.4510193,-0.22833252,0.45878908,0.19647217,104.0
34954,-0.19146538,0.6426449,-0.46313477,-0.22833252,0.45878908,0.19647217,104.0
34955,-0.19146538,0.6426449,-0.46313477,-0.84111327,0.16354981,0.07115479,104.0
34956,-0.19146538,0.6426449,-0.46313477,-0.75615233,-0.32603762,-0.107263185,104.0
34957,-0.5933089,0.5889816,-0.2749176,-0.75615233,-0.32603762,-0.107263185,104.0
34958,-0.26632214,0.23474693,-0.24458313,-0.75615233,-0.32603762,-0.107263185,104.0
34959,-0.26632214,0.23474693,-0.24458313,-0.35895997,-0.26125488,0.21027832,104.0
34960,0.50392246,0.054473877,-0.37347412,-0.35895997,-0.26125488,0.21027832,104.0
34961,0.50392246,0.054473877,-0.37347412,-0.1996582,0.19222413,0.32816163,104.0
34962,0.6087289,-0.18579102,-0.33616638,-0.1996582,0.19222413,0.32816163,104.0
34963,0.6087289,-0.18579102,-0.33616638,0.052038576,0.35577393,0.14868164,104.0
34964,0.6087289,-0.18579102,-0.33616638,0.020178223,0.25913087,0.03079834,104.0
34965,0.14179277,-0.20751953,-0.06661987,0.020178223,0.25913087,0.03079834,104.0
34966,-0.09037447,0.19946289,0.14503479,0.020178223,0.25913087,0.03079834,104.0
34967,-0.09037447,0.19946289,0.14503479,-0.24744873,0.22196046,0.015930176,104.0
34968,-0.04657936,0.403759,0.021606445,-0.24744873,0.22196046,0.015930176,104.0
34969,-0.04657936,0.403759,0.021606445,-0.38338622,0.22727051,0.06159668,104.0
34970,-0.092647076,-0.047769547,-0.30490112,-0.38338622,0.22727051,0.06159668,104.0
34971,-0.092647076,-0.047769547,-0.30490112,-0.1444336,0.25063476,-0.004248047,104.0
34972,-0.17161512,-0.49814034,-0.4116974,-0.1444336,0.25063476,-0.004248047,104.0
34973,-0.17161512,-0.49814034,-0.4116974,0.2177124,0.26550293,-0.013806152,104.0
34974,-0.062072754,-0.2321415,-0.17208862,0.2177124,0.26550293,-0.013806152,104.0
34975,-0.062072754,-0.2321415,-0.17208862,0.21346436,0.26444092,0.11682129,104.0
34976,-0.062072754,-0.2321415,-0.17208862,0.21346436,0.26444092,0.11682129,104.0
34977,0.115979195,0.28286552,0.15510559,0.21346436,0.26444092,0.11682129,104.0
34978,0.115979195,0.28286552,0.15510559,0.087084964,0.20496826,0.24851075,104.0
34979,0.18657017,0.382761,0.44599915,0.087084964,0.20496826,0.24851075,104.0
34980,0.18657017,0.382761,0.44599915,0.1901001,0.11257324,0.270813,104.0
34981,0.29021072,0.38817787,0.80059814,0.1901001,0.11257324,0.270813,104.0
34982,0.29021072,0.38817787,0.80059814,0.32603762,0.13062744,0.21877442,104.0
34983,0.29021072,0.38817787,0.80059814,0.3079834,0.3090454,0.22302246,104.0
34984,0.44376516,0.78549194,1.0164795,0.3079834,0.3090454,0.22302246,104.0
34985,0.31635237,1.1460819,0.86691284,0.3079834,0.3090454,0.22302246,104.0
34986,0.31635237,1.1460819,0.86691284,0.18797608,0.33665773,0.2177124,104.0
34987,-0.011078358,0.996088,0.52845764,0.18797608,0.33665773,0.2177124,104.0
34988,-0.011078358,0.996088,0.52845764,0.11151123,0.27506104,0.015930176,104.0
34989,-0.06801796,0.6038761,0.31811523,0.11151123,0.27506104,0.015930176,104.0
34990,-0.06801796,0.6038761,0.31811523,0.10195313,0.362146,-0.15717773,104.0
34991,0.05548525,0.298872,0.32063293,0.10195313,0.362146,-0.15717773,104.0
34992,0.05548525,0.298872,0.32063293,0.4354248,0.5872925,-0.13168946,104.0
34993,-0.03559208,0.19085693,0.419693,0.4354248,0.5872925,-0.13168946,104.0
34994,-0.03559208,0.19085693,0.419693,0.6531372,0.635083,-0.027612304,104.0
34995,-0.31181145,0.39720535,0.66096497,0.6531372,0.635083,-0.027612304,104.0
34996,-0.31181145,0.39720535,0.66096497,0.59472656,0.54906005,0.18372802,104.0
34997,-0.51976156,0.756094,0.9672394,0.59472656,0.54906005,0.18372802,104.0
34998,-0.51976156,0.756094,0.9672394,0.24532472,0.41312256,0.32391357,104.0
34999,-0.5950818,0.70277596,1.0593567,0.24532472,0.41312256,0.32391357,104.0
35000,-0.5950818,0.70277596,1.0593567,-0.124255374,0.3419678,0.3164795,104.0
35001,-0.5660801,0.16009521,0.9316406,-0.124255374,0.3419678,0.3164795,104.0
35002,-0.5660801,0.16009521,0.9316406,-0.12213135,0.22833252,0.11363526,104.0
35003,-0.22005177,-0.2966442,0.65786743,-0.12213135,0.22833252,0.11363526,104.0
35004,-0.22005177,-0.2966442,0.65786743,0.124255374,0.19753419,-0.10938721,104.0
35005,0.31889248,-0.5113888,0.1617279,0.124255374,0.19753419,-0.10938721,104.0
35006,0.31889248,-0.5113888,0.1617279,0.08496094,0.45454103,-0.014868164,104.0
35007,0.42134953,-0.93865204,-0.37174988,0.08496094,0.45454103,-0.014868164,104.0
35008,0.42134953,-0.93865204,-0.37174988,0.15823975,0.51082766,0.124255374,104.0
35009,0.42134953,-0.93865204,-0.37174988,0.15930176,0.540564,0.07327881,104.0
35010,0.019086361,-1.4721508,-0.69477844,0.15930176,0.540564,0.07327881,104.0
35011,-0.4145403,-1.7616558,-0.7475281,0.15930176,0.540564,0.07327881,104.0
35012,-0.4145403,-1.7616558,-0.7475281,0.033984374,0.43861085,-0.098767094,104.0
35013,-0.55749893,-1.8688717,-0.6591644,0.033984374,0.43861085,-0.098767094,104.0
35014,-0.55749893,-1.8688717,-0.6591644,-0.040356446,0.270813,-0.23364258,104.0
35015,-0.3504305,-1.8429375,-0.6602478,-0.040356446,0.270813,-0.23364258,104.0
35016,-0.3504305,-1.8429375,-0.6602478,0.059472658,0.24957275,-0.28355715,104.0
35017,-0.08228493,-1.522665,-0.7567749,0.059472658,0.24957275,-0.28355715,104.0
35018,-0.08228493,-1.522665,-0.7567749,0.18903808,0.2623169,-0.17947999,104.0
35019,-0.018831253,-0.761919,-0.7147217,0.18903808,0.2623169,-0.17947999,104.0
35020,-0.018831253,-0.761919,-0.7147217,0.107263185,0.09664307,-0.010620117,104.0
35021,-0.055860996,0.21426964,-0.51400757,0.107263185,0.09664307,-0.010620117,104.0
35022,-0.055860996,0.21426964,-0.51400757,-0.2166504,-0.1709839,0.0,104.0
35023,0.01641941,0.69000626,-0.41407776,-0.2166504,-0.1709839,0.0,104.0
35024,0.01641941,0.69000626,-0.41407776,-0.49489745,-0.19222413,-0.043542482,104.0
35025,0.105091095,0.30774307,-0.43856812,-0.49489745,-0.19222413,-0.043542482,104.0
35026,0.105091095,0.30774307,-0.43856812,-0.30373535,-0.1720459,-0.029736329,104.0
35027,0.21202707,-0.21520615,-0.30278015,-0.30373535,-0.1720459,-0.029736329,104.0
35028,0.21202707,-0.21520615,-0.30278015,-0.0180542,-0.21134034,0.013806152,104.0
35029,0.48088837,-0.1375351,0.045669556,-0.0180542,-0.21134034,0.013806152,104.0
35030,0.48088837,-0.1375351,0.045669556,-0.050976563,-0.06159668,0.121069334,104.0
35031,0.56604576,0.13973999,0.2995453,-0.050976563,-0.06159668,0.121069334,104.0
35032,0.56604576,0.13973999,0.2995453,-0.20178223,0.1996582,0.21452637,104.0
35033,0.09113026,0.04011154,0.3071289,-0.20178223,0.1996582,0.21452637,104.0
35034,0.09113026,0.04011154,0.3071289,-0.21134034,0.17523193,0.12850343,104.0
35035,-0.50778437,-0.16897202,0.17684937,-0.21134034,0.17523193,0.12850343,104.0
35036,-0.50778437,-0.16897202,0.17684937,-0.20072022,-0.11044922,-0.12319336,104.0
35037,-0.55251694,-0.055662155,-0.03225708,-0.20072022,-0.11044922,-0.12319336,104.0
35038,-0.55251694,-0.055662155,-0.03225708,-0.046728518,-0.1985962,-0.19541016,104.0
35039,-0.16499949,0.36104774,-0.24545288,-0.046728518,-0.1985962,-0.19541016,104.0
35040,-0.16499949,0.36104774,-0.24545288,0.09451904,-0.10407715,0.012744141,104.0
35041,0.006196499,0.89738274,-0.18444824,0.09451904,-0.10407715,0.012744141,104.0
35042,0.006196499,0.89738274,-0.18444824,0.21983643,-0.10620117,0.21452637,104.0
35043,-0.1978383,1.3217506,0.16018677,0.21983643,-0.10620117,0.21452637,104.0
35044,-0.1978383,1.3217506,0.16018677,0.019116212,-0.24107666,0.20390625,104.0
35045,-0.4383855,1.1634293,0.40037537,0.019116212,-0.24107666,0.20390625,104.0
35046,-0.4383855,1.1634293,0.40037537,-0.11363526,-0.3706421,0.038232423,104.0
35047,-0.36423397,0.32402802,0.3217163,-0.11363526,-0.3706421,0.038232423,104.0
35048,-0.36423397,0.32402802,0.3217163,0.028674318,-0.3079834,-0.16248779,104.0
35049,0.029791832,-0.4164486,0.2084198,0.028674318,-0.3079834,-0.16248779,104.0
35050,0.029791832,-0.4164486,0.2084198,0.3812622,-0.17735596,-0.2888672,104.0
35051,0.42223454,-0.24293518,0.28303528,0.3812622,-0.17735596,-0.2888672,104.0
35052,0.42223454,-0.24293518,0.28303528,0.6074707,0.04141846,-0.18585205,104.0
35053,0.40758705,0.5536003,0.25125122,0.6074707,0.04141846,-0.18585205,104.0
35054,0.40758705,0.5536003,0.25125122,0.26019287,0.15080567,-0.04991455,104.0
35055,-0.07622528,0.95404816,-0.07247925,0.26019287,0.15080567,-0.04991455,104.0
35056,-0.07622528,0.95404816,-0.07247925,-0.098767094,0.039294433,-0.057348635,104.0
35057,-0.56104136,0.70975876,-0.34754944,-0.098767094,0.039294433,-0.057348635,104.0
35058,-0.56104136,0.70975876,-0.34754944,-0.12850343,-0.14124756,-0.0361084,104.0
35059,-0.61459255,0.3779621,-0.21942139,-0.12850343,-0.14124756,-0.0361084,104.0
35060,-0.61459255,0.3779621,-0.21942139,0.010620117,-0.3334717,-0.008496094,104.0
35061,-0.24676466,0.3750019,0.12046814,0.010620117,-0.3334717,-0.008496094,104.0
35062,-0.24676466,0.3750019,0.12046814,-0.0031860352,-0.4088745,-0.11363526,104.0
35063,0.22681904,0.41830063,0.35409546,-0.0031860352,-0.4088745,-0.11363526,104.0
35064,0.22681904,0.41830063,0.35409546,0.0031860352,-0.44923097,-0.19328614,104.0
35065,0.5543556,0.23474884,0.5611725,0.0031860352,-0.44923097,-0.19328614,104.0
35066,0.5543556,0.23474884,0.5611725,0.22408448,-0.40462646,-0.09239502,104.0
35067,0.6998687,0.15626717,0.82250977,0.22408448,-0.40462646,-0.09239502,104.0
35068,0.6998687,0.15626717,0.82250977,0.33665773,-0.24744873,-0.04991455,104.0
35069,0.64862776,0.35586166,0.8180847,0.33665773,-0.24744873,-0.04991455,104.0
35070,0.64862776,0.35586166,0.8180847,0.115759276,-0.07965088,-0.10407715,104.0
35071,0.3473692,0.3219452,0.3435669,0.115759276,-0.07965088,-0.10407715,104.0
35072,0.3473692,0.3219452,0.3435669,-0.10513916,-0.015930176,-0.093457036,104.0
35073,-0.120957375,-0.25363922,-0.22688293,-0.10513916,-0.015930176,-0.093457036,104.0
35074,-0.120957375,-0.25363922,-0.22688293,-0.010620117,-0.10407715,-0.12850343,104.0
35075,-0.38784218,-0.91069984,-0.56988525,-0.010620117,-0.10407715,-0.12850343,104.0
35076,-0.38784218,-0.91069984,-0.56988525,0.14337158,-0.19116211,-0.3164795,104.0
35077,-0.38784218,-0.91069984,-0.56988525,0.14337158,-0.19116211,-0.3164795,104.0
35078,-0.15325499,-1.0771923,-0.7625885,0.14337158,-0.19116211,-0.3164795,104.0
35079,-0.15325499,-1.0771923,-0.7625885,0.015930176,-0.17523193,-0.47578126,104.0
35080,0.37312317,-0.8811016,-0.83132935,0.015930176,-0.17523193,-0.47578126,104.0
35081,0.37312317,-0.8811016,-0.83132935,-0.17523193,-0.15080567,-0.51932377,104.0
35082,0.7885132,-0.6903553,-0.65696716,-0.17523193,-0.15080567,-0.51932377,104.0
35083,0.7885132,-0.6903553,-0.65696716,-0.24744873,-0.025488282,-0.4630371,104.0
35084,0.8134155,-0.54818344,-0.37251282,-0.24744873,-0.025488282,-0.4630371,104.0
35085,0.8134155,-0.54818344,-0.37251282,-0.25806886,0.14868164,-0.3536499,104.0
35086,0.37720966,-0.38968277,-0.24633789,-0.25806886,0.14868164,-0.3536499,104.0
35087,0.37720966,-0.38968277,-0.24633789,-0.25063476,0.11151123,-0.29417726,104.0
35088,-0.17395258,-0.23663712,-0.32060242,-0.25063476,0.11151123,-0.29417726,104.0
35089,-0.17395258,-0.23663712,-0.32060242,-0.18372802,-0.0637207,-0.24001466,104.0
35090,-0.3984027,-0.09913635,-0.39019775,-0.18372802,-0.0637207,-0.24001466,104.0
35091,-0.3984027,-0.09913635,-0.39019775,-0.13381349,-0.19116211,-0.17735596,104.0
35092,-0.27516747,0.039403915,-0.35577393,-0.13381349,-0.19116211,-0.17735596,104.0
35093,-0.27516747,0.039403915,-0.35577393,-0.12319336,-0.19328614,-0.08920898,104.0
35094,-0.12844706,0.1183033,-0.32598877,-0.12319336,-0.19328614,-0.08920898,104.0
35095,-0.12844706,0.1183033,-0.32598877,-0.21346436,-0.1996582,-0.039294433,104.0
35096,-0.10150051,0.015016556,-0.34298706,-0.21346436,-0.1996582,-0.039294433,104.0
35097,-0.10150051,0.015016556,-0.34298706,-0.23258057,-0.26444092,-0.09451904,104.0
35098,0.0016975403,-0.12116432,-0.28822327,-0.23258057,-0.26444092,-0.09451904,104.0
35099,0.0016975403,-0.12116432,-0.28822327,-0.12956543,-0.22196046,-0.11682129,104.0
35100,0.1590972,-0.10240173,-0.18257141,-0.12956543,-0.22196046,-0.11682129,104.0
35101,0.1590972,-0.10240173,-0.18257141,-0.033984374,0.011682129,-0.09239502,104.0
35102,0.027045727,0.016979218,-0.14526367,-0.033984374,0.011682129,-0.09239502,104.0
35103,0.027045727,0.016979218,-0.14526367,0.012744141,0.093457036,-0.08814698,104.0
35104,-0.3392644,0.16271591,-0.18054199,0.012744141,0.093457036,-0.08814698,104.0
35105,-0.3392644,0.16271591,-0.18054199,-0.12000733,-0.053100586,-0.14549561,104.0
35106,-0.47082567,0.27703476,-0.14431763,-0.12000733,-0.053100586,-0.14549561,104.0
35107,-0.47082567,0.27703476,-0.14431763,-0.22939454,-0.17523193,-0.10938721,104.0
35108,-0.2521367,0.35672188,-0.008270264,-0.22939454,-0.17523193,-0.10938721,104.0
35109,-0.2521367,0.35672188,-0.008270264,-0.22727051,-0.12850343,0.10620117,104.0
35110,-0.05981493,0.34016418,0.14363098,-0.22727051,-0.12850343,0.10620117,104.0
35111,-0.05981493,0.34016418,0.14363098,-0.12956543,-0.13062744,0.24638672,104.0
35112,-0.027527332,0.30230713,0.34309387,-0.12956543,-0.13062744,0.24638672,104.0
35113,-0.027527332,0.30230713,0.34309387,0.047790527,-0.24532472,0.2527588,104.0
35114,0.144238,0.4873886,0.57492065,0.047790527,-0.24532472,0.2527588,104.0
35115,0.144238,0.4873886,0.57492065,0.10195313,-0.19222413,0.22514649,104.0
35116,0.31860065,0.7321949,0.6598816,0.10195313,-0.19222413,0.22514649,104.0
35117,0.31860065,0.7321949,0.6598816,0.0722168,0.022302246,0.21240234,104.0
35118,0.11467028,0.65771484,0.5184784,0.0722168,0.022302246,0.21240234,104.0
35119,0.11467028,0.65771484,0.5184784,0.107263185,0.0,0.13275146,104.0
35120,-0.16325665,0.3953972,0.32347107,0.107263185,0.0,0.13275146,104.0
35121,-0.16325665,0.3953972,0.32347107,0.20709229,-0.15930176,-0.0053100586,104.0
35122,-0.017006874,0.32624054,0.19856262,0.20709229,-0.15930176,-0.0053100586,104.0
35123,-0.017006874,0.32624054,0.19856262,0.2166504,-0.043542482,0.03186035,104.0
35124,0.18918991,0.34126663,0.15055847,0.2166504,-0.043542482,0.03186035,104.0
35125,0.18918991,0.34126663,0.15055847,0.20178223,0.17629395,0.23151855,104.0
35126,-0.11749554,0.22760391,0.20489502,0.20178223,0.17629395,0.23151855,104.0
35127,-0.11749554,0.22760391,0.20489502,0.30054933,0.059472658,0.27612305,104.0
35128,-0.39999008,0.49197006,0.117492676,0.30054933,0.059472658,0.27612305,104.0
35129,-0.39999008,0.49197006,0.117492676,0.16142578,-0.8485474,-0.0053100586,104.0
35130,-0.25246286,0.8096409,0.12940979,0.16142578,-0.8485474,-0.0053100586,104.0
35131,-0.25246286,0.8096409,0.12940979,-0.36851808,0.14549561,0.33771974,104.0
35132,-0.3101611,0.4867382,0.44239807,-0.36851808,0.14549561,0.33771974,104.0
35133,-0.3101611,0.4867382,0.44239807,0.14761963,-0.12000733,0.65632325,104.0
35134,-0.41516972,0.03386116,0.73539734,0.14761963,-0.12000733,0.65632325,104.0
35135,-0.41516972,0.03386116,0.73539734,-0.040356446,0.10620117,0.026550293,104.0
35136,-0.120820045,-0.22559738,0.6904144,-0.040356446,0.10620117,0.026550293,104.0
35137,-0.120820045,-0.22559738,0.6904144,-0.21240234,0.3175415,0.025488282,104.0
35138,0.11854172,-0.6039753,0.3778534,-0.21240234,0.3175415,0.025488282,104.0
35139,0.11854172,-0.6039753,0.3778534,0.033984374,0.36639404,0.44604492,104.0
35140,4.119873E-4,-0.87600136,0.20654297,0.033984374,0.36639404,0.44604492,104.0
35141,4.119873E-4,-0.87600136,0.20654297,0.19328614,0.33240968,0.4598511,104.0
35142,-0.6512451,-1.5225658,-0.23200989,0.19328614,0.33240968,0.4598511,104.0
35143,-0.6512451,-1.5225658,-0.23200989,0.26656494,0.20603028,0.16992188,104.0
35144,-0.65907,-1.3010483,-0.3140564,0.26656494,0.20603028,0.16992188,104.0
35145,-0.65907,-1.3010483,-0.3140564,0.20709229,0.09664307,0.1996582,104.0
35146,-0.35600376,-0.7626648,-0.5289154,0.20709229,0.09664307,0.1996582,104.0
35147,-0.35600376,-0.7626648,-0.5289154,-0.07752686,-0.07646485,0.1263794,104.0
35148,-0.035169125,-0.47273064,-0.43881226,-0.07752686,-0.07646485,0.1263794,104.0
35149,-0.035169125,-0.47273064,-0.43881226,-0.2166504,-0.038232423,0.04248047,104.0
35150,0.69399595,-0.43701172,-0.40412903,-0.2166504,-0.038232423,0.04248047,104.0
35151,0.69399595,-0.43701172,-0.40412903,-0.40037844,0.2262085,-0.04460449,104.0
35152,0.6135583,-0.5293217,-0.40359497,-0.40037844,0.2262085,-0.04460449,104.0
35153,0.6135583,-0.5293217,-0.40359497,-0.26868898,0.2803711,-0.07646485,104.0
35154,0.056190968,-0.820137,-0.5609894,-0.26868898,0.2803711,-0.07646485,104.0
35155,0.056190968,-0.820137,-0.5609894,-0.010620117,0.2081543,-0.14337158,104.0
35156,-0.08047438,-0.5225525,-0.4511261,-0.010620117,0.2081543,-0.14337158,104.0
35157,-0.08047438,-0.5225525,-0.4511261,-0.04141846,0.1274414,-0.09664307,104.0
35158,-0.04815674,0.31918907,-0.2427063,-0.04141846,0.1274414,-0.09664307,104.0
35159,-0.04815674,0.31918907,-0.2427063,-0.41524658,0.013806152,0.18585205,104.0
35160,0.030541897,0.38594055,-0.16726685,-0.41524658,0.013806152,0.18585205,104.0
35161,0.030541897,0.38594055,-0.16726685,-0.4885254,-0.0021240234,0.27399904,104.0
35162,0.14317131,-0.036535263,0.05366516,-0.4885254,-0.0021240234,0.27399904,104.0
35163,0.14317131,-0.036535263,0.05366516,-0.38551027,-0.1709839,0.30161133,104.0
35164,0.18526459,-0.12666512,0.10458374,-0.38551027,-0.1709839,0.30161133,104.0
35165,0.18526459,-0.12666512,0.10458374,-0.3334717,-0.17629395,0.24851075,104.0
35166,0.6289859,0.07000542,0.03366089,-0.3334717,-0.17629395,0.24851075,104.0
35167,0.6289859,0.07000542,0.03366089,-0.30373535,0.1539917,0.14018555,104.0
35168,0.5654812,0.15537071,-0.100494385,-0.30373535,0.1539917,0.14018555,104.0
35169,0.5654812,0.15537071,-0.100494385,-0.25594482,0.24532472,0.10513916,104.0
35170,-0.0409503,0.106987,-0.5038147,-0.25594482,0.24532472,0.10513916,104.0
35171,-0.0409503,0.106987,-0.5038147,-0.06584473,0.16248779,-0.083898924,104.0
35172,-0.20347548,0.12784958,-0.48495483,-0.06584473,0.16248779,-0.083898924,104.0
35173,-0.20347548,0.12784958,-0.48495483,-0.058410645,0.09664307,-0.124255374,104.0
35174,-0.2714715,0.30622292,-0.4867096,-0.058410645,0.09664307,-0.124255374,104.0
35175,-0.2714715,0.30622292,-0.4867096,-0.1720459,0.081774905,-0.093457036,104.0
35176,-0.1949234,0.3062458,-0.37857056,-0.1720459,0.081774905,-0.093457036,104.0
35177,-0.1949234,0.3062458,-0.37857056,-0.17735596,0.0637207,-0.07327881,104.0
35178,-0.29544067,0.06113434,-0.0056762695,-0.17735596,0.0637207,-0.07327881,104.0
35179,-0.29544067,0.06113434,-0.0056762695,-0.17735596,0.0637207,-0.07327881,105.0
35180,-0.29544067,0.06113434,-0.0056762695,0.06584473,-0.16673584,-0.13275146,105.0
35181,-0.25496817,0.103279114,0.14596558,0.06584473,-0.16673584,-0.13275146,105.0
35182,-0.25496817,0.103279114,0.14596558,0.050976563,-0.20390625,-0.1178833,105.0
35183,-0.11508274,0.42767906,0.59413147,0.050976563,-0.20390625,-0.1178833,105.0
35184,-0.11508274,0.42767906,0.59413147,-0.019116212,-0.26125488,-0.078588866,105.0
35185,-0.12392664,0.4314499,0.59976196,-0.019116212,-0.26125488,-0.078588866,105.0
35186,-0.12392664,0.4314499,0.59976196,0.04885254,-0.29205322,-0.07434082,105.0
35187,-0.080537796,0.65175056,0.72146606,0.04885254,-0.29205322,-0.07434082,105.0
35188,-0.080537796,0.65175056,0.72146606,0.13487549,-0.362146,-0.10513916,105.0
35189,0.11414671,1.0665417,0.6281128,0.13487549,-0.362146,-0.10513916,105.0
35190,0.11414671,1.0665417,0.6281128,-0.04248047,-0.2166504,-0.1178833,105.0
35191,-0.062540054,0.98399544,0.16264343,-0.04248047,-0.2166504,-0.1178833,105.0
35192,-0.062540054,0.98399544,0.16264343,-0.009558106,-0.14655761,-0.10195313,105.0
35193,-0.27024698,0.57758904,0.075683594,-0.009558106,-0.14655761,-0.10195313,105.0
35194,-0.27024698,0.57758904,0.075683594,0.09239502,-0.25594482,-0.14974366,105.0
35195,-0.4402089,0.12801361,0.19656372,0.09239502,-0.25594482,-0.14974366,105.0
35196,-0.4402089,0.12801361,0.19656372,0.21134034,-0.38975832,-0.2814331,105.0
35197,-0.075250626,0.12910652,0.38562012,0.21134034,-0.38975832,-0.2814331,105.0
35198,-0.075250626,0.12910652,0.38562012,0.09770508,-0.271875,-0.29736328,105.0
35199,0.2985034,0.2015152,0.48135376,0.09770508,-0.271875,-0.29736328,105.0
35200,0.2985034,0.2015152,0.48135376,0.023364259,-0.1444336,-0.2516968,105.0
35201,0.27010155,0.21338654,0.66859436,0.023364259,-0.1444336,-0.2516968,105.0
35202,0.27010155,0.21338654,0.66859436,0.04460449,-0.22939454,-0.24001466,105.0
35203,0.18949413,0.40275192,0.8309326,0.04460449,-0.22939454,-0.24001466,105.0
35204,0.18949413,0.40275192,0.8309326,-0.118945315,-0.33878174,-0.25063476,105.0
35205,0.3555994,0.535738,0.58792114,-0.118945315,-0.33878174,-0.25063476,105.0
35206,0.3555994,0.535738,0.58792114,-0.26444092,-0.30054933,-0.20709229,105.0
35207,0.53471136,0.087135315,0.005859375,-0.26444092,-0.30054933,-0.20709229,105.0
35208,0.53471136,0.087135315,0.005859375,-0.053100586,-0.1083252,-0.121069334,105.0
35209,0.38434887,-0.732378,-0.411026,-0.053100586,-0.1083252,-0.121069334,105.0
35210,0.38434887,-0.732378,-0.411026,0.3069214,0.043542482,-0.1263794,105.0
35211,0.024166107,-1.1605968,-0.3992157,0.3069214,0.043542482,-0.1263794,105.0
35212,0.024166107,-1.1605968,-0.3992157,0.26444092,-0.039294433,-0.35046387,105.0
35213,-0.067849636,-1.0775013,-0.3137207,0.26444092,-0.039294433,-0.35046387,105.0
35214,-0.067849636,-1.0775013,-0.3137207,-0.13912354,-0.06584473,-0.59047854,105.0
35215,0.14669704,-1.0437279,-0.4264984,-0.13912354,-0.06584473,-0.59047854,105.0
35216,0.14669704,-1.0437279,-0.4264984,-0.30373535,0.06796875,-0.68074954,105.0
35217,0.26180315,-1.136055,-0.5927429,-0.30373535,0.06796875,-0.68074954,105.0
35218,0.26180315,-1.136055,-0.5927429,-0.1359375,0.22302246,-0.59047854,105.0
35219,0.018182755,-0.92411613,-0.5809479,-0.1359375,0.22302246,-0.59047854,105.0
35220,0.018182755,-0.92411613,-0.5809479,0.04991455,0.16567384,-0.3430298,105.0
35221,-0.38444042,-0.31546593,-0.4268036,0.04991455,0.16567384,-0.3430298,105.0
35222,-0.38444042,-0.31546593,-0.4268036,-0.008496094,-0.08814698,-0.15930176,105.0
35223,-0.532516,0.23736191,-0.3199768,-0.008496094,-0.08814698,-0.15930176,105.0
35224,-0.532516,0.23736191,-0.3199768,-0.20072022,-0.3154175,-0.090270996,105.0
35225,-0.32139874,0.38163757,-0.23280334,-0.20072022,-0.3154175,-0.090270996,105.0
35226,-0.32139874,0.38163757,-0.23280334,-0.26975098,-0.36745605,0.027612304,105.0
35227,0.022604942,0.27877045,-0.098587036,-0.26975098,-0.36745605,0.027612304,105.0
35228,0.022604942,0.27877045,-0.098587036,-0.22727051,-0.31435546,0.16885987,105.0
35229,0.2589898,0.15454674,-0.06581116,-0.22727051,-0.31435546,0.16885987,105.0
35230,0.2589898,0.15454674,-0.06581116,-0.31966552,-0.14230958,0.19116211,105.0
35231,0.21679878,-0.08948517,-0.2642517,-0.31966552,-0.14230958,0.19116211,105.0
35232,0.21679878,-0.08948517,-0.2642517,-0.24744873,0.016992187,0.08814698,105.0
35233,0.015907288,-0.33721352,-0.48947144,-0.24744873,0.016992187,0.08814698,105.0
35234,0.015907288,-0.33721352,-0.48947144,0.0361084,0.09770508,-0.020178223,105.0
35235,-0.07206392,-0.15170479,-0.53344727,0.0361084,0.09770508,-0.020178223,105.0
35236,-0.07206392,-0.15170479,-0.53344727,0.12531738,0.17629395,-0.05522461,105.0
35237,-0.078305244,0.36481667,-0.4813385,0.12531738,0.17629395,-0.05522461,105.0
35238,-0.078305244,0.36481667,-0.4813385,-0.11044922,0.20072022,-0.04460449,105.0
35239,-0.18934107,0.6245918,-0.45236206,-0.11044922,0.20072022,-0.04460449,105.0
35240,-0.18934107,0.6245918,-0.45236206,-0.28355715,0.06584473,-0.015930176,105.0
35241,-0.23435879,0.38976097,-0.34066772,-0.28355715,0.06584473,-0.015930176,105.0
35242,-0.23435879,0.38976097,-0.34066772,-0.25806886,-0.059472658,0.07327881,105.0
35243,-0.06509924,-0.06779289,-0.08522034,-0.25806886,-0.059472658,0.07327881,105.0
35244,-0.06509924,-0.06779289,-0.08522034,-0.046728518,0.0,0.21346436,105.0
35245,0.06747627,-0.2988739,0.23448181,-0.046728518,0.0,0.21346436,105.0
35246,0.06747627,-0.2988739,0.23448181,0.24001466,0.040356446,0.35683593,105.0
35247,0.017738342,-0.028831482,0.5718994,0.24001466,0.040356446,0.35683593,105.0
35248,0.017738342,-0.028831482,0.5718994,0.35895997,-0.039294433,0.4364868,105.0
35249,-0.015155315,0.55570793,0.85446167,0.35895997,-0.039294433,0.4364868,105.0
35250,-0.015155315,0.55570793,0.85446167,0.18160401,-0.13912354,0.4715332,105.0
35251,0.11733103,0.95015717,0.9079132,0.18160401,-0.13912354,0.4715332,105.0
35252,0.11733103,0.95015717,0.9079132,-0.06690674,-0.11469727,0.43754885,105.0
35253,0.3021288,0.81770706,0.6581116,-0.06690674,-0.11469727,0.43754885,105.0
35254,0.3021288,0.81770706,0.6581116,-0.10620117,-0.0361084,0.3154175,105.0
35255,0.4628091,0.37737083,0.35185242,-0.10620117,-0.0361084,0.3154175,105.0
35256,0.4628091,0.37737083,0.35185242,0.13912354,0.0021240234,0.21027832,105.0
35257,0.6577959,0.14302254,0.20855713,0.13912354,0.0021240234,0.21027832,105.0
35258,0.6577959,0.14302254,0.20855713,0.40144044,0.23895264,0.2166504,105.0
35259,0.5871377,0.2471199,0.24874878,0.40144044,0.23895264,0.2166504,105.0
35260,0.5871377,0.2471199,0.24874878,0.44923097,0.47684327,0.32603762,105.0
35261,-0.024894238,0.38946724,0.38053894,0.44923097,0.47684327,0.32603762,105.0
35262,-0.024894238,0.38946724,0.38053894,0.2888672,0.38975832,0.32603762,105.0
35263,-0.7298889,0.37246132,0.57748413,0.2888672,0.38975832,0.32603762,105.0
35264,-0.7298889,0.37246132,0.57748413,0.04991455,0.14761963,0.29099122,105.0
35265,-0.90411377,0.23487091,0.7494354,0.04991455,0.14761963,0.29099122,105.0
35266,-0.90411377,0.23487091,0.7494354,-0.07115479,-0.011682129,0.37382814,105.0
35267,-0.5416384,0.12973022,0.7094879,-0.07115479,-0.011682129,0.37382814,105.0
35268,-0.5416384,0.12973022,0.7094879,-0.06584473,0.03717041,0.56817627,105.0
35269,-0.20981216,0.06812668,0.4778595,-0.06584473,0.03717041,0.56817627,105.0
35270,-0.20981216,0.06812668,0.4778595,-0.121069334,0.059472658,0.632959,105.0
35271,-0.12912893,-0.19753647,0.17977905,-0.121069334,0.059472658,0.632959,105.0
35272,-0.12912893,-0.19753647,0.17977905,-0.07115479,-0.07327881,0.4609131,105.0
35273,0.032500267,-0.7436485,-0.06863403,-0.07115479,-0.07327881,0.4609131,105.0
35274,0.032500267,-0.7436485,-0.06863403,0.24107666,0.02442627,0.41312256,105.0
35275,0.28249407,-1.3125839,-0.23277283,0.24107666,0.02442627,0.41312256,105.0
35276,0.28249407,-1.3125839,-0.23277283,0.47896728,0.19647217,0.38551027,105.0
35277,0.28477192,-1.6374702,-0.4078827,0.47896728,0.19647217,0.38551027,105.0
35278,0.28477192,-1.6374702,-0.4078827,0.43967286,0.32922363,0.2548828,105.0
35279,0.28477192,-1.6374702,-0.4078827,0.43967286,0.32922363,0.2548828,105.0
35280,0.018576622,-1.6355743,-0.6626129,0.43967286,0.32922363,0.2548828,105.0
35281,0.018576622,-1.6355743,-0.6626129,0.19647217,0.29736328,0.07540283,105.0
35282,-0.1471262,-1.3969479,-0.83496094,0.19647217,0.29736328,0.07540283,105.0
35283,-0.1471262,-1.3969479,-0.83496094,-0.070092775,0.1985962,-0.026550293,105.0
35284,0.04277277,-1.0633831,-0.84194946,-0.070092775,0.1985962,-0.026550293,105.0
35285,0.04277277,-1.0633831,-0.84194946,-0.24107666,0.20496826,-0.029736329,105.0
35286,0.31480932,-0.7756462,-0.74427795,-0.24107666,0.20496826,-0.029736329,105.0
35287,0.31480932,-0.7756462,-0.74427795,-0.2803711,0.2984253,0.04460449,105.0
35288,0.27894735,-0.4943943,-0.48731995,-0.2803711,0.2984253,0.04460449,105.0
35289,0.27894735,-0.4943943,-0.48731995,-0.23045655,0.19541016,0.09133301,105.0
35290,0.12290144,-0.026472092,-0.10165405,-0.23045655,0.19541016,0.09133301,105.0
35291,0.12290144,-0.026472092,-0.10165405,-0.34090576,-0.04141846,0.04991455,105.0
35292,0.22509098,0.50287056,0.19030762,-0.34090576,-0.04141846,0.04991455,105.0
35293,0.22509098,0.50287056,0.19030762,-0.5979126,-0.14018555,0.05522461,105.0
35294,0.4469552,0.5274677,0.30343628,-0.5979126,-0.14018555,0.05522461,105.0
35295,0.4469552,0.5274677,0.30343628,-0.635083,-0.14974366,0.12531738,105.0
35296,0.54366064,0.058912277,0.41932678,-0.635083,-0.14974366,0.12531738,105.0
35297,0.54366064,0.058912277,0.41932678,-0.3069214,-0.15080567,0.09239502,105.0
35298,0.5680828,-0.08134842,0.5939026,-0.3069214,-0.15080567,0.09239502,105.0
35299,0.5680828,-0.08134842,0.5939026,-0.06159668,-0.05522461,0.0031860352,105.0
35300,0.490489,0.32410622,0.5470581,-0.06159668,-0.05522461,0.0031860352,105.0
35301,0.490489,0.32410622,0.5470581,-0.16992188,0.07752686,0.040356446,105.0
35302,0.12422705,0.60427856,0.16629028,-0.16992188,0.07752686,0.040356446,105.0
35303,0.12422705,0.60427856,0.16629028,-0.25913087,0.0541626,0.033984374,105.0
35304,-0.35922432,0.4615593,-0.25750732,-0.25913087,0.0541626,0.033984374,105.0
35305,-0.35922432,0.4615593,-0.25750732,-0.26762697,-0.052038576,-0.043542482,105.0
35306,-0.61358786,0.15828514,-0.4176941,-0.26762697,-0.052038576,-0.043542482,105.0
35307,-0.61358786,0.15828514,-0.4176941,-0.2824951,-0.1709839,-0.1083252,105.0
35308,-0.54517937,-0.16551208,-0.33988953,-0.2824951,-0.1709839,-0.1083252,105.0
35309,-0.54517937,-0.16551208,-0.33988953,-0.2081543,-0.24638672,-0.2516968,105.0
35310,-0.27215433,-0.36505127,-0.17526245,-0.2081543,-0.24638672,-0.2516968,105.0
35311,-0.27215433,-0.36505127,-0.17526245,-0.059472658,-0.26019287,-0.35152587,105.0
35312,0.012147427,-0.20490646,0.08692932,-0.059472658,-0.26019287,-0.35152587,105.0
35313,0.012147427,-0.20490646,0.08692932,0.040356446,-0.25806886,-0.3727661,105.0
35314,0.13507175,0.23970032,0.36198425,0.040356446,-0.25806886,-0.3727661,105.0
35315,0.13507175,0.23970032,0.36198425,-0.058410645,-0.23895264,-0.37807617,105.0
35316,0.044861794,0.57398605,0.45703125,-0.058410645,-0.23895264,-0.37807617,105.0
35317,0.044861794,0.57398605,0.45703125,-0.1359375,-0.29630128,-0.41737062,105.0
35318,-0.08807278,0.6107025,0.3516388,-0.1359375,-0.29630128,-0.41737062,105.0
35319,-0.08807278,0.6107025,0.3516388,-0.032922365,-0.3334717,-0.40144044,105.0
35320,-0.13585138,0.6030636,0.2693634,-0.032922365,-0.3334717,-0.40144044,105.0
35321,-0.13585138,0.6030636,0.2693634,0.06903076,-0.28674316,-0.31010744,105.0
35322,-0.23488998,0.7505779,0.3340149,0.06903076,-0.28674316,-0.31010744,105.0
35323,-0.23488998,0.7505779,0.3340149,0.04248047,-0.2442627,-0.2357666,105.0
35324,-0.48644686,0.8189812,0.42643738,0.04248047,-0.2442627,-0.2357666,105.0
35325,-0.48644686,0.8189812,0.42643738,-0.10301514,-0.37382814,-0.24957275,105.0
35326,-0.61934566,0.5661831,0.40574646,-0.10301514,-0.37382814,-0.24957275,105.0
35327,-0.61934566,0.5661831,0.40574646,-0.18160401,-0.5150757,-0.36427003,105.0
35328,-0.31991482,0.26340675,0.25997925,-0.18160401,-0.5150757,-0.36427003,105.0
35329,-0.31991482,0.26340675,0.25997925,-0.11363526,-0.48746338,-0.4088745,105.0
35330,0.19464159,0.27721596,0.040725708,-0.11363526,-0.48746338,-0.4088745,105.0
35331,0.19464159,0.27721596,0.040725708,-0.09133301,-0.3727661,-0.27612305,105.0
35332,0.4383669,0.4254837,-0.15333557,-0.09133301,-0.3727661,-0.27612305,105.0
35333,0.4383669,0.4254837,-0.15333557,-0.095581055,-0.34940186,-0.16992188,105.0
35334,0.35783434,0.28160858,-0.23249817,-0.095581055,-0.34940186,-0.16992188,105.0
35335,0.35783434,0.28160858,-0.23249817,-0.060534667,-0.44710693,-0.21877442,105.0
35336,0.32248592,-0.2482853,-0.2765503,-0.060534667,-0.44710693,-0.21877442,105.0
35337,0.32248592,-0.2482853,-0.2765503,0.078588866,-0.38763428,-0.2793091,105.0
35338,0.406353,-0.85136414,-0.42539978,0.078588866,-0.38763428,-0.2793091,105.0
35339,0.406353,-0.85136414,-0.42539978,0.14124756,-0.12850343,-0.3154175,105.0
35340,0.29689598,-1.2185917,-0.61035156,0.14124756,-0.12850343,-0.3154175,105.0
35341,0.29689598,-1.2185917,-0.61035156,0.12850343,0.060534667,-0.39294434,105.0
35342,-0.05340147,-1.1671944,-0.7089691,0.12850343,0.060534667,-0.39294434,105.0
35343,-0.05340147,-1.1671944,-0.7089691,0.039294433,0.03079834,-0.4959595,105.0
35344,-0.25673485,-0.6706333,-0.7920532,0.039294433,0.03079834,-0.4959595,105.0
35345,-0.25673485,-0.6706333,-0.7920532,-0.13699952,-0.021240234,-0.52675784,105.0
35346,-0.16981697,0.02756691,-0.90625,-0.13699952,-0.021240234,-0.52675784,105.0
35347,-0.16981697,0.02756691,-0.90625,-0.26762697,0.03717041,-0.3536499,105.0
35348,-0.14182281,0.6282425,-0.8158417,-0.26762697,0.03717041,-0.3536499,105.0
35349,-0.14182281,0.6282425,-0.8158417,-0.3345337,-0.019116212,-0.13912354,105.0
35350,-0.3315854,1.0066338,-0.39631653,-0.3345337,-0.019116212,-0.13912354,105.0
35351,-0.3315854,1.0066338,-0.39631653,-0.5299439,-0.27612305,-0.10089111,105.0
35352,-0.43895006,1.0793171,0.109817505,-0.5299439,-0.27612305,-0.10089111,105.0
35353,-0.43895006,1.0793171,0.109817505,-0.6977417,-0.541626,-0.12531738,105.0
35354,-0.22392607,0.75730133,0.41600037,-0.6977417,-0.541626,-0.12531738,105.0
35355,-0.22392607,0.75730133,0.41600037,-0.5076416,-0.5915405,-0.06584473,105.0
35356,0.16431618,0.13105965,0.46765137,-0.5076416,-0.5915405,-0.06584473,105.0
35357,0.16431618,0.13105965,0.46765137,-0.16992188,-0.43967286,0.0180542,105.0
35358,0.38477325,-0.3672104,0.3986206,-0.16992188,-0.43967286,0.0180542,105.0
35359,0.38477325,-0.3672104,0.3986206,0.06584473,-0.270813,0.06903076,105.0
35360,0.30159283,-0.38754272,0.28370667,0.06584473,-0.270813,0.06903076,105.0
35361,0.30159283,-0.38754272,0.28370667,-0.027612304,-0.2166504,0.07540283,105.0
35362,0.061891556,-0.18925858,0.049194336,-0.027612304,-0.2166504,0.07540283,105.0
35363,0.061891556,-0.18925858,0.049194336,-0.29417726,-0.22727051,0.06478272,105.0
35364,-0.13071156,-0.1710968,-0.25160217,-0.29417726,-0.22727051,0.06478272,105.0
35365,-0.13071156,-0.1710968,-0.25160217,-0.2527588,-0.271875,0.098767094,105.0
35366,-0.101175785,-0.21870232,-0.42478943,-0.2527588,-0.271875,0.098767094,105.0
35367,-0.101175785,-0.21870232,-0.42478943,-0.09770508,-0.3419678,0.12956543,105.0
35368,0.16168594,-0.017381668,-0.40512085,-0.09770508,-0.3419678,0.12956543,105.0
35369,0.16168594,-0.017381668,-0.40512085,-0.09451904,-0.22089843,0.19753419,105.0
35370,0.27106,0.24759293,-0.23544312,-0.09451904,-0.22089843,0.19753419,105.0
35371,0.27106,0.24759293,-0.23544312,-0.18054199,-0.15611573,0.23258057,105.0
35372,0.068556786,0.22649193,0.13607788,-0.18054199,-0.15611573,0.23258057,105.0
35373,0.068556786,0.22649193,0.13607788,-0.14974366,-0.3079834,0.1529297,105.0
35374,0.015135765,0.004825592,0.5814667,-0.14974366,-0.3079834,0.1529297,105.0
35375,0.015135765,0.004825592,0.5814667,-0.032922365,-0.40356445,0.029736329,105.0
35376,0.34840012,-0.21235085,0.8055725,-0.032922365,-0.40356445,0.029736329,105.0
35377,0.34840012,-0.21235085,0.8055725,0.052038576,-0.2782471,-0.028674318,105.0
35378,0.65920115,-0.33491898,0.69477844,0.052038576,-0.2782471,-0.028674318,105.0
35379,0.65920115,-0.33491898,0.69477844,0.20496826,-0.06796875,0.047790527,105.0
35380,0.5560107,-0.17508888,0.50923157,0.20496826,-0.06796875,0.047790527,105.0
35381,0.5560107,-0.17508888,0.50923157,0.23789063,0.087084964,0.15186767,105.0
35382,0.086642265,0.38461113,0.41767883,0.23789063,0.087084964,0.15186767,105.0
35383,0.086642265,0.38461113,0.41767883,-0.052038576,0.09239502,0.14549561,105.0
35384,-0.38895035,0.92066574,0.24960327,-0.052038576,0.09239502,0.14549561,105.0
35385,-0.38895035,0.92066574,0.24960327,-0.37701416,-0.11257324,0.09239502,105.0
35386,-0.5066438,0.8566246,-0.05569458,-0.37701416,-0.11257324,0.09239502,105.0
35387,-0.5066438,0.8566246,-0.05569458,-0.31010744,-0.16567384,0.17841797,105.0
35388,-0.5066438,0.8566246,-0.05569458,-0.31010744,-0.16567384,0.17841797,105.0
35389,-0.329082,0.38966942,-0.22012329,-0.31010744,-0.16567384,0.17841797,105.0
35390,-0.329082,0.38966942,-0.22012329,0.040356446,-0.0053100586,0.26550293,105.0
35391,-0.32590008,0.0966835,-0.16534424,0.040356446,-0.0053100586,0.26550293,105.0
35392,-0.32590008,0.0966835,-0.16534424,0.009558106,0.14124756,0.16779785,105.0
35393,-0.68117905,-0.16950417,-0.11198425,0.009558106,0.14124756,0.16779785,105.0
35394,-0.68117905,-0.16950417,-0.11198425,-0.25806886,0.033984374,-0.12531738,105.0
35395,-0.9056244,-0.78837585,-0.15766907,-0.25806886,0.033984374,-0.12531738,105.0
35396,-0.9056244,-0.78837585,-0.15766907,-0.29736328,-0.16142578,-0.46728516,105.0
35397,-0.5031004,-1.299633,-0.28193665,-0.29736328,-0.16142578,-0.46728516,105.0
35398,-0.5031004,-1.299633,-0.28193665,-0.09451904,-0.03079834,-0.63933104,105.0
35399,0.12814713,-0.9802933,-0.44023132,-0.09451904,-0.03079834,-0.63933104,105.0
35400,0.12814713,-0.9802933,-0.44023132,-0.027612304,0.30161133,-0.4609131,105.0
35401,0.15151691,-0.08068085,-0.50660706,-0.027612304,0.30161133,-0.4609131,105.0
35402,0.15151691,-0.08068085,-0.50660706,-0.2357666,0.26444092,-0.22408448,105.0
35403,-0.36214828,0.64559937,-0.3307953,-0.2357666,0.26444092,-0.22408448,105.0
35404,-0.36214828,0.64559937,-0.3307953,-0.51082766,-0.1263794,-0.18266602,105.0
35405,-0.5525603,0.9593868,0.018707275,-0.51082766,-0.1263794,-0.18266602,105.0
35406,-0.5525603,0.9593868,0.018707275,-0.6117188,-0.37489015,-0.14337158,105.0
35407,-0.16115236,1.008194,0.29707336,-0.6117188,-0.37489015,-0.14337158,105.0
35408,-0.16115236,1.008194,0.29707336,-0.6446411,-0.26868898,-0.12319336,105.0
35409,0.20916414,0.8092537,0.3640747,-0.6446411,-0.26868898,-0.12319336,105.0
35410,0.20916414,0.8092537,0.3640747,-0.65844727,-0.13062744,-0.24851075,105.0
35411,0.13836384,0.25122452,0.24458313,-0.65844727,-0.13062744,-0.24851075,105.0
35412,0.13836384,0.25122452,0.24458313,-0.51932377,-0.13487549,-0.5065796,105.0
35413,-0.11170912,-0.44391823,-0.009490967,-0.51932377,-0.13487549,-0.5065796,105.0
35414,-0.11170912,-0.44391823,-0.009490967,-0.10407715,-0.09664307,-0.73809814,105.0
35415,-0.2615595,-0.655941,-0.33328247,-0.10407715,-0.09664307,-0.73809814,105.0
35416,-0.2615595,-0.655941,-0.33328247,0.14655761,0.0180542,-0.7784546,105.0
35417,-0.42428684,-0.25027847,-0.5465393,0.14655761,0.0180542,-0.7784546,105.0
35418,-0.42428684,-0.25027847,-0.5465393,0.0361084,-0.032922365,-0.71154785,105.0
35419,-0.6962409,0.29464912,-0.45762634,0.0361084,-0.032922365,-0.71154785,105.0
35420,-0.6962409,0.29464912,-0.45762634,-0.27612305,-0.24957275,-0.721106,105.0
35421,-0.83741283,0.53697777,-0.15336609,-0.27612305,-0.24957275,-0.721106,105.0
35422,-0.83741283,0.53697777,-0.15336609,-0.5851685,-0.5150757,-0.83474123,105.0
35423,-0.6078453,0.38769913,0.079193115,-0.5851685,-0.5150757,-0.83474123,105.0
35424,-0.6078453,0.38769913,0.079193115,-0.63933104,-0.5872925,-0.9281983,105.0
35425,-0.1811738,0.10106468,0.13847351,-0.63933104,-0.5872925,-0.9281983,105.0
35426,-0.1811738,0.10106468,0.13847351,-0.33771974,-0.4970215,-0.9611206,105.0
35427,0.07776594,0.06354141,0.19819641,-0.33771974,-0.4970215,-0.9611206,105.0
35428,0.07776594,0.06354141,0.19819641,-0.1083252,-0.3706421,-0.99935305,105.0
35429,-0.06847572,0.3208542,0.38479614,-0.1083252,-0.3706421,-0.99935305,105.0
35430,-0.06847572,0.3208542,0.38479614,-0.16354981,-0.41843262,-1.0864381,105.0
35431,-0.4176712,0.5185356,0.5256195,-0.16354981,-0.41843262,-1.0864381,105.0
35432,-0.4176712,0.5185356,0.5256195,-0.2888672,-0.6149048,-1.2096313,105.0
35433,-0.49379253,0.54418755,0.3912964,-0.2888672,-0.6149048,-1.2096313,105.0
35434,-0.49379253,0.54418755,0.3912964,-0.29311523,-0.6595093,-1.2414917,105.0
35435,-0.3071556,0.61564827,0.06846619,-0.29311523,-0.6595093,-1.2414917,105.0
35436,-0.3071556,0.61564827,0.06846619,-0.26019287,-0.4598511,-1.1140503,105.0
35437,-0.43274856,0.66573715,-0.22291565,-0.26019287,-0.4598511,-1.1140503,105.0
35438,-0.43274856,0.66573715,-0.22291565,-0.1529297,-0.36108398,-1.0333375,105.0
35439,-1.0056591,0.54699516,-0.3431244,-0.1529297,-0.36108398,-1.0333375,105.0
35440,-1.0056591,0.54699516,-0.3431244,-0.052038576,-0.57454836,-1.1427246,105.0
35441,-1.3687487,0.31240082,-0.2514801,-0.052038576,-0.57454836,-1.1427246,105.0
35442,-1.3687487,0.31240082,-0.2514801,-0.04248047,-0.8358032,-1.3020264,105.0
35443,-1.1366494,0.07603073,-0.020477295,-0.04248047,-0.8358032,-1.3020264,105.0
35444,-1.1366494,0.07603073,-0.020477295,0.022302246,-0.77102053,-1.2999023,105.0
35445,-0.7886896,-0.034072876,0.19335938,0.022302246,-0.77102053,-1.2999023,105.0
35446,-0.7886896,-0.034072876,0.19335938,-0.016992187,-0.6265869,-1.2478638,105.0
35447,-0.819819,0.034936905,0.2553711,-0.016992187,-0.6265869,-1.2478638,105.0
35448,-0.819819,0.034936905,0.2553711,-0.24957275,-0.6435791,-1.2882203,105.0
35449,-1.0319781,0.08042717,0.19709778,-0.24957275,-0.6435791,-1.2882203,105.0
35450,-1.0319781,0.08042717,0.19709778,-0.55755615,-0.7423462,-1.3381348,105.0
35451,-1.0436122,-0.15974426,0.22149658,-0.55755615,-0.7423462,-1.3381348,105.0
35452,-1.0436122,-0.15974426,0.22149658,-0.6796875,-0.8527954,-1.3784913,105.0
35453,-0.70272434,-0.40436935,0.29014587,-0.6796875,-0.8527954,-1.3784913,105.0
35454,-0.70272434,-0.40436935,0.29014587,-0.4354248,-0.86978763,-1.3232666,105.0
35455,-0.21546316,-0.23965836,0.2886505,-0.4354248,-0.86978763,-1.3232666,105.0
35456,-0.21546316,-0.23965836,0.2886505,-0.20709229,-0.77739257,-1.0662597,105.0
35457,0.03993416,0.080942154,0.37322998,-0.20709229,-0.77739257,-1.0662597,105.0
35458,0.03993416,0.080942154,0.37322998,-0.035046387,-0.75615233,-0.7742066,105.0
35459,0.070497036,0.20358467,0.67430115,-0.035046387,-0.75615233,-0.7742066,105.0
35460,0.070497036,0.20358467,0.67430115,-0.0063720704,-0.80606693,-0.6425171,105.0
35461,0.18929553,0.14177513,0.9751587,-0.0063720704,-0.80606693,-0.6425171,105.0
35462,0.18929553,0.14177513,0.9751587,-0.19753419,-0.7423462,-0.6053467,105.0
35463,0.36026216,-0.15420723,0.8895569,-0.19753419,-0.7423462,-0.6053467,105.0
35464,0.36026216,-0.15420723,0.8895569,-0.33878174,-0.5713623,-0.54587406,105.0
35465,0.27153492,-0.6861458,0.3736267,-0.33878174,-0.5713623,-0.54587406,105.0
35466,0.27153492,-0.6861458,0.3736267,-0.2984253,-0.31116945,-0.4439209,105.0
35467,-0.12703466,-1.0026512,-0.19239807,-0.2984253,-0.31116945,-0.4439209,105.0
35468,-0.12703466,-1.0026512,-0.19239807,-0.14549561,-0.29736328,-0.4333008,105.0
35469,-0.45976985,-0.66761017,-0.5206146,-0.14549561,-0.29736328,-0.4333008,105.0
35470,-0.45976985,-0.66761017,-0.5206146,-0.10407715,-0.3727661,-0.3971924,105.0
35471,-0.48862886,0.03881073,-0.61169434,-0.10407715,-0.3727661,-0.3971924,105.0
35472,-0.48862886,0.03881073,-0.61169434,-0.18585205,-0.44710693,-0.28461915,105.0
35473,-0.36178923,0.4248104,-0.44674683,-0.18585205,-0.44710693,-0.28461915,105.0
35474,-0.36178923,0.4248104,-0.44674683,-0.25063476,-0.5320679,-0.21027832,105.0
35475,-0.1482693,0.3208046,-0.079589844,-0.25063476,-0.5320679,-0.21027832,105.0
35476,-0.1482693,0.3208046,-0.079589844,-0.24320069,-0.5299439,-0.1985962,105.0
35477,0.14709496,0.08381653,0.23556519,-0.24320069,-0.5299439,-0.1985962,105.0
35478,0.14709496,0.08381653,0.23556519,-0.20921631,-0.3451538,-0.21983643,105.0
35479,0.33468044,-0.016931534,0.309906,-0.20921631,-0.3451538,-0.21983643,105.0
35480,0.33468044,-0.016931534,0.309906,-0.095581055,-0.14549561,-0.19116211,105.0
35481,0.33468044,-0.016931534,0.309906,-0.095581055,-0.14549561,-0.19116211,105.0
35482,0.29909205,0.022378922,0.21386719,-0.095581055,-0.14549561,-0.19116211,105.0
35483,0.29909205,0.022378922,0.21386719,0.021240234,-0.023364259,-0.098767094,105.0
35484,0.111539364,0.115730286,0.09649658,0.021240234,-0.023364259,-0.098767094,105.0
35485,0.111539364,0.115730286,0.09649658,0.020178223,0.06796875,-0.019116212,105.0
35486,-0.14515567,0.1779232,0.029342651,0.020178223,0.06796875,-0.019116212,105.0
35487,-0.14515567,0.1779232,0.029342651,0.012744141,0.07646485,0.06265869,105.0
35488,-0.32759917,0.19565773,-0.015487671,0.012744141,0.07646485,0.06265869,105.0
35489,-0.32759917,0.19565773,-0.015487671,-0.0021240234,0.0,0.08920898,105.0
35490,-0.22794843,0.27461624,-0.06825256,-0.0021240234,0.0,0.08920898,105.0
35491,-0.22794843,0.27461624,-0.06825256,-0.06265869,-0.021240234,0.06584473,105.0
35492,0.024879932,0.39640045,-0.1563263,-0.06265869,-0.021240234,0.06584473,105.0
35493,0.024879932,0.39640045,-0.1563263,-0.078588866,0.08071289,0.11682129,105.0
35494,0.064008,0.3446846,-0.23597717,-0.078588866,0.08071289,0.11682129,105.0
35495,0.064008,0.3446846,-0.23597717,-0.03717041,0.09239502,0.13699952,105.0
35496,-0.05919397,0.13793182,-0.24775696,-0.03717041,0.09239502,0.13699952,105.0
35497,-0.05919397,0.13793182,-0.24775696,0.04248047,0.012744141,0.04885254,105.0
35498,-0.002177,0.04606247,-0.20909119,0.04248047,0.012744141,0.04885254,105.0
35499,-0.002177,0.04606247,-0.20909119,0.09451904,-0.004248047,-0.015930176,105.0
35500,0.17205,0.10046005,-0.19151306,0.09451904,-0.004248047,-0.015930176,105.0
35501,0.17205,0.10046005,-0.19151306,0.11151123,0.13381349,0.058410645,105.0
35502,0.06616783,0.11869812,-0.22198486,0.11151123,0.13381349,0.058410645,105.0
35503,0.06616783,0.11869812,-0.22198486,0.16036378,0.17947999,0.115759276,105.0
35504,-0.2843827,0.042261124,-0.22207642,0.16036378,0.17947999,0.115759276,105.0
35505,-0.2843827,0.042261124,-0.22207642,0.1263794,0.06478272,0.083898924,105.0
35506,-0.4228431,-0.0251503,-0.16925049,0.1263794,0.06478272,0.083898924,105.0
35507,-0.4228431,-0.0251503,-0.16925049,0.06796875,-0.008496094,0.078588866,105.0
35508,-0.25105524,-0.057621002,-0.114349365,0.06796875,-0.008496094,0.078588866,105.0
35509,-0.25105524,-0.057621002,-0.114349365,0.04248047,0.027612304,0.1444336,105.0
35510,-0.05529976,-0.04128647,-0.0594635,0.04248047,0.027612304,0.1444336,105.0
35511,-0.05529976,-0.04128647,-0.0594635,0.046728518,0.05628662,0.21346436,105.0
35512,0.033824205,0.103530884,0.009567261,0.046728518,0.05628662,0.21346436,105.0
35513,0.033824205,0.103530884,0.009567261,-0.033984374,0.022302246,0.1985962,105.0
35514,0.110238075,0.25489616,0.050689697,-0.033984374,0.022302246,0.1985962,105.0
35515,0.110238075,0.25489616,0.050689697,-0.035046387,0.040356446,0.16461182,105.0
35516,0.16306841,0.21218109,0.04837036,-0.035046387,0.040356446,0.16461182,105.0
35517,0.16306841,0.21218109,0.04837036,0.12000733,0.0998291,0.22302246,105.0
35518,0.14031804,0.07791138,0.06907654,0.12000733,0.0998291,0.22302246,105.0
35519,0.14031804,0.07791138,0.06907654,0.21877442,0.1083252,0.26019287,105.0
35520,0.11125338,0.09320068,0.10557556,0.21877442,0.1083252,0.26019287,105.0
35521,0.11125338,0.09320068,0.10557556,0.15611573,0.14018555,0.2888672,105.0
35522,0.043433905,0.19102669,0.091918945,0.15611573,0.14018555,0.2888672,105.0
35523,0.043433905,0.19102669,0.091918945,0.04991455,0.17947999,0.39082032,105.0
35524,-0.1156801,0.14032173,0.02178955,0.04991455,0.17947999,0.39082032,105.0
35525,-0.1156801,0.14032173,0.02178955,0.009558106,0.13699952,0.41524658,105.0
35526,-0.19272721,-0.010229111,-0.017974854,0.009558106,0.13699952,0.41524658,105.0
35527,-0.19272721,-0.010229111,-0.017974854,0.0063720704,0.047790527,0.33134767,105.0
35528,0.01757121,-0.110198975,-0.023269653,0.0063720704,0.047790527,0.33134767,105.0
35529,0.01757121,-0.110198975,-0.023269653,0.027612304,0.0722168,0.3175415,105.0
35530,0.31914723,-0.22072792,-0.07267761,0.027612304,0.0722168,0.3175415,105.0
35531,0.31914723,-0.22072792,-0.07267761,0.12319336,0.22939454,0.34940186,105.0
35532,0.36153126,-0.3239689,-0.1466217,0.12319336,0.22939454,0.34940186,105.0
35533,0.36153126,-0.3239689,-0.1466217,0.23151855,0.26656494,0.32922363,105.0
35534,0.23841941,-0.21780586,-0.15429688,0.23151855,0.26656494,0.32922363,105.0
35535,0.23841941,-0.21780586,-0.15429688,0.13912354,0.18266602,0.28355715,105.0
35536,0.2431159,-0.0014190674,-0.13546753,0.13912354,0.18266602,0.28355715,105.0
35537,0.2431159,-0.0014190674,-0.13546753,-0.052038576,0.16248779,0.23895264,105.0
35538,0.34968066,-0.050733566,-0.17480469,-0.052038576,0.16248779,0.23895264,105.0
35539,0.34968066,-0.050733566,-0.17480469,-0.10301514,0.16673584,0.20390625,105.0
35540,0.42516685,-0.32444954,-0.22071838,-0.10301514,0.16673584,0.20390625,105.0
35541,0.42516685,-0.32444954,-0.22071838,0.03186035,0.18479005,0.1985962,105.0
35542,0.47316575,-0.37058258,-0.16824341,0.03186035,0.18479005,0.1985962,105.0
35543,0.47316575,-0.37058258,-0.16824341,0.09770508,0.2081543,0.17416993,105.0
35544,0.45942855,-0.05508423,-0.063308716,0.09770508,0.2081543,0.17416993,105.0
35545,0.45942855,-0.05508423,-0.063308716,0.007434082,0.24107666,0.18903808,105.0
35546,0.28457165,0.2999401,0.048828125,0.007434082,0.24107666,0.18903808,105.0
35547,0.28457165,0.2999401,0.048828125,-0.17629395,0.15823975,0.20284425,105.0
35548,0.08666611,0.3369484,0.15727234,-0.17629395,0.15823975,0.20284425,105.0
35549,0.08666611,0.3369484,0.15727234,-0.24638672,0.009558106,0.14337158,105.0
35550,0.11669636,0.17054749,0.19187927,-0.24638672,0.009558106,0.14337158,105.0
35551,0.11669636,0.17054749,0.19187927,-0.124255374,0.0180542,0.14761963,105.0
35552,0.2915871,0.07692909,0.1381073,-0.124255374,0.0180542,0.14761963,105.0
35553,0.2915871,0.07692909,0.1381073,0.03717041,0.18372802,0.25594482,105.0
35554,0.258111,0.13262558,0.12768555,0.03717041,0.18372802,0.25594482,105.0
35555,0.258111,0.13262558,0.12768555,0.070092775,0.21877442,0.29736328,105.0
35556,0.016803741,0.2791958,0.17889404,0.070092775,0.21877442,0.29736328,105.0
35557,0.016803741,0.2791958,0.17889404,-0.026550293,0.15611573,0.2899292,105.0
35558,-0.15494084,0.3883705,0.16236877,-0.026550293,0.15611573,0.2899292,105.0
35559,-0.15494084,0.3883705,0.16236877,-0.14337158,0.1263794,0.3462158,105.0
35560,-0.21698236,0.29995346,0.008529663,-0.14337158,0.1263794,0.3462158,105.0
35561,-0.21698236,0.29995346,0.008529663,-0.14337158,0.14337158,0.36002198,105.0
35562,-0.24090767,0.06236267,-0.16636658,-0.14337158,0.14337158,0.36002198,105.0
35563,-0.24090767,0.06236267,-0.16636658,-0.06159668,0.10089111,0.26550293,105.0
35564,-0.14322662,-0.071424484,-0.24032593,-0.06159668,0.10089111,0.26550293,105.0
35565,-0.14322662,-0.071424484,-0.24032593,0.008496094,0.046728518,0.18054199,105.0
35566,0.12870502,0.025245667,-0.21943665,0.008496094,0.046728518,0.18054199,105.0
35567,0.12870502,0.025245667,-0.21943665,0.028674318,0.124255374,0.16567384,105.0
35568,0.31108165,0.2049141,-0.18386841,0.028674318,0.124255374,0.16567384,105.0
35569,0.31108165,0.2049141,-0.18386841,0.050976563,0.20284425,0.17947999,105.0
35570,0.252625,0.25333405,-0.111709595,0.050976563,0.20284425,0.17947999,105.0
35571,0.252625,0.25333405,-0.111709595,-0.021240234,0.14230958,0.12850343,105.0
35572,0.16171908,0.13714027,-0.021911621,-0.021240234,0.14230958,0.12850343,105.0
35573,0.16171908,0.13714027,-0.021911621,-0.06903076,0.08602295,0.04991455,105.0
35574,0.18392849,-0.062503815,0.031097412,-0.06903076,0.08602295,0.04991455,105.0
35575,0.18392849,-0.062503815,0.031097412,-0.059472658,0.12956543,0.060534667,105.0
35576,0.15921545,-0.30730247,0.045196533,-0.059472658,0.12956543,0.060534667,105.0
35577,0.15921545,-0.30730247,0.045196533,0.012744141,0.12531738,0.0722168,105.0
35578,0.077702045,-0.44552612,0.04914856,0.012744141,0.12531738,0.0722168,105.0
35579,0.077702045,-0.44552612,0.04914856,0.11044922,0.07752686,0.025488282,105.0
35580,0.1141758,-0.25463867,0.04437256,0.11044922,0.07752686,0.025488282,105.0
35581,0.1141758,-0.25463867,0.04437256,0.081774905,0.08814698,0.023364259,105.0
35582,0.1141758,-0.25463867,0.04437256,0.081774905,0.08814698,0.023364259,104.0
35583,0.21762252,0.1305542,-0.00579834,0.081774905,0.08814698,0.023364259,104.0
35584,0.21762252,0.1305542,-0.00579834,-0.020178223,0.1444336,0.09133301,104.0
35585,0.1125257,0.3283081,-0.025558472,-0.020178223,0.1444336,0.09133301,104.0
35586,0.1125257,0.3283081,-0.025558472,-0.025488282,0.124255374,0.14761963,104.0
35587,-0.14762592,0.18751144,0.12106323,-0.025488282,0.124255374,0.14761963,104.0
35588,-0.14762592,0.18751144,0.12106323,0.0063720704,-0.046728518,0.06690674,104.0
35589,-0.1859963,-0.10482597,0.2814331,0.0063720704,-0.046728518,0.06690674,104.0
35590,-0.1859963,-0.10482597,0.2814331,0.07752686,-0.11682129,-0.08814698,104.0
35591,0.09889579,-0.31828308,0.27275085,0.07752686,-0.11682129,-0.08814698,104.0
35592,0.09889579,-0.31828308,0.27275085,0.21452637,-0.011682129,-0.10513916,104.0
35593,0.34068894,-0.32763672,0.15145874,0.21452637,-0.011682129,-0.10513916,104.0
35594,0.34068894,-0.32763672,0.15145874,0.3791382,0.1444336,0.008496094,104.0
35595,0.23361087,-0.06279373,0.065826416,0.3791382,0.1444336,0.008496094,104.0
35596,0.23361087,-0.06279373,0.065826416,0.38975832,0.23258057,0.15186767,104.0
35597,-0.17032576,0.23277283,0.055145264,0.38975832,0.23258057,0.15186767,104.0
35598,-0.17032576,0.23277283,0.055145264,0.2347046,0.21027832,0.2527588,104.0
35599,-0.5843077,0.24880409,0.07914734,0.2347046,0.21027832,0.2527588,104.0
35600,-0.5843077,0.24880409,0.07914734,0.17416993,0.12213135,0.26337892,104.0
35601,-0.6895654,0.070783615,0.10191345,0.17416993,0.12213135,0.26337892,104.0
35602,-0.6895654,0.070783615,0.10191345,0.11682129,-0.028674318,0.19541016,104.0
35603,-0.31307817,-0.062257767,0.043670654,0.11682129,-0.028674318,0.19541016,104.0
35604,-0.31307817,-0.062257767,0.043670654,0.10195313,-0.04141846,0.2177124,104.0
35605,0.2510755,-0.1316185,-0.15574646,0.10195313,-0.04141846,0.2177124,104.0
35606,0.2510755,-0.1316185,-0.15574646,0.20072022,0.17735596,0.37701416,104.0
35607,0.37073326,-0.27301788,-0.35424805,0.20072022,0.17735596,0.37701416,104.0
35608,0.37073326,-0.27301788,-0.35424805,0.34727785,0.32178956,0.48746338,104.0
35609,-0.051496983,-0.39827347,-0.39874268,0.34727785,0.32178956,0.48746338,104.0
35610,-0.051496983,-0.39827347,-0.39874268,0.31435546,0.21558838,0.43861085,104.0
35611,-0.4200673,-0.45848656,-0.32893372,0.31435546,0.21558838,0.43861085,104.0
35612,-0.4200673,-0.45848656,-0.32893372,0.11682129,0.06478272,0.30479738,104.0
35613,-0.34342694,-0.6388588,-0.26408386,0.11682129,0.06478272,0.30479738,104.0
35614,-0.34342694,-0.6388588,-0.26408386,0.06796875,0.046728518,0.2177124,104.0
35615,0.025343895,-0.9157009,-0.24667358,0.06796875,0.046728518,0.2177124,104.0
35616,0.025343895,-0.9157009,-0.24667358,0.15823975,0.16461182,0.16992188,104.0
35617,0.31165695,-0.92663956,-0.23542786,0.15823975,0.16461182,0.16992188,104.0
35618,0.31165695,-0.92663956,-0.23542786,0.18691407,0.27718505,0.08920898,104.0
35619,0.37129807,-0.49845123,-0.18830872,0.18691407,0.27718505,0.08920898,104.0
35620,0.37129807,-0.49845123,-0.18830872,0.020178223,0.31116945,0.045666505,104.0
35621,0.2606492,0.06442261,-0.07395935,0.020178223,0.31116945,0.045666505,104.0
35622,0.2606492,0.06442261,-0.07395935,-0.18479005,0.24957275,0.060534667,104.0
35623,0.122752905,0.42902946,0.13710022,-0.18479005,0.24957275,0.060534667,104.0
35624,0.122752905,0.42902946,0.13710022,-0.30373535,0.118945315,0.06796875,104.0
35625,0.10798025,0.52563286,0.33605957,-0.30373535,0.118945315,0.06796875,104.0
35626,0.10798025,0.52563286,0.33605957,-0.36745605,-0.0031860352,0.05522461,104.0
35627,0.2093091,0.40480804,0.38949585,-0.36745605,-0.0031860352,0.05522461,104.0
35628,0.2093091,0.40480804,0.38949585,-0.27718505,-0.07434082,0.06478272,104.0
35629,0.35285997,0.2297287,0.3123169,-0.27718505,-0.07434082,0.06478272,104.0
35630,0.35285997,0.2297287,0.3123169,-0.04991455,-0.07752686,0.11044922,104.0
35631,0.4817021,0.26051712,0.26348877,-0.04991455,-0.07752686,0.11044922,104.0
35632,0.4817021,0.26051712,0.26348877,0.052038576,-0.011682129,0.1709839,104.0
35633,0.45619917,0.4010887,0.2739563,0.052038576,-0.011682129,0.1709839,104.0
35634,0.45619917,0.4010887,0.2739563,-0.08283692,0.07752686,0.1720459,104.0
35635,0.11932945,0.22860909,0.20091248,-0.08283692,0.07752686,0.1720459,104.0
35636,0.11932945,0.22860909,0.20091248,-0.1529297,0.0637207,0.07434082,104.0
35637,-0.32427526,-0.2777214,0.013244629,-0.1529297,0.0637207,0.07434082,104.0
35638,-0.32427526,-0.2777214,0.013244629,-0.070092775,-0.033984374,-0.0998291,104.0
35639,-0.43003774,-0.5709324,-0.17886353,-0.070092775,-0.033984374,-0.0998291,104.0
35640,-0.43003774,-0.5709324,-0.17886353,0.03717041,-0.06478272,-0.20072022,104.0
35641,-0.12622023,-0.29213524,-0.26408386,0.03717041,-0.06478272,-0.20072022,104.0
35642,-0.12622023,-0.29213524,-0.26408386,0.057348635,-0.014868164,-0.14761963,104.0
35643,0.18158007,0.27017212,-0.25224304,0.057348635,-0.014868164,-0.14761963,104.0
35644,0.18158007,0.27017212,-0.25224304,-0.04885254,0.06690674,-0.04248047,104.0
35645,0.11806679,0.49355507,-0.12919617,-0.04885254,0.06690674,-0.04248047,104.0
35646,0.11806679,0.49355507,-0.12919617,-0.15823975,-0.0021240234,-0.06159668,104.0
35647,-0.094304085,0.22877884,0.06593323,-0.15823975,-0.0021240234,-0.06159668,104.0
35648,-0.094304085,0.22877884,0.06593323,-0.07965088,-0.1083252,-0.16673584,104.0
35649,-0.03331685,-0.026412964,0.18125916,-0.07965088,-0.1083252,-0.16673584,104.0
35650,-0.03331685,-0.026412964,0.18125916,0.02442627,-0.040356446,-0.21877442,104.0
35651,0.15886879,0.0075302124,0.11090088,0.02442627,-0.040356446,-0.21877442,104.0
35652,0.15886879,0.0075302124,0.11090088,0.019116212,0.087084964,-0.1709839,104.0
35653,0.14202428,0.043720245,0.021072388,0.019116212,0.087084964,-0.1709839,104.0
35654,0.14202428,0.043720245,0.021072388,0.010620117,0.090270996,-0.14124756,104.0
35655,-0.2211585,0.013370514,-0.1837616,0.010620117,0.090270996,-0.14124756,104.0
35656,-0.2211585,0.013370514,-0.1837616,-0.0063720704,-0.10301514,-0.14230958,104.0
35657,-0.2689314,-5.836487E-4,-0.16880798,-0.0063720704,-0.10301514,-0.14230958,104.0
35658,-0.2689314,-5.836487E-4,-0.16880798,-0.020178223,-0.15611573,-0.13912354,104.0
35659,-0.03949833,0.046310425,-0.11689758,-0.020178223,-0.15611573,-0.13912354,104.0
35660,-0.03949833,0.046310425,-0.11689758,-0.06159668,-0.098767094,-0.032922365,104.0
35661,0.039665937,0.015319824,-0.08227539,-0.06159668,-0.098767094,-0.032922365,104.0
35662,0.039665937,0.015319824,-0.08227539,-0.04248047,-0.06159668,-0.012744141,104.0
35663,0.03925228,-0.13521576,0.06877136,-0.04248047,-0.06159668,-0.012744141,104.0
35664,0.03925228,-0.13521576,0.06877136,0.0722168,-0.10407715,-0.07646485,104.0
35665,0.030730486,-0.0856514,0.113204956,0.0722168,-0.10407715,-0.07646485,104.0
35666,0.030730486,-0.0856514,0.113204956,0.050976563,-0.09451904,-0.081774905,104.0
35667,0.18339777,0.09764099,0.106903076,0.050976563,-0.09451904,-0.081774905,104.0
35668,0.18339777,0.09764099,0.106903076,-0.04248047,0.029736329,-0.032922365,104.0
35669,0.1414814,0.051635742,0.044158936,-0.04248047,0.029736329,-0.032922365,104.0
35670,0.1414814,0.051635742,0.044158936,-0.013806152,0.04141846,-0.03079834,104.0
35671,-0.041734457,-0.04784012,-0.012039185,-0.013806152,0.04141846,-0.03079834,104.0
35672,-0.041734457,-0.04784012,-0.012039185,0.016992187,-0.039294433,-0.0722168,104.0
35673,-0.028260708,0.022628784,0.0016784668,0.016992187,-0.039294433,-0.0722168,104.0
35674,-0.028260708,0.022628784,0.0016784668,-0.02442627,-0.032922365,-0.07752686,104.0
35675,0.07527971,0.17499924,-0.02281189,-0.02442627,-0.032922365,-0.07752686,104.0
35676,0.07527971,0.17499924,-0.02281189,-0.10089111,0.021240234,-0.0722168,104.0
35677,0.06565595,0.117673874,-0.0856781,-0.10089111,0.021240234,-0.0722168,104.0
35678,0.06565595,0.117673874,-0.0856781,-0.057348635,0.016992187,-0.06584473,104.0
35679,0.06565595,0.117673874,-0.0856781,-0.057348635,0.016992187,-0.06584473,104.0
35680,-0.031898975,-0.035377502,-0.08906555,-0.057348635,0.016992187,-0.06584473,104.0
35681,-0.031898975,-0.035377502,-0.08906555,0.019116212,-0.040356446,-0.08814698,104.0
35682,9.212494E-4,-0.01228714,-0.025466919,0.019116212,-0.040356446,-0.08814698,104.0
35683,9.212494E-4,-0.01228714,-0.025466919,-0.03079834,-0.04248047,-0.083898924,104.0
35684,0.08418417,0.10590553,0.0013122559,-0.03079834,-0.04248047,-0.083898924,104.0
35685,0.08418417,0.10590553,0.0013122559,-0.11044922,0.0,-0.04460449,104.0
35686,0.008814573,0.04317093,-0.020492554,-0.11044922,0.0,-0.04460449,104.0
35687,0.008814573,0.04317093,-0.020492554,-0.08496094,-0.029736329,-0.03717041,104.0
35688,-0.10362935,-0.09484482,0.016616821,-0.08496094,-0.029736329,-0.03717041,104.0
35689,-0.10362935,-0.09484482,0.016616821,-0.0053100586,-0.090270996,-0.06265869,104.0
35690,-0.014702797,0.013174057,0.08190918,-0.0053100586,-0.090270996,-0.06265869,104.0
35691,-0.014702797,0.013174057,0.08190918,-0.009558106,-0.022302246,-0.06903076,104.0
35692,0.07167268,0.21749687,0.072021484,-0.009558106,-0.022302246,-0.06903076,104.0
35693,0.07167268,0.21749687,0.072021484,-0.10195313,0.060534667,-0.0361084,104.0
35694,-0.08919525,0.10876274,0.040924072,-0.10195313,0.060534667,-0.0361084,104.0
35695,-0.08919525,0.10876274,0.040924072,-0.10407715,-0.009558106,-0.04885254,104.0
35696,-0.24617314,-0.20961952,0.0705719,-0.10407715,-0.009558106,-0.04885254,104.0
35697,-0.24617314,-0.20961952,0.0705719,-0.015930176,-0.095581055,-0.0998291,104.0
35698,-0.087417126,-0.24311066,0.09309387,-0.015930176,-0.095581055,-0.0998291,104.0
35699,-0.087417126,-0.24311066,0.09309387,0.038232423,-0.027612304,-0.06796875,104.0
35700,0.12950468,0.06454468,0.029754639,0.038232423,-0.027612304,-0.06796875,104.0
35701,0.12950468,0.06454468,0.029754639,-0.05628662,0.060534667,0.028674318,104.0
35702,0.041701794,0.22839355,-0.026779175,-0.05628662,0.060534667,0.028674318,104.0
35703,0.041701794,0.22839355,-0.026779175,-0.11682129,0.011682129,0.029736329,104.0
35704,-0.14885283,0.09065056,0.021636963,-0.11682129,0.011682129,0.029736329,104.0
35705,-0.14885283,0.09065056,0.021636963,-0.06690674,-0.087084964,-0.020178223,104.0
35706,-0.10866976,-0.0878315,0.07394409,-0.06690674,-0.087084964,-0.020178223,104.0
35707,-0.10866976,-0.0878315,0.07394409,-0.0053100586,-0.053100586,-0.04460449,104.0
35708,0.041140556,-0.12220764,0.035324097,-0.0053100586,-0.053100586,-0.04460449,104.0
35709,0.041140556,-0.12220764,0.035324097,0.04460449,0.03186035,-0.045666505,104.0
35710,0.040114403,-0.04904747,0.0037231445,0.04460449,0.03186035,-0.045666505,104.0
35711,0.040114403,-0.04904747,0.0037231445,0.04885254,-0.0053100586,-0.028674318,104.0
35712,-0.008728743,0.09883499,0.051727295,0.04885254,-0.0053100586,-0.028674318,104.0
35713,-0.008728743,0.09883499,0.051727295,-0.03186035,-0.07646485,-0.04248047,104.0
35714,0.053331852,0.23120308,0.044006348,-0.03186035,-0.07646485,-0.04248047,104.0
35715,0.053331852,0.23120308,0.044006348,-0.12319336,-0.027612304,-0.04460449,104.0
35716,0.07403755,0.16648102,-0.06880188,-0.12319336,-0.027612304,-0.04460449,104.0
35717,0.07403755,0.16648102,-0.06880188,-0.098767094,0.04460449,-0.02442627,104.0
35718,-0.046678066,-0.070869446,-0.13760376,-0.098767094,0.04460449,-0.02442627,104.0
35719,-0.046678066,-0.070869446,-0.13760376,-0.035046387,0.02442627,-0.04460449,104.0
35720,-0.15528679,-0.26424026,-0.06455994,-0.035046387,0.02442627,-0.04460449,104.0
35721,-0.15528679,-0.26424026,-0.06455994,0.007434082,-0.027612304,-0.050976563,104.0
35722,-0.11138749,-0.22748184,0.039230347,0.007434082,-0.027612304,-0.050976563,104.0
35723,-0.11138749,-0.22748184,0.039230347,0.025488282,-0.0010620117,-0.03079834,104.0
35724,-0.04130721,-0.0019187927,0.05456543,0.025488282,-0.0010620117,-0.03079834,104.0
35725,-0.04130721,-0.0019187927,0.05456543,-0.02442627,0.012744141,-0.028674318,104.0
35726,-0.07813859,0.16072083,0.017730713,-0.02442627,0.012744141,-0.028674318,104.0
35727,-0.07813859,0.16072083,0.017730713,-0.07434082,-0.06690674,-0.04141846,104.0
35728,-0.06645393,0.19149208,0.03617859,-0.07434082,-0.06690674,-0.04141846,104.0
35729,-0.06645393,0.19149208,0.03617859,-0.025488282,-0.124255374,-0.0541626,104.0
35730,0.12950277,0.19831085,0.08987427,-0.025488282,-0.124255374,-0.0541626,104.0
35731,0.12950277,0.19831085,0.08987427,-0.040356446,-0.020178223,-0.04885254,104.0
35732,0.23911238,0.09267044,0.07019043,-0.040356446,-0.020178223,-0.04885254,104.0
35733,0.23911238,0.09267044,0.07019043,-0.039294433,0.08071289,-0.04460449,104.0
35734,0.05448556,-0.16089821,-0.024337769,-0.039294433,0.08071289,-0.04460449,104.0
35735,0.05448556,-0.16089821,-0.024337769,0.047790527,0.050976563,-0.06903076,104.0
35736,-0.1419096,-0.28500557,-0.08558655,0.047790527,0.050976563,-0.06903076,104.0
35737,-0.1419096,-0.28500557,-0.08558655,0.029736329,0.016992187,-0.06159668,104.0
35738,-0.16371083,-0.15570259,-0.0713501,0.029736329,0.016992187,-0.06159668,104.0
35739,-0.16371083,-0.15570259,-0.0713501,-0.053100586,0.021240234,0.0063720704,104.0
35740,-0.15870309,-0.0010509491,-0.01979065,-0.053100586,0.021240234,0.0063720704,104.0
35741,-0.15870309,-0.0010509491,-0.01979065,-0.1359375,-0.02442627,0.011682129,104.0
35742,-0.15378141,0.0028705597,0.0056152344,-0.1359375,-0.02442627,0.011682129,104.0
35743,-0.15378141,0.0028705597,0.0056152344,-0.12000733,-0.087084964,-0.04885254,104.0
35744,-0.033694267,-0.032579422,0.019744873,-0.12000733,-0.087084964,-0.04885254,104.0
35745,-0.033694267,-0.032579422,0.019744873,-0.026550293,-0.07646485,-0.05628662,104.0
35746,0.17227554,0.048337936,0.044952393,-0.026550293,-0.07646485,-0.05628662,104.0
35747,0.17227554,0.048337936,0.044952393,0.04248047,0.0010620117,-0.032922365,104.0
35748,0.2167511,0.18683815,0.055496216,0.04248047,0.0010620117,-0.032922365,104.0
35749,0.2167511,0.18683815,0.055496216,-0.023364259,0.045666505,-0.010620117,104.0
35750,-0.0077757835,0.16140747,0.030822754,-0.023364259,0.045666505,-0.010620117,104.0
35751,-0.0077757835,0.16140747,0.030822754,-0.06584473,-0.004248047,-0.011682129,104.0
35752,-0.23040295,0.01026535,0.01361084,-0.06584473,-0.004248047,-0.011682129,104.0
35753,-0.23040295,0.01026535,0.01361084,-0.0541626,-0.07434082,-0.04248047,104.0
35754,-0.19176865,-0.039577484,-0.0075683594,-0.0541626,-0.07434082,-0.04248047,104.0
35755,-0.19176865,-0.039577484,-0.0075683594,-0.07752686,-0.060534667,-0.035046387,104.0
35756,-0.038656473,-0.063425064,-0.038970947,-0.07752686,-0.060534667,-0.035046387,104.0
35757,-0.038656473,-0.063425064,-0.038970947,-0.06690674,-0.019116212,-0.012744141,104.0
35758,-0.015715122,-0.16076279,-0.012924194,-0.06690674,-0.019116212,-0.012744141,104.0
35759,-0.015715122,-0.16076279,-0.012924194,0.027612304,-0.033984374,-0.02442627,104.0
35760,-0.023936749,-0.08172226,0.094940186,0.027612304,-0.033984374,-0.02442627,104.0
35761,-0.023936749,-0.08172226,0.094940186,0.023364259,-0.04460449,-0.04885254,104.0
35762,0.031131268,0.16028023,0.13134766,0.023364259,-0.04460449,-0.04885254,104.0
35763,0.031131268,0.16028023,0.13134766,-0.10938721,-0.011682129,-0.047790527,104.0
35764,0.034231186,0.16618729,0.019592285,-0.10938721,-0.011682129,-0.047790527,104.0
35765,0.034231186,0.16618729,0.019592285,-0.08814698,-0.021240234,-0.032922365,104.0
35766,0.0072066784,-0.04150009,-0.092437744,-0.08814698,-0.021240234,-0.032922365,104.0
35767,0.0072066784,-0.04150009,-0.092437744,0.03717041,-0.02442627,-0.04885254,104.0
35768,0.06160021,-0.049324036,-0.071502686,0.03717041,-0.02442627,-0.04885254,104.0
35769,0.06160021,-0.049324036,-0.071502686,0.035046387,0.0361084,-0.027612304,104.0
35770,0.062378168,0.087444305,0.028762817,0.035046387,0.0361084,-0.027612304,104.0
35771,0.062378168,0.087444305,0.028762817,-0.070092775,0.052038576,0.021240234,104.0
35772,-0.08660889,0.04386902,0.086746216,-0.070092775,0.052038576,0.021240234,104.0
35773,-0.08660889,0.04386902,0.086746216,-0.08814698,-0.020178223,0.0053100586,104.0
35774,-0.17750263,-0.1227169,0.084869385,-0.08814698,-0.020178223,0.0053100586,104.0
35775,-0.17750263,-0.1227169,0.084869385,-0.039294433,-0.09451904,-0.029736329,104.0
35776,-0.044077396,-0.1394577,0.04348755,-0.039294433,-0.09451904,-0.029736329,104.0
35777,-0.044077396,-0.1394577,0.04348755,0.03079834,-0.040356446,-0.020178223,104.0
35778,0.107560396,0.016571045,-0.03555298,0.03079834,-0.040356446,-0.020178223,104.0
35779,0.107560396,0.016571045,-0.03555298,0.05522461,0.04460449,0.0063720704,104.0
35780,0.054944754,0.13992882,-0.08627319,0.05522461,0.04460449,0.0063720704,104.0
35781,0.054944754,0.13992882,-0.08627319,-0.004248047,0.004248047,-0.007434082,104.0
35782,-0.04735279,0.1335144,-0.02670288,-0.004248047,0.004248047,-0.007434082,104.0
35783,-0.04735279,0.1335144,-0.02670288,-0.059472658,-0.09133301,-0.0361084,104.0
35784,0.040938616,0.059093475,0.05973816,-0.059472658,-0.09133301,-0.0361084,104.0
35785,0.040938616,0.059093475,0.05973816,-0.07115479,-0.06796875,-0.023364259,104.0
35786,0.040938616,0.059093475,0.05973816,-0.07115479,-0.06796875,-0.023364259,100.0
35787,0.17436457,-0.020534515,0.037582397,-0.07115479,-0.06796875,-0.023364259,100.0
35788,0.17436457,-0.020534515,0.037582397,-0.027612304,0.04141846,0.012744141,100.0
35789,0.07083917,-0.07369232,-0.031204224,-0.027612304,0.04141846,0.012744141,100.0
35790,0.07083917,-0.07369232,-0.031204224,0.019116212,0.032922365,0.009558106,100.0
35791,-0.12828946,-0.022356033,-0.03340149,0.019116212,0.032922365,0.009558106,100.0
35792,-0.12828946,-0.022356033,-0.03340149,-0.0031860352,-0.050976563,-0.035046387,100.0
35793,-0.1231761,0.092185974,-0.014785767,-0.0031860352,-0.050976563,-0.035046387,100.0
35794,-0.1231761,0.092185974,-0.014785767,-0.06584473,-0.053100586,-0.019116212,100.0
35795,5.311966E-4,0.07457924,-0.018234253,-0.06584473,-0.053100586,-0.019116212,100.0
35796,5.311966E-4,0.07457924,-0.018234253,-0.058410645,-0.03079834,0.020178223,100.0
35797,0.049106598,-0.07172012,-0.011428833,-0.058410645,-0.03079834,0.020178223,100.0
35798,0.049106598,-0.07172012,-0.011428833,0.013806152,-0.039294433,-0.011682129,100.0
35799,0.069753885,-0.079422,0.031341553,0.013806152,-0.039294433,-0.011682129,100.0
35800,0.069753885,-0.079422,0.031341553,0.035046387,-0.0180542,-0.028674318,100.0
35801,0.09305906,0.087488174,0.05555725,0.035046387,-0.0180542,-0.028674318,100.0
35802,0.09305906,0.087488174,0.05555725,-0.014868164,0.03186035,-0.0010620117,100.0
35803,0.023275375,0.14893341,0.007873535,-0.014868164,0.03186035,-0.0010620117,100.0
35804,0.023275375,0.14893341,0.007873535,-0.057348635,0.029736329,0.0031860352,100.0
35805,-0.09719992,0.012956619,-0.05029297,-0.057348635,0.029736329,0.0031860352,100.0
35806,-0.09719992,0.012956619,-0.05029297,-0.03186035,-0.013806152,-0.011682129,100.0
35807,-0.1017344,-0.09317589,-0.032669067,-0.03186035,-0.013806152,-0.011682129,100.0
35808,-0.1017344,-0.09317589,-0.032669067,-0.0010620117,-0.0021240234,0.004248047,100.0
35809,-0.062283516,-0.06988907,0.01576233,-0.0010620117,-0.0021240234,0.004248047,100.0
35810,-0.062283516,-0.06988907,0.01576233,0.011682129,0.0180542,0.009558106,100.0
35811,-0.08584976,-0.022010803,0.026931763,0.011682129,0.0180542,0.009558106,100.0
35812,-0.08584976,-0.022010803,0.026931763,0.021240234,-0.022302246,-0.020178223,100.0
35813,-0.037332296,4.081726E-4,0.012298584,0.021240234,-0.022302246,-0.020178223,100.0
35814,-0.037332296,4.081726E-4,0.012298584,0.025488282,-0.043542482,-0.03186035,100.0
35815,0.11160135,0.05199814,-0.021209717,0.025488282,-0.043542482,-0.03186035,100.0
35816,0.11160135,0.05199814,-0.021209717,-0.004248047,0.014868164,-0.008496094,100.0
35817,0.15671277,0.065475464,-0.06149292,-0.004248047,0.014868164,-0.008496094,100.0
35818,0.15671277,0.065475464,-0.06149292,-0.052038576,0.03079834,0.019116212,100.0
35819,0.037809134,-0.06628418,-0.07521057,-0.052038576,0.03079834,0.019116212,100.0
35820,0.037809134,-0.06628418,-0.07521057,-0.02442627,-0.016992187,0.0063720704,100.0
35821,-0.020302057,-0.17391396,-0.031066895,-0.02442627,-0.016992187,0.0063720704,100.0
35822,-0.020302057,-0.17391396,-0.031066895,0.04460449,-0.027612304,-0.0180542,100.0
35823,0.099102736,-0.0309906,0.020187378,0.04460449,-0.027612304,-0.0180542,100.0
35824,0.099102736,-0.0309906,0.020187378,0.019116212,0.050976563,-0.0010620117,100.0
35825,0.13556886,0.16031456,0.0068969727,0.019116212,0.050976563,-0.0010620117,100.0
35826,0.13556886,0.16031456,0.0068969727,-0.06478272,0.08496094,0.03079834,100.0
35827,-0.053898335,0.07878876,-0.019180298,-0.06478272,0.08496094,0.03079834,100.0
35828,-0.053898335,0.07878876,-0.019180298,-0.053100586,0.010620117,0.0021240234,100.0
35829,-0.1912632,-0.099126816,0.014465332,-0.053100586,0.010620117,0.0021240234,100.0
35830,-0.1912632,-0.099126816,0.014465332,0.008496094,-0.052038576,-0.029736329,100.0
35831,-0.06790328,-0.03486824,0.053146362,0.008496094,-0.052038576,-0.029736329,100.0
35832,-0.06790328,-0.03486824,0.053146362,-0.011682129,-0.0021240234,-0.014868164,100.0
35833,0.06945658,0.10773659,0.024856567,-0.011682129,-0.0021240234,-0.014868164,100.0
35834,0.06945658,0.10773659,0.024856567,-0.050976563,0.03186035,0.0021240234,100.0
35835,0.008616924,0.03826523,-0.006652832,-0.050976563,0.03186035,0.0021240234,100.0
35836,0.008616924,0.03826523,-0.006652832,0.0,-0.026550293,-0.015930176,100.0
35837,-0.05139494,-0.10272598,0.01171875,0.0,-0.026550293,-0.015930176,100.0
35838,-0.05139494,-0.10272598,0.01171875,0.04460449,-0.053100586,-0.032922365,100.0
35839,0.03536105,-0.05438614,0.011917114,0.04460449,-0.053100586,-0.032922365,100.0
35840,0.03536105,-0.05438614,0.011917114,0.02442627,0.019116212,-0.0063720704,100.0
35841,0.054924488,0.072725296,-0.0393219,0.02442627,0.019116212,-0.0063720704,100.0
35842,0.054924488,0.072725296,-0.0393219,-0.032922365,0.0361084,0.028674318,100.0
35843,-0.07333326,0.05363846,-0.037994385,-0.032922365,0.0361084,0.028674318,100.0
35844,-0.07333326,0.05363846,-0.037994385,-0.057348635,-0.04141846,0.0010620117,100.0
35845,-0.115136385,-0.055770874,0.023208618,-0.057348635,-0.04141846,0.0010620117,100.0
35846,-0.115136385,-0.055770874,0.023208618,-0.03186035,-0.06478272,-0.03717041,100.0
35847,0.017168283,-0.119348526,0.029525757,-0.03186035,-0.06478272,-0.03717041,100.0
35848,0.017168283,-0.119348526,0.029525757,0.020178223,0.013806152,-0.032922365,100.0
35849,0.08646417,-0.09721184,-0.0388031,0.020178223,0.013806152,-0.032922365,100.0
35850,0.08646417,-0.09721184,-0.0388031,0.05628662,0.04885254,-0.012744141,100.0
35851,0.023748875,0.027515411,-0.051254272,0.05628662,0.04885254,-0.012744141,100.0
35852,0.023748875,0.027515411,-0.051254272,0.012744141,-0.014868164,-0.02442627,100.0
35853,-0.004340887,0.20909882,0.009750366,0.012744141,-0.014868164,-0.02442627,100.0
35854,-0.004340887,0.20909882,0.009750366,-0.07752686,-0.025488282,-0.012744141,100.0
35855,0.00980854,0.24181557,0.041900635,-0.07752686,-0.025488282,-0.012744141,100.0
35856,0.00980854,0.24181557,0.041900635,-0.1274414,0.013806152,0.011682129,100.0
35857,-0.048037052,-0.011796951,0.0048217773,-0.1274414,0.013806152,0.011682129,100.0
35858,-0.048037052,-0.011796951,0.0048217773,-0.04141846,0.004248047,-0.014868164,100.0
35859,-0.11054897,-0.30338287,-0.017623901,-0.04141846,0.004248047,-0.014868164,100.0
35860,-0.11054897,-0.30338287,-0.017623901,0.09239502,-0.016992187,-0.060534667,100.0
35861,-0.034508467,-0.23373413,0.0284729,0.09239502,-0.016992187,-0.060534667,100.0
35862,-0.034508467,-0.23373413,0.0284729,0.09770508,0.014868164,-0.035046387,100.0
35863,0.058062315,0.1060791,0.06575012,0.09770508,0.014868164,-0.035046387,100.0
35864,0.058062315,0.1060791,0.06575012,-0.06796875,0.028674318,0.015930176,100.0
35865,0.0113790035,0.2134018,0.021453857,-0.06796875,0.028674318,0.015930176,100.0
35866,0.0113790035,0.2134018,0.021453857,-0.1274414,-0.022302246,0.019116212,100.0
35867,-0.043240547,0.01011467,-0.02784729,-0.1274414,-0.022302246,0.019116212,100.0
35868,-0.043240547,0.01011467,-0.02784729,-0.035046387,-0.046728518,-0.004248047,100.0
35869,0.047389984,-0.088905334,-4.8828125E-4,-0.035046387,-0.046728518,-0.004248047,100.0
35870,0.047389984,-0.088905334,-4.8828125E-4,0.03186035,-0.0010620117,-0.013806152,100.0
35871,0.122531176,0.030181885,0.045898438,0.03186035,-0.0010620117,-0.013806152,100.0
35872,0.122531176,0.030181885,0.045898438,-0.008496094,0.0637207,-0.009558106,100.0
35873,0.013869524,0.0501709,0.033432007,-0.008496094,0.0637207,-0.009558106,100.0
35874,0.013869524,0.0501709,0.033432007,0.0021240234,0.035046387,-0.027612304,100.0
35875,-0.1270392,-0.048303604,-0.0050964355,0.0021240234,0.035046387,-0.027612304,100.0
35876,-0.1270392,-0.048303604,-0.0050964355,0.023364259,-0.043542482,-0.04460449,100.0
35877,-0.054463387,-0.014986038,-0.031341553,0.023364259,-0.043542482,-0.04460449,100.0
35878,-0.054463387,-0.014986038,-0.031341553,-0.03079834,-0.03079834,-0.022302246,100.0
35879,0.084798336,0.0774765,-0.061462402,-0.03079834,-0.03079834,-0.022302246,100.0
35880,0.084798336,0.0774765,-0.061462402,-0.07646485,0.016992187,0.009558106,100.0
35881,0.056925535,-0.010297775,-0.059417725,-0.07646485,0.016992187,0.009558106,100.0
35882,0.056925535,-0.010297775,-0.059417725,-0.020178223,0.021240234,-0.0010620117,100.0
35883,-0.052006006,-0.14517593,0.004623413,-0.020178223,0.021240234,-0.0010620117,100.0
35884,-0.052006006,-0.14517593,0.004623413,0.04885254,-0.015930176,-0.046728518,100.0
35885,-0.016848803,-0.034963608,0.056549072,0.04885254,-0.015930176,-0.046728518,100.0
35886,-0.016848803,-0.034963608,0.056549072,-0.008496094,0.007434082,-0.04885254,100.0
35887,0.060117245,0.15257072,0.017333984,-0.008496094,0.007434082,-0.04885254,100.0
35888,0.060117245,0.15257072,0.017333984,-0.10620117,0.029736329,0.004248047,100.0
35889,-0.01192832,0.07884407,-0.037582397,-0.10620117,0.029736329,0.004248047,100.0
35890,-0.01192832,0.07884407,-0.037582397,-0.060534667,-0.015930176,0.019116212,100.0
35891,-0.11316824,-0.10517311,0.010650635,-0.060534667,-0.015930176,0.019116212,100.0
35892,-0.11316824,-0.10517311,0.010650635,0.035046387,-0.06159668,-0.011682129,100.0
35893,-0.042133808,-0.040878296,0.110198975,0.035046387,-0.06159668,-0.011682129,100.0
35894,-0.042133808,-0.040878296,0.110198975,0.022302246,-0.020178223,-0.016992187,100.0
35895,0.08285785,0.1383915,0.09680176,0.022302246,-0.020178223,-0.016992187,100.0
35896,0.08285785,0.1383915,0.09680176,-0.043542482,0.04460449,-0.0010620117,100.0
35897,0.08285785,0.1383915,0.09680176,-0.043542482,0.04460449,-0.0010620117,99.0
35898,0.043385983,0.07738876,-0.032318115,-0.043542482,0.04460449,-0.0010620117,99.0
35899,0.043385983,0.07738876,-0.032318115,-0.032922365,0.009558106,-0.016992187,99.0
35900,-0.04962969,-0.13238907,-0.114852905,-0.032922365,0.009558106,-0.016992187,99.0
35901,-0.04962969,-0.13238907,-0.114852905,0.028674318,-0.032922365,-0.023364259,99.0
35902,-0.008588076,-0.12661362,-0.05493164,0.028674318,-0.032922365,-0.023364259,99.0
35903,-0.008588076,-0.12661362,-0.05493164,0.013806152,-0.016992187,-0.0010620117,99.0
35904,0.090614796,0.060647964,0.037612915,0.013806152,-0.016992187,-0.0010620117,99.0
35905,0.090614796,0.060647964,0.037612915,-0.059472658,0.014868164,0.0,99.0
35906,0.07761884,0.121492386,0.024093628,-0.059472658,0.014868164,0.0,99.0
35907,0.07761884,0.121492386,0.024093628,-0.052038576,0.0053100586,-0.007434082,99.0
35908,0.03494644,0.061401367,-0.023498535,-0.052038576,0.0053100586,-0.007434082,99.0
35909,0.03494644,0.061401367,-0.023498535,0.007434082,-0.04141846,-0.0180542,99.0
35910,0.102529764,0.12100792,-0.023330688,0.007434082,-0.04141846,-0.0180542,99.0
35911,0.102529764,0.12100792,-0.023330688,-0.021240234,-0.032922365,-0.004248047,99.0
35912,0.16818118,0.2399826,-0.023605347,-0.021240234,-0.032922365,-0.004248047,99.0
35913,0.16818118,0.2399826,-0.023605347,-0.11469727,0.015930176,0.004248047,99.0
35914,0.06334138,0.1733818,-0.05038452,-0.11469727,0.015930176,0.004248047,99.0
35915,0.06334138,0.1733818,-0.05038452,-0.10195313,-0.033984374,-0.052038576,99.0
35916,-0.032481194,0.02394867,-0.03186035,-0.10195313,-0.033984374,-0.052038576,99.0
35917,-0.032481194,0.02394867,-0.03186035,-0.07327881,-0.1178833,-0.10620117,99.0
35918,0.06985235,0.049516678,0.028457642,-0.07327881,-0.1178833,-0.10620117,99.0
35919,0.06985235,0.049516678,0.028457642,-0.07752686,-0.13062744,-0.13168946,99.0
35920,0.24019599,0.22259521,0.028198242,-0.07752686,-0.13062744,-0.13168946,99.0
35921,0.24019599,0.22259521,0.028198242,-0.13168946,-0.1529297,-0.12956543,99.0
35922,0.34957862,0.34763145,-0.052246094,-0.13168946,-0.1529297,-0.12956543,99.0
35923,0.34957862,0.34763145,-0.052246094,-0.1263794,-0.18903808,-0.09770508,99.0
35924,0.38333702,0.36300468,-0.118637085,-0.1263794,-0.18903808,-0.09770508,99.0
35925,0.38333702,0.36300468,-0.118637085,-0.035046387,-0.15186767,-0.022302246,99.0
35926,0.25813437,0.37542534,-0.12721252,-0.035046387,-0.15186767,-0.022302246,99.0
35927,0.25813437,0.37542534,-0.12721252,0.010620117,-0.09664307,0.052038576,99.0
35928,-0.104869366,0.3523407,-0.11064148,0.010620117,-0.09664307,0.052038576,99.0
35929,-0.104869366,0.3523407,-0.11064148,-0.040356446,-0.1996582,-0.028674318,99.0
35930,-0.43645906,0.15789795,-0.102127075,-0.040356446,-0.1996582,-0.028674318,99.0
35931,-0.43645906,0.15789795,-0.102127075,-0.03079834,-0.3525879,-0.1996582,99.0
35932,-0.36659884,-0.1287117,-0.11418152,-0.03079834,-0.3525879,-0.1996582,99.0
35933,-0.36659884,-0.1287117,-0.11418152,0.10513916,-0.35471192,-0.2538208,99.0
35934,-0.015007496,-0.2529583,-0.14854431,0.10513916,-0.35471192,-0.2538208,99.0
35935,-0.015007496,-0.2529583,-0.14854431,0.1539917,-0.26762697,-0.21134034,99.0
35936,0.19893146,-0.24927902,-0.2427063,0.1539917,-0.26762697,-0.21134034,99.0
35937,0.19893146,-0.24927902,-0.2427063,0.08496094,-0.2347046,-0.18479005,99.0
35938,0.10290718,-0.35512352,-0.38226318,0.08496094,-0.2347046,-0.18479005,99.0
35939,0.10290718,-0.35512352,-0.38226318,0.10195313,-0.18479005,-0.2081543,99.0
35940,-0.19133139,-0.4568901,-0.43301392,0.10195313,-0.18479005,-0.2081543,99.0
35941,-0.19133139,-0.4568901,-0.43301392,0.115759276,-0.060534667,-0.271875,99.0
35942,-0.5984876,-0.36200905,-0.311203,0.115759276,-0.060534667,-0.271875,99.0
35943,-0.5984876,-0.36200905,-0.311203,-0.11363526,-0.10513916,-0.47684327,99.0
35944,-0.8936825,-0.23072052,-0.10762024,-0.11363526,-0.10513916,-0.47684327,99.0
35945,-0.8936825,-0.23072052,-0.10762024,-0.31010744,-0.32497558,-0.7476563,99.0
35946,-0.6788008,-0.06640053,0.06463623,-0.31010744,-0.32497558,-0.7476563,99.0
35947,-0.6788008,-0.06640053,0.06463623,-0.31223145,-0.34940186,-0.8644776,99.0
35948,-0.08836532,0.30982018,0.19296265,-0.31223145,-0.34940186,-0.8644776,99.0
35949,-0.08836532,0.30982018,0.19296265,-0.36427003,-0.16779785,-0.7582764,99.0
35950,0.18006468,0.6939125,0.31021118,-0.36427003,-0.16779785,-0.7582764,99.0
35951,0.18006468,0.6939125,0.31021118,-0.4333008,-0.13699952,-0.5703003,99.0
35952,-0.076529264,0.89917374,0.44830322,-0.4333008,-0.13699952,-0.5703003,99.0
35953,-0.076529264,0.89917374,0.44830322,-0.46834716,-0.28674316,-0.5320679,99.0
35954,-0.39916277,0.96863174,0.55470276,-0.46834716,-0.28674316,-0.5320679,99.0
35955,-0.39916277,0.96863174,0.55470276,-0.53525394,-0.38975832,-0.5968506,99.0
35956,-0.53666425,0.838871,0.48332214,-0.53525394,-0.38975832,-0.5968506,99.0
35957,-0.53666425,0.838871,0.48332214,-0.46728516,-0.41524658,-0.65844727,99.0
35958,-0.56580615,0.46269798,0.18818665,-0.46728516,-0.41524658,-0.65844727,99.0
35959,-0.56580615,0.46269798,0.18818665,-0.32391357,-0.38763428,-0.83898926,99.0
35960,-0.6083822,-0.026533127,-0.13952637,-0.32391357,-0.38763428,-0.83898926,99.0
35961,-0.6083822,-0.026533127,-0.13952637,-0.22408448,-0.36427003,-1.1246704,99.0
35962,-0.6570916,-0.45277023,-0.29862976,-0.22408448,-0.36427003,-1.1246704,99.0
35963,-0.6570916,-0.45277023,-0.29862976,-0.10089111,-0.3695801,-1.3838013,99.0
35964,-0.6677388,-0.7341652,-0.28529358,-0.10089111,-0.3695801,-1.3838013,99.0
35965,-0.6677388,-0.7341652,-0.28529358,-0.07646485,-0.38763428,-1.5654052,99.0
35966,-0.6360221,-0.82652855,-0.15055847,-0.07646485,-0.38763428,-1.5654052,99.0
35967,-0.6360221,-0.82652855,-0.15055847,-0.081774905,-0.41524658,-1.6790406,99.0
35968,-0.5477092,-0.7152386,0.11528015,-0.081774905,-0.41524658,-1.6790406,99.0
35969,-0.5477092,-0.7152386,0.11528015,-0.17947999,-0.48215333,-1.7013428,99.0
35970,-0.42711997,-0.5645008,0.41955566,-0.17947999,-0.48215333,-1.7013428,99.0
35971,-0.42711997,-0.5645008,0.41955566,-0.31116945,-0.4885254,-1.6917847,99.0
35972,-0.38564134,-0.53665924,0.56492615,-0.31116945,-0.4885254,-1.6917847,99.0
35973,-0.38564134,-0.53665924,0.56492615,-0.30161133,-0.43117675,-1.722583,99.0
35974,-0.5234057,-0.58475876,0.5027313,-0.30161133,-0.43117675,-1.722583,99.0
35975,-0.5234057,-0.58475876,0.5027313,-0.2166504,-0.42905274,-1.7682495,99.0
35976,-0.7459829,-0.5773392,0.3775177,-0.2166504,-0.42905274,-1.7682495,99.0
35977,-0.7459829,-0.5773392,0.3775177,-0.095581055,-0.46622315,-1.814978,99.0
35978,-0.87104166,-0.43120766,0.25637817,-0.095581055,-0.46622315,-1.814978,99.0
35979,-0.87104166,-0.43120766,0.25637817,0.011682129,-0.5129517,-1.8808228,99.0
35980,-0.8645213,-0.17183304,0.0856781,0.011682129,-0.5129517,-1.8808228,99.0
35981,-0.8645213,-0.17183304,0.0856781,0.043542482,-0.47365722,-1.910559,99.0
35982,-0.90908533,-0.08808899,-0.09739685,0.043542482,-0.47365722,-1.910559,99.0
35983,-0.90908533,-0.08808899,-0.09739685,0.070092775,-0.4630371,-1.9211792,99.0
35984,-1.0799782,-0.32990837,-0.15808105,0.070092775,-0.4630371,-1.9211792,99.0
35985,-1.0799782,-0.32990837,-0.15808105,0.078588866,-0.46834716,-1.9827759,99.0
35986,-1.0799782,-0.32990837,-0.15808105,0.078588866,-0.46834716,-1.9827759,98.0
35987,-1.2445246,-0.63851166,0.020523071,0.078588866,-0.46834716,-1.9827759,98.0
35988,-1.2445246,-0.63851166,0.020523071,-0.09133301,-0.35683593,-2.084729,98.0
35989,-1.3406515,-0.96962357,0.27635193,-0.09133301,-0.35683593,-2.084729,98.0
35990,-1.3406515,-0.96962357,0.27635193,-0.45029297,-0.6085327,-2.337488,98.0
35991,-1.0208366,-1.3535309,0.17312622,-0.45029297,-0.6085327,-2.337488,98.0
35992,-1.0208366,-1.3535309,0.17312622,-0.45560303,-0.7508423,-2.3789062,98.0
35993,-0.21129823,-1.3368893,-0.19392395,-0.45560303,-0.7508423,-2.3789062,98.0
35994,-0.21129823,-1.3368893,-0.19392395,-0.24213867,-0.2442627,-1.8744507,98.0
35995,0.03516066,-0.9991131,-0.20057678,-0.24213867,-0.2442627,-1.8744507,98.0
35996,0.03516066,-0.9991131,-0.20057678,-0.24001466,-0.013806152,-1.447522,98.0
35997,-0.61117816,-0.6651592,0.20567322,-0.24001466,-0.013806152,-1.447522,98.0
35998,-0.61117816,-0.6651592,0.20567322,-0.39613038,-0.22514649,-1.4039795,98.0
35999,-1.0405295,-0.1821022,0.64656067,-0.39613038,-0.22514649,-1.4039795,98.0
36000,-1.0405295,-0.1821022,0.64656067,-0.8506714,-0.4333008,-1.4252198,98.0
36001,-0.7332903,0.08656883,0.9172821,-0.8506714,-0.4333008,-1.4252198,98.0
36002,-0.7332903,0.08656883,0.9172821,-1.26167,-0.42055663,-1.448584,98.0
36003,-0.2055775,-0.3107128,0.81378174,-1.26167,-0.42055663,-1.448584,98.0
36004,-0.2055775,-0.3107128,0.81378174,-1.0524536,-0.271875,-1.3338867,98.0
36005,0.15000331,-0.82894135,0.30586243,-1.0524536,-0.271875,-1.3338867,98.0
36006,0.15000331,-0.82894135,0.30586243,-0.71579593,-0.028674318,-1.0970582,98.0
36007,0.20873559,-0.85142326,-0.22555542,-0.71579593,-0.028674318,-1.0970582,98.0
36008,0.20873559,-0.85142326,-0.22555542,-0.59047854,0.13912354,-0.9228882,98.0
36009,-0.054227352,-0.5233021,-0.3719635,-0.59047854,0.13912354,-0.9228882,98.0
36010,-0.054227352,-0.5233021,-0.3719635,-0.5766724,0.007434082,-0.7434082,98.0
36011,-0.2869488,-0.1626358,-0.26060486,-0.5766724,0.007434082,-0.7434082,98.0
36012,-0.2869488,-0.1626358,-0.26060486,-0.6605713,-0.078588866,-0.6988037,98.0
36013,-0.30625582,0.045196533,-0.30415344,-0.6605713,-0.078588866,-0.6988037,98.0
36014,-0.30625582,0.045196533,-0.30415344,-0.7072998,-0.029736329,-0.7327881,98.0
36015,-0.33865702,-0.012145996,-0.6396637,-0.7072998,-0.029736329,-0.7327881,98.0
36016,-0.33865702,-0.012145996,-0.6396637,-0.48746338,-0.028674318,-0.6988037,98.0
36017,-0.4074613,-0.21398926,-1.0201416,-0.48746338,-0.028674318,-0.6988037,98.0
36018,-0.4074613,-0.21398926,-1.0201416,-0.10195313,0.059472658,-0.59897465,98.0
36019,-0.4832933,-0.24830437,-1.0986023,-0.10195313,0.059472658,-0.59897465,98.0
36020,-0.4832933,-0.24830437,-1.0986023,0.15930176,0.16779785,-0.5033936,98.0
36021,-0.63194704,-0.019029617,-0.80081177,0.15930176,0.16779785,-0.5033936,98.0
36022,-0.63194704,-0.019029617,-0.80081177,0.0010620117,0.17416993,-0.5256958,98.0
36023,-0.8253696,0.08016205,-0.45518494,0.0010620117,0.17416993,-0.5256958,98.0
36024,-0.8253696,0.08016205,-0.45518494,-0.3451538,0.06903076,-0.67225343,98.0
36025,-0.893157,-0.42484665,-0.28811646,-0.3451538,0.06903076,-0.67225343,98.0
36026,-0.893157,-0.42484665,-0.28811646,-0.3982544,-0.124255374,-0.85598147,98.0
36027,-0.5587518,-1.1867886,-0.25498962,-0.3982544,-0.124255374,-0.85598147,98.0
36028,-0.5587518,-1.1867886,-0.25498962,-0.03186035,-0.115759276,-0.94731444,98.0
36029,0.024568558,-1.3358192,-0.19169617,-0.03186035,-0.115759276,-0.94731444,98.0
36030,0.024568558,-1.3358192,-0.19169617,0.29099122,0.3462158,-0.77739257,98.0
36031,-0.030845642,-0.89894104,0.12901306,0.29099122,0.3462158,-0.77739257,98.0
36032,-0.030845642,-0.89894104,0.12901306,0.32709962,0.58623046,-0.58304447,98.0
36033,-0.9345155,-0.47585297,0.63856506,0.32709962,0.58623046,-0.58304447,98.0
36034,-0.9345155,-0.47585297,0.63856506,0.28355715,0.2357666,-0.6414551,98.0
36035,-1.5920949,-0.17904663,1.0494843,0.28355715,0.2357666,-0.6414551,98.0
36036,-1.5920949,-0.17904663,1.0494843,0.032922365,-0.25806886,-0.7412842,98.0
36037,-1.3125429,-0.026536942,1.2397766,0.032922365,-0.25806886,-0.7412842,98.0
36038,-1.3125429,-0.026536942,1.2397766,-0.1996582,-0.29736328,-0.62127686,98.0
36039,-0.7310648,-0.14160347,1.2611389,-0.1996582,-0.29736328,-0.62127686,98.0
36040,-0.7310648,-0.14160347,1.2611389,-0.009558106,-0.1359375,-0.32709962,98.0
36041,-0.5208502,-0.3514061,1.33844,-0.009558106,-0.1359375,-0.32709962,98.0
36042,-0.5208502,-0.3514061,1.33844,0.095581055,-0.2548828,-0.035046387,98.0
36043,-0.48624802,-0.30877304,1.585968,0.095581055,-0.2548828,-0.035046387,98.0
36044,-0.48624802,-0.30877304,1.585968,0.095581055,-0.37382814,0.10938721,98.0
36045,-0.38627625,-0.113643646,1.8760529,0.095581055,-0.37382814,0.10938721,98.0
36046,-0.38627625,-0.113643646,1.8760529,0.10938721,-0.33771974,0.25063476,98.0
36047,-0.32111835,-0.14768982,1.9534454,0.10938721,-0.33771974,0.25063476,98.0
36048,-0.32111835,-0.14768982,1.9534454,0.13487549,-0.25806886,0.4959595,98.0
36049,-0.29054928,-0.32661057,1.7749023,0.13487549,-0.25806886,0.4959595,98.0
36050,-0.29054928,-0.32661057,1.7749023,0.26975098,-0.21134034,0.631897,98.0
36051,-0.02990055,-0.15505028,1.4685822,0.26975098,-0.21134034,0.631897,98.0
36052,-0.02990055,-0.15505028,1.4685822,0.17629395,-0.093457036,0.4364868,98.0
36053,0.32421207,0.16797638,1.0047607,0.17629395,-0.093457036,0.4364868,98.0
36054,0.32421207,0.16797638,1.0047607,-0.17629395,0.10513916,0.2347046,98.0
36055,0.1542182,-0.2420826,0.52345276,-0.17629395,0.10513916,0.2347046,98.0
36056,0.1542182,-0.2420826,0.52345276,-0.007434082,0.1444336,0.06796875,98.0
36057,-0.39552212,-0.9302387,0.44256592,-0.007434082,0.1444336,0.06796875,98.0
36058,-0.39552212,-0.9302387,0.44256592,0.70305175,0.032922365,-0.43117675,98.0
36059,-0.41808987,-0.26052475,0.7805939,0.70305175,0.032922365,-0.43117675,98.0
36060,-0.41808987,-0.26052475,0.7805939,0.90695804,0.013806152,-0.905896,98.0
36061,0.16748142,1.8015518,1.1299591,0.90695804,0.013806152,-0.905896,98.0
36062,0.16748142,1.8015518,1.1299591,0.3345337,0.08071289,-0.83049315,98.0
36063,0.6217904,3.662651,1.1389618,0.3345337,0.08071289,-0.83049315,98.0
36064,0.6217904,3.662651,1.1389618,-0.6988037,0.015930176,-0.62340087,98.0
36065,0.55385303,4.4118958,0.78666687,-0.6988037,0.015930176,-0.62340087,98.0
36066,0.55385303,4.4118958,0.78666687,-1.4443359,-0.16354981,-0.48746338,98.0
36067,0.19713545,4.296364,0.63645935,-1.4443359,-0.16354981,-0.48746338,98.0
36068,0.19713545,4.296364,0.63645935,-1.9339234,-0.7338501,-0.22939454,98.0
36069,0.21937847,3.487053,1.0041962,-1.9339234,-0.7338501,-0.22939454,98.0
36070,0.21937847,3.487053,1.0041962,-2.2068603,-1.2191895,-0.0541626,98.0
36071,0.88440156,1.8301697,1.0801697,-2.2068603,-1.2191895,-0.0541626,98.0
36072,0.88440156,1.8301697,1.0801697,-2.0454347,-0.9409424,0.090270996,98.0
36073,1.1751115,-0.7886486,0.1353302,-2.0454347,-0.9409424,0.090270996,98.0
36074,1.1751115,-0.7886486,0.1353302,-1.0726318,-0.46834716,0.38657227,98.0
36075,0.20943737,-3.6537952,-1.0175018,-1.0726318,-0.46834716,0.38657227,98.0
36076,0.20943737,-3.6537952,-1.0175018,0.42161867,-0.52038574,0.1359375,98.0
36077,-0.7099526,-4.326357,-1.3013763,0.42161867,-0.52038574,0.1359375,98.0
36078,-0.7099526,-4.326357,-1.3013763,1.6949707,-0.85598147,-0.47471926,98.0
36079,0.03194022,-1.5607681,-1.2680511,1.6949707,-0.85598147,-0.47471926,98.0
36080,0.03194022,-1.5607681,-1.2680511,1.7756836,-0.42905274,-0.29523927,98.0
36081,1.1204009,1.6194649,-1.820282,1.7756836,-0.42905274,-0.29523927,98.0
36082,1.1204009,1.6194649,-1.820282,1.0365235,0.39400634,0.5968506,98.0
36083,0.49613762,1.9603653,-2.4852448,1.0365235,0.39400634,0.5968506,98.0
36084,0.49613762,1.9603653,-2.4852448,0.70198977,0.5235718,0.68287355,98.0
36085,-1.0267961,0.27156258,-2.5520782,0.70198977,0.5235718,0.68287355,98.0
36086,-1.0267961,0.27156258,-2.5520782,0.74659425,0.18054199,-0.06584473,98.0
36087,-1.0267961,0.27156258,-2.5520782,0.74659425,0.18054199,-0.06584473,98.0
36088,-1.5079479,-0.93289757,-2.1675262,0.74659425,0.18054199,-0.06584473,98.0
36089,-1.5079479,-0.93289757,-2.1675262,0.61065674,0.11363526,-0.5320679,98.0
36090,-0.8547106,-1.1470146,-1.6815033,0.61065674,0.11363526,-0.5320679,98.0
36091,-0.8547106,-1.1470146,-1.6815033,0.6053467,0.11044922,-0.5798584,98.0
36092,-0.13841915,-1.0968971,-1.190628,0.6053467,0.11044922,-0.5798584,98.0
36093,-0.13841915,-1.0968971,-1.190628,0.7476563,-0.0031860352,-0.7614624,98.0
36094,0.25790453,-0.6590977,-0.72702026,0.7476563,-0.0031860352,-0.7614624,98.0
36095,0.25790453,-0.6590977,-0.72702026,0.57454836,-0.18903808,-0.86341554,98.0
36096,0.4529667,0.11997604,-0.1799469,0.57454836,-0.18903808,-0.86341554,98.0
36097,0.4529667,0.11997604,-0.1799469,0.22196046,-0.452417,-0.5129517,98.0
36098,0.5882888,0.5499363,0.52290344,0.22196046,-0.452417,-0.5129517,98.0
36099,0.5882888,0.5499363,0.52290344,0.10301514,-0.66269535,-0.043542482,98.0
36100,0.77647805,0.5171585,1.0220032,0.10301514,-0.66269535,-0.043542482,98.0
36101,0.77647805,0.5171585,1.0220032,0.009558106,-0.6531372,0.21558838,98.0
36102,0.77510095,0.41895103,1.0095673,0.009558106,-0.6531372,0.21558838,98.0
36103,0.77510095,0.41895103,1.0095673,-0.14337158,-0.53737795,0.37595215,98.0
36104,0.35376,0.30410576,0.71891785,-0.14337158,-0.53737795,0.37595215,98.0
36105,0.35376,0.30410576,0.71891785,-0.18691407,-0.5979126,0.42055663,98.0
36106,-0.07512188,0.09776306,0.4116211,-0.18691407,-0.5979126,0.42055663,98.0
36107,-0.07512188,0.09776306,0.4116211,-0.07115479,-0.5671143,0.27506104,98.0
36108,-0.086830854,-0.014978409,0.036575317,-0.07115479,-0.5671143,0.27506104,98.0
36109,-0.086830854,-0.014978409,0.036575317,0.04248047,-0.23151855,0.16142578,98.0
36110,-0.05817318,-0.048786163,-0.38302612,0.04248047,-0.23151855,0.16142578,98.0
36111,-0.05817318,-0.048786163,-0.38302612,0.07327881,0.06903076,0.08602295,98.0
36112,-0.39985895,-0.2842064,-0.54689026,0.07327881,0.06903076,0.08602295,98.0
36113,-0.39985895,-0.2842064,-0.54689026,0.13381349,0.07434082,-0.17416993,98.0
36114,-0.69015074,-0.66711235,-0.30682373,0.13381349,0.07434082,-0.17416993,98.0
36115,-0.69015074,-0.66711235,-0.30682373,0.33240968,-0.10195313,-0.5320679,98.0
36116,-0.3502283,-0.72465515,-0.008834839,0.33240968,-0.10195313,-0.5320679,98.0
36117,-0.3502283,-0.72465515,-0.008834839,0.44923097,-0.020178223,-0.6467652,98.0
36118,0.24052048,-0.33334923,0.025466919,0.44923097,-0.020178223,-0.6467652,98.0
36119,0.24052048,-0.33334923,0.025466919,0.36639404,0.18266602,-0.4715332,98.0
36120,0.22494817,-2.746582E-4,-0.029190063,0.36639404,0.18266602,-0.4715332,98.0
36121,0.22494817,-2.746582E-4,-0.029190063,0.26550293,0.19647217,-0.22727051,98.0
36122,-0.3307104,0.038988113,0.10118103,0.26550293,0.19647217,-0.22727051,98.0
36123,-0.3307104,0.038988113,0.10118103,0.14761963,-0.07965088,-0.14018555,98.0
36124,-0.5908134,-0.005844116,0.27508545,0.14761963,-0.07965088,-0.14018555,98.0
36125,-0.5908134,-0.005844116,0.27508545,-0.083898924,-0.271875,-0.083898924,98.0
36126,-0.31571722,-0.11275673,0.21307373,-0.083898924,-0.271875,-0.083898924,98.0
36127,-0.31571722,-0.11275673,0.21307373,-0.18160401,-0.21983643,0.023364259,98.0
36128,-0.034092426,-0.3516693,0.047088623,-0.18160401,-0.21983643,0.023364259,98.0
36129,-0.034092426,-0.3516693,0.047088623,0.02442627,-0.1444336,0.070092775,98.0
36130,-0.007156849,-0.4288578,0.023086548,0.02442627,-0.1444336,0.070092775,98.0
36131,-0.007156849,-0.4288578,0.023086548,0.16248779,-0.15611573,0.047790527,98.0
36132,-0.044617176,-0.20916176,0.10871887,0.16248779,-0.15611573,0.047790527,98.0
36133,-0.044617176,-0.20916176,0.10871887,0.09133301,-0.15823975,0.028674318,98.0
36134,-0.038989544,0.05080986,0.15786743,0.09133301,-0.15823975,0.028674318,98.0
36135,-0.038989544,0.05080986,0.15786743,0.038232423,-0.15186767,0.023364259,98.0
36136,0.020554066,0.16187477,0.13539124,0.038232423,-0.15186767,0.023364259,98.0
36137,0.020554066,0.16187477,0.13539124,-0.015930176,-0.1359375,0.043542482,98.0
36138,0.122888565,0.12852287,0.08433533,-0.015930176,-0.1359375,0.043542482,98.0
36139,0.122888565,0.12852287,0.08433533,-0.107263185,-0.095581055,0.08602295,98.0
36140,0.20268106,-0.01052475,0.051086426,-0.107263185,-0.095581055,0.08602295,98.0
36141,0.20268106,-0.01052475,0.051086426,-0.08814698,-0.052038576,0.08496094,98.0
36142,0.22403455,-0.103940964,0.010986328,-0.08814698,-0.052038576,0.08496094,98.0
36143,0.22403455,-0.103940964,0.010986328,-0.0637207,0.012744141,0.07540283,98.0
36144,0.16409087,-0.088926315,-0.031433105,-0.0637207,0.012744141,0.07540283,98.0
36145,0.16409087,-0.088926315,-0.031433105,-0.058410645,0.021240234,0.05522461,98.0
36146,0.043821573,-0.025413513,-0.040023804,-0.058410645,0.021240234,0.05522461,98.0
36147,0.043821573,-0.025413513,-0.040023804,-0.053100586,-0.0010620117,0.053100586,98.0
36148,-0.08924675,-0.0038528442,-0.0028381348,-0.053100586,-0.0010620117,0.053100586,98.0
36149,-0.08924675,-0.0038528442,-0.0028381348,-0.050976563,-0.04248047,0.06796875,98.0
36150,-0.1415267,-0.049835205,0.08477783,-0.050976563,-0.04248047,0.06796875,98.0
36151,-0.1415267,-0.049835205,0.08477783,-0.04141846,-0.1274414,0.047790527,98.0
36152,0.003856182,-0.076221466,0.13987732,-0.04141846,-0.1274414,0.047790527,98.0
36153,0.003856182,-0.076221466,0.13987732,-0.0637207,-0.09133301,0.03186035,98.0
36154,0.19345379,-0.078178406,0.114349365,-0.0637207,-0.09133301,0.03186035,98.0
36155,0.19345379,-0.078178406,0.114349365,-0.09133301,0.007434082,0.083898924,98.0
36156,0.19547367,-0.09800339,0.11087036,-0.09133301,0.007434082,0.083898924,98.0
36157,0.19547367,-0.09800339,0.11087036,-0.08920898,-0.010620117,0.124255374,98.0
36158,0.1412301,-0.086826324,0.14093018,-0.08920898,-0.010620117,0.124255374,98.0
36159,0.1412301,-0.086826324,0.14093018,-0.14230958,-0.008496094,0.10407715,98.0
36160,0.17032051,-0.0037136078,0.11872864,-0.14230958,-0.008496094,0.10407715,98.0
36161,0.17032051,-0.0037136078,0.11872864,-0.24957275,0.0637207,0.13062744,98.0
36162,0.16173244,0.051239014,0.07086182,-0.24957275,0.0637207,0.13062744,98.0
36163,0.16173244,0.051239014,0.07086182,-0.28780517,0.09133301,0.1529297,98.0
36164,-0.033406973,-0.048009872,-2.593994E-4,-0.28780517,0.09133301,0.1529297,98.0
36165,-0.033406973,-0.048009872,-2.593994E-4,-0.24957275,0.10301514,0.16992188,98.0
36166,-0.10081005,-0.077409744,0.0055236816,-0.24957275,0.10301514,0.16992188,98.0
36167,-0.10081005,-0.077409744,0.0055236816,-0.2538208,0.059472658,0.1444336,98.0
36168,-0.02600956,-0.35637283,0.054733276,-0.2538208,0.059472658,0.1444336,98.0
36169,-0.02600956,-0.35637283,0.054733276,-0.20284425,0.039294433,0.014868164,98.0
36170,0.10148239,-0.37132835,0.041625977,-0.20284425,0.039294433,0.014868164,98.0
36171,0.10148239,-0.37132835,0.041625977,-0.14655761,0.087084964,-0.007434082,98.0
36172,0.376364,-0.3452301,-0.02168274,-0.14655761,0.087084964,-0.007434082,98.0
36173,0.376364,-0.3452301,-0.02168274,-0.083898924,0.3069214,-0.0021240234,98.0
36174,0.3134203,-0.1570816,-0.07714844,-0.083898924,0.3069214,-0.0021240234,98.0
36175,0.3134203,-0.1570816,-0.07714844,-0.115759276,0.3345337,0.012744141,98.0
36176,-0.08565283,0.2631035,-0.10374451,-0.115759276,0.3345337,0.012744141,98.0
36177,-0.08565283,0.2631035,-0.10374451,-0.34940186,0.24851075,0.053100586,98.0
36178,-0.15018725,0.2740326,-0.042526245,-0.34940186,0.24851075,0.053100586,98.0
36179,-0.15018725,0.2740326,-0.042526245,-0.3695801,0.21877442,0.057348635,98.0
36180,-0.17716885,-0.16811371,0.15959167,-0.3695801,0.21877442,0.057348635,98.0
36181,-0.17716885,-0.16811371,0.15959167,-0.30161133,0.16779785,0.032922365,98.0
36182,-0.17716885,-0.16811371,0.15959167,-0.30161133,0.16779785,0.032922365,97.0
36183,-0.08994079,-0.3243847,0.14425659,-0.30161133,0.16779785,0.032922365,97.0
36184,-0.08994079,-0.3243847,0.14425659,-0.23258057,0.16354981,-0.0053100586,97.0
36185,0.0248003,-0.592638,0.042404175,-0.23258057,0.16354981,-0.0053100586,97.0
36186,0.0248003,-0.592638,0.042404175,0.0031860352,0.23151855,-0.032922365,97.0
36187,0.039933205,-0.3779812,4.5776367E-5,0.0031860352,0.23151855,-0.032922365,97.0
36188,0.039933205,-0.3779812,4.5776367E-5,0.025488282,0.24213867,0.0,97.0
36189,-0.0019035339,0.1762886,0.004776001,0.025488282,0.24213867,0.0,97.0
36190,-0.0019035339,0.1762886,0.004776001,-0.09239502,0.22514649,0.08283692,97.0
36191,-0.06893015,0.62851715,0.045166016,-0.09239502,0.22514649,0.08283692,97.0
36192,-0.06893015,0.62851715,0.045166016,-0.38232422,0.10089111,0.15080567,97.0
36193,-0.078886986,0.47223473,0.08050537,-0.38232422,0.10089111,0.15080567,97.0
36194,-0.078886986,0.47223473,0.08050537,-0.4619751,-0.038232423,0.15505372,97.0
36195,0.066529274,-0.06958771,0.12837219,-0.4619751,-0.038232423,0.15505372,97.0
36196,0.066529274,-0.06958771,0.12837219,-0.20921631,0.023364259,0.14230958,97.0
36197,0.1750009,-0.113910675,0.16760254,-0.20921631,0.023364259,0.14230958,97.0
36198,0.1750009,-0.113910675,0.16760254,-0.1263794,0.15717773,0.19541016,97.0
36199,0.05242753,0.13007545,0.11764526,-0.1263794,0.15717773,0.19541016,97.0
36200,0.05242753,0.13007545,0.11764526,-0.18054199,0.10620117,0.20921631,97.0
36201,-0.4045422,0.39390373,0.042144775,-0.18054199,0.10620117,0.20921631,97.0
36202,-0.4045422,0.39390373,0.042144775,-0.28355715,-0.10195313,0.22939454,97.0
36203,-0.36347747,0.25151253,0.04725647,-0.28355715,-0.10195313,0.22939454,97.0
36204,-0.36347747,0.25151253,0.04725647,-0.2623169,-0.121069334,0.20603028,97.0
36205,-0.111240864,-0.097435,0.07620239,-0.2623169,-0.121069334,0.20603028,97.0
36206,-0.111240864,-0.097435,0.07620239,-0.18585205,-0.045666505,0.121069334,97.0
36207,0.15797997,-0.30727005,0.03993225,-0.18585205,-0.045666505,0.121069334,97.0
36208,0.15797997,-0.30727005,0.03993225,-0.11151123,0.0541626,0.06478272,97.0
36209,0.15428925,-0.36015892,-0.049545288,-0.11151123,0.0541626,0.06478272,97.0
36210,0.15428925,-0.36015892,-0.049545288,0.013806152,0.053100586,0.011682129,97.0
36211,0.059283495,-0.2278595,-0.062820435,0.013806152,0.053100586,0.011682129,97.0
36212,0.059283495,-0.2278595,-0.062820435,0.13912354,0.038232423,-0.02442627,97.0
36213,0.122853994,0.15384483,0.021347046,0.13912354,0.038232423,-0.02442627,97.0
36214,0.122853994,0.15384483,0.021347046,0.0180542,0.090270996,0.0063720704,97.0
36215,0.1893599,0.48539162,0.08302307,0.0180542,0.090270996,0.0063720704,97.0
36216,0.1893599,0.48539162,0.08302307,-0.1985962,0.09770508,0.043542482,97.0
36217,0.069480896,0.3274002,0.06668091,-0.1985962,0.09770508,0.043542482,97.0
36218,0.069480896,0.3274002,0.06668091,-0.24957275,0.009558106,0.02442627,97.0
36219,-0.033062696,-0.17913246,0.027297974,-0.24957275,0.009558106,0.02442627,97.0
36220,-0.033062696,-0.17913246,0.027297974,-0.07434082,-0.032922365,-0.025488282,97.0
36221,0.08481693,-0.41393661,-0.013870239,-0.07434082,-0.032922365,-0.025488282,97.0
36222,0.08481693,-0.41393661,-0.013870239,0.08920898,0.06584473,-0.012744141,97.0
36223,0.16824412,-0.18736267,-0.054489136,0.08920898,0.06584473,-0.012744141,97.0
36224,0.16824412,-0.18736267,-0.054489136,0.03079834,0.13275146,0.07327881,97.0
36225,-0.04907155,0.04647255,-0.0713501,0.03079834,0.13275146,0.07327881,97.0
36226,-0.04907155,0.04647255,-0.0713501,-0.057348635,0.03079834,0.087084964,97.0
36227,-0.3007319,-0.037174225,-0.034957886,-0.057348635,0.03079834,0.087084964,97.0
36228,-0.3007319,-0.037174225,-0.034957886,-0.040356446,-0.115759276,0.058410645,97.0
36229,-0.18534875,-0.17534637,0.020355225,-0.040356446,-0.115759276,0.058410645,97.0
36230,-0.18534875,-0.17534637,0.020355225,0.028674318,-0.11257324,0.06584473,97.0
36231,0.15607882,-0.098480225,-4.5776367E-5,0.028674318,-0.11257324,0.06584473,97.0
36232,0.15607882,-0.098480225,-4.5776367E-5,-0.004248047,0.009558106,0.118945315,97.0
36233,0.24233127,0.0554924,-0.06336975,-0.004248047,0.009558106,0.118945315,97.0
36234,0.24233127,0.0554924,-0.06336975,-0.06903076,0.032922365,0.15930176,97.0
36235,0.062029123,0.111091614,-0.07194519,-0.06903076,0.032922365,0.15930176,97.0
36236,0.062029123,0.111091614,-0.07194519,-0.14655761,-0.043542482,0.13275146,97.0
36237,-0.027830362,0.07178497,-0.038528442,-0.14655761,-0.043542482,0.13275146,97.0
36238,-0.027830362,0.07178497,-0.038528442,-0.19541016,-0.070092775,0.10301514,97.0
36239,0.057276726,-0.013177872,-0.048553467,-0.19541016,-0.070092775,0.10301514,97.0
36240,0.057276726,-0.013177872,-0.048553467,-0.16673584,-0.03079834,0.12531738,97.0
36241,0.08986449,-0.12792587,-0.073028564,-0.16673584,-0.03079834,0.12531738,97.0
36242,0.08986449,-0.12792587,-0.073028564,-0.033984374,-0.035046387,0.13806152,97.0
36243,0.062089205,-0.10878754,0.015838623,-0.033984374,-0.035046387,0.13806152,97.0
36244,0.062089205,-0.10878754,0.015838623,0.046728518,-0.09770508,0.10620117,97.0
36245,0.19553328,0.19148636,0.16592407,0.046728518,-0.09770508,0.10620117,97.0
36246,0.19553328,0.19148636,0.16592407,-0.07646485,-0.06796875,0.06903076,97.0
36247,0.36481285,0.4821682,0.19198608,-0.07646485,-0.06796875,0.06903076,97.0
36248,0.36481285,0.4821682,0.19198608,-0.2527588,0.04460449,0.08071289,97.0
36249,0.25133514,0.35684013,0.0922699,-0.2527588,0.04460449,0.08071289,97.0
36250,0.25133514,0.35684013,0.0922699,-0.21983643,0.039294433,0.053100586,97.0
36251,0.0059142113,-0.0390625,0.012069702,-0.21983643,0.039294433,0.053100586,97.0
36252,0.0059142113,-0.0390625,0.012069702,-0.06690674,-0.013806152,-0.03186035,97.0
36253,-0.0010180473,-0.24428749,0.008132935,-0.06690674,-0.013806152,-0.03186035,97.0
36254,-0.0010180473,-0.24428749,0.008132935,0.0541626,0.013806152,-0.081774905,97.0
36255,0.1496861,-0.15307045,0.007949829,0.0541626,0.013806152,-0.081774905,97.0
36256,0.1496861,-0.15307045,0.007949829,0.06584473,0.107263185,-0.06265869,97.0
36257,0.1158061,-0.025215149,-0.014144897,0.06584473,0.107263185,-0.06265869,97.0
36258,0.1158061,-0.025215149,-0.014144897,0.04991455,0.115759276,-0.028674318,97.0
36259,-0.112323284,0.032159805,0.0026550293,0.04991455,0.115759276,-0.028674318,97.0
36260,-0.112323284,0.032159805,0.0026550293,0.008496094,0.020178223,-0.02442627,97.0
36261,-0.21292973,0.12044144,0.03742981,0.008496094,0.020178223,-0.02442627,97.0
36262,-0.21292973,0.12044144,0.03742981,-0.078588866,-0.052038576,0.009558106,97.0
36263,-0.09406209,0.19504547,-0.010971069,-0.078588866,-0.052038576,0.009558106,97.0
36264,-0.09406209,0.19504547,-0.010971069,-0.16567384,-0.04248047,0.04991455,97.0
36265,-0.0035943985,0.1147995,-0.12008667,-0.16567384,-0.04248047,0.04991455,97.0
36266,-0.0035943985,0.1147995,-0.12008667,-0.14230958,-0.028674318,0.04248047,97.0
36267,-0.06342244,-0.03145218,-0.13546753,-0.14230958,-0.028674318,0.04248047,97.0
36268,-0.06342244,-0.03145218,-0.13546753,-0.0180542,-0.07646485,0.004248047,97.0
36269,-0.09623361,-0.024477005,-0.026382446,-0.0180542,-0.07646485,0.004248047,97.0
36270,-0.09623361,-0.024477005,-0.026382446,0.04248047,-0.08071289,-0.033984374,97.0
36271,-0.034433126,0.12874603,0.06278992,0.04248047,-0.08071289,-0.033984374,97.0
36272,-0.034433126,0.12874603,0.06278992,-0.010620117,-0.038232423,-0.05522461,97.0
36273,-0.046088934,0.18037796,0.065582275,-0.010620117,-0.038232423,-0.05522461,97.0
36274,-0.046088934,0.18037796,0.065582275,-0.033984374,-0.04460449,-0.09239502,97.0
36275,-0.10737896,0.053504944,0.047912598,-0.033984374,-0.04460449,-0.09239502,97.0
36276,-0.10737896,0.053504944,0.047912598,-0.028674318,-0.08071289,-0.1263794,97.0
36277,-0.05803442,-0.071331024,0.050048828,-0.028674318,-0.08071289,-0.1263794,97.0
36278,-0.05803442,-0.071331024,0.050048828,0.0010620117,-0.0361084,-0.12531738,97.0
36279,0.03639722,-0.10456276,0.049926758,0.0010620117,-0.0361084,-0.12531738,97.0
36280,0.03639722,-0.10456276,0.049926758,0.0010620117,0.02442627,-0.090270996,97.0
36281,0.0037271976,-0.11620712,0.025894165,0.0010620117,0.02442627,-0.090270996,97.0
36282,0.0037271976,-0.11620712,0.025894165,0.0010620117,0.02442627,-0.090270996,96.0
36283,0.0037271976,-0.11620712,0.025894165,-0.007434082,0.023364259,-0.07752686,96.0
36284,-0.095980644,-0.15973854,0.01751709,-0.007434082,0.023364259,-0.07752686,96.0
36285,-0.095980644,-0.15973854,0.01751709,0.0,-0.016992187,-0.07327881,96.0
36286,-0.08321762,-0.16621971,0.051940918,0.0,-0.016992187,-0.07327881,96.0
36287,-0.08321762,-0.16621971,0.051940918,0.03079834,-0.0031860352,-0.045666505,96.0
36288,0.017800808,-0.059209824,0.095565796,0.03079834,-0.0031860352,-0.045666505,96.0
36289,0.017800808,-0.059209824,0.095565796,0.010620117,0.033984374,0.008496094,96.0
36290,0.050373316,0.09718704,0.08607483,0.010620117,0.033984374,0.008496094,96.0
36291,0.050373316,0.09718704,0.08607483,-0.058410645,0.027612304,0.020178223,96.0
36292,0.013675213,0.17826271,6.4086914E-4,-0.058410645,0.027612304,0.020178223,96.0
36293,0.013675213,0.17826271,6.4086914E-4,-0.10089111,0.02442627,0.0053100586,96.0
36294,-0.03775382,0.1434288,-0.08366394,-0.10089111,0.02442627,0.0053100586,96.0
36295,-0.03775382,0.1434288,-0.08366394,-0.07752686,0.028674318,0.019116212,96.0
36296,-0.08619666,0.03863144,-0.06669617,-0.07752686,0.028674318,0.019116212,96.0
36297,-0.08619666,0.03863144,-0.06669617,-0.022302246,-0.009558106,-0.0053100586,96.0
36298,-0.07366943,-0.0259552,0.002532959,-0.022302246,-0.009558106,-0.0053100586,96.0
36299,-0.07366943,-0.0259552,0.002532959,-0.0031860352,-0.03079834,-0.06265869,96.0
36300,0.0052978992,-0.0495739,0.0035705566,-0.0031860352,-0.03079834,-0.06265869,96.0
36301,0.0052978992,-0.0495739,0.0035705566,-0.011682129,-0.014868164,-0.081774905,96.0
36302,0.05157733,-0.09080696,-0.032470703,-0.011682129,-0.014868164,-0.081774905,96.0
36303,0.05157733,-0.09080696,-0.032470703,0.025488282,0.007434082,-0.08071289,96.0
36304,0.032521725,-0.10738754,-0.013183594,0.025488282,0.007434082,-0.08071289,96.0
36305,0.032521725,-0.10738754,-0.013183594,0.047790527,0.0053100586,-0.05628662,96.0
36306,0.010270119,-0.023935318,0.054000854,0.047790527,0.0053100586,-0.05628662,96.0
36307,0.010270119,-0.023935318,0.054000854,-0.012744141,0.004248047,-0.019116212,96.0
36308,-0.021007538,0.045000076,0.047927856,-0.012744141,0.004248047,-0.019116212,96.0
36309,-0.021007538,0.045000076,0.047927856,-0.07327881,0.008496094,-0.008496094,96.0
36310,-0.085763454,-0.014097214,-0.036224365,-0.07327881,0.008496094,-0.008496094,96.0
36311,-0.085763454,-0.014097214,-0.036224365,-0.057348635,-0.008496094,-0.021240234,96.0
36312,-0.09307361,-0.13655853,-0.06704712,-0.057348635,-0.008496094,-0.021240234,96.0
36313,-0.09307361,-0.13655853,-0.06704712,0.016992187,-0.010620117,-0.038232423,96.0
36314,0.006986618,-0.11945343,-0.0034942627,0.016992187,-0.010620117,-0.038232423,96.0
36315,0.006986618,-0.11945343,-0.0034942627,0.05522461,0.029736329,-0.038232423,96.0
36316,0.105638266,0.076984406,0.048202515,0.05522461,0.029736329,-0.038232423,96.0
36317,0.105638266,0.076984406,0.048202515,-0.009558106,0.0722168,-0.0180542,96.0
36318,0.06150055,0.22582054,0.0124053955,-0.009558106,0.0722168,-0.0180542,96.0
36319,0.06150055,0.22582054,0.0124053955,-0.08071289,0.046728518,-0.008496094,96.0
36320,-0.053143263,0.13116837,-0.04989624,-0.08071289,0.046728518,-0.008496094,96.0
36321,-0.053143263,0.13116837,-0.04989624,-0.06796875,0.007434082,-0.03079834,96.0
36322,-0.069321156,-0.073459625,-0.06072998,-0.06796875,0.007434082,-0.03079834,96.0
36323,-0.069321156,-0.073459625,-0.06072998,0.04141846,0.015930176,-0.046728518,96.0
36324,-0.0028202534,-0.094558716,-0.011871338,0.04141846,0.015930176,-0.046728518,96.0
36325,-0.0028202534,-0.094558716,-0.011871338,0.06796875,0.03079834,-0.035046387,96.0
36326,0.0037007332,0.04678917,0.003326416,0.06796875,0.03079834,-0.035046387,96.0
36327,0.0037007332,0.04678917,0.003326416,-0.0053100586,0.009558106,-0.02442627,96.0
36328,-0.061810017,0.1133728,-0.02861023,-0.0053100586,0.009558106,-0.02442627,96.0
36329,-0.061810017,0.1133728,-0.02861023,-0.04991455,-0.038232423,-0.022302246,96.0
36330,-0.07133508,0.0087890625,-0.036987305,-0.04991455,-0.038232423,-0.022302246,96.0
36331,-0.07133508,0.0087890625,-0.036987305,-0.0180542,-0.0541626,-0.020178223,96.0
36332,0.030322075,-0.08315468,0.0024871826,-0.0180542,-0.0541626,-0.020178223,96.0
36333,0.030322075,-0.08315468,0.0024871826,0.03717041,-0.023364259,-0.027612304,96.0
36334,0.11310029,-0.06481552,0.030517578,0.03717041,-0.023364259,-0.027612304,96.0
36335,0.11310029,-0.06481552,0.030517578,0.014868164,0.019116212,-0.029736329,96.0
36336,0.051210165,-0.0073947906,0.001876831,0.014868164,0.019116212,-0.029736329,96.0
36337,0.051210165,-0.0073947906,0.001876831,0.013806152,0.027612304,-0.052038576,96.0
36338,-0.06270623,0.04648781,-0.026519775,0.013806152,0.027612304,-0.052038576,96.0
36339,-0.06270623,0.04648781,-0.026519775,-0.0031860352,0.0053100586,-0.050976563,96.0
36340,-0.07384658,0.10121536,-0.01234436,-0.0031860352,0.0053100586,-0.050976563,96.0
36341,-0.07384658,0.10121536,-0.01234436,-0.058410645,0.0031860352,-0.026550293,96.0
36342,-0.020722866,0.078811646,-0.01864624,-0.058410645,0.0031860352,-0.026550293,96.0
36343,-0.020722866,0.078811646,-0.01864624,-0.046728518,0.039294433,-0.022302246,96.0
36344,-0.039063692,-0.021692276,-0.06390381,-0.046728518,0.039294433,-0.022302246,96.0
36345,-0.039063692,-0.021692276,-0.06390381,-0.012744141,0.028674318,-0.0361084,96.0
36346,-0.09936619,-0.10673332,-0.054351807,-0.012744141,0.028674318,-0.0361084,96.0
36347,-0.09936619,-0.10673332,-0.054351807,0.0021240234,-0.021240234,-0.07115479,96.0
36348,-0.05034256,-0.074827194,0.011398315,0.0021240234,-0.021240234,-0.07115479,96.0
36349,-0.05034256,-0.074827194,0.011398315,0.012744141,-0.022302246,-0.07646485,96.0
36350,0.075155735,0.07691765,0.027618408,0.012744141,-0.022302246,-0.07646485,96.0
36351,0.075155735,0.07691765,0.027618408,-0.04885254,0.028674318,-0.045666505,96.0
36352,0.0809741,0.15100098,-0.017486572,-0.04885254,0.028674318,-0.045666505,96.0
36353,0.0809741,0.15100098,-0.017486572,-0.0998291,0.045666505,-0.025488282,96.0
36354,-0.064554214,-0.004491806,-0.047729492,-0.0998291,0.045666505,-0.025488282,96.0
36355,-0.064554214,-0.004491806,-0.047729492,-0.052038576,0.007434082,-0.053100586,96.0
36356,-0.13145304,-0.18035126,-0.0037994385,-0.052038576,0.007434082,-0.053100586,96.0
36357,-0.13145304,-0.18035126,-0.0037994385,0.026550293,-0.014868164,-0.08814698,96.0
36358,-0.031309843,-0.15548706,0.034103394,0.026550293,-0.014868164,-0.08814698,96.0
36359,-0.031309843,-0.15548706,0.034103394,0.013806152,-0.0010620117,-0.08814698,96.0
36360,0.063868284,-0.012403488,-8.69751E-4,0.013806152,-0.0010620117,-0.08814698,96.0
36361,0.063868284,-0.012403488,-8.69751E-4,-0.027612304,0.0180542,-0.04885254,96.0
36362,0.01809907,0.03899002,-0.036636353,-0.027612304,0.0180542,-0.04885254,96.0
36363,0.01809907,0.03899002,-0.036636353,-0.045666505,-0.03079834,-0.023364259,96.0
36364,-0.03853607,-0.0151462555,-6.5612793E-4,-0.045666505,-0.03079834,-0.023364259,96.0
36365,-0.03853607,-0.0151462555,-6.5612793E-4,-0.052038576,-0.052038576,-0.033984374,96.0
36366,0.006610155,-0.058919907,0.034103394,-0.052038576,-0.052038576,-0.033984374,96.0
36367,0.006610155,-0.058919907,0.034103394,-0.04991455,-0.023364259,-0.039294433,96.0
36368,0.06930184,-0.07125664,0.005783081,-0.04991455,-0.023364259,-0.039294433,96.0
36369,0.06930184,-0.07125664,0.005783081,-0.053100586,0.007434082,-0.047790527,96.0
36370,0.079538345,-0.06813812,-0.026687622,-0.053100586,0.007434082,-0.047790527,96.0
36371,0.079538345,-0.06813812,-0.026687622,-0.04141846,0.019116212,-0.059472658,96.0
36372,0.07639933,-0.009344101,-0.013717651,-0.04141846,0.019116212,-0.059472658,96.0
36373,0.07639933,-0.009344101,-0.013717651,-0.06903076,0.019116212,-0.04141846,96.0
36374,0.09063625,0.0784626,-0.013061523,-0.06903076,0.019116212,-0.04141846,96.0
36375,0.09063625,0.0784626,-0.013061523,-0.15080567,0.027612304,-0.038232423,96.0
36376,0.056578636,0.048646927,-0.0655365,-0.15080567,0.027612304,-0.038232423,96.0
36377,0.056578636,0.048646927,-0.0655365,-0.16036378,0.0361084,-0.060534667,96.0
36378,-0.04137039,-0.10110855,-0.09786987,-0.16036378,0.0361084,-0.060534667,96.0
36379,-0.04137039,-0.10110855,-0.09786987,-0.081774905,0.02442627,-0.09239502,96.0
36380,-0.08205867,-0.16405487,-0.031066895,-0.081774905,0.02442627,-0.09239502,96.0
36381,-0.08205867,-0.16405487,-0.031066895,-0.06584473,0.0063720704,-0.13381349,96.0
36382,-0.028232336,-0.0677681,0.032562256,-0.06584473,0.0063720704,-0.13381349,96.0
36383,-0.028232336,-0.0677681,0.032562256,-0.13699952,0.0053100586,-0.1444336,96.0
36384,0.033090353,0.0116176605,0.007659912,-0.13699952,0.0053100586,-0.1444336,96.0
36385,0.033090353,0.0116176605,0.007659912,-0.18585205,0.013806152,-0.10938721,96.0
36386,0.051118374,-0.061994553,-0.01940918,-0.18585205,0.013806152,-0.10938721,96.0
36387,0.051118374,-0.061994553,-0.01940918,-0.17735596,0.010620117,-0.12319336,96.0
36388,0.06671262,-0.14742279,0.014633179,-0.17735596,0.010620117,-0.12319336,96.0
36389,0.06671262,-0.14742279,0.014633179,-0.16248779,0.029736329,-0.1274414,96.0
36390,0.032862425,-0.11195755,0.063690186,-0.16248779,0.029736329,-0.1274414,96.0
36391,0.032862425,-0.11195755,0.063690186,-0.18585205,0.04248047,-0.08814698,96.0
36392,-0.101896286,-0.025505066,0.06611633,-0.18585205,0.04248047,-0.08814698,96.0
36393,-0.101896286,-0.025505066,0.06611633,-0.24213867,-0.015930176,-0.081774905,96.0
36394,-0.2042954,0.022541046,0.06008911,-0.24213867,-0.015930176,-0.081774905,96.0
36395,-0.2042954,0.022541046,0.06008911,-0.24744873,-0.087084964,-0.090270996,96.0
36396,-0.092464685,0.043655396,0.078933716,-0.24744873,-0.087084964,-0.090270996,96.0
36397,-0.092464685,0.043655396,0.078933716,-0.24638672,-0.070092775,-0.10513916,96.0
36398,0.12422156,0.08159065,0.081222534,-0.24638672,-0.070092775,-0.10513916,96.0
36399,0.12422156,0.08159065,0.081222534,-0.28355715,0.014868164,-0.1274414,96.0
36400,0.12422156,0.08159065,0.081222534,-0.28355715,0.014868164,-0.1274414,96.0
36401,0.1604855,0.06960487,0.04925537,-0.28355715,0.014868164,-0.1274414,96.0
36402,0.1604855,0.06960487,0.04925537,-0.2899292,0.038232423,-0.15823975,96.0
36403,0.017792702,-0.024126053,0.0466156,-0.2899292,0.038232423,-0.15823975,96.0
36404,0.017792702,-0.024126053,0.0466156,-0.24957275,0.02442627,-0.2081543,96.0
36405,-0.071202755,-0.07334137,0.10043335,-0.24957275,0.02442627,-0.2081543,96.0
36406,-0.071202755,-0.07334137,0.10043335,-0.22408448,0.032922365,-0.24532472,96.0
36407,-0.03983569,0.02009964,0.1204834,-0.22408448,0.032922365,-0.24532472,96.0
36408,-0.03983569,0.02009964,0.1204834,-0.31435546,0.06690674,-0.25806886,96.0
36409,-0.044356346,0.08623314,0.05871582,-0.31435546,0.06690674,-0.25806886,96.0
