,accx,accy,accz,gyrox,gyroy,gyroz,heart rate
45187,type,type,type,type,type,type,type
45188,0.019431591,-0.046295166,-0.08015823,0.014868164,0.021240234,0.012744141,84.0
45189,0.024712801,-0.07312012,-0.109062195,0.014868164,0.021240234,0.012744141,84.0
45190,0.024712801,-0.07312012,-0.109062195,0.016992187,0.025488282,0.011682129,84.0
45191,0.0013375282,-0.022590637,-0.10419464,0.016992187,0.025488282,0.011682129,84.0
45192,0.0013375282,-0.022590637,-0.10419464,-0.0053100586,0.010620117,0.0021240234,84.0
45193,-0.010831833,0.03416443,-0.08528519,-0.0053100586,0.010620117,0.0021240234,84.0
45194,-0.010831833,0.03416443,-0.08528519,-0.053100586,-0.008496094,-0.0063720704,84.0
45195,-0.036692858,0.051231384,-0.07093811,-0.053100586,-0.008496094,-0.0063720704,84.0
45196,-0.036692858,0.051231384,-0.07093811,-0.10620117,-0.026550293,-0.012744141,84.0
45197,-0.037423134,-0.008872986,-0.060302734,-0.10620117,-0.026550293,-0.012744141,84.0
45198,-0.037423134,-0.008872986,-0.060302734,-0.118945315,-0.045666505,-0.0180542,84.0
45199,5.912781E-4,-0.08291626,-0.0419693,-0.118945315,-0.045666505,-0.0180542,84.0
45200,5.912781E-4,-0.08291626,-0.0419693,-0.09133301,-0.035046387,0.0,84.0
45201,0.016281128,-0.072273254,-0.024871826,-0.09133301,-0.035046387,0.0,84.0
45202,0.016281128,-0.072273254,-0.024871826,-0.09239502,-0.013806152,0.021240234,84.0
45203,0.0055909157,-0.03868103,-0.0103645325,-0.09239502,-0.013806152,0.021240234,84.0
45204,0.0055909157,-0.03868103,-0.0103645325,-0.06796875,-0.015930176,0.021240234,84.0
45205,-0.005060911,-0.027198792,0.001461029,-0.06796875,-0.015930176,0.021240234,84.0
45206,-0.005060911,-0.027198792,0.001461029,-0.027612304,-0.0031860352,0.015930176,84.0
45207,-0.013350487,0.011528015,0.011837006,-0.027612304,-0.0031860352,0.015930176,84.0
45208,-0.013350487,0.011528015,0.011837006,-0.02442627,-0.0031860352,0.011682129,84.0
45209,-0.03106618,0.06439972,0.030342102,-0.02442627,-0.0031860352,0.011682129,84.0
45210,-0.03106618,0.06439972,0.030342102,-0.047790527,-0.011682129,0.007434082,84.0
45211,-0.034655094,0.05104065,0.023990631,-0.047790527,-0.011682129,0.007434082,84.0
45212,-0.034655094,0.05104065,0.023990631,-0.045666505,-0.022302246,-0.0031860352,84.0
45213,-0.0030536652,-0.007217407,0.016078949,-0.045666505,-0.022302246,-0.0031860352,84.0
45214,-0.0030536652,-0.007217407,0.016078949,-0.027612304,-0.015930176,0.0,84.0
45215,0.034873962,-0.019615173,0.0072021484,-0.027612304,-0.015930176,0.0,84.0
45216,0.034873962,-0.019615173,0.0072021484,-0.04248047,-0.0063720704,0.004248047,84.0
45217,0.026007175,-0.004890442,-0.0056266785,-0.04248047,-0.0063720704,0.004248047,84.0
45218,0.026007175,-0.004890442,-0.0056266785,-0.060534667,-0.0180542,0.0053100586,84.0
45219,0.021306276,-0.034233093,-0.010189056,-0.060534667,-0.0180542,0.0053100586,84.0
45220,0.021306276,-0.034233093,-0.010189056,-0.06584473,-0.022302246,0.0063720704,84.0
45221,0.044486523,-0.09365845,-0.012828827,-0.06584473,-0.022302246,0.0063720704,84.0
45222,0.044486523,-0.09365845,-0.012828827,-0.050976563,-0.020178223,0.011682129,84.0
45223,0.06050372,-0.113601685,-0.034801483,-0.050976563,-0.020178223,0.011682129,84.0
45224,0.06050372,-0.113601685,-0.034801483,-0.028674318,-0.007434082,0.020178223,84.0
45225,0.038429737,-0.07323456,-0.07123947,-0.028674318,-0.007434082,0.020178223,84.0
45226,0.038429737,-0.07323456,-0.07123947,-0.03079834,-0.010620117,0.025488282,84.0
45227,-0.0076351166,-0.02470398,-0.07563019,-0.03079834,-0.010620117,0.025488282,84.0
45228,-0.0076351166,-0.02470398,-0.07563019,-0.04460449,-0.0180542,0.028674318,84.0
45229,-0.03690648,0.020187378,-0.053756714,-0.04460449,-0.0180542,0.028674318,84.0
45230,-0.03690648,0.020187378,-0.053756714,-0.070092775,-0.016992187,0.026550293,84.0
45231,-0.03394413,0.023620605,-0.037864685,-0.070092775,-0.016992187,0.026550293,84.0
45232,-0.03394413,0.023620605,-0.037864685,-0.07752686,-0.02442627,0.025488282,84.0
45233,-0.0168159,-0.03275299,-0.024662018,-0.07752686,-0.02442627,0.025488282,84.0
45234,-0.0168159,-0.03275299,-0.024662018,-0.057348635,-0.029736329,0.022302246,84.0
45235,-0.0031499863,-0.07511902,0.0018615723,-0.057348635,-0.029736329,0.022302246,84.0
45236,-0.0031499863,-0.07511902,0.0018615723,-0.046728518,-0.03186035,0.019116212,84.0
45237,0.00421834,-0.06703186,0.023426056,-0.046728518,-0.03186035,0.019116212,84.0
45238,0.00421834,-0.06703186,0.023426056,-0.04460449,-0.028674318,0.020178223,84.0
45239,-7.390976E-4,-0.030601501,0.018741608,-0.04460449,-0.028674318,0.020178223,84.0
45240,-7.390976E-4,-0.030601501,0.018741608,-0.040356446,-0.020178223,0.023364259,84.0
45241,-0.023540497,0.002128601,0.023071289,-0.040356446,-0.020178223,0.023364259,84.0
45242,-0.023540497,0.002128601,0.023071289,-0.03717041,-0.016992187,0.020178223,84.0
45243,-0.024972439,0.00945282,0.04689789,-0.03717041,-0.016992187,0.020178223,84.0
45244,-0.024972439,0.00945282,0.04689789,-0.032922365,-0.012744141,0.013806152,84.0
45245,-0.024972439,0.00945282,0.04689789,-0.032922365,-0.012744141,0.013806152,84.0
45246,0.00903821,0.006416321,0.040546417,-0.032922365,-0.012744141,0.013806152,84.0
45247,0.00903821,0.006416321,0.040546417,-0.022302246,-0.0053100586,0.012744141,84.0
45248,0.032486916,-4.119873E-4,-0.006286621,-0.022302246,-0.0053100586,0.012744141,84.0
45249,0.032486916,-4.119873E-4,-0.006286621,-0.015930176,0.0053100586,0.012744141,84.0
45250,0.032486916,-4.119873E-4,-0.006286621,-0.0053100586,0.009558106,0.010620117,84.0
45251,0.010632992,-0.0064468384,-0.04964447,-0.0053100586,0.009558106,0.010620117,84.0
45252,-0.019533157,0.024467468,-0.040229797,-0.0053100586,0.009558106,0.010620117,84.0
45253,-0.019533157,0.024467468,-0.040229797,-0.025488282,-0.0010620117,0.007434082,84.0
45254,-0.019862413,0.03792572,-0.022895813,-0.025488282,-0.0010620117,0.007434082,84.0
45255,-0.019862413,0.03792572,-0.022895813,-0.047790527,-0.007434082,-0.007434082,84.0
45256,-0.019722939,-0.013839722,-0.050056458,-0.047790527,-0.007434082,-0.007434082,84.0
45257,-0.019722939,-0.013839722,-0.050056458,-0.021240234,-0.007434082,-0.0063720704,84.0
45258,-0.019722939,-0.013839722,-0.050056458,0.010620117,-0.008496094,-0.007434082,84.0
45259,-0.02726531,-0.08492279,-0.07770538,0.010620117,-0.008496094,-0.007434082,84.0
45260,-0.019382954,-0.124313354,-0.07329559,0.010620117,-0.008496094,-0.007434082,84.0
45261,-0.019382954,-0.124313354,-0.07329559,0.015930176,-0.0180542,-0.008496094,84.0
45262,-0.0061557293,-0.11556244,-0.04863739,0.015930176,-0.0180542,-0.008496094,84.0
45263,-0.0061557293,-0.11556244,-0.04863739,-0.012744141,-0.026550293,-0.004248047,84.0
45264,0.0054392815,-0.11582947,-0.070064545,-0.012744141,-0.026550293,-0.004248047,84.0
45265,0.0054392815,-0.11582947,-0.070064545,-0.033984374,-0.03186035,0.026550293,84.0
45266,0.023736238,-0.21412659,-0.12558365,-0.033984374,-0.03186035,0.026550293,84.0
45267,0.023736238,-0.21412659,-0.12558365,0.033984374,-0.020178223,0.083898924,84.0
45268,0.005036354,-0.3041458,-0.1336441,0.033984374,-0.020178223,0.083898924,84.0
45269,0.005036354,-0.3041458,-0.1336441,0.07327881,0.0010620117,0.083898924,84.0
45270,-0.061644793,-0.19676971,-0.055648804,0.07327881,0.0010620117,0.083898924,84.0
45271,-0.061644793,-0.19676971,-0.055648804,0.012744141,-0.028674318,0.10301514,84.0
45272,-0.12734318,0.0015335083,0.014659882,0.012744141,-0.028674318,0.10301514,84.0
45273,-0.12734318,0.0015335083,0.014659882,-0.038232423,-0.0541626,0.1083252,84.0
45274,-0.15368128,0.12870789,0.022602081,-0.038232423,-0.0541626,0.1083252,84.0
45275,-0.15368128,0.12870789,0.022602081,-0.0541626,-0.0637207,0.098767094,84.0
45276,-0.15368128,0.12870789,0.022602081,-0.025488282,-0.06265869,0.081774905,84.0
45277,-0.12425113,0.16125488,0.014469147,-0.025488282,-0.06265869,0.081774905,84.0
45278,-0.068333864,0.14402008,0.02558899,-0.025488282,-0.06265869,0.081774905,84.0
45279,-0.068333864,0.14402008,0.02558899,0.0021240234,-0.059472658,0.060534667,84.0
45280,-0.014945507,0.1479187,0.07611084,0.0021240234,-0.059472658,0.060534667,84.0
45281,-0.014945507,0.1479187,0.07611084,-0.010620117,-0.06478272,0.04248047,84.0
45282,0.024445057,0.15026855,0.11895752,-0.010620117,-0.06478272,0.04248047,84.0
45283,0.024445057,0.15026855,0.11895752,-0.03186035,-0.059472658,0.035046387,84.0
45284,0.038879633,0.07537842,0.113082886,-0.03186035,-0.059472658,0.035046387,84.0
45285,0.038879633,0.07537842,0.113082886,-0.011682129,-0.047790527,0.022302246,84.0
45286,0.05291772,-0.044509888,0.10069656,-0.011682129,-0.047790527,0.022302246,84.0
45287,0.05291772,-0.044509888,0.10069656,0.0180542,-0.025488282,0.0180542,84.0
45288,0.055102825,-0.10697937,0.08595276,0.0180542,-0.025488282,0.0180542,84.0
45289,0.055102825,-0.10697937,0.08595276,0.02442627,-0.011682129,0.013806152,84.0
45290,0.027004719,-0.110313416,0.059165955,0.02442627,-0.011682129,0.013806152,84.0
45291,0.027004719,-0.110313416,0.059165955,0.0180542,-0.0053100586,0.015930176,84.0
45292,0.011984587,-0.10146332,0.04518509,0.0180542,-0.0053100586,0.015930176,84.0
45293,0.011984587,-0.10146332,0.04518509,0.015930176,-0.0021240234,0.0180542,84.0
45294,0.090605736,-0.09679413,0.07754135,0.015930176,-0.0021240234,0.0180542,84.0
45295,0.090605736,-0.09679413,0.07754135,-0.023364259,0.040356446,0.03717041,84.0
45296,0.12152028,-0.07172394,0.08130646,-0.023364259,0.040356446,0.03717041,84.0
45297,0.12152028,-0.07172394,0.08130646,-0.04460449,0.06265869,0.047790527,84.0
45298,0.23465514,0.016571045,0.17911911,-0.04460449,0.06265869,0.047790527,84.0
45299,0.23465514,0.016571045,0.17911911,-0.14549561,0.16354981,0.059472658,84.0
45300,0.25033402,0.06523132,0.21493912,-0.14549561,0.16354981,0.059472658,84.0
45301,0.25033402,0.06523132,0.21493912,-0.21134034,0.20390625,0.06903076,84.0
45302,0.29036736,0.16986847,0.27828598,-0.21134034,0.20390625,0.06903076,84.0
45303,0.29036736,0.16986847,0.27828598,-0.35683593,0.30373535,0.10301514,84.0
45304,0.3337953,0.35647583,0.26851654,-0.35683593,0.30373535,0.10301514,84.0
45305,0.3337953,0.35647583,0.26851654,-0.635083,0.45454103,0.17416993,84.0
45306,0.40941906,0.661232,0.1990776,-0.635083,0.45454103,0.17416993,84.0
45307,0.40941906,0.661232,0.1990776,-1.0301514,0.7349121,0.30161133,84.0
45308,0.44610214,0.9240265,0.09790039,-1.0301514,0.7349121,0.30161133,84.0
45309,0.44610214,0.9240265,0.09790039,-1.5600952,1.1140503,0.47365722,84.0
45310,0.4271698,0.83267975,-0.01694107,-1.5600952,1.1140503,0.47365722,84.0
45311,0.4271698,0.83267975,-0.01694107,-2.0879152,1.4772583,0.65419924,84.0
45312,0.2816527,0.4098053,-0.20539856,-2.0879152,1.4772583,0.65419924,84.0
45313,0.2816527,0.4098053,-0.20539856,-2.8833618,1.717273,1.0004151,84.0
45314,-0.04915309,0.10298157,-0.5177269,-2.8833618,1.717273,1.0004151,84.0
45315,-0.04915309,0.10298157,-0.5177269,-4.448767,1.8404664,1.3614991,84.0
45316,-0.50150514,0.06239319,-1.0826759,-4.448767,1.8404664,1.3614991,84.0
45317,-0.50150514,0.06239319,-1.0826759,-6.2786136,1.7576294,1.7300171,84.0
45318,-1.0344071,-0.1473999,-1.9235611,-6.2786136,1.7576294,1.7300171,84.0
45319,-1.0344071,-0.1473999,-1.9235611,-7.875879,1.7735596,2.3905885,84.0
45320,-1.6567738,-0.92136383,-2.7111282,-7.875879,1.7735596,2.3905885,84.0
45321,-1.6567738,-0.92136383,-2.7111282,-9.532618,1.7937378,2.792029,84.0
45322,-2.043156,-1.7834091,-3.2318535,-9.532618,1.7937378,2.792029,84.0
45323,-2.043156,-1.7834091,-3.2318535,-10.910047,1.896753,2.822827,84.0
45324,-2.1315098,-1.7848434,-3.9698677,-10.910047,1.896753,2.822827,84.0
45325,-2.1315098,-1.7848434,-3.9698677,-12.011353,2.0093262,1.8394043,84.0
45326,-2.0703933,-1.0508881,-4.68528,-12.011353,2.0093262,1.8394043,84.0
45327,-2.0703933,-1.0508881,-4.68528,-12.034717,1.9381714,1.5696534,84.0
45328,-1.859342,-0.07795715,-4.8160324,-12.034717,1.9381714,1.5696534,84.0
45329,-1.859342,-0.07795715,-4.8160324,-10.9355345,1.81073,1.4719483,84.0
45330,-1.6238627,0.49752045,-4.3574753,-10.9355345,1.81073,1.4719483,84.0
45331,-1.6238627,0.49752045,-4.3574753,-9.399866,1.4570801,1.2839721,84.0
45332,-1.1748471,0.5203171,-3.2462082,-9.399866,1.4570801,1.2839721,84.0
45333,-1.1748471,0.5203171,-3.2462082,-7.1961913,1.2011353,1.0078491,84.0
45334,-0.56690407,0.61953735,-2.0390663,-7.1961913,1.2011353,1.0078491,84.0
45335,-0.56690407,0.61953735,-2.0390663,-4.9287963,0.9781128,0.7614624,84.0
45336,-0.07702178,1.2277374,-1.2641029,-4.9287963,0.9781128,0.7614624,84.0
45337,-0.07702178,1.2277374,-1.2641029,-3.1924074,0.7678345,0.54906005,84.0
45338,0.2360022,2.1916656,-1.0243301,-3.1924074,0.7678345,0.54906005,84.0
45339,0.2360022,2.1916656,-1.0243301,-2.4521852,0.6573853,0.2357666,84.0
45340,0.43002492,2.8201447,-1.3194885,-2.4521852,0.6573853,0.2357666,84.0
45341,0.43002492,2.8201447,-1.3194885,-2.0072021,0.73809814,0.14974366,84.0
45342,0.47496477,2.5664215,-1.590416,-2.0072021,0.73809814,0.14974366,84.0
45343,0.47496477,2.5664215,-1.590416,-1.8670167,0.8315552,0.078588866,84.0
45344,0.2792028,1.6548004,-1.2443428,-1.8670167,0.8315552,0.078588866,84.0
45345,0.2792028,1.6548004,-1.2443428,-1.5484132,0.7827026,0.0063720704,84.0
45346,0.11030072,1.0898895,-0.60227203,-1.5484132,0.7827026,0.0063720704,84.0
45347,0.11030072,1.0898895,-0.60227203,-1.4358399,0.75296634,-0.007434082,84.0
45348,0.11030072,1.0898895,-0.60227203,-1.4358399,0.75296634,-0.007434082,84.0
45349,0.024544299,1.0925293,-0.3705635,-1.4358399,0.75296634,-0.007434082,84.0
45350,0.024544299,1.0925293,-0.3705635,-0.8358032,0.5320679,-0.04141846,84.0
45351,0.02642256,1.1818466,-0.49073792,-0.8358032,0.5320679,-0.04141846,84.0
45352,0.02642256,1.1818466,-0.49073792,-0.20603028,0.36851808,0.0063720704,84.0
45353,0.19965369,1.164177,-0.6214485,-0.20603028,0.36851808,0.0063720704,84.0
45354,0.19965369,1.164177,-0.6214485,0.14337158,0.25063476,0.05522461,84.0
45355,0.46771854,0.94747925,-0.34000397,0.14337158,0.25063476,0.05522461,84.0
45356,0.46771854,0.94747925,-0.34000397,-0.24638672,0.06690674,0.36002198,84.0
45357,0.56321293,0.61003876,-0.015522003,-0.24638672,0.06690674,0.36002198,84.0
45358,0.56321293,0.61003876,-0.015522003,0.41099855,0.0998291,0.15505372,84.0
45359,0.5895596,0.48937225,-0.028469086,0.41099855,0.0998291,0.15505372,84.0
45360,0.5895596,0.48937225,-0.028469086,0.24744873,0.08496094,0.06903076,84.0
45361,0.64324194,0.5566101,-0.06302261,0.24744873,0.08496094,0.06903076,84.0
45362,0.64324194,0.5566101,-0.06302261,0.23258057,0.06690674,0.16248779,84.0
45363,0.5658631,0.45599365,0.06682968,0.23258057,0.06690674,0.16248779,84.0
45364,0.5658631,0.45599365,0.06682968,-0.016992187,0.08496094,0.070092775,84.0
45365,0.4195484,0.29896545,0.22597313,-0.016992187,0.08496094,0.070092775,84.0
45366,0.4195484,0.29896545,0.22597313,-0.032922365,0.06159668,0.0637207,84.0
45367,0.29403716,0.23620605,0.2998829,-0.032922365,0.06159668,0.0637207,84.0
45368,0.29403716,0.23620605,0.2998829,-0.020178223,0.021240234,0.115759276,84.0
45369,0.2274661,0.19374847,0.15740967,-0.020178223,0.021240234,0.115759276,84.0
45370,0.2274661,0.19374847,0.15740967,-0.17735596,0.08496094,0.09451904,84.0
45371,0.08453637,-0.022148132,-0.061315536,-0.17735596,0.08496094,0.09451904,84.0
45372,0.08453637,-0.022148132,-0.061315536,-0.20072022,0.17735596,0.039294433,84.0
45373,0.0015890598,-0.16197968,-0.06923103,-0.20072022,0.17735596,0.039294433,84.0
45374,0.0015890598,-0.16197968,-0.06923103,-0.2814331,0.17841797,-0.0361084,84.0
45375,0.05265063,-0.12657166,-0.028114319,-0.2814331,0.17841797,-0.0361084,84.0
45376,0.05265063,-0.12657166,-0.028114319,-0.31966552,0.17735596,-0.022302246,84.0
45377,0.05151993,-0.021980286,-0.10884285,-0.31966552,0.17735596,-0.022302246,84.0
45378,0.05151993,-0.021980286,-0.10884285,-0.35895997,0.08283692,0.053100586,84.0
45379,0.050835073,0.0317688,-0.15174866,-0.35895997,0.08283692,0.053100586,84.0
45380,0.050835073,0.0317688,-0.15174866,-0.26762697,0.028674318,-0.010620117,84.0
45381,-0.012432575,0.075660706,-0.07662392,-0.26762697,0.028674318,-0.010620117,84.0
45382,-0.012432575,0.075660706,-0.07662392,-0.07540283,0.0722168,-0.03079834,84.0
45383,-0.1545384,0.08403015,0.043182373,-0.07540283,0.0722168,-0.03079834,84.0
45384,-0.1545384,0.08403015,0.043182373,0.09451904,0.118945315,-0.023364259,84.0
45385,-0.19675088,0.1015625,0.045143127,0.09451904,0.118945315,-0.023364259,84.0
45386,-0.19675088,0.1015625,0.045143127,0.23045655,0.19647217,-0.06265869,84.0
45387,-0.09902668,0.17510223,0.011665344,0.23045655,0.19647217,-0.06265869,84.0
45388,-0.09902668,0.17510223,0.011665344,0.28461915,0.15930176,-0.098767094,84.0
45389,0.017751276,0.18338776,-0.05606079,0.28461915,0.15930176,-0.098767094,84.0
45390,0.017751276,0.18338776,-0.05606079,0.6786255,0.118945315,0.032922365,84.0
45391,0.10249448,0.19689178,-0.16262054,0.6786255,0.118945315,0.032922365,84.0
45392,0.10249448,0.19689178,-0.16262054,0.6202149,0.060534667,0.0010620117,84.0
45393,0.24144381,-0.057052612,-0.16212654,0.6202149,0.060534667,0.0010620117,84.0
45394,0.24144381,-0.057052612,-0.16212654,0.49171144,-0.035046387,0.029736329,84.0
45395,0.30796218,-0.38425446,-0.038173676,0.49171144,-0.035046387,0.029736329,84.0
45396,0.30796218,-0.38425446,-0.038173676,0.6552612,-0.10089111,0.052038576,84.0
45397,0.307881,-0.408432,0.13793182,0.6552612,-0.10089111,0.052038576,84.0
45398,0.307881,-0.408432,0.13793182,0.815625,-0.16142578,0.10620117,84.0
45399,0.2581212,-0.37243652,0.4009819,0.815625,-0.16142578,0.10620117,84.0
45400,0.2581212,-0.37243652,0.4009819,0.97492677,-0.14124756,0.18797608,84.0
45401,0.13568395,-0.5083542,0.69586945,0.97492677,-0.14124756,0.18797608,84.0
45402,0.13568395,-0.5083542,0.69586945,1.1002442,-0.057348635,0.22939454,84.0
45403,0.033388495,-0.58719635,1.0305977,1.1002442,-0.057348635,0.22939454,84.0
45404,0.033388495,-0.58719635,1.0305977,0.76358646,0.095581055,0.20390625,84.0
45405,0.0072649717,-0.7417145,1.3198395,0.76358646,0.095581055,0.20390625,84.0
45406,0.0072649717,-0.7417145,1.3198395,0.68499756,0.3525879,0.28674316,84.0
45407,0.11223292,-0.9773178,1.2587509,0.68499756,0.3525879,0.28674316,84.0
45408,0.11223292,-0.9773178,1.2587509,0.7147339,0.35152587,0.30161133,84.0
45409,0.27145135,-0.9538727,0.8309021,0.7147339,0.35152587,0.30161133,84.0
45410,0.27145135,-0.9538727,0.8309021,0.5936646,0.5692383,0.29311523,84.0
45411,0.3006084,-0.64367676,0.5408058,0.5936646,0.5692383,0.29311523,84.0
45412,0.3006084,-0.64367676,0.5408058,0.4619751,0.725354,0.36745605,84.0
45413,0.28645837,-0.36273193,0.5425339,0.4619751,0.725354,0.36745605,84.0
45414,0.28645837,-0.36273193,0.5425339,0.53100586,0.7678345,0.20284425,84.0
45415,0.2613933,-0.37917328,0.64636993,0.53100586,0.7678345,0.20284425,84.0
45416,0.2613933,-0.37917328,0.64636993,0.47578126,0.78164065,0.16354981,84.0
45417,0.635262,-0.73096466,0.4994316,0.47578126,0.78164065,0.16354981,84.0
45418,0.635262,-0.73096466,0.4994316,0.63826907,-0.814563,0.07540283,84.0
45419,0.038055778,-0.6205597,0.031784058,0.63826907,-0.814563,0.07540283,84.0
45420,0.038055778,-0.6205597,0.031784058,0.4163086,1.083252,-0.06265869,84.0
45421,-1.01134,-0.24873352,-0.23488617,0.4163086,1.083252,-0.06265869,84.0
45422,-1.01134,-0.24873352,-0.23488617,0.2516968,0.7412842,-0.008496094,84.0
45423,-1.0054587,-0.19185638,0.08454132,0.2516968,0.7412842,-0.008496094,84.0
45424,-1.0054587,-0.19185638,0.08454132,0.26444092,0.8591675,0.07434082,84.0
45425,-0.8057464,-0.26707458,0.3046341,0.26444092,0.8591675,0.07434082,84.0
45426,-0.8057464,-0.26707458,0.3046341,0.0063720704,0.84536135,0.10301514,84.0
45427,-0.6128832,-0.39570618,0.2778511,0.0063720704,0.84536135,0.10301514,84.0
45428,-0.6128832,-0.39570618,0.2778511,-0.2262085,0.88040775,0.11682129,84.0
45429,-0.37735492,-0.3252716,0.4272499,-0.2262085,0.88040775,0.11682129,84.0
45430,-0.37735492,-0.3252716,0.4272499,0.021240234,0.59472656,0.11682129,84.0
45431,-0.034757495,-0.14115143,0.44337463,0.021240234,0.59472656,0.11682129,84.0
45432,-0.034757495,-0.14115143,0.44337463,-0.20284425,0.6573853,0.21558838,84.0
45433,0.45763105,-0.113967896,-0.11459732,-0.20284425,0.6573853,0.21558838,84.0
45434,0.45763105,-0.113967896,-0.11459732,-0.05628662,0.35683593,0.31966552,84.0
45435,0.80452037,-0.15715027,-0.5159569,-0.05628662,0.35683593,0.31966552,84.0
45436,0.80452037,-0.15715027,-0.5159569,0.25806886,0.45454103,0.39506838,84.0
45437,0.9161993,-0.09108734,-0.39113235,0.25806886,0.45454103,0.39506838,84.0
45438,0.9161993,-0.09108734,-0.39113235,0.0637207,0.58304447,0.16567384,84.0
45439,1.0019658,-0.067977905,-0.28121567,0.0637207,0.58304447,0.16567384,84.0
45440,1.0019658,-0.067977905,-0.28121567,0.26656494,0.57561034,0.03079834,84.0
45441,0.72378933,0.044197083,-0.23688507,0.26656494,0.57561034,0.03079834,84.0
45442,0.72378933,0.044197083,-0.23688507,0.7317261,0.67225343,0.20390625,84.0
45443,0.26650715,0.26091766,-0.023029327,0.7317261,0.67225343,0.20390625,84.0
45444,0.26650715,0.26091766,-0.023029327,0.5543701,0.6265869,0.33134767,84.0
45445,0.10604024,0.43701935,0.035129547,0.5543701,0.6265869,0.33134767,84.0
45446,0.10604024,0.43701935,0.035129547,0.32922363,0.5055176,0.44498292,84.0
45447,0.33622384,0.53076935,-0.18857193,0.32922363,0.5055176,0.44498292,84.0
45448,0.33622384,0.53076935,-0.18857193,-0.4694092,0.3717041,0.18372802,84.0
45449,0.7362765,0.25535583,-0.44258118,-0.4694092,0.3717041,0.18372802,84.0
45450,0.7362765,0.25535583,-0.44258118,-1.0630738,0.30267334,-0.1359375,84.0
45451,0.7362765,0.25535583,-0.44258118,-1.0630738,0.30267334,-0.1359375,84.0
45452,0.8873489,-0.19496918,-0.6068497,-1.0630738,0.30267334,-0.1359375,84.0
45453,0.8873489,-0.19496918,-0.6068497,-1.1490967,0.19753419,-0.62764895,84.0
45454,0.45808458,-0.19491577,-0.50845337,-1.1490967,0.19753419,-0.62764895,84.0
45455,0.45808458,-0.19491577,-0.50845337,-0.7965088,0.35789797,-0.64782715,84.0
45456,-0.14594698,0.14128113,0.10294342,-0.7965088,0.35789797,-0.64782715,84.0
45457,-0.14594698,0.14128113,0.10294342,-0.5586182,0.34727785,-0.6637573,84.0
45458,-0.26766086,0.21720886,0.890316,-0.5586182,0.34727785,-0.6637573,84.0
45459,-0.26766086,0.21720886,0.890316,-0.45454103,0.09239502,-0.5235718,84.0
45460,-0.05035925,-0.030578613,1.295002,-0.45454103,0.09239502,-0.5235718,84.0
45461,-0.05035925,-0.030578613,1.295002,-0.14761963,-0.21346436,-0.44179687,84.0
45462,0.14568663,-0.22400665,1.16288,-0.14761963,-0.21346436,-0.44179687,84.0
45463,0.14568663,-0.22400665,1.16288,0.13487549,-0.22939454,-0.3058594,84.0
45464,0.23767972,-0.11023712,0.68886185,0.13487549,-0.22939454,-0.3058594,84.0
45465,0.23767972,-0.11023712,0.68886185,0.36745605,-0.18903808,-0.24638672,84.0
45466,0.24336648,0.16387177,0.2193985,0.36745605,-0.18903808,-0.24638672,84.0
45467,0.24336648,0.16387177,0.2193985,0.6425171,0.1731079,-0.29311523,84.0
45468,0.32698083,0.42768097,-0.10692978,0.6425171,0.1731079,-0.29311523,84.0
45469,0.32698083,0.42768097,-0.10692978,0.7858887,0.2262085,-0.28355715,84.0
45470,0.4447999,0.69690704,-0.24429703,0.7858887,0.2262085,-0.28355715,84.0
45471,0.4447999,0.69690704,-0.24429703,0.72216797,0.36745605,-0.2442627,84.0
45472,0.3578298,0.81007385,-0.07682037,0.72216797,0.36745605,-0.2442627,84.0
45473,0.3578298,0.81007385,-0.07682037,0.46516114,0.4619751,-0.18372802,84.0
45474,0.11847806,0.69098663,0.30307007,0.46516114,0.4619751,-0.18372802,84.0
45475,0.11847806,0.69098663,0.30307007,0.0053100586,0.33240968,-0.1996582,84.0
45476,-0.15147018,0.48033142,0.5947151,0.0053100586,0.33240968,-0.1996582,84.0
45477,-0.15147018,0.48033142,0.5947151,-0.3695801,0.24638672,-0.22302246,84.0
45478,-0.32791448,0.15400696,0.68813705,-0.3695801,0.24638672,-0.22302246,84.0
45479,-0.32791448,0.15400696,0.68813705,-0.46834716,0.27506104,-0.19222413,84.0
45480,-0.3490746,-0.0947876,0.6155853,-0.46834716,0.27506104,-0.19222413,84.0
45481,-0.3490746,-0.0947876,0.6155853,-0.41206056,0.28674316,-0.14974366,84.0
45482,-0.29540968,-0.15854645,0.49455643,-0.41206056,0.28674316,-0.14974366,84.0
45483,-0.29540968,-0.15854645,0.49455643,-0.08071289,0.44923097,-0.02442627,84.0
45484,-0.17751431,-0.119400024,0.46394348,-0.08071289,0.44923097,-0.02442627,84.0
45485,-0.17751431,-0.119400024,0.46394348,0.43861085,0.5766724,-0.039294433,84.0
45486,0.12423611,0.027938843,0.58004,0.43861085,0.5766724,-0.039294433,84.0
45487,0.12423611,0.027938843,0.58004,0.725354,0.51932377,0.1539917,84.0
45488,0.34737468,0.04586029,0.6905823,0.725354,0.51932377,0.1539917,84.0
45489,0.34737468,0.04586029,0.6905823,0.9451904,0.60322267,0.27399904,84.0
45490,0.35813665,-0.15848541,0.6676254,0.9451904,0.60322267,0.27399904,84.0
45491,0.35813665,-0.15848541,0.6676254,0.83049315,0.7051758,0.21983643,84.0
45492,0.42461967,-0.3584671,0.50149536,0.83049315,0.7051758,0.21983643,84.0
45493,0.42461967,-0.3584671,0.50149536,0.49489745,0.75509036,0.078588866,84.0
45494,0.57300854,-0.48121643,0.30781174,0.49489745,0.75509036,0.078588866,84.0
45495,0.57300854,-0.48121643,0.30781174,0.1178833,0.7720825,-0.050976563,84.0
45496,0.5628624,-0.5722809,0.28191757,0.1178833,0.7720825,-0.050976563,84.0
45497,0.5628624,-0.5722809,0.28191757,-0.06159668,0.81031495,-0.08496094,84.0
45498,0.31652522,-0.621109,0.47364426,-0.06159668,0.81031495,-0.08496094,84.0
45499,0.31652522,-0.621109,0.47364426,-0.121069334,0.8400513,-0.08602295,84.0
45500,0.047128677,-0.5671997,0.72751236,-0.121069334,0.8400513,-0.08602295,84.0
45501,0.047128677,-0.5671997,0.72751236,-0.1720459,0.815625,-0.0541626,84.0
45502,-0.078825474,-0.4400406,0.86153793,-0.1720459,0.815625,-0.0541626,84.0
45503,-0.078825474,-0.4400406,0.86153793,-0.107263185,0.8581055,-0.060534667,84.0
45504,-0.03662014,-0.2599411,0.8182945,-0.107263185,0.8581055,-0.060534667,84.0
45505,-0.03662014,-0.2599411,0.8182945,-0.16461182,0.99935305,-0.06690674,84.0
45506,0.11514974,-0.12019348,0.6220436,-0.16461182,0.99935305,-0.06690674,84.0
45507,0.11514974,-0.12019348,0.6220436,-0.37595215,1.173523,-0.046728518,84.0
45508,0.27118468,-0.041137695,0.4513321,-0.37595215,1.173523,-0.046728518,84.0
45509,0.27118468,-0.041137695,0.4513321,-0.29205322,1.26698,-0.013806152,84.0
45510,0.37637162,-0.022880554,0.56134796,-0.29205322,1.26698,-0.013806152,84.0
45511,0.37637162,-0.022880554,0.56134796,0.118945315,1.268042,0.07434082,84.0
45512,0.425133,-0.12155151,0.8368225,0.118945315,1.268042,0.07434082,84.0
45513,0.425133,-0.12155151,0.8368225,0.58198243,1.2266235,0.20921631,84.0
45514,0.42262578,-0.21689606,0.7964592,0.58198243,1.2266235,0.20921631,84.0
45515,0.42262578,-0.21689606,0.7964592,1.1905152,1.1066163,0.26975098,84.0
45516,0.3421657,-0.15072632,0.5530968,1.1905152,1.1066163,0.26975098,84.0
45517,0.3421657,-0.15072632,0.5530968,1.2584839,0.9547486,0.33771974,84.0
45518,0.27127886,0.009902954,0.49053574,1.2584839,0.9547486,0.33771974,84.0
45519,0.27127886,0.009902954,0.49053574,0.85385746,0.83049315,0.3706421,84.0
45520,0.38620043,0.09013367,0.4534378,0.85385746,0.83049315,0.3706421,84.0
45521,0.38620043,0.09013367,0.4534378,0.3993164,0.76464844,0.38551027,84.0
45522,0.6171634,0.14791107,0.3808174,0.3993164,0.76464844,0.38551027,84.0
45523,0.6171634,0.14791107,0.3808174,0.11044922,0.76358646,0.41099855,84.0
45524,0.63943386,0.16976929,0.61133194,0.11044922,0.76358646,0.41099855,84.0
45525,0.63943386,0.16976929,0.61133194,0.081774905,0.7678345,0.4630371,84.0
45526,0.39722824,0.014266968,1.1454506,0.081774905,0.7678345,0.4630371,84.0
45527,0.39722824,0.014266968,1.1454506,0.090270996,0.75509036,0.5033936,84.0
45528,0.16973591,-0.2545166,1.5355606,0.090270996,0.75509036,0.5033936,84.0
45529,0.16973591,-0.2545166,1.5355606,-0.07646485,0.7126099,0.5533081,84.0
45530,0.04362583,-0.37773132,1.5986862,-0.07646485,0.7126099,0.5533081,84.0
45531,0.04362583,-0.37773132,1.5986862,-0.16779785,0.65419924,0.5936646,84.0
45532,-0.20223331,-0.3039093,1.5809021,-0.16779785,0.65419924,0.5936646,84.0
45533,-0.20223331,-0.3039093,1.5809021,-0.0180542,0.6605713,0.542688,84.0
45534,-0.522419,-0.17275238,1.5984993,-0.0180542,0.6605713,0.542688,84.0
45535,-0.522419,-0.17275238,1.5984993,0.11151123,0.6977417,0.46728516,84.0
45536,-0.60827947,-0.047599792,1.4242096,0.11151123,0.6977417,0.46728516,84.0
45537,-0.60827947,-0.047599792,1.4242096,0.11151123,0.7869507,0.38657227,84.0
45538,-0.40027094,-0.06732941,1.0410156,0.11151123,0.7869507,0.38657227,84.0
45539,-0.40027094,-0.06732941,1.0410156,0.027612304,0.81668705,0.30479738,84.0
45540,-0.10128355,-0.17462921,0.73724365,0.027612304,0.81668705,0.30479738,84.0
45541,-0.10128355,-0.17462921,0.73724365,-0.07752686,0.7423462,0.23364258,84.0
45542,0.15244484,-0.2867508,0.5406494,-0.07752686,0.7423462,0.23364258,84.0
45543,0.15244484,-0.2867508,0.5406494,-0.31223145,0.6488892,0.16567384,84.0
45544,0.22888947,-0.4724884,0.46599197,-0.31223145,0.6488892,0.16567384,84.0
45545,0.22888947,-0.4724884,0.46599197,-0.541626,0.5479981,0.15930176,84.0
45546,0.07610464,-0.5949249,0.5771179,-0.541626,0.5479981,0.15930176,84.0
45547,0.07610464,-0.5949249,0.5771179,-0.54587406,0.4885254,0.22833252,84.0
45548,-0.2198658,-0.6021652,0.61083984,-0.54587406,0.4885254,0.22833252,84.0
45549,-0.2198658,-0.6021652,0.61083984,-0.18903808,0.4991455,0.25700685,84.0
45550,-0.59011364,-0.6405945,0.55784607,-0.18903808,0.4991455,0.25700685,84.0
45551,-0.59011364,-0.6405945,0.55784607,0.5341919,0.61702883,0.08283692,84.0
45552,-0.8412802,-0.29270935,0.5720558,0.5341919,0.61702883,0.08283692,84.0
45553,-0.8412802,-0.29270935,0.5720558,0.9876709,0.91120607,0.0063720704,84.0
45554,-0.71029234,0.4017334,0.49692535,0.9876709,0.91120607,0.0063720704,84.0
45555,-0.71029234,0.4017334,0.49692535,1.5218629,0.6435791,-0.11363526,84.0
45556,-0.37384915,1.1624603,0.4118843,1.5218629,0.6435791,-0.11363526,84.0
45557,-0.37384915,1.1624603,0.4118843,1.0110352,0.22514649,0.1901001,84.0
45558,-0.18395495,1.2427139,0.36607742,1.0110352,0.22514649,0.1901001,84.0
45559,-0.18395495,1.2427139,0.36607742,0.4364868,-0.039294433,0.29099122,84.0
45560,0.04242325,0.48241425,0.12960434,0.4364868,-0.039294433,0.29099122,84.0
45561,0.04242325,0.48241425,0.12960434,0.19753419,-0.48321533,0.52888185,84.0
45562,0.20071101,-0.13169861,-0.21948242,0.19753419,-0.48321533,0.52888185,84.0
45563,0.20071101,-0.13169861,-0.21948242,-0.14018555,-0.6149048,0.5787964,84.0
45564,-0.003530264,-0.6980591,-0.43037033,-0.14018555,-0.6149048,0.5787964,84.0
45565,-0.003530264,-0.6980591,-0.43037033,0.64782715,-0.14230958,0.39294434,84.0
45566,-0.0661788,-0.6649399,-5.0735474E-4,0.64782715,-0.14230958,0.39294434,84.0
45567,-0.0661788,-0.6649399,-5.0735474E-4,1.9317993,0.18160401,0.30373535,84.0
45568,0.30864143,-0.18057251,1.0826874,1.9317993,0.18160401,0.30373535,84.0
45569,0.30864143,-0.18057251,1.0826874,2.6539674,-0.32816163,0.4248047,84.0
45570,0.50179577,0.35947418,1.5377083,2.6539674,-0.32816163,0.4248047,84.0
45571,0.50179577,0.35947418,1.5377083,1.7820557,-0.7434082,0.40993652,84.0
45572,0.13042831,0.37049866,0.87677383,1.7820557,-0.7434082,0.40993652,84.0
45573,0.13042831,0.37049866,0.87677383,0.06265869,-0.5766724,0.26975098,84.0
45574,-0.5104766,-0.2548828,-0.15410995,0.06265869,-0.5766724,0.26975098,84.0
45575,-0.5104766,-0.2548828,-0.15410995,-0.23151855,-0.21877442,0.06265869,84.0
45576,-0.5104766,-0.2548828,-0.15410995,-0.23151855,-0.21877442,0.06265869,85.0
45577,-0.91814685,-0.49475098,-0.7831383,-0.23151855,-0.21877442,0.06265869,85.0
45578,-0.91814685,-0.49475098,-0.7831383,-0.4970215,-0.058410645,0.052038576,85.0
45579,-0.9056113,-0.31414795,-0.84955597,-0.4970215,-0.058410645,0.052038576,85.0
45580,-0.9056113,-0.31414795,-0.84955597,-0.52038574,0.035046387,0.20284425,85.0
45581,-0.6040056,-0.34947205,-0.5803757,-0.52038574,0.035046387,0.20284425,85.0
45582,-0.6040056,-0.34947205,-0.5803757,-0.36745605,-0.07327881,0.18479005,85.0
45583,-0.22688127,-0.57240295,-0.22138214,-0.36745605,-0.07327881,0.18479005,85.0
45584,-0.22688127,-0.57240295,-0.22138214,-0.26125488,-0.1985962,0.18479005,85.0
45585,0.099757195,-0.73420715,0.021980286,-0.26125488,-0.1985962,0.18479005,85.0
45586,0.099757195,-0.73420715,0.021980286,-0.29523927,-0.31010744,0.32391357,85.0
45587,0.3377769,-0.8645401,-0.023872375,-0.29523927,-0.31010744,0.32391357,85.0
45588,0.3377769,-0.8645401,-0.023872375,-0.46409914,-0.28355715,0.41206056,85.0
45589,0.41919613,-0.8962555,-0.09768677,-0.46409914,-0.28355715,0.41206056,85.0
45590,0.41919613,-0.8962555,-0.09768677,-0.28780517,-0.36108398,0.3058594,85.0
45591,0.31523967,-0.6168213,0.034194946,-0.28780517,-0.36108398,0.3058594,85.0
45592,0.31523967,-0.6168213,0.034194946,0.007434082,-0.44498292,0.1709839,85.0
45593,0.09634447,-0.10347748,0.11579895,0.007434082,-0.44498292,0.1709839,85.0
45594,0.09634447,-0.10347748,0.11579895,0.15186767,-0.37701416,0.047790527,85.0
45595,-0.039123297,0.20689392,0.08533859,0.15186767,-0.37701416,0.047790527,85.0
45596,-0.039123297,0.20689392,0.08533859,-0.64995116,-0.3069214,0.0637207,85.0
45597,-0.06276846,0.072128296,0.06362152,-0.64995116,-0.3069214,0.0637207,85.0
45598,-0.06276846,0.072128296,0.06362152,-0.57242435,-0.33665773,0.04460449,85.0
45599,-0.032197237,-0.16407776,0.019500732,-0.57242435,-0.33665773,0.04460449,85.0
45600,-0.032197237,-0.16407776,0.019500732,0.28461915,-0.5256958,0.032922365,85.0
45601,-0.046241283,-0.06713867,0.005016327,0.28461915,-0.5256958,0.032922365,85.0
45602,-0.046241283,-0.06713867,0.005016327,1.9264892,-0.68924564,0.14655761,85.0
45603,-0.16152906,-0.23936462,-0.19442368,1.9264892,-0.68924564,0.14655761,85.0
45604,-0.16152906,-0.23936462,-0.19442368,3.172229,-1.0142212,0.53525394,85.0
45605,-0.09880328,-0.83890533,-0.7840271,3.172229,-1.0142212,0.53525394,85.0
45606,-0.09880328,-0.83890533,-0.7840271,3.538623,-1.0588257,0.38763428,85.0
45607,0.16684365,-0.92466736,-1.4195175,3.538623,-1.0588257,0.38763428,85.0
45608,0.16684365,-0.92466736,-1.4195175,3.2412598,-0.6956177,0.14337158,85.0
45609,0.17047453,0.10949707,-1.4380188,3.2412598,-0.6956177,0.14337158,85.0
45610,0.17047453,0.10949707,-1.4380188,2.3226197,-0.50445557,0.25063476,85.0
45611,-0.08905983,1.2748413,-0.35157394,2.3226197,-0.50445557,0.25063476,85.0
45612,-0.08905983,1.2748413,-0.35157394,1.3147706,-0.42905274,0.4364868,85.0
45613,-0.27563024,1.2496872,1.1817627,1.3147706,-0.42905274,0.4364868,85.0
45614,-0.27563024,1.2496872,1.1817627,1.5813354,-0.4991455,0.38975832,85.0
45615,-0.23103881,0.50940704,1.7633896,1.5813354,-0.4991455,0.38975832,85.0
45616,-0.23103881,0.50940704,1.7633896,1.3806152,-0.4258667,0.17735596,85.0
45617,-0.09036088,-0.055343628,1.3779831,1.3806152,-0.4258667,0.17735596,85.0
45618,-0.09036088,-0.055343628,1.3779831,0.20709229,0.0180542,-0.027612304,85.0
45619,-0.09561634,-0.42757416,0.8146057,0.20709229,0.0180542,-0.027612304,85.0
45620,-0.09561634,-0.42757416,0.8146057,-1.1076783,0.36851808,-0.121069334,85.0
45621,-0.1970253,-0.8145828,0.3340454,-1.1076783,0.36851808,-0.121069334,85.0
45622,-0.1970253,-0.8145828,0.3340454,-1.7693115,0.53950197,-0.019116212,85.0
45623,-0.26327205,-1.2370911,-0.10057068,-1.7693115,0.53950197,-0.019116212,85.0
45624,-0.26327205,-1.2370911,-0.10057068,-1.7576294,0.53950197,0.03717041,85.0
45625,-0.2667091,-1.5924683,-0.42694092,-1.7576294,0.53950197,0.03717041,85.0
45626,-0.2667091,-1.5924683,-0.42694092,-1.4273437,0.59047854,0.18797608,85.0
45627,-0.15030575,-1.9099884,-0.59392166,-1.4273437,0.59047854,0.18797608,85.0
45628,-0.15030575,-1.9099884,-0.59392166,-1.1968873,0.58623046,0.4088745,85.0
45629,0.15763617,-2.7179413,-0.777359,-1.1968873,0.58623046,0.4088745,85.0
45630,0.15763617,-2.7179413,-0.777359,-0.45772704,0.5033936,0.8421753,85.0
45631,0.60921454,-3.7585068,-0.57102966,-0.45772704,0.5033936,0.8421753,85.0
45632,0.60921454,-3.7585068,-0.57102966,0.5065796,0.15717773,1.6588624,85.0
45633,0.8810239,-3.8804169,0.09793854,0.5065796,0.15717773,1.6588624,85.0
45634,0.8810239,-3.8804169,0.09793854,1.088562,-0.23789063,2.6019287,85.0
45635,0.7926364,-3.3113403,0.1665802,1.088562,-0.23789063,2.6019287,85.0
45636,0.7926364,-3.3113403,0.1665802,2.0295045,-0.5299439,3.3835695,85.0
45637,0.48392606,-2.651352,-0.4256096,2.0295045,-0.5299439,3.3835695,85.0
45638,0.48392606,-2.651352,-0.4256096,3.3835695,-0.95368654,3.7892578,85.0
45639,-0.110955,-0.58880615,-0.8147812,3.3835695,-0.95368654,3.7892578,85.0
45640,-0.110955,-0.58880615,-0.8147812,4.495496,-1.0205933,3.8519166,85.0
45641,-1.8004706,3.9571533,-0.803669,4.495496,-1.0205933,3.8519166,85.0
45642,-1.8004706,3.9571533,-0.803669,4.6601076,-0.5957886,3.346399,85.0
45643,-4.505452,8.86705,-0.59999084,4.6601076,-0.5957886,3.346399,85.0
45644,-4.505452,8.86705,-0.59999084,3.8434205,-0.48427734,2.1357057,85.0
45645,-6.0608683,9.507622,0.024646759,3.8434205,-0.48427734,2.1357057,85.0
45646,-6.0608683,9.507622,0.024646759,3.1764772,-1.6684204,0.8889038,85.0
45647,-4.228663,4.4706726,1.1501732,3.1764772,-1.6684204,0.8889038,85.0
45648,-4.228663,4.4706726,1.1501732,3.8168702,-2.4904175,0.38232422,85.0
45649,0.017704487,-1.3943481,2.5725327,3.8168702,-2.4904175,0.38232422,85.0
45650,0.017704487,-1.3943481,2.5725327,2.7484863,-2.4203248,0.17416993,85.0
45651,3.346964,-4.389,2.8422546,2.7484863,-2.4203248,0.17416993,85.0
45652,3.346964,-4.389,2.8422546,1.6068238,-1.4177856,0.52888185,85.0
45653,4.6422076,-5.2570724,1.5988884,1.6068238,-1.4177856,0.52888185,85.0
45654,4.6422076,-5.2570724,1.5988884,0.89421386,-0.05522461,1.2510499,85.0
45655,4.2641077,-5.1821747,0.87557983,0.89421386,-0.05522461,1.2510499,85.0
45656,4.2641077,-5.1821747,0.87557983,1.2499878,1.1809571,2.1378295,85.0
45657,1.934504,-2.5908356,0.58353424,1.2499878,1.1809571,2.1378295,85.0
45658,1.934504,-2.5908356,0.58353424,1.4082276,1.450708,1.8595825,85.0
45659,-1.4952557,2.555626,-0.46068954,1.4082276,1.450708,1.8595825,85.0
45660,-1.4952557,2.555626,-0.46068954,1.09281,0.9791748,1.2956543,85.0
45661,-3.707899,6.0885315,-1.281723,1.09281,0.9791748,1.2956543,85.0
45662,-3.707899,6.0885315,-1.281723,0.90058595,-0.026550293,0.39294434,85.0
45663,-3.3297837,4.5614853,-0.43658447,0.90058595,-0.026550293,0.39294434,85.0
45664,-3.3297837,4.5614853,-0.43658447,1.6238159,-0.85598147,0.30161133,85.0
45665,-1.2711023,-0.015640259,1.096447,1.6238159,-0.85598147,0.30161133,85.0
45666,-1.2711023,-0.015640259,1.096447,2.72937,-1.2988404,0.632959,85.0
45667,0.5497685,-2.4988022,1.422493,2.72937,-1.2988404,0.632959,85.0
45668,0.5497685,-2.4988022,1.422493,3.2317016,-1.0577637,1.0439576,85.0
45669,1.275032,-1.9915466,0.83073044,3.2317016,-1.0577637,1.0439576,85.0
45670,1.275032,-1.9915466,0.83073044,2.7113159,-0.544812,1.3816773,85.0
45671,0.7383851,-0.8059616,0.62078476,2.7113159,-0.544812,1.3816773,85.0
45672,0.7383851,-0.8059616,0.62078476,1.9094971,-0.0998291,1.4719483,85.0
45673,-0.73051995,0.46824646,0.9543457,1.9094971,-0.0998291,1.4719483,85.0
45674,-0.73051995,0.46824646,0.9543457,1.5579712,0.033984374,1.1416626,85.0
45675,-1.6826704,2.0576553,1.1591644,1.5579712,0.033984374,1.1416626,85.0
45676,-1.6826704,2.0576553,1.1591644,0.2814331,-0.17523193,0.6064087,85.0
45677,-1.3795958,2.7335968,0.9608383,0.2814331,-0.17523193,0.6064087,85.0
45678,-1.3795958,2.7335968,0.9608383,-0.6180908,-0.45666504,0.19647217,85.0
45679,-0.46030506,2.1393204,0.55664825,-0.6180908,-0.45666504,0.19647217,85.0
45680,-0.46030506,2.1393204,0.55664825,-0.9303223,-0.78376466,-0.16248779,85.0
45681,0.37763,1.0004425,0.16187286,-0.9303223,-0.78376466,-0.16248779,85.0
45682,0.37763,1.0004425,0.16187286,-0.97280276,-1.0768799,-0.4248047,85.0
45683,0.8119795,-0.1500473,-0.037677765,-0.97280276,-1.0768799,-0.4248047,85.0
45684,0.8119795,-0.1500473,-0.037677765,-0.98236084,-1.3678712,-0.6244629,85.0
45685,0.93420273,-0.50652313,-0.0045928955,-0.98236084,-1.3678712,-0.6244629,85.0
45686,0.93420273,-0.50652313,-0.0045928955,-1.4188477,-1.4963745,-0.74022216,85.0
45687,1.0705311,0.093673706,0.120456696,-1.4188477,-1.4963745,-0.74022216,85.0
45688,1.0705311,0.093673706,0.120456696,-2.4171388,-1.3678712,-0.8262451,85.0
45689,1.4246135,0.75746155,0.14359283,-2.4171388,-1.3678712,-0.8262451,85.0
45690,1.4246135,0.75746155,0.14359283,-3.6894288,-1.1809571,-1.2223755,85.0
45691,1.8183894,0.57084656,-0.056228638,-3.6894288,-1.1809571,-1.2223755,85.0
45692,1.8183894,0.57084656,-0.056228638,-1.7894897,-1.2924683,-1.7926759,85.0
45693,1.9012448,-0.58374023,-0.18747711,-1.7894897,-1.2924683,-1.7926759,85.0
45694,1.9012448,-0.58374023,-0.18747711,0.69349366,-1.0248413,-1.174585,85.0
45695,1.4914427,-1.0042038,0.017227173,0.69349366,-1.0248413,-1.174585,85.0
45696,1.4914427,-1.0042038,0.017227173,0.7869507,-0.85385746,-1.4570801,85.0
45697,1.0053,-0.6058655,0.361351,0.7869507,-0.85385746,-1.4570801,85.0
45698,1.0053,-0.6058655,0.361351,0.727478,-0.6903076,-1.6716064,85.0
45699,0.7067914,-0.28713226,0.48979187,0.727478,-0.6903076,-1.6716064,85.0
45700,0.7067914,-0.28713226,0.48979187,0.46622315,-0.57242435,-1.8765748,85.0
45701,0.33076525,-0.24329376,0.5126343,0.46622315,-0.57242435,-1.8765748,85.0
45702,0.33076525,-0.24329376,0.5126343,0.16036378,-0.4704712,-2.0422485,85.0
45703,-0.050414562,-0.530632,0.61595154,0.16036378,-0.4704712,-2.0422485,85.0
45704,-0.050414562,-0.530632,0.61595154,0.06159668,-0.4980835,-2.2057984,85.0
45705,-0.23249483,-0.6758728,0.8094864,0.06159668,-0.4980835,-2.2057984,85.0
45706,-0.23249483,-0.6758728,0.8094864,-0.029736329,-0.45772704,-2.2004883,85.0
45707,-0.32421613,-0.24247742,0.86260223,-0.029736329,-0.45772704,-2.2004883,85.0
45708,-0.32421613,-0.24247742,0.86260223,-0.23151855,-0.2803711,-2.0337524,85.0
45709,-0.5500834,0.64980316,0.5103569,-0.23151855,-0.2803711,-2.0337524,85.0
45710,-0.5500834,0.64980316,0.5103569,-0.46516114,-0.16992188,-1.893567,85.0
45711,-0.8328036,1.4127731,-0.20618057,-0.46516114,-0.16992188,-1.893567,85.0
45712,-0.8328036,1.4127731,-0.20618057,-0.544812,-0.2527588,-1.8946289,85.0
45713,-0.7429763,1.5434875,-0.9330139,-0.544812,-0.2527588,-1.8946289,85.0
45714,-0.7429763,1.5434875,-0.9330139,-0.40462646,-0.44073486,-1.9519776,85.0
45715,-0.13988876,1.1673813,-1.1992683,-0.40462646,-0.44073486,-1.9519776,85.0
45716,-0.13988876,1.1673813,-1.1992683,-0.33665773,-0.3334717,-1.8733886,85.0
45717,0.42584538,0.6700897,-0.974308,-0.33665773,-0.3334717,-1.8733886,85.0
45718,0.42584538,0.6700897,-0.974308,-0.48215333,-0.08496094,-1.6556762,85.0
45719,0.29093266,0.2191925,-0.6658592,-0.48215333,-0.08496094,-1.6556762,85.0
45720,0.29093266,0.2191925,-0.6658592,-0.58623046,0.1178833,-1.4921265,85.0
45721,0.29093266,0.2191925,-0.6658592,-0.58623046,0.1178833,-1.4921265,86.0
45722,-0.3780694,-0.09133148,-0.44360352,-0.58623046,0.1178833,-1.4921265,86.0
45723,-0.3780694,-0.09133148,-0.44360352,-0.6488892,0.10407715,-1.3731812,86.0
45724,-0.8335346,-0.14370728,-0.28586578,-0.6488892,0.10407715,-1.3731812,86.0
45725,-0.8335346,-0.14370728,-0.28586578,-0.65844727,0.083898924,-1.2329956,86.0
45726,-0.7852359,0.014915466,-0.25437927,-0.65844727,0.083898924,-1.2329956,86.0
45727,-0.7852359,0.014915466,-0.25437927,-0.60959476,0.14337158,-1.0227174,86.0
45728,-0.6216091,0.21896362,-0.41776276,-0.60959476,0.14337158,-1.0227174,86.0
45729,-0.6216091,0.21896362,-0.41776276,-0.46409914,0.21452637,-0.7593384,86.0
45730,-0.6173068,0.38976288,-0.6149101,-0.46409914,0.21452637,-0.7593384,86.0
45731,-0.6173068,0.38976288,-0.6149101,-0.34940186,0.2081543,-0.50020754,86.0
45732,-0.57861114,0.6089783,-0.53881454,-0.34940186,0.2081543,-0.50020754,86.0
45733,-0.57861114,0.6089783,-0.53881454,-0.2538208,0.23364258,-0.23682861,86.0
45734,-0.35265946,0.89821625,-0.2207489,-0.2538208,0.23364258,-0.23682861,86.0
45735,-0.35265946,0.89821625,-0.2207489,-0.19434814,0.24957275,-0.014868164,86.0
45736,-0.07005483,1.2239838,-0.0068855286,-0.19434814,0.24957275,-0.014868164,86.0
45737,-0.07005483,1.2239838,-0.0068855286,-0.17947999,0.20390625,0.124255374,86.0
45738,0.17993027,1.4818344,-0.027469635,-0.17947999,0.20390625,0.124255374,86.0
45739,0.17993027,1.4818344,-0.027469635,-0.17841797,0.098767094,0.19222413,86.0
45740,0.4346913,1.6131744,-0.11066055,-0.17841797,0.098767094,0.19222413,86.0
45741,0.4346913,1.6131744,-0.11066055,-0.1529297,0.012744141,0.22727051,86.0
45742,0.687194,1.6124115,-0.07378006,-0.1529297,0.012744141,0.22727051,86.0
45743,0.687194,1.6124115,-0.07378006,-0.12531738,-0.04885254,0.23045655,86.0
45744,0.87493837,1.5249557,0.09407425,-0.12531738,-0.04885254,0.23045655,86.0
45745,0.87493837,1.5249557,0.09407425,-0.11682129,-0.09770508,0.21240234,86.0
45746,0.9565668,1.3655853,0.26041794,-0.11682129,-0.09770508,0.21240234,86.0
45747,0.9565668,1.3655853,0.26041794,-0.11682129,-0.14018555,0.1901001,86.0
45748,0.9326607,1.1983795,0.35014343,-0.11682129,-0.14018555,0.1901001,86.0
45749,0.9326607,1.1983795,0.35014343,-0.14124756,-0.15823975,0.13487549,86.0
45750,0.8343854,1.0742416,0.34815598,-0.14124756,-0.15823975,0.13487549,86.0
45751,0.8343854,1.0742416,0.34815598,-0.18797608,-0.16248779,0.06478272,86.0
45752,0.710758,0.9240799,0.26585388,-0.18797608,-0.16248779,0.06478272,86.0
45753,0.710758,0.9240799,0.26585388,-0.20921631,-0.15080567,-0.004248047,86.0
45754,0.5576811,0.6877365,0.1512909,-0.20921631,-0.15080567,-0.004248047,86.0
45755,0.5576811,0.6877365,0.1512909,-0.19753419,-0.14018555,-0.059472658,86.0
45756,0.3555808,0.3720169,0.042697906,-0.19753419,-0.14018555,-0.059472658,86.0
45757,0.3555808,0.3720169,0.042697906,-0.1720459,-0.1444336,-0.08071289,86.0
45758,0.111991405,0.023246765,-0.06304932,-0.1720459,-0.1444336,-0.08071289,86.0
45759,0.111991405,0.023246765,-0.06304932,-0.1178833,-0.17523193,-0.090270996,86.0
45760,-0.112042665,-0.27061462,-0.15613937,-0.1178833,-0.17523193,-0.090270996,86.0
45761,-0.112042665,-0.27061462,-0.15613937,-0.07965088,-0.2538208,-0.15080567,86.0
45762,-0.1617167,-0.6050415,-0.17503357,-0.07965088,-0.2538208,-0.15080567,86.0
45763,-0.1617167,-0.6050415,-0.17503357,-0.0361084,-0.32922363,-0.2623169,86.0
45764,0.013973713,-1.1694336,-0.1476326,-0.0361084,-0.32922363,-0.2623169,86.0
45765,0.013973713,-1.1694336,-0.1476326,0.06903076,-0.34940186,-0.35577393,86.0
45766,0.26733136,-1.7860184,-0.24598694,0.06903076,-0.34940186,-0.35577393,86.0
45767,0.26733136,-1.7860184,-0.24598694,0.23895264,-0.36427003,-0.33134767,86.0
45768,0.44528604,-1.9633102,-0.5227051,0.23895264,-0.36427003,-0.33134767,86.0
45769,0.44528604,-1.9633102,-0.5227051,0.4364868,-0.45347902,-0.28674316,86.0
45770,0.62232995,-1.617073,-0.83364105,0.4364868,-0.45347902,-0.28674316,86.0
45771,0.62232995,-1.617073,-0.83364105,0.6042847,-0.5809204,-0.26550293,86.0
45772,0.67816186,-1.2085648,-0.930706,0.6042847,-0.5809204,-0.26550293,86.0
45773,0.67816186,-1.2085648,-0.930706,0.6711914,-0.6446411,-0.2357666,86.0
45774,1.3041384,-0.668808,-0.95137787,0.6711914,-0.6446411,-0.2357666,86.0
45775,1.3041384,-0.668808,-0.95137787,0.813501,-0.79226077,-0.095581055,86.0
45776,1.2025514,-0.44795227,-0.7850647,0.813501,-0.79226077,-0.095581055,86.0
45777,1.2025514,-0.44795227,-0.7850647,0.81881106,-0.7805786,-0.025488282,86.0
45778,0.72151375,0.21424866,-0.37677002,0.81881106,-0.7805786,-0.025488282,86.0
45779,0.72151375,0.21424866,-0.37677002,0.6690674,-0.6117188,0.1901001,86.0
45780,0.20456696,0.40631104,-0.4856949,0.6690674,-0.6117188,0.1901001,86.0
45781,0.20456696,0.40631104,-0.4856949,0.55543214,-0.54375,0.19116211,86.0
45782,-0.9181824,0.8323593,-1.4129715,0.55543214,-0.54375,0.19116211,86.0
45783,-0.9181824,0.8323593,-1.4129715,0.35789797,-0.42799073,0.07115479,86.0
45784,-0.8686402,0.5804596,-1.6102715,0.35789797,-0.42799073,0.07115479,86.0
45785,-0.8686402,0.5804596,-1.6102715,0.34833986,-0.42374268,0.028674318,86.0
45786,-0.102651596,-0.18986511,-2.0682335,0.34833986,-0.42374268,0.028674318,86.0
45787,-0.102651596,-0.18986511,-2.0682335,0.3419678,-0.48746338,0.016992187,86.0
45788,0.30054474,-0.3322525,-1.7129974,0.3419678,-0.48746338,0.016992187,86.0
45789,0.30054474,-0.3322525,-1.7129974,0.31966552,-0.5171997,0.058410645,86.0
45790,1.1726625,-0.1455841,-0.8031502,0.31966552,-0.5171997,0.058410645,86.0
45791,1.1726625,-0.1455841,-0.8031502,0.2623169,-0.5979126,0.3154175,86.0
45792,0.9900954,0.07891846,-0.46635056,0.2623169,-0.5979126,0.3154175,86.0
45793,0.9900954,0.07891846,-0.46635056,0.25063476,-0.635083,0.41312256,86.0
45794,0.256505,0.96878815,-0.0414505,0.25063476,-0.635083,0.41312256,86.0
45795,0.256505,0.96878815,-0.0414505,0.15930176,-0.6690674,0.540564,86.0
45796,-0.07908535,0.984848,-0.15680695,0.15930176,-0.6690674,0.540564,86.0
45797,-0.07908535,0.984848,-0.15680695,0.11151123,-0.65207523,0.5235718,86.0
45798,-0.6867423,1.1197739,-0.5515938,0.11151123,-0.65207523,0.5235718,86.0
45799,-0.6867423,1.1197739,-0.5515938,0.0031860352,-0.61702883,0.42799073,86.0
45800,-0.59331465,0.8314743,-0.5808258,0.0031860352,-0.61702883,0.42799073,86.0
45801,-0.59331465,0.8314743,-0.5808258,-0.010620117,-0.6138428,0.3791382,86.0
45802,-0.05698824,0.4007721,-0.4288597,-0.010620117,-0.6138428,0.3791382,86.0
45803,-0.05698824,0.4007721,-0.4288597,-0.05522461,-0.6202149,0.2623169,86.0
45804,0.17698002,0.18347931,-0.30607605,-0.05522461,-0.6202149,0.2623169,86.0
45805,0.17698002,0.18347931,-0.30607605,-0.060534667,-0.61702883,0.24638672,86.0
45806,0.594831,-0.1282425,-0.059387207,-0.060534667,-0.61702883,0.24638672,86.0
45807,0.594831,-0.1282425,-0.059387207,-0.06159668,-0.59472656,0.24851075,86.0
45808,0.7532816,-0.32953644,0.1592865,-0.06159668,-0.59472656,0.24851075,86.0
45809,0.7532816,-0.32953644,0.1592865,-0.0722168,-0.5511841,0.271875,86.0
45810,0.60709286,-0.5096512,0.38376236,-0.0722168,-0.5511841,0.271875,86.0
45811,0.60709286,-0.5096512,0.38376236,-0.08283692,-0.47365722,0.32072756,86.0
45812,0.4187312,-0.492836,0.32309723,-0.08283692,-0.47365722,0.32072756,86.0
45813,0.4187312,-0.492836,0.32309723,-0.08496094,-0.41949463,0.3154175,86.0
45814,0.14748526,-0.45547485,0.2619171,-0.08496094,-0.41949463,0.3154175,86.0
45815,0.14748526,-0.45547485,0.2619171,-0.07540283,-0.29099122,0.30373535,86.0
45816,-0.11942625,-0.30249786,0.14071274,-0.07540283,-0.29099122,0.30373535,86.0
45817,-0.11942625,-0.30249786,0.14071274,-0.08920898,-0.15717773,0.33984375,86.0
45818,-0.3587489,-0.16539001,-0.02394104,-0.08920898,-0.15717773,0.33984375,86.0
45819,-0.3587489,-0.16539001,-0.02394104,-0.081774905,-0.04248047,0.3706421,86.0
45820,-0.5234251,-0.1704483,-0.23148346,-0.081774905,-0.04248047,0.3706421,86.0
45821,-0.5234251,-0.1704483,-0.23148346,-0.012744141,0.015930176,0.38763428,86.0
45822,-0.5805688,-0.3165741,-0.42866898,-0.012744141,0.015930176,0.38763428,86.0
45823,-0.5805688,-0.3165741,-0.42866898,0.09133301,0.0722168,0.36002198,86.0
45824,-0.5588522,-0.50860596,-0.5840378,0.09133301,0.0722168,0.36002198,86.0
45825,-0.5588522,-0.50860596,-0.5840378,0.14761963,0.098767094,0.36851808,86.0
45826,-0.51896906,-0.6388321,-0.670784,0.14761963,0.098767094,0.36851808,86.0
45827,-0.51896906,-0.6388321,-0.670784,0.18054199,0.15823975,0.38444826,86.0
45828,-0.54994106,-0.6084137,-0.6623726,0.18054199,0.15823975,0.38444826,86.0
45829,-0.54994106,-0.6084137,-0.6623726,0.1539917,0.1996582,0.35152587,86.0
45830,-0.5793085,-0.45246887,-0.55986404,0.1539917,0.1996582,0.35152587,86.0
45831,-0.5793085,-0.45246887,-0.55986404,0.11363526,0.21558838,0.41524658,86.0
45832,-0.57404256,-0.26444244,-0.4192543,0.11363526,0.21558838,0.41524658,86.0
45833,-0.57404256,-0.26444244,-0.4192543,0.07327881,0.34833986,0.4980835,86.0
45834,-0.73069406,-0.04397583,-0.30979156,0.07327881,0.34833986,0.4980835,86.0
45835,-0.73069406,-0.04397583,-0.30979156,-0.10301514,0.32391357,0.37807617,86.0
45836,-0.9171114,0.045394897,-0.23529816,-0.10301514,0.32391357,0.37807617,86.0
45837,-0.9171114,0.045394897,-0.23529816,-0.26656494,0.3355957,0.4258667,86.0
45838,-0.9171114,0.045394897,-0.23529816,-0.26656494,0.3355957,0.4258667,87.0
45839,-0.92930675,-0.06601715,-0.07588577,-0.26656494,0.3355957,0.4258667,87.0
45840,-0.92930675,-0.06601715,-0.07588577,-0.3536499,0.36745605,0.45347902,87.0
45841,-0.8126836,-0.12168884,0.16757584,-0.3536499,0.36745605,0.45347902,87.0
45842,-0.8126836,-0.12168884,0.16757584,-0.3971924,0.39613038,0.4258667,87.0
45843,-0.6340337,-0.018478394,0.27336884,-0.3971924,0.39613038,0.4258667,87.0
45844,-0.6340337,-0.018478394,0.27336884,-0.44179687,0.44179687,0.41206056,87.0
45845,-0.4261601,0.092185974,0.23175812,-0.44179687,0.44179687,0.41206056,87.0
45846,-0.4261601,0.092185974,0.23175812,-0.4725952,0.4800293,0.37382814,87.0
45847,-0.22433877,0.09648132,0.14308548,-0.4725952,0.4800293,0.37382814,87.0
45848,-0.22433877,0.09648132,0.14308548,-0.52038574,0.41099855,0.33028564,87.0
45849,0.010433674,-0.09018707,0.116119385,-0.52038574,0.41099855,0.33028564,87.0
45850,0.010433674,-0.09018707,0.116119385,-0.56180423,0.3536499,0.30161133,87.0
45851,0.24203825,-0.43498993,0.23418045,-0.56180423,0.3536499,0.30161133,87.0
45852,0.24203825,-0.43498993,0.23418045,-0.5671143,0.29630128,0.27399904,87.0
45853,0.3325956,-0.7011795,0.38047028,-0.5671143,0.29630128,0.27399904,87.0
45854,0.3325956,-0.7011795,0.38047028,-0.59047854,0.24320069,0.22514649,87.0
45855,0.25893545,-0.65483856,0.35465622,-0.59047854,0.24320069,0.22514649,87.0
45856,0.25893545,-0.65483856,0.35465622,-0.64570314,0.1720459,0.1444336,87.0
45857,0.18623781,-0.34310913,0.12181091,-0.64570314,0.1720459,0.1444336,87.0
45858,0.18623781,-0.34310913,0.12181091,-0.6903076,0.058410645,0.015930176,87.0
45859,0.29227638,-0.15605164,-0.1598854,-0.6903076,0.058410645,0.015930176,87.0
45860,0.29227638,-0.15605164,-0.1598854,-0.6414551,-0.1178833,-0.14337158,87.0
45861,0.6499953,-0.32857513,-0.34989166,-0.6414551,-0.1178833,-0.14337158,87.0
45862,0.6499953,-0.32857513,-0.34989166,-0.6287109,-0.20921631,-0.3058594,87.0
45863,1.1749036,-0.6737366,-0.40306854,-0.6287109,-0.20921631,-0.3058594,87.0
45864,1.1749036,-0.6737366,-0.40306854,-0.68924564,-0.16354981,-0.55755615,87.0
45865,1.6304502,-0.88819885,-0.348629,-0.68924564,-0.16354981,-0.55755615,87.0
45866,1.6304502,-0.88819885,-0.348629,-0.7678345,-0.08283692,-0.75509036,87.0
45867,1.7491965,-0.66921234,-0.3262558,-0.7678345,-0.08283692,-0.75509036,87.0
45868,1.7491965,-0.66921234,-0.3262558,-0.92501223,0.270813,-0.6881836,87.0
45869,1.3220501,0.0545578,-0.24052048,-0.92501223,0.270813,-0.6881836,87.0
45870,1.3220501,0.0545578,-0.24052048,-0.9866089,0.40250245,-0.7062378,87.0
45871,1.3220501,0.0545578,-0.24052048,-0.84111327,0.49489745,-0.813501,87.0
45872,0.75154877,0.6796417,-0.0033035278,-0.84111327,0.49489745,-0.813501,87.0
45873,0.5753846,0.77848816,0.06571579,-0.84111327,0.49489745,-0.813501,87.0
45874,0.5753846,0.77848816,0.06571579,-0.7412842,0.634021,-0.8793457,87.0
45875,0.6077199,0.53720856,0.030834198,-0.7412842,0.634021,-0.8793457,87.0
45876,0.6077199,0.53720856,0.030834198,-0.62977296,0.71367186,-0.89846194,87.0
45877,0.50119066,0.18858337,0.3587036,-0.62977296,0.71367186,-0.89846194,87.0
45878,0.50119066,0.18858337,0.3587036,-0.5564942,0.8464233,-0.82730716,87.0
45879,0.12332821,0.107055664,0.93621826,-0.5564942,0.8464233,-0.82730716,87.0
45880,0.12332821,0.107055664,0.93621826,-0.4694092,0.8007569,-0.7986328,87.0
45881,-0.27014828,0.43534088,1.3189087,-0.4694092,0.8007569,-0.7986328,87.0
45882,-0.27014828,0.43534088,1.3189087,-0.3440918,0.7869507,-0.74022216,87.0
45883,-0.501348,0.7773514,1.3948135,-0.3440918,0.7869507,-0.74022216,87.0
45884,-0.501348,0.7773514,1.3948135,-0.16885987,0.59260255,-0.6966797,87.0
45885,-0.57162285,0.7462845,1.398674,-0.16885987,0.59260255,-0.6966797,87.0
45886,-0.57162285,0.7462845,1.398674,-0.04885254,0.51082766,-0.630835,87.0
45887,-0.5024519,0.4593811,1.3531303,-0.04885254,0.51082766,-0.630835,87.0
45888,-0.5024519,0.4593811,1.3531303,0.03186035,0.5065796,-0.58198243,87.0
45889,-0.4253745,0.26097107,1.0591049,0.03186035,0.5065796,-0.58198243,87.0
45890,-0.4253745,0.26097107,1.0591049,0.11151123,0.5256958,-0.50020754,87.0
45891,-0.39875937,0.31931305,0.67242813,0.11151123,0.5256958,-0.50020754,87.0
45892,-0.39875937,0.31931305,0.67242813,0.09239502,0.61702883,-0.3982544,87.0
45893,-0.4405408,0.4719162,0.4722557,0.09239502,0.61702883,-0.3982544,87.0
45894,-0.4405408,0.4719162,0.4722557,0.045666505,0.6775635,-0.31010744,87.0
45895,-0.5057652,0.50216675,0.4845543,0.045666505,0.6775635,-0.31010744,87.0
45896,-0.5057652,0.50216675,0.4845543,0.039294433,0.727478,-0.21346436,87.0
45897,-0.4855814,0.4626007,0.5885315,0.039294433,0.727478,-0.21346436,87.0
45898,-0.4855814,0.4626007,0.5885315,0.17523193,0.79969484,-0.1529297,87.0
45899,-0.37965178,0.52266693,0.62846756,0.17523193,0.79969484,-0.1529297,87.0
45900,-0.37965178,0.52266693,0.62846756,0.26550293,0.91757816,-0.10938721,87.0
45901,-0.29545736,0.6669998,0.56542206,0.26550293,0.91757816,-0.10938721,87.0
45902,-0.29545736,0.6669998,0.56542206,0.30054933,0.9897949,-0.09133301,87.0
45903,-0.23414421,0.7617264,0.5473938,0.30054933,0.9897949,-0.09133301,87.0
45904,-0.23414421,0.7617264,0.5473938,0.31966552,1.1682129,-0.038232423,87.0
45905,-0.09931493,0.65384674,0.6849594,0.31966552,1.1682129,-0.038232423,87.0
45906,-0.09931493,0.65384674,0.6849594,0.22833252,1.3476928,0.0021240234,87.0
45907,0.042740583,0.41783905,0.7566948,0.22833252,1.3476928,0.0021240234,87.0
45908,0.042740583,0.41783905,0.7566948,0.17629395,1.5069946,0.05628662,87.0
45909,0.014648914,0.37551117,0.6599579,0.17629395,1.5069946,0.05628662,87.0
45910,0.014648914,0.37551117,0.6599579,0.118945315,1.6089478,0.081774905,87.0
45911,-0.12873507,0.38502502,0.71824646,0.118945315,1.6089478,0.081774905,87.0
45912,-0.12873507,0.38502502,0.71824646,0.09239502,1.6482422,0.06903076,87.0
45913,-0.25123024,0.2341919,1.0463257,0.09239502,1.6482422,0.06903076,87.0
45914,-0.25123024,0.2341919,1.0463257,-0.008496094,1.6429322,0.057348635,87.0
45915,-0.3729446,0.05065918,1.348156,-0.008496094,1.6429322,0.057348635,87.0
45916,-0.3729446,0.05065918,1.348156,-0.0541626,1.6163819,0.032922365,87.0
45917,-0.5048132,0.028297424,1.3069458,-0.0541626,1.6163819,0.032922365,87.0
45918,-0.5048132,0.028297424,1.3069458,-0.08920898,1.6004517,-0.027612304,87.0
45919,-0.67588425,0.017372131,1.1401138,-0.08920898,1.6004517,-0.027612304,87.0
45920,-0.67588425,0.017372131,1.1401138,-0.04248047,1.5462891,-0.07965088,87.0
45921,-0.8799653,-0.39024353,1.37117,-0.04248047,1.5462891,-0.07965088,87.0
45922,-0.8799653,-0.39024353,1.37117,0.060534667,1.450708,-0.1263794,87.0
45923,-1.0050099,-0.8080673,1.7685928,0.060534667,1.450708,-0.1263794,87.0
45924,-1.0050099,-0.8080673,1.7685928,0.081774905,1.4315919,-0.107263185,87.0
45925,-0.91805816,-0.7210541,1.6925964,0.081774905,1.4315919,-0.107263185,87.0
45926,-0.91805816,-0.7210541,1.6925964,0.15611573,1.4677002,-0.04460449,87.0
45927,-0.68078446,-0.618248,1.2215195,0.15611573,1.4677002,-0.04460449,87.0
45928,-0.68078446,-0.618248,1.2215195,0.4885254,1.716211,0.20072022,87.0
45929,-0.6866808,-0.5038986,0.71803665,0.4885254,1.716211,0.20072022,87.0
45930,-0.6866808,-0.5038986,0.71803665,0.7763306,1.6142578,0.37489015,87.0
45931,-0.90246964,-0.0042800903,0.263443,0.7763306,1.6142578,0.37489015,87.0
45932,-0.90246964,-0.0042800903,0.263443,0.79119873,1.4836304,0.44179687,87.0
45933,-1.0095123,0.6041336,-0.09106445,0.79119873,1.4836304,0.44179687,87.0
45934,-1.0095123,0.6041336,-0.09106445,0.7625244,1.3041505,0.45560303,87.0
45935,-1.027019,0.9801712,-0.10495758,0.7625244,1.3041505,0.45560303,87.0
45936,-1.027019,0.9801712,-0.10495758,0.84536135,1.1236085,0.33134767,87.0
45937,-0.72974515,0.521492,0.7678032,0.84536135,1.1236085,0.33134767,87.0
45938,-0.72974515,0.521492,0.7678032,0.98873293,0.8889038,-0.20496826,87.0
45939,-0.3398142,-1.1771622,2.7311745,0.98873293,0.8889038,-0.20496826,87.0
45940,-0.3398142,-1.1771622,2.7311745,1.4623902,1.075818,-0.55968016,87.0
45941,-0.5154793,-1.5482483,3.6670914,1.4623902,1.075818,-0.55968016,87.0
45942,-0.5154793,-1.5482483,3.6670914,1.3445069,1.1937011,0.26444092,87.0
45943,-0.5154793,-1.5482483,3.6670914,1.3445069,1.1937011,0.26444092,87.0
45944,-0.86692446,0.8454361,2.3697052,1.3445069,1.1937011,0.26444092,87.0
45945,-0.86692446,0.8454361,2.3697052,0.50233155,1.2712281,0.35577393,87.0
45946,-0.77680373,2.502922,0.91664886,0.50233155,1.2712281,0.35577393,87.0
45947,-0.77680373,2.502922,0.91664886,0.25806886,1.3838013,0.45878908,87.0
45948,-0.7843946,1.9376297,0.35917664,0.25806886,1.3838013,0.45878908,87.0
45949,-0.7843946,1.9376297,0.35917664,0.2516968,1.3253907,0.32603762,87.0
45950,-1.0075084,0.7238617,-0.04745102,0.2516968,1.3253907,0.32603762,87.0
45951,-1.0075084,0.7238617,-0.04745102,0.16567384,1.1257324,0.2081543,87.0
45952,-0.96408784,-0.18125153,-0.5117912,0.16567384,1.1257324,0.2081543,87.0
45953,-0.96408784,-0.18125153,-0.5117912,0.39082032,1.1151123,0.15505372,87.0
45954,-0.7720027,-0.60832214,-0.6123657,0.39082032,1.1151123,0.15505372,87.0
45955,-0.7720027,-0.60832214,-0.6123657,0.7434082,1.1724609,0.20709229,87.0
45956,-0.8887081,-0.48558044,-0.27357483,0.7434082,1.1724609,0.20709229,87.0
45957,-0.8887081,-0.48558044,-0.27357483,0.9420044,1.1427246,0.18372802,87.0
45958,-1.1959518,0.08692932,0.20577621,0.9420044,1.1427246,0.18372802,87.0
45959,-1.1959518,0.08692932,0.20577621,0.7965088,1.002539,0.1359375,87.0
45960,-1.2721424,0.6474991,0.48903656,0.7965088,1.002539,0.1359375,87.0
45961,-1.2721424,0.6474991,0.48903656,0.5235718,0.8241211,0.07752686,87.0
45962,-1.1313126,0.65680695,0.48559952,0.5235718,0.8241211,0.07752686,87.0
45963,-1.1313126,0.65680695,0.48559952,0.37382814,0.72854006,0.029736329,87.0
45964,-0.980929,0.32356262,0.37651443,0.37382814,0.72854006,0.029736329,87.0
45965,-0.980929,0.32356262,0.37651443,0.31860352,0.6616333,-0.18054199,87.0
45966,-0.9312763,0.09832764,0.33816528,0.31860352,0.6616333,-0.18054199,87.0
45967,-0.9312763,0.09832764,0.33816528,0.087084964,0.39400634,-0.5809204,87.0
45968,-1.0876114,-0.033042908,0.42613602,0.087084964,0.39400634,-0.5809204,87.0
45969,-1.0876114,-0.033042908,0.42613602,-0.12850343,0.047790527,-1.0641358,87.0
45970,-1.2333217,-0.011566162,0.48899078,-0.12850343,0.047790527,-1.0641358,87.0
45971,-1.2333217,-0.011566162,0.48899078,-0.070092775,-0.5065796,-1.2521118,87.0
45972,-1.0224485,0.22123718,0.40404892,-0.070092775,-0.5065796,-1.2521118,87.0
45973,-1.0224485,0.22123718,0.40404892,0.060534667,-1.0460815,-1.088562,87.0
45974,-0.7235863,0.47009277,0.34916687,0.060534667,-1.0460815,-1.088562,87.0
45975,-0.7235863,0.47009277,0.34916687,0.5129517,-1.2000732,-0.66588134,87.0
45976,-0.63935494,0.6586914,0.44132233,0.5129517,-1.2000732,-0.66588134,87.0
45977,-0.63935494,0.6586914,0.44132233,0.9791748,-1.4071655,-0.20390625,87.0
45978,-0.50162077,0.6949234,0.66308975,0.9791748,-1.4071655,-0.20390625,87.0
45979,-0.50162077,0.6949234,0.66308975,1.4687623,-1.4029175,0.4439209,87.0
45980,-0.19132328,0.6545563,0.68359756,1.4687623,-1.4029175,0.4439209,87.0
45981,-0.19132328,0.6545563,0.68359756,1.893567,-1.3986695,0.8623535,87.0
45982,-0.027545929,0.9817505,0.2795334,1.893567,-1.3986695,0.8623535,87.0
45983,-0.027545929,0.9817505,0.2795334,2.0411866,-1.269104,0.8857178,87.0
45984,0.0940032,1.576973,-0.45196915,2.0411866,-1.269104,0.8857178,87.0
45985,0.0940032,1.576973,-0.45196915,1.6716064,-1.3731812,0.84111327,87.0
45986,0.2789867,1.8573303,-1.390667,1.6716064,-1.3731812,0.84111327,87.0
45987,0.2789867,1.8573303,-1.390667,1.5208008,-1.1480347,0.8336792,87.0
45988,0.44131684,1.627243,-2.281479,1.5208008,-1.1480347,0.8336792,87.0
45989,0.44131684,1.627243,-2.281479,1.5123047,-1.0588257,0.727478,87.0
45990,0.7396014,1.1762314,-2.6885147,1.5123047,-1.0588257,0.727478,87.0
45991,0.7396014,1.1762314,-2.6885147,1.5239868,-0.86341554,0.52250975,87.0
45992,1.1152406,0.9196472,-2.5956879,1.5239868,-0.86341554,0.52250975,87.0
45993,1.1152406,0.9196472,-2.5956879,1.26167,-0.7327881,0.32922363,87.0
45994,1.4002368,0.9566803,-2.4518318,1.26167,-0.7327881,0.32922363,87.0
45995,1.4002368,0.9566803,-2.4518318,0.77526855,-0.68074954,0.13699952,87.0
45996,1.548168,0.9481964,-2.3371735,0.77526855,-0.68074954,0.13699952,87.0
45997,1.548168,0.9481964,-2.3371735,0.121069334,-0.6924316,-0.023364259,87.0
45998,1.6714078,0.4810562,-1.9000244,0.121069334,-0.6924316,-0.023364259,87.0
45999,1.6714078,0.4810562,-1.9000244,-0.32816163,-0.59260255,-0.19116211,87.0
46000,1.9062548,-0.43196106,-1.0084839,-0.32816163,-0.59260255,-0.19116211,87.0
46001,1.9062548,-0.43196106,-1.0084839,-0.5564942,-0.5692383,-0.2177124,87.0
46002,2.4552772,-1.4002533,0.21107101,-0.5564942,-0.5692383,-0.2177124,87.0
46003,2.4552772,-1.4002533,0.21107101,-0.4715332,-0.4800293,-0.2516968,87.0
46004,3.1084845,-1.7652817,1.8923798,-0.4715332,-0.4800293,-0.2516968,87.0
46005,3.1084845,-1.7652817,1.8923798,-0.29523927,0.24532472,-0.18903808,87.0
46006,2.9537432,-1.0864029,2.8599968,-0.29523927,0.24532472,-0.18903808,87.0
46007,2.9537432,-1.0864029,2.8599968,-0.5628662,0.6605713,0.093457036,87.0
46008,1.8457949,0.07260132,1.8232269,-0.5628662,0.6605713,0.093457036,87.0
46009,1.8457949,0.07260132,1.8232269,-0.76677245,0.6467652,0.2538208,87.0
46010,0.6255007,0.8761978,-0.0028457642,-0.76677245,0.6467652,0.2538208,87.0
46011,0.6255007,0.8761978,-0.0028457642,-0.7593384,0.5968506,0.33665773,87.0
46012,-0.0844506,1.0858002,-0.96640015,-0.7593384,0.5968506,0.33665773,87.0
46013,-0.0844506,1.0858002,-0.96640015,-0.5766724,0.544812,0.29417726,87.0
46014,-0.19982374,0.8652725,-0.9316406,-0.5766724,0.544812,0.29417726,87.0
46015,-0.19982374,0.8652725,-0.9316406,-0.13168946,0.544812,0.1985962,87.0
46016,0.0010906458,0.67002106,-0.5544052,-0.13168946,0.544812,0.1985962,87.0
46017,0.0010906458,0.67002106,-0.5544052,0.3175415,0.6053467,0.0180542,87.0
46018,0.07372403,0.8651047,-0.06746292,0.3175415,0.6053467,0.0180542,87.0
46019,0.07372403,0.8651047,-0.06746292,0.42374268,0.77102053,-0.19116211,87.0
46020,-0.27386987,0.7846527,0.98638916,0.42374268,0.77102053,-0.19116211,87.0
46021,-0.27386987,0.7846527,0.98638916,0.68712157,1.0917481,-0.29948732,87.0
46022,-0.9618449,0.015785217,2.4822006,0.68712157,1.0917481,-0.29948732,87.0
46023,-0.9618449,0.015785217,2.4822006,0.25806886,1.0375855,-0.23789063,87.0
46024,-1.5317074,-0.3116989,2.6533012,0.25806886,1.0375855,-0.23789063,87.0
46025,-1.5317074,-0.3116989,2.6533012,-0.08814698,0.80819094,-0.078588866,87.0
46026,-1.8908567,0.12822723,1.2960281,-0.08814698,0.80819094,-0.078588866,87.0
46027,-1.8908567,0.12822723,1.2960281,-0.2824951,0.71791995,-0.11151123,87.0
46028,-2.0450218,0.27629852,0.17317581,-0.2824951,0.71791995,-0.11151123,87.0
46029,-2.0450218,0.27629852,0.17317581,-0.4333008,0.62127686,-0.1731079,87.0
46030,-1.9218206,-0.07280731,-0.129879,-0.4333008,0.62127686,-0.1731079,87.0
46031,-1.9218206,-0.07280731,-0.129879,-0.48427734,0.540564,-0.13699952,87.0
46032,-1.7257988,-0.37471008,-0.08013916,-0.48427734,0.540564,-0.13699952,87.0
46033,-1.7257988,-0.37471008,-0.08013916,-0.43861085,0.5171997,-0.15823975,87.0
46034,-1.491955,-0.55336,0.059215546,-0.43861085,0.5171997,-0.15823975,87.0
46035,-1.491955,-0.55336,0.059215546,-0.33984375,0.52250975,-0.083898924,87.0
46036,-1.0293062,-0.8166275,0.088264465,-0.33984375,0.52250975,-0.083898924,87.0
46037,-1.0293062,-0.8166275,0.088264465,-0.10089111,0.36427003,-0.04248047,87.0
46038,-0.42648458,-0.82229614,-0.093429565,-0.10089111,0.36427003,-0.04248047,87.0
46039,-0.42648458,-0.82229614,-0.093429565,0.1083252,0.23789063,-0.11682129,87.0
46040,-0.0162853,-0.41475677,-0.16917801,0.1083252,0.23789063,-0.11682129,87.0
46041,-0.0162853,-0.41475677,-0.16917801,0.18266602,0.16461182,-0.13912354,87.0
46042,0.1298306,0.024642944,0.04373169,0.18266602,0.16461182,-0.13912354,87.0
46043,0.1298306,0.024642944,0.04373169,0.16354981,0.1178833,-0.07327881,87.0
46044,0.1298306,0.024642944,0.04373169,0.16354981,0.1178833,-0.07327881,88.0
46045,0.09340298,0.29823303,0.32846832,0.16354981,0.1178833,-0.07327881,88.0
46046,0.09340298,0.29823303,0.32846832,0.04141846,0.09239502,-0.019116212,88.0
46047,-0.018197536,0.4134903,0.41176224,0.04141846,0.09239502,-0.019116212,88.0
46048,-0.018197536,0.4134903,0.41176224,-0.15505372,0.060534667,-0.016992187,88.0
46049,-0.0737499,0.31360626,0.2696457,-0.15505372,0.060534667,-0.016992187,88.0
46050,-0.0737499,0.31360626,0.2696457,-0.28780517,0.0,-0.026550293,88.0
46051,-0.076529264,0.076309204,0.11710739,-0.28780517,0.0,-0.026550293,88.0
46052,-0.076529264,0.076309204,0.11710739,-0.35895997,-0.052038576,0.009558106,88.0
46053,-0.12070835,-0.019638062,0.04523468,-0.35895997,-0.052038576,0.009558106,88.0
46054,-0.12070835,-0.019638062,0.04523468,-0.55968016,-0.10407715,-0.07434082,88.0
46055,-0.1575408,-0.21655273,-0.09263611,-0.55968016,-0.10407715,-0.07434082,88.0
46056,-0.1575408,-0.21655273,-0.09263611,-0.50445557,-0.21134034,-0.06584473,88.0
46057,-0.06682861,-0.75331116,-0.3093872,-0.50445557,-0.21134034,-0.06584473,88.0
46058,-0.06682861,-0.75331116,-0.3093872,-0.15823975,-0.24320069,-0.025488282,88.0
46059,0.127128,-0.98594666,-0.31529617,-0.15823975,-0.24320069,-0.025488282,88.0
46060,0.127128,-0.98594666,-0.31529617,0.121069334,-0.16992188,0.013806152,88.0
46061,0.27843583,-0.47219086,-0.017875671,0.121069334,-0.16992188,0.013806152,88.0
46062,0.27843583,-0.47219086,-0.017875671,0.05522461,-0.08602295,0.011682129,88.0
46063,0.2730782,0.22608185,0.22904587,0.05522461,-0.08602295,0.011682129,88.0
46064,0.2730782,0.22608185,0.22904587,-0.14655761,-0.021240234,-0.025488282,88.0
46065,0.16819406,0.35812378,0.21503448,-0.14655761,-0.021240234,-0.025488282,88.0
46066,0.16819406,0.35812378,0.21503448,-0.23364258,0.03186035,-0.045666505,88.0
46067,0.08754599,-0.10695648,-0.028850555,-0.23364258,0.03186035,-0.045666505,88.0
46068,0.08754599,-0.10695648,-0.028850555,-0.1083252,0.0637207,0.0053100586,88.0
46069,0.064665794,-0.49412537,-0.31563568,-0.1083252,0.0637207,0.0053100586,88.0
46070,0.064665794,-0.49412537,-0.31563568,0.16779785,0.10938721,0.08071289,88.0
46071,0.02828288,-0.4043808,-0.31471634,0.16779785,0.10938721,0.08071289,88.0
46072,0.02828288,-0.4043808,-0.31471634,0.33240968,0.09770508,0.1529297,88.0
46073,-0.14305973,0.00969696,-0.094387054,0.33240968,0.09770508,0.1529297,88.0
46074,-0.14305973,0.00969696,-0.094387054,0.28461915,0.033984374,0.11469727,88.0
46075,-0.27998734,0.35691833,0.12699509,0.28461915,0.033984374,0.11469727,88.0
46076,-0.27998734,0.35691833,0.12699509,0.20709229,-0.07327881,0.07540283,88.0
46077,-0.26750803,0.40891266,0.25290298,0.20709229,-0.07327881,0.07540283,88.0
46078,-0.26750803,0.40891266,0.25290298,0.14230958,-0.16354981,0.11257324,88.0
46079,-0.14294934,0.18645477,0.34371567,0.14230958,-0.16354981,0.11257324,88.0
46080,-0.14294934,0.18645477,0.34371567,0.14974366,-0.25063476,0.23364258,88.0
46081,-0.05587554,-0.21469116,0.3698349,0.14974366,-0.25063476,0.23364258,88.0
46082,-0.05587554,-0.21469116,0.3698349,0.15717773,-0.3090454,0.4598511,88.0
46083,-0.21766186,-0.463562,0.20316696,0.15717773,-0.3090454,0.4598511,88.0
46084,-0.21766186,-0.463562,0.20316696,0.23682861,-0.4343628,0.63826907,88.0
46085,-0.38913202,-0.3050537,-0.034500122,0.23682861,-0.4343628,0.63826907,88.0
46086,-0.38913202,-0.3050537,-0.034500122,0.3090454,-0.61065674,0.724292,88.0
46087,-0.23405957,0.2230835,-0.21932602,0.3090454,-0.61065674,0.724292,88.0
46088,-0.23405957,0.2230835,-0.21932602,0.30161133,-0.7072998,0.7455322,88.0
46089,0.037422657,0.54294586,-0.38147736,0.30161133,-0.7072998,0.7455322,88.0
46090,0.037422657,0.54294586,-0.38147736,0.25913087,-0.77314454,0.74871826,88.0
46091,0.26487458,0.28762817,-0.45299911,0.25913087,-0.77314454,0.74871826,88.0
46092,0.26487458,0.28762817,-0.45299911,0.43967286,-0.77951664,0.65207523,88.0
46093,0.55938506,-0.13446045,-0.41616058,0.43967286,-0.77951664,0.65207523,88.0
46094,0.55938506,-0.13446045,-0.41616058,0.4248047,-0.631897,0.56180423,88.0
46095,0.74943674,-0.2510605,-0.5112152,0.4248047,-0.631897,0.56180423,88.0
46096,0.74943674,-0.2510605,-0.5112152,0.42268068,-0.5299439,0.452417,88.0
46097,0.7793468,0.050956726,-0.8312988,0.42268068,-0.5299439,0.452417,88.0
46098,0.7793468,0.050956726,-0.8312988,0.34727785,-0.42374268,0.3430298,88.0
46099,0.85808444,0.33818054,-0.99432373,0.34727785,-0.42374268,0.3430298,88.0
46100,0.85808444,0.33818054,-0.99432373,0.19753419,-0.34940186,0.19116211,88.0
46101,1.0545583,0.14347076,-0.789917,0.19753419,-0.34940186,0.19116211,88.0
46102,1.0545583,0.14347076,-0.789917,0.10938721,-0.20284425,0.124255374,88.0
46103,1.1436467,-0.24784851,-0.4905243,0.10938721,-0.20284425,0.124255374,88.0
46104,1.1436467,-0.24784851,-0.4905243,0.045666505,-0.09451904,0.07327881,88.0
46105,1.023621,-0.29691315,-0.36009598,0.045666505,-0.09451904,0.07327881,88.0
46106,1.023621,-0.29691315,-0.36009598,-0.004248047,-0.052038576,-0.004248047,88.0
46107,0.85548127,6.4086914E-4,-0.37399292,-0.004248047,-0.052038576,-0.004248047,88.0
46108,0.85548127,6.4086914E-4,-0.37399292,-0.10938721,0.007434082,-0.10089111,88.0
46109,0.6726419,0.20214844,-0.27163315,-0.10938721,0.007434082,-0.10089111,88.0
46110,0.6726419,0.20214844,-0.27163315,-0.1083252,0.058410645,-0.14761963,88.0
46111,0.44815987,0.06321716,-0.027160645,-0.1083252,0.058410645,-0.14761963,88.0
46112,0.44815987,0.06321716,-0.027160645,-0.11044922,0.10513916,-0.17523193,88.0
46113,0.15283944,-0.16947937,0.18942642,-0.11044922,0.10513916,-0.17523193,88.0
46114,0.15283944,-0.16947937,0.18942642,-0.0722168,0.13062744,-0.17629395,88.0
46115,-0.13533343,-0.21278381,0.38778305,-0.0722168,0.13062744,-0.17629395,88.0
46116,-0.13533343,-0.21278381,0.38778305,-0.057348635,0.13912354,-0.15080567,88.0
46117,-0.32322037,-0.0911026,0.47711945,-0.057348635,0.13912354,-0.15080567,88.0
46118,-0.32322037,-0.0911026,0.47711945,-0.0637207,0.16036378,-0.14655761,88.0
46119,-0.3963937,0.09492493,0.39027786,-0.0637207,0.16036378,-0.14655761,88.0
46120,-0.3963937,0.09492493,0.39027786,-0.098767094,0.16142578,-0.20178223,88.0
46121,-0.35235664,0.2820053,0.23291016,-0.098767094,0.16142578,-0.20178223,88.0
46122,-0.35235664,0.2820053,0.23291016,-0.2262085,0.13806152,-0.29948732,88.0
46123,-0.20046441,0.2527542,0.12149429,-0.2262085,0.13806152,-0.29948732,88.0
46124,-0.20046441,0.2527542,0.12149429,-0.2984253,0.15611573,-0.39400634,88.0
46125,-0.07072309,-0.023086548,0.107803345,-0.2984253,0.15611573,-0.39400634,88.0
46126,-0.07072309,-0.023086548,0.107803345,-0.2623169,0.16036378,-0.45029297,88.0
46127,-0.047069192,-0.26473236,0.077697754,-0.2623169,0.16036378,-0.45029297,88.0
46128,-0.047069192,-0.26473236,0.077697754,-0.23151855,0.13487549,-0.42268068,88.0
46129,-0.05774814,-0.3659134,-0.016017914,-0.23151855,0.13487549,-0.42268068,88.0
46130,-0.05774814,-0.3659134,-0.016017914,-0.13381349,0.09664307,-0.35152587,88.0
46131,-0.038776636,-0.4561844,-0.09070587,-0.13381349,0.09664307,-0.35152587,88.0
46132,-0.038776636,-0.4561844,-0.09070587,0.04141846,0.045666505,-0.15080567,88.0
46133,-0.077176094,-0.3294983,-0.10939026,0.04141846,0.045666505,-0.15080567,88.0
46134,-0.077176094,-0.3294983,-0.10939026,0.24320069,0.011682129,-0.035046387,88.0
46135,-0.20846939,0.026695251,0.026565552,0.24320069,0.011682129,-0.035046387,88.0
46136,-0.20846939,0.026695251,0.026565552,0.271875,0.004248047,0.09133301,88.0
46137,-0.36512756,0.31575012,0.3030281,0.271875,0.004248047,0.09133301,88.0
46138,-0.36512756,0.31575012,0.3030281,0.22514649,-0.0063720704,0.10407715,88.0
46139,-0.36512756,0.31575012,0.3030281,0.22514649,-0.0063720704,0.10407715,88.0
46140,-0.41623533,0.4695282,0.5075569,0.22514649,-0.0063720704,0.10407715,88.0
46141,-0.41623533,0.4695282,0.5075569,0.1083252,-0.03079834,0.090270996,88.0
46142,-0.34919918,0.5815277,0.49489975,0.1083252,-0.03079834,0.090270996,88.0
46143,-0.34919918,0.5815277,0.49489975,0.021240234,0.045666505,0.04460449,88.0
46144,-0.30256492,0.5157242,0.22016144,0.021240234,0.045666505,0.04460449,88.0
46145,-0.30256492,0.5157242,0.22016144,-0.14018555,0.039294433,-0.047790527,88.0
46146,-0.21009398,-0.039146423,-0.18442917,-0.14018555,0.039294433,-0.047790527,88.0
46147,-0.21009398,-0.039146423,-0.18442917,0.07646485,0.0031860352,-0.070092775,88.0
46148,-0.023397446,-0.38213348,-0.29633713,0.07646485,0.0031860352,-0.070092775,88.0
46149,-0.023397446,-0.38213348,-0.29633713,0.25806886,0.0637207,-0.0722168,88.0
46150,0.111335754,0.057685852,-0.115184784,0.25806886,0.0637207,-0.0722168,88.0
46151,0.111335754,0.057685852,-0.115184784,-0.007434082,0.1274414,-0.15186767,88.0
46152,0.1610657,0.35310364,-0.039009094,-0.007434082,0.1274414,-0.15186767,88.0
46153,0.1610657,0.35310364,-0.039009094,-0.083898924,0.1083252,-0.12319336,88.0
46154,0.14218259,0.07545471,-0.091243744,-0.083898924,0.1083252,-0.12319336,88.0
46155,0.14218259,0.07545471,-0.091243744,0.015930176,0.10089111,-0.0541626,88.0
46156,0.05296725,-0.11936951,-0.14421082,0.015930176,0.10089111,-0.0541626,88.0
46157,0.05296725,-0.11936951,-0.14421082,0.07646485,0.05628662,-0.05522461,88.0
46158,-0.0037321448,-0.06398773,-0.16394043,0.07646485,0.05628662,-0.05522461,88.0
46159,-0.0037321448,-0.06398773,-0.16394043,0.14337158,0.0063720704,-0.04460449,88.0
46160,-0.010102451,0.09424591,-0.14249039,0.14337158,0.0063720704,-0.04460449,88.0
46161,-0.010102451,0.09424591,-0.14249039,0.11257324,-0.0180542,-0.050976563,88.0
46162,0.028587937,0.20722198,-0.06586075,0.11257324,-0.0180542,-0.050976563,88.0
46163,0.028587937,0.20722198,-0.06586075,0.21452637,0.029736329,-0.014868164,88.0
46164,0.0710637,0.20465851,0.0487175,0.21452637,0.029736329,-0.014868164,88.0
46165,0.0710637,0.20465851,0.0487175,0.18585205,0.014868164,0.019116212,88.0
46166,0.06379676,0.16590881,0.08578873,0.18585205,0.014868164,0.019116212,88.0
46167,0.06379676,0.16590881,0.08578873,0.22514649,0.0010620117,0.07540283,88.0
46168,0.031677067,0.16099548,0.082141876,0.22514649,0.0010620117,0.07540283,88.0
46169,0.031677067,0.16099548,0.082141876,0.16354981,-0.016992187,0.059472658,88.0
46170,-0.008093417,0.17132568,0.0816803,0.16354981,-0.016992187,0.059472658,88.0
46171,-0.008093417,0.17132568,0.0816803,0.0998291,0.0541626,0.08283692,88.0
46172,-0.04039806,0.09108734,0.06247711,0.0998291,0.0541626,0.08283692,88.0
46173,-0.04039806,0.09108734,0.06247711,0.20178223,0.090270996,0.1178833,88.0
46174,-0.073273,0.12590027,0.0418396,0.20178223,0.090270996,0.1178833,88.0
46175,-0.073273,0.12590027,0.0418396,0.12956543,0.13168946,0.10407715,88.0
46176,-0.114831746,0.08052826,-0.007286072,0.12956543,0.13168946,0.10407715,88.0
46177,-0.114831746,0.08052826,-0.007286072,0.19647217,0.070092775,0.12000733,88.0
46178,-0.13345474,-0.2612381,-0.08773804,0.19647217,0.070092775,0.12000733,88.0
46179,-0.13345474,-0.2612381,-0.08773804,0.28568116,0.06796875,0.27718505,88.0
46180,-0.22784531,-0.2288742,-0.06347656,0.28568116,0.06796875,0.27718505,88.0
46181,-0.22784531,-0.2288742,-0.06347656,0.2538208,0.06903076,0.14868164,88.0
46182,-0.33143395,0.10002899,0.024475098,0.2538208,0.06903076,0.14868164,88.0
46183,-0.33143395,0.10002899,0.024475098,0.13275146,0.025488282,0.10089111,88.0
46184,-0.2704206,0.29092407,0.071323395,0.13275146,0.025488282,0.10089111,88.0
46185,-0.2704206,0.29092407,0.071323395,-0.0053100586,-0.06159668,-0.021240234,88.0
46186,-0.008865774,0.40930176,0.0956192,-0.0053100586,-0.06159668,-0.021240234,88.0
46187,-0.008865774,0.40930176,0.0956192,-0.15505372,-0.083898924,-0.039294433,88.0
46188,0.23406953,0.3019333,0.107601166,-0.15505372,-0.083898924,-0.039294433,88.0
46189,0.23406953,0.3019333,0.107601166,-0.31435546,-0.03186035,-0.004248047,88.0
46190,0.24991429,0.018730164,-0.03679657,-0.31435546,-0.03186035,-0.004248047,88.0
46191,0.24991429,0.018730164,-0.03679657,-0.2442627,-0.052038576,0.010620117,88.0
46192,0.12299055,-0.13744354,-0.33955383,-0.2442627,-0.052038576,0.010620117,88.0
46193,0.12299055,-0.13744354,-0.33955383,-0.1274414,-0.05522461,-0.027612304,88.0
46194,0.057938337,-0.28477478,-0.41888428,-0.1274414,-0.05522461,-0.027612304,88.0
46195,0.057938337,-0.28477478,-0.41888428,0.014868164,-0.06478272,0.039294433,88.0
46196,0.0485968,-0.51395416,-0.29130936,0.014868164,-0.06478272,0.039294433,88.0
46197,0.0485968,-0.51395416,-0.29130936,0.19116211,-0.08602295,0.10620117,88.0
46198,0.016001463,-0.48638153,-0.22063446,0.19116211,-0.08602295,0.10620117,88.0
46199,0.016001463,-0.48638153,-0.22063446,0.3727661,-0.11469727,0.095581055,88.0
46200,-0.0076334476,-0.2811432,-0.28297806,0.3727661,-0.11469727,0.095581055,88.0
46201,-0.0076334476,-0.2811432,-0.28297806,0.43967286,-0.09239502,0.0063720704,88.0
46202,0.031210124,-0.1054306,-0.24170303,0.43967286,-0.09239502,0.0063720704,88.0
46203,0.031210124,-0.1054306,-0.24170303,0.6945557,-0.035046387,-0.07434082,88.0
46204,0.13616192,0.08358002,0.066352844,0.6945557,-0.035046387,-0.07434082,88.0
46205,0.13616192,0.08358002,0.066352844,0.6754395,0.10301514,-0.04141846,88.0
46206,0.23073131,0.4686432,0.29546356,0.6754395,0.10301514,-0.04141846,88.0
46207,0.23073131,0.4686432,0.29546356,0.6202149,0.35683593,-0.1274414,88.0
46208,0.17535657,0.96593475,0.38682175,0.6202149,0.35683593,-0.1274414,88.0
46209,0.17535657,0.96593475,0.38682175,0.5851685,0.59047854,-0.32816163,88.0
46210,-0.0362162,1.2499466,0.62322617,0.5851685,0.59047854,-0.32816163,88.0
46211,-0.0362162,1.2499466,0.62322617,0.22196046,0.63826907,-0.4163086,88.0
46212,-0.31093097,1.1864471,0.73179626,0.22196046,0.63826907,-0.4163086,88.0
46213,-0.31093097,1.1864471,0.73179626,-0.20072022,0.53525394,-0.38869628,88.0
46214,-0.6631491,0.82154846,0.42375565,-0.20072022,0.53525394,-0.38869628,88.0
46215,-0.6631491,0.82154846,0.42375565,-0.45135498,0.28780517,-0.32603762,88.0
46216,-0.8750994,-0.03729248,-0.015476227,-0.45135498,0.28780517,-0.32603762,88.0
46217,-0.8750994,-0.03729248,-0.015476227,-0.23682861,0.19222413,-0.10938721,88.0
46218,-0.68272114,-0.8863373,-0.25575256,-0.23682861,0.19222413,-0.10938721,88.0
46219,-0.68272114,-0.8863373,-0.25575256,0.14018555,0.10513916,0.045666505,88.0
46220,-0.39150167,-0.702034,-0.21938324,0.14018555,0.10513916,0.045666505,88.0
46221,-0.39150167,-0.702034,-0.21938324,0.18160401,-0.03079834,0.06265869,88.0
46222,-0.23043764,0.030830383,-0.048358917,0.18160401,-0.03079834,0.06265869,88.0
46223,-0.23043764,0.030830383,-0.048358917,0.1263794,-0.11363526,0.04141846,88.0
46224,-0.0907588,0.5548172,0.12034607,0.1263794,-0.11363526,0.04141846,88.0
46225,-0.0907588,0.5548172,0.12034607,-0.039294433,-0.16779785,-0.04885254,88.0
46226,0.023596525,0.7102127,0.26602936,-0.039294433,-0.16779785,-0.04885254,88.0
46227,0.023596525,0.7102127,0.26602936,-0.2899292,-0.21452637,-0.11257324,88.0
46228,0.051909447,0.53152466,0.3307686,-0.2899292,-0.21452637,-0.11257324,88.0
46229,0.051909447,0.53152466,0.3307686,-0.5649902,-0.2623169,-0.12956543,88.0
46230,0.076976776,0.032348633,0.23289871,-0.5649902,-0.2623169,-0.12956543,88.0
46231,0.076976776,0.032348633,0.23289871,-0.6074707,-0.33134767,-0.04141846,88.0
46232,0.18274832,-0.5309067,0.014102936,-0.6074707,-0.33134767,-0.04141846,88.0
46233,0.18274832,-0.5309067,0.014102936,-0.48427734,-0.271875,0.0031860352,88.0
46234,0.26205564,-0.77954865,-0.24629974,-0.48427734,-0.271875,0.0031860352,88.0
46235,0.26205564,-0.77954865,-0.24629974,-0.38657227,-0.2262085,0.11363526,88.0
46236,0.18349707,-0.68413544,-0.39775848,-0.38657227,-0.2262085,0.11363526,88.0
46237,0.18349707,-0.68413544,-0.39775848,-0.3451538,-0.21346436,0.115759276,88.0
46238,0.11313069,-0.553154,-0.41212845,-0.3451538,-0.21346436,0.115759276,88.0
46239,0.11313069,-0.553154,-0.41212845,-0.14868164,-0.20284425,0.21983643,88.0
46240,0.25025797,-0.4419632,-0.32943726,-0.14868164,-0.20284425,0.21983643,88.0
46241,0.25025797,-0.4419632,-0.32943726,0.07752686,-0.093457036,0.10513916,88.0
46242,0.45776248,-0.0730896,-0.19670486,0.07752686,-0.093457036,0.10513916,88.0
46243,0.45776248,-0.0730896,-0.19670486,0.16567384,-0.0010620117,0.010620117,88.0
46244,0.45776248,-0.0730896,-0.19670486,0.16567384,-0.0010620117,0.010620117,88.0
46245,0.50628567,0.44230652,0.040229797,0.16567384,-0.0010620117,0.010620117,88.0
46246,0.50628567,0.44230652,0.040229797,-0.12319336,0.107263185,-0.0541626,88.0
46247,0.30926442,0.568161,0.15359497,-0.12319336,0.107263185,-0.0541626,88.0
46248,0.30926442,0.568161,0.15359497,-0.25700685,0.11151123,-0.095581055,88.0
46249,0.03342229,-0.041366577,-0.046813965,-0.25700685,0.11151123,-0.095581055,88.0
46250,0.03342229,-0.041366577,-0.046813965,-0.06903076,0.058410645,-0.070092775,88.0
46251,-0.093293905,-0.64943695,-0.15114975,-0.06903076,0.058410645,-0.070092775,88.0
46252,-0.093293905,-0.64943695,-0.15114975,0.16354981,0.052038576,0.0361084,88.0
46253,-0.11532116,-0.4382019,0.13917542,0.16354981,0.052038576,0.0361084,88.0
46254,-0.11532116,-0.4382019,0.13917542,0.019116212,0.03717041,0.03717041,88.0
46255,-0.17724228,0.059814453,0.39053726,0.019116212,0.03717041,0.03717041,88.0
46256,-0.17724228,0.059814453,0.39053726,-0.14337158,0.021240234,0.010620117,88.0
46257,-0.27244568,0.15527344,0.21899414,-0.14337158,0.021240234,0.010620117,88.0
46258,-0.27244568,0.15527344,0.21899414,-0.18266602,-0.011682129,0.022302246,88.0
46259,-0.20429683,-0.12465668,-0.09753418,-0.18266602,-0.011682129,0.022302246,88.0
46260,-0.20429683,-0.12465668,-0.09753418,0.028674318,-0.032922365,0.06584473,88.0
46261,0.04969728,-0.117996216,-0.13942719,0.028674318,-0.032922365,0.06584473,88.0
46262,0.04969728,-0.117996216,-0.13942719,-0.08602295,0.02442627,-0.008496094,88.0
46263,0.19387162,0.25468445,-0.041374207,-0.08602295,0.02442627,-0.008496094,88.0
46264,0.19387162,0.25468445,-0.041374207,-0.21027832,0.010620117,-0.052038576,88.0
46265,0.15044641,0.2876587,-0.03672409,-0.21027832,0.010620117,-0.052038576,88.0
46266,0.15044641,0.2876587,-0.03672409,-0.22408448,-0.016992187,-0.09770508,88.0
46267,-0.014005661,-0.21557617,-0.27669525,-0.22408448,-0.016992187,-0.09770508,88.0
46268,-0.014005661,-0.21557617,-0.27669525,-0.13275146,-0.06796875,-0.090270996,88.0
46269,-0.046055555,-0.38866425,-0.28693008,-0.13275146,-0.06796875,-0.090270996,88.0
46270,-0.046055555,-0.38866425,-0.28693008,-0.027612304,-0.083898924,-0.09133301,88.0
46271,-0.00284791,-0.5821762,-0.18204498,-0.027612304,-0.083898924,-0.09133301,88.0
46272,-0.00284791,-0.5821762,-0.18204498,0.26337892,-0.027612304,-0.04885254,88.0
46273,0.015727043,-0.40298462,-0.103767395,0.26337892,-0.027612304,-0.04885254,88.0
46274,0.015727043,-0.40298462,-0.103767395,0.28568116,0.013806152,-0.06265869,88.0
46275,0.039217353,0.15100098,0.1737976,0.28568116,0.013806152,-0.06265869,88.0
46276,0.039217353,0.15100098,0.1737976,0.38975832,0.20496826,-0.16248779,88.0
46277,0.021046758,0.38895416,0.2776947,0.38975832,0.20496826,-0.16248779,88.0
46278,0.021046758,0.38895416,0.2776947,0.32816163,0.2782471,-0.24213867,88.0
46279,-0.021712422,1.275383,0.7426605,0.32816163,0.2782471,-0.24213867,88.0
46280,-0.021712422,1.275383,0.7426605,-0.24001466,0.41418457,-0.4725952,88.0
46281,-0.08129811,1.2726517,0.7945442,-0.24001466,0.41418457,-0.4725952,88.0
46282,-0.08129811,1.2726517,0.7945442,-0.5161377,0.4078125,-0.5734863,88.0
46283,-0.2806146,0.1569519,0.3637619,-0.5161377,0.4078125,-0.5734863,88.0
46284,-0.2806146,0.1569519,0.3637619,-0.7147339,0.24638672,-0.14761963,88.0
46285,-0.3727095,-0.6391983,-0.0634079,-0.7147339,0.24638672,-0.14761963,88.0
46286,-0.3727095,-0.6391983,-0.0634079,-0.38444826,0.107263185,0.0021240234,88.0
46287,-0.5329577,-1.6529083,-0.7360039,-0.38444826,0.107263185,0.0021240234,88.0
46288,-0.5329577,-1.6529083,-0.7360039,0.2803711,0.02442627,0.090270996,88.0
46289,-0.39136863,-1.2564545,-0.6684532,0.2803711,0.02442627,0.090270996,88.0
46290,-0.39136863,-1.2564545,-0.6684532,0.58304447,0.028674318,0.18160401,88.0
46291,-0.1578703,-0.074661255,-0.12975693,0.58304447,0.028674318,0.18160401,88.0
46292,-0.1578703,-0.074661255,-0.12975693,0.4704712,0.011682129,0.121069334,88.0
46293,0.021970391,0.9023819,0.36235428,0.4704712,0.011682129,0.121069334,88.0
46294,0.021970391,0.9023819,0.36235428,0.21346436,0.015930176,0.014868164,88.0
46295,0.11912656,1.1347504,0.5234909,0.21346436,0.015930176,0.014868164,88.0
46296,0.11912656,1.1347504,0.5234909,-0.040356446,0.033984374,-0.06796875,88.0
46297,0.14853609,0.79920197,0.37340546,-0.040356446,0.033984374,-0.06796875,88.0
46298,0.14853609,0.79920197,0.37340546,-0.26762697,0.070092775,-0.12850343,88.0
46299,0.11630201,0.19898987,0.074359894,-0.26762697,0.070092775,-0.12850343,88.0
46300,0.11630201,0.19898987,0.074359894,-0.2177124,0.121069334,-0.11044922,88.0
46301,0.047082186,-0.33843994,-0.17683029,-0.2177124,0.121069334,-0.11044922,88.0
46302,0.047082186,-0.33843994,-0.17683029,-0.0010620117,0.16673584,-0.046728518,88.0
46303,-0.012883544,-0.5425644,-0.22994995,-0.0010620117,0.16673584,-0.046728518,88.0
46304,-0.012883544,-0.5425644,-0.22994995,0.24107666,0.20709229,0.04141846,88.0
46305,-0.049882054,-0.46133423,-0.1421051,0.24107666,0.20709229,0.04141846,88.0
46306,-0.049882054,-0.46133423,-0.1421051,0.3802002,0.29417726,0.093457036,88.0
46307,-0.10200286,-0.2519989,-0.02178955,0.3802002,0.29417726,0.093457036,88.0
46308,-0.10200286,-0.2519989,-0.02178955,0.46516114,0.32072756,0.14761963,88.0
46309,-0.21415854,0.07033539,0.08338547,0.46516114,0.32072756,0.14761963,88.0
46310,-0.21415854,0.07033539,0.08338547,0.4322388,0.3154175,0.121069334,88.0
46311,-0.31828725,0.40050507,0.19246292,0.4322388,0.3154175,0.121069334,88.0
46312,-0.31828725,0.40050507,0.19246292,0.3090454,0.26868898,0.07752686,88.0
46313,-0.36929035,0.572052,0.2693367,0.3090454,0.26868898,0.07752686,88.0
46314,-0.36929035,0.572052,0.2693367,0.16673584,0.21134034,0.03186035,88.0
46315,-0.40689468,0.59202576,0.26520157,0.16673584,0.21134034,0.03186035,88.0
46316,-0.40689468,0.59202576,0.26520157,0.0361084,0.081774905,-0.025488282,88.0
46317,-0.35002744,0.4646225,0.20975876,0.0361084,0.081774905,-0.025488282,88.0
46318,-0.35002744,0.4646225,0.20975876,-0.06159668,0.0031860352,-0.06478272,88.0
46319,-0.17682362,0.19255829,0.11702728,-0.06159668,0.0031860352,-0.06478272,88.0
46320,-0.17682362,0.19255829,0.11702728,-0.07965088,-0.016992187,-0.047790527,88.0
46321,-0.014981866,-0.068244934,0.0067710876,-0.07965088,-0.016992187,-0.047790527,88.0
46322,-0.014981866,-0.068244934,0.0067710876,-0.0637207,-0.038232423,-0.020178223,88.0
46323,0.07043636,-0.19480896,-0.077983856,-0.0637207,-0.038232423,-0.020178223,88.0
46324,0.07043636,-0.19480896,-0.077983856,0.012744141,-0.025488282,0.007434082,88.0
46325,0.053272963,-0.14896393,-0.13877869,0.012744141,-0.025488282,0.007434082,88.0
46326,0.053272963,-0.14896393,-0.13877869,0.015930176,-0.046728518,-0.0031860352,88.0
46327,-0.011568546,-0.030281067,-0.14481354,0.015930176,-0.046728518,-0.0031860352,88.0
46328,-0.011568546,-0.030281067,-0.14481354,-0.0021240234,-0.053100586,-0.02442627,88.0
46329,-0.019520998,0.040252686,-0.075214386,-0.0021240234,-0.053100586,-0.02442627,88.0
46330,-0.019520998,0.040252686,-0.075214386,-0.03079834,-0.058410645,-0.04248047,88.0
46331,0.0041952133,0.07430267,-0.011550903,-0.03079834,-0.058410645,-0.04248047,88.0
46332,0.0041952133,0.07430267,-0.011550903,-0.04991455,-0.038232423,-0.040356446,88.0
46333,0.03723061,0.04485321,0.021018982,-0.04991455,-0.038232423,-0.040356446,88.0
46334,0.03723061,0.04485321,0.021018982,-0.03186035,-0.026550293,-0.007434082,88.0
46335,0.047142863,0.02583313,0.013534546,-0.03186035,-0.026550293,-0.007434082,88.0
46336,0.047142863,0.02583313,0.013534546,-0.012744141,-0.040356446,0.011682129,88.0
46337,0.030756235,0.096473694,0.023326874,-0.012744141,-0.040356446,0.011682129,88.0
46338,0.030756235,0.096473694,0.023326874,-0.06478272,-0.06265869,-0.016992187,88.0
46339,-0.020622015,0.21109009,0.09246826,-0.06478272,-0.06265869,-0.016992187,88.0
46340,-0.020622015,0.21109009,0.09246826,-0.1720459,-0.12319336,-0.0541626,88.0
46341,-0.09271836,0.2532959,0.22732925,-0.1720459,-0.12319336,-0.0541626,88.0
46342,-0.09271836,0.2532959,0.22732925,-0.36745605,-0.22727051,-0.04141846,88.0
46343,-0.09271836,0.2532959,0.22732925,-0.36745605,-0.22727051,-0.04141846,89.0
46344,-0.079423666,0.10005188,0.3050804,-0.36745605,-0.22727051,-0.04141846,89.0
46345,-0.079423666,0.10005188,0.3050804,-0.5320679,-0.38232422,0.025488282,89.0
46346,0.01926136,-0.30338287,0.12622833,-0.5320679,-0.38232422,0.025488282,89.0
46347,0.01926136,-0.30338287,0.12622833,-0.4428589,-0.48215333,0.107263185,89.0
46348,0.10947645,-0.7206726,-0.24623108,-0.4428589,-0.48215333,0.107263185,89.0
46349,0.10947645,-0.7206726,-0.24623108,-0.18054199,-0.4630371,0.26656494,89.0
46350,0.18625057,-0.7733307,-0.4219246,-0.18054199,-0.4630371,0.26656494,89.0
46351,0.18625057,-0.7733307,-0.4219246,-0.093457036,-0.44710693,0.2984253,89.0
46352,0.2700088,-0.529129,-0.27505112,-0.093457036,-0.44710693,0.2984253,89.0
46353,0.2700088,-0.529129,-0.27505112,-0.04991455,-0.4088745,0.3090454,89.0
46354,0.36156368,-0.18139648,-0.13278198,-0.04991455,-0.4088745,0.3090454,89.0
46355,0.36156368,-0.18139648,-0.13278198,0.03717041,-0.2623169,0.24320069,89.0
46356,0.43962944,0.20381927,-0.08408356,0.03717041,-0.2623169,0.24320069,89.0
46357,0.43962944,0.20381927,-0.08408356,-0.014868164,-0.07646485,0.033984374,89.0
46358,0.43911815,0.44104767,-0.015327454,-0.014868164,-0.07646485,0.033984374,89.0
46359,0.43911815,0.44104767,-0.015327454,-0.24001466,0.0361084,-0.087084964,89.0
46360,0.38707328,0.4015808,-0.0039863586,-0.24001466,0.0361084,-0.087084964,89.0
46361,0.38707328,0.4015808,-0.0039863586,-0.33984375,0.10301514,-0.1731079,89.0
46362,0.28915083,0.043373108,-0.11073303,-0.33984375,0.10301514,-0.1731079,89.0
46363,0.28915083,0.043373108,-0.11073303,-0.3334717,0.095581055,-0.17416993,89.0
46364,0.19943595,-0.59412384,-0.29365158,-0.3334717,0.095581055,-0.17416993,89.0
46365,0.19943595,-0.59412384,-0.29365158,-0.16248779,0.0541626,-0.0637207,89.0
46366,0.13020313,-0.9719696,-0.41441345,-0.16248779,0.0541626,-0.0637207,89.0
46367,0.13020313,-0.9719696,-0.41441345,0.098767094,0.026550293,0.060534667,89.0
46368,-0.0027344227,-0.6150665,-0.24694824,0.098767094,0.026550293,0.060534667,89.0
46369,-0.0027344227,-0.6150665,-0.24694824,0.14761963,-0.004248047,0.07115479,89.0
46370,-0.137478,0.040115356,0.12345123,0.14761963,-0.004248047,0.07115479,89.0
46371,-0.137478,0.040115356,0.12345123,0.1178833,0.0180542,0.045666505,89.0
46372,-0.17653513,0.3853531,0.33441925,0.1178833,0.0180542,0.045666505,89.0
46373,-0.17653513,0.3853531,0.33441925,0.035046387,0.03186035,0.0021240234,89.0
46374,-0.10896492,0.3215866,0.21333313,0.035046387,0.03186035,0.0021240234,89.0
46375,-0.10896492,0.3215866,0.21333313,0.032922365,0.019116212,0.0053100586,89.0
46376,0.01625824,0.061897278,-0.025634766,0.032922365,0.019116212,0.0053100586,89.0
46377,0.01625824,0.061897278,-0.025634766,0.09133301,-0.022302246,-0.015930176,89.0
46378,0.11820674,-0.037002563,-0.08786392,0.09133301,-0.022302246,-0.015930176,89.0
46379,0.11820674,-0.037002563,-0.08786392,0.09133301,-0.03079834,0.009558106,89.0
46380,0.12660885,0.05672455,0.03372574,0.09133301,-0.03079834,0.009558106,89.0
46381,0.12660885,0.05672455,0.03372574,0.011682129,-0.025488282,0.0010620117,89.0
46382,0.021514058,0.11734009,0.11710358,0.011682129,-0.025488282,0.0010620117,89.0
46383,0.021514058,0.11734009,0.11710358,-0.058410645,-0.013806152,-0.009558106,89.0
46384,-0.12453675,-0.0056991577,0.039863586,-0.058410645,-0.013806152,-0.009558106,89.0
46385,-0.12453675,-0.0056991577,0.039863586,-0.07965088,-0.03717041,-0.013806152,89.0
46386,-0.16093314,-0.1615982,-0.09498978,-0.07965088,-0.03717041,-0.013806152,89.0
46387,-0.16093314,-0.1615982,-0.09498978,-0.0010620117,-0.05522461,-0.011682129,89.0
46388,-0.05893457,-0.110321045,-0.13408661,-0.0010620117,-0.05522461,-0.011682129,89.0
46389,-0.05893457,-0.110321045,-0.13408661,0.004248047,-0.0541626,-0.050976563,89.0
46390,0.058369875,0.029762268,-0.06367874,0.004248047,-0.0541626,-0.050976563,89.0
46391,0.058369875,0.029762268,-0.06367874,-0.043542482,-0.0361084,-0.07115479,89.0
46392,0.102054834,0.042671204,-0.017253876,-0.043542482,-0.0361084,-0.07115479,89.0
46393,0.102054834,0.042671204,-0.017253876,-0.010620117,-0.016992187,-0.070092775,89.0
46394,0.06034255,0.0070495605,0.03294754,-0.010620117,-0.016992187,-0.070092775,89.0
46395,0.06034255,0.0070495605,0.03294754,0.029736329,-0.008496094,-0.07327881,89.0
46396,0.010212541,0.16038513,0.1789093,0.029736329,-0.008496094,-0.07327881,89.0
46397,0.010212541,0.16038513,0.1789093,-0.06690674,0.013806152,-0.093457036,89.0
46398,-0.018612146,0.23356628,0.23225021,-0.06690674,0.013806152,-0.093457036,89.0
46399,-0.018612146,0.23356628,0.23225021,-0.19434814,0.021240234,-0.07540283,89.0
46400,-0.039401412,-0.11769867,0.040740967,-0.19434814,0.021240234,-0.07540283,89.0
46401,-0.039401412,-0.11769867,0.040740967,-0.046728518,-0.010620117,-0.0031860352,89.0
46402,-0.056814075,-0.37187195,-0.10860443,-0.046728518,-0.010620117,-0.0031860352,89.0
46403,-0.056814075,-0.37187195,-0.10860443,0.0637207,-0.019116212,0.0031860352,89.0
46404,-0.03920126,-0.19706726,-0.036346436,0.0637207,-0.019116212,0.0031860352,89.0
46405,-0.03920126,-0.19706726,-0.036346436,0.021240234,-0.016992187,0.016992187,89.0
46406,1.8203259E-4,0.10557556,0.1028595,0.021240234,-0.016992187,0.016992187,89.0
46407,1.8203259E-4,0.10557556,0.1028595,-0.043542482,-0.0053100586,-0.0180542,89.0
46408,0.009203196,0.21006012,0.124378204,-0.043542482,-0.0053100586,-0.0180542,89.0
46409,0.009203196,0.21006012,0.124378204,-0.11363526,-0.025488282,-0.035046387,89.0
46410,0.025673032,0.069503784,0.08753967,-0.11363526,-0.025488282,-0.035046387,89.0
46411,0.025673032,0.069503784,0.08753967,-0.08814698,-0.007434082,-0.0053100586,89.0
46412,0.012579441,-0.07897949,0.05561447,-0.08814698,-0.007434082,-0.0053100586,89.0
46413,0.012579441,-0.07897949,0.05561447,-0.06796875,-0.013806152,0.035046387,89.0
46414,-0.08092761,-0.13713074,-0.03551483,-0.06796875,-0.013806152,0.035046387,89.0
46415,-0.08092761,-0.13713074,-0.03551483,-0.035046387,-0.0361084,-0.004248047,89.0
46416,-0.095162034,-0.20280457,-0.09197235,-0.035046387,-0.0361084,-0.004248047,89.0
46417,-0.095162034,-0.20280457,-0.09197235,0.038232423,-0.014868164,0.040356446,89.0
46418,-0.019818664,-0.07745361,-0.0022773743,0.038232423,-0.014868164,0.040356446,89.0
46419,-0.019818664,-0.07745361,-0.0022773743,-0.007434082,0.04460449,0.0063720704,89.0
46420,0.007802367,0.18709564,0.01676941,-0.007434082,0.04460449,0.0063720704,89.0
46421,0.007802367,0.18709564,0.01676941,-0.124255374,0.04141846,-0.0637207,89.0
46422,0.04491377,0.05052185,-0.1389656,-0.124255374,0.04141846,-0.0637207,89.0
46423,0.04491377,0.05052185,-0.1389656,-0.010620117,-0.011682129,-0.029736329,89.0
46424,0.14701498,-0.13194275,-0.21549225,-0.010620117,-0.011682129,-0.029736329,89.0
46425,0.14701498,-0.13194275,-0.21549225,0.070092775,-0.012744141,-0.014868164,89.0
46426,0.22522914,0.120910645,-0.07696152,0.070092775,-0.012744141,-0.014868164,89.0
46427,0.22522914,0.120910645,-0.07696152,0.012744141,0.040356446,-0.05628662,89.0
46428,0.16424096,0.3089981,0.031009674,0.012744141,0.040356446,-0.05628662,89.0
46429,0.16424096,0.3089981,0.031009674,-0.15930176,0.0180542,-0.04460449,89.0
46430,0.060897112,-0.027557373,-0.123298645,-0.15930176,0.0180542,-0.04460449,89.0
46431,0.060897112,-0.027557373,-0.123298645,0.10620117,-0.0361084,0.033984374,89.0
46432,0.028490663,-0.26763916,-0.15719604,0.10620117,-0.0361084,0.033984374,89.0
46433,0.028490663,-0.26763916,-0.15719604,0.22302246,0.0031860352,0.058410645,89.0
46434,-0.05333054,0.037208557,0.15708923,0.22302246,0.0031860352,0.058410645,89.0
46435,-0.05333054,0.037208557,0.15708923,0.021240234,0.03717041,0.015930176,89.0
46436,-0.18560886,0.23812866,0.32972717,0.021240234,0.03717041,0.015930176,89.0
46437,-0.18560886,0.23812866,0.32972717,-0.10407715,0.03079834,-0.0361084,89.0
46438,-0.24043047,-0.024024963,0.14210129,-0.10407715,0.03079834,-0.0361084,89.0
46439,-0.24043047,-0.024024963,0.14210129,-0.033984374,0.026550293,-0.0021240234,89.0
46440,-0.1872052,-0.2698288,-0.028224945,-0.033984374,0.026550293,-0.0021240234,89.0
46441,-0.1872052,-0.2698288,-0.028224945,0.047790527,0.03186035,0.0021240234,89.0
46442,-0.11839211,-0.13632202,0.037857056,0.047790527,0.03186035,0.0021240234,89.0
46443,-0.11839211,-0.13632202,0.037857056,0.007434082,0.04885254,-0.008496094,89.0
46444,-0.09162533,0.08337402,0.10820389,0.007434082,0.04885254,-0.008496094,89.0
46445,-0.09162533,0.08337402,0.10820389,-0.047790527,0.04141846,-0.026550293,89.0
46446,-0.0773164,0.083091736,0.038684845,-0.047790527,0.04141846,-0.026550293,89.0
46447,-0.0773164,0.083091736,0.038684845,-0.083898924,0.010620117,-0.0637207,89.0
46448,-0.0773164,0.083091736,0.038684845,-0.083898924,0.010620117,-0.0637207,89.0
46449,-0.01649177,0.01914978,-0.106918335,-0.083898924,0.010620117,-0.0637207,89.0
46450,-0.01649177,0.01914978,-0.106918335,-0.08496094,-0.0010620117,-0.10513916,89.0
46451,0.14961171,0.046188354,-0.20456696,-0.08496094,-0.0010620117,-0.10513916,89.0
46452,0.14961171,0.046188354,-0.20456696,-0.053100586,0.011682129,-0.10195313,89.0
46453,0.27822208,0.036842346,-0.22905731,-0.053100586,0.011682129,-0.10195313,89.0
46454,0.27822208,0.036842346,-0.22905731,-0.009558106,-0.032922365,-0.060534667,89.0
46455,0.26029742,-0.034812927,-0.18902206,-0.009558106,-0.032922365,-0.060534667,89.0
46456,0.26029742,-0.034812927,-0.18902206,0.10938721,-0.081774905,-0.0053100586,89.0
46457,0.21148503,-0.004966736,0.009647369,0.10938721,-0.081774905,-0.0053100586,89.0
46458,0.21148503,-0.004966736,0.009647369,0.08602295,-0.081774905,0.04248047,89.0
46459,0.10705423,0.114105225,0.2311554,0.08602295,-0.081774905,0.04248047,89.0
46460,0.10705423,0.114105225,0.2311554,-0.04885254,-0.033984374,0.040356446,89.0
46461,-0.047071457,0.12233734,0.25842285,-0.04885254,-0.033984374,0.040356446,89.0
46462,-0.047071457,0.12233734,0.25842285,-0.07327881,-0.0053100586,0.08283692,89.0
46463,-0.14415133,0.01852417,0.11936951,-0.07327881,-0.0053100586,0.08283692,89.0
46464,-0.14415133,0.01852417,0.11936951,-0.032922365,0.019116212,0.07327881,89.0
46465,-0.17655158,-0.10581207,-0.07101059,-0.032922365,0.019116212,0.07327881,89.0
46466,-0.17655158,-0.10581207,-0.07101059,0.1539917,0.032922365,0.0541626,89.0
46467,-0.14044785,-0.21388245,-0.15058136,0.1539917,0.032922365,0.0541626,89.0
46468,-0.14044785,-0.21388245,-0.15058136,0.15186767,0.05522461,0.087084964,89.0
46469,-0.0870775,-0.11457825,-0.08527374,0.15186767,0.05522461,0.087084964,89.0
46470,-0.0870775,-0.11457825,-0.08527374,0.124255374,0.07540283,0.083898924,89.0
46471,-0.060860753,0.042907715,0.08561325,0.124255374,0.07540283,0.083898924,89.0
46472,-0.060860753,0.042907715,0.08561325,0.08071289,0.07752686,0.07646485,89.0
46473,-0.003363967,0.060020447,0.19309998,0.08071289,0.07752686,0.07646485,89.0
46474,-0.003363967,0.060020447,0.19309998,0.04991455,0.14337158,0.070092775,89.0
46475,0.0012395382,0.033432007,0.08242035,0.04991455,0.14337158,0.070092775,89.0
46476,0.0012395382,0.033432007,0.08242035,0.0053100586,0.039294433,0.09133301,89.0
46477,-0.020993233,0.065597534,-0.10969925,0.0053100586,0.039294433,0.09133301,89.0
46478,-0.020993233,0.065597534,-0.10969925,-0.050976563,-0.09770508,0.07646485,89.0
46479,0.009755731,0.2701416,-0.10199356,-0.050976563,-0.09770508,0.07646485,89.0
46480,0.009755731,0.2701416,-0.10199356,-0.20284425,-0.08496094,-0.007434082,89.0
46481,0.05067575,0.21897125,-0.060771942,-0.20284425,-0.08496094,-0.007434082,89.0
46482,0.05067575,0.21897125,-0.060771942,-0.3430298,-0.10301514,0.014868164,89.0
46483,0.067396045,-0.16300201,-0.28102875,-0.3430298,-0.10301514,0.014868164,89.0
46484,0.067396045,-0.16300201,-0.28102875,-0.058410645,-0.13699952,0.023364259,89.0
46485,0.09499347,-0.46826935,-0.39440536,-0.058410645,-0.13699952,0.023364259,89.0
46486,0.09499347,-0.46826935,-0.39440536,0.20496826,-0.17523193,0.07965088,89.0
46487,0.1607604,-0.6022186,-0.29639435,0.20496826,-0.17523193,0.07965088,89.0
46488,0.1607604,-0.6022186,-0.29639435,0.37807617,-0.15930176,0.15186767,89.0
46489,0.096870065,-0.41871643,-0.30750275,0.37807617,-0.15930176,0.15186767,89.0
46490,0.096870065,-0.41871643,-0.30750275,0.40462646,-0.14655761,0.027612304,89.0
46491,0.013177276,-0.14199066,-0.3395424,0.40462646,-0.14655761,0.027612304,89.0
46492,0.013177276,-0.14199066,-0.3395424,0.68074954,-0.07752686,-0.05628662,89.0
46493,0.041547656,0.19544983,-0.049037933,0.68074954,-0.07752686,-0.05628662,89.0
46494,0.041547656,0.19544983,-0.049037933,0.6595093,0.07965088,-0.10195313,89.0
46495,0.08393395,0.58174133,0.36073303,0.6595093,0.07965088,-0.10195313,89.0
46496,0.08393395,0.58174133,0.36073303,0.5713623,0.25594482,-0.1529297,89.0
46497,0.07113886,0.9344406,0.5079193,0.5713623,0.25594482,-0.1529297,89.0
46498,0.07113886,0.9344406,0.5079193,0.40037844,0.48109132,-0.26762697,89.0
46499,-3.4689903E-5,1.136528,0.5236206,0.40037844,0.48109132,-0.26762697,89.0
46500,-3.4689903E-5,1.136528,0.5236206,0.2166504,0.58623046,-0.36320803,89.0
46501,-0.14149499,1.0007248,0.5640373,0.2166504,0.58623046,-0.36320803,89.0
46502,-0.14149499,1.0007248,0.5640373,-0.17841797,0.5033936,-0.36745605,89.0
46503,-0.3825686,0.50587463,0.35303497,-0.17841797,0.5033936,-0.36745605,89.0
46504,-0.3825686,0.50587463,0.35303497,-0.32072756,0.36320803,-0.1985962,89.0
46505,-0.6143923,-0.15296173,-0.019756317,-0.32072756,0.36320803,-0.1985962,89.0
46506,-0.6143923,-0.15296173,-0.019756317,-0.15823975,0.14868164,-0.121069334,89.0
46507,-0.6169534,-0.6244736,-0.17492294,-0.15823975,0.14868164,-0.121069334,89.0
46508,-0.6169534,-0.6244736,-0.17492294,0.06796875,0.05522461,0.0,89.0
46509,-0.35277903,-0.60066223,-0.11973572,0.06796875,0.05522461,0.0,89.0
46510,-0.35277903,-0.60066223,-0.11973572,0.20709229,0.022302246,0.11257324,89.0
46511,-0.11523104,-0.0715332,-0.011463165,0.20709229,0.022302246,0.11257324,89.0
46512,-0.11523104,-0.0715332,-0.011463165,0.14761963,-0.026550293,0.06690674,89.0
46513,-0.019394279,0.45503998,0.06713486,0.14761963,-0.026550293,0.06690674,89.0
46514,-0.019394279,0.45503998,0.06713486,0.015930176,-0.057348635,0.0063720704,89.0
46515,0.017687678,0.61925507,0.10778427,0.015930176,-0.057348635,0.0063720704,89.0
46516,0.017687678,0.61925507,0.10778427,-0.1359375,-0.07434082,-0.081774905,89.0
46517,0.028066158,0.39173126,0.050437927,-0.1359375,-0.07434082,-0.081774905,89.0
46518,0.028066158,0.39173126,0.050437927,-0.21558838,-0.07965088,-0.10089111,89.0
46519,0.0040569305,0.0891037,0.08005905,-0.21558838,-0.07965088,-0.10089111,89.0
46520,0.0040569305,0.0891037,0.08005905,-0.32285157,-0.1444336,-0.1263794,89.0
46521,-0.031202793,-0.04185486,0.20434189,-0.32285157,-0.1444336,-0.1263794,89.0
46522,-0.031202793,-0.04185486,0.20434189,-0.49064943,-0.2527588,-0.07115479,89.0
46523,-0.015172243,-0.22290039,0.1673317,-0.49064943,-0.2527588,-0.07115479,89.0
46524,-0.015172243,-0.22290039,0.1673317,-0.44923097,-0.33984375,-0.010620117,89.0
46525,0.016365647,-0.48001862,-0.0023536682,-0.44923097,-0.33984375,-0.010620117,89.0
46526,0.016365647,-0.48001862,-0.0023536682,-0.3440918,-0.35683593,0.06690674,89.0
46527,0.043720007,-0.55888367,-0.19955444,-0.3440918,-0.35683593,0.06690674,89.0
46528,0.043720007,-0.55888367,-0.19955444,-0.36851808,-0.34090576,0.13062744,89.0
46529,0.11100137,-0.55126953,-0.2816391,-0.36851808,-0.34090576,0.13062744,89.0
46530,0.11100137,-0.55126953,-0.2816391,-0.27718505,-0.3695801,0.25063476,89.0
46531,0.2568798,-0.36860657,-0.284626,-0.27718505,-0.3695801,0.25063476,89.0
46532,0.2568798,-0.36860657,-0.284626,-0.0541626,-0.2081543,0.13912354,89.0
46533,0.36596537,0.07614899,-0.25169754,-0.0541626,-0.2081543,0.13912354,89.0
46534,0.36596537,0.07614899,-0.25169754,-0.095581055,-0.095581055,-0.007434082,89.0
46535,0.40261114,0.2550125,-0.12743378,-0.095581055,-0.095581055,-0.007434082,89.0
46536,0.40261114,0.2550125,-0.12743378,-0.06584473,0.0031860352,-0.06796875,89.0
46537,0.39476967,0.14894104,-0.01769638,-0.06584473,0.0031860352,-0.06796875,89.0
46538,0.39476967,0.14894104,-0.01769638,-0.23895264,0.09770508,-0.107263185,89.0
46539,0.312886,-0.04462433,-0.07775879,-0.23895264,0.09770508,-0.107263185,89.0
46540,0.312886,-0.04462433,-0.07775879,-0.16779785,0.10407715,-0.04885254,89.0
46541,0.120486975,-0.43754578,-0.24546051,-0.16779785,0.10407715,-0.04885254,89.0
46542,0.120486975,-0.43754578,-0.24546051,0.0637207,0.013806152,-0.03717041,89.0
46543,-0.02580285,-0.57753754,-0.18893433,0.0637207,0.013806152,-0.03717041,89.0
46544,-0.02580285,-0.57753754,-0.18893433,0.21983643,0.009558106,0.045666505,89.0
46545,-0.07607436,-0.08529663,0.24550629,0.21983643,0.009558106,0.045666505,89.0
46546,-0.07607436,-0.08529663,0.24550629,-0.039294433,0.032922365,-0.0021240234,89.0
46547,-0.15745378,0.33132172,0.5450859,-0.039294433,0.032922365,-0.0021240234,89.0
46548,-0.15745378,0.33132172,0.5450859,-0.24213867,0.027612304,-0.0180542,89.0
46549,-0.25167108,0.1407547,0.3445511,-0.24213867,0.027612304,-0.0180542,89.0
46550,-0.25167108,0.1407547,0.3445511,-0.27612305,-0.0063720704,0.046728518,89.0
46551,-0.19177878,-0.20863342,-0.037895203,-0.27612305,-0.0063720704,0.046728518,89.0
46552,-0.19177878,-0.20863342,-0.037895203,-0.09664307,0.016992187,0.033984374,89.0
46553,0.056708813,-0.15101624,-0.21100616,-0.09664307,0.016992187,0.033984374,89.0
46554,0.056708813,-0.15101624,-0.21100616,-0.18479005,0.050976563,-0.022302246,89.0
46555,0.23176837,0.10355377,-0.2428894,-0.18479005,0.050976563,-0.022302246,89.0
46556,0.23176837,0.10355377,-0.2428894,-0.26656494,0.019116212,-0.070092775,89.0
46557,0.19198203,-0.06447601,-0.34936523,-0.26656494,0.019116212,-0.070092775,89.0
46558,0.19198203,-0.06447601,-0.34936523,-0.13806152,-0.078588866,-0.0541626,89.0
46559,0.07334876,-0.42230988,-0.38000488,-0.13806152,-0.078588866,-0.0541626,89.0
46560,0.07334876,-0.42230988,-0.38000488,0.046728518,-0.14018555,-0.04991455,89.0
46561,0.012023687,-0.48989868,-0.23947525,0.046728518,-0.14018555,-0.04991455,89.0
46562,0.012023687,-0.48989868,-0.23947525,0.27612305,-0.09133301,-0.011682129,89.0
46563,0.007116556,-0.33984375,-0.062610626,0.27612305,-0.09133301,-0.011682129,89.0
46564,0.007116556,-0.33984375,-0.062610626,0.3355957,-0.007434082,0.014868164,89.0
46565,0.009465218,-0.08042908,0.06908798,0.3355957,-0.007434082,0.014868164,89.0
46566,0.009465218,-0.08042908,0.06908798,0.4694092,0.1274414,-0.0361084,89.0
46567,0.012125373,0.40073395,0.30340195,0.4694092,0.1274414,-0.0361084,89.0
46568,0.012125373,0.40073395,0.30340195,0.44604492,0.28780517,-0.14974366,89.0
46569,0.012125373,0.40073395,0.30340195,0.44604492,0.28780517,-0.14974366,90.0
46570,-0.018363714,1.1717224,0.6932335,0.44604492,0.28780517,-0.14974366,90.0
46571,-0.018363714,1.1717224,0.6932335,-0.026550293,0.3993164,-0.41418457,90.0
46572,-0.07813084,1.2933197,0.8981323,-0.026550293,0.3993164,-0.41418457,90.0
46573,-0.07813084,1.2933197,0.8981323,-0.57561034,0.32816163,-0.45029297,90.0
46574,-0.2160325,0.020324707,0.40584564,-0.57561034,0.32816163,-0.45029297,90.0
46575,-0.2160325,0.020324707,0.40584564,-0.42799073,0.19753419,-0.0361084,90.0
46576,-0.4580922,-1.1096191,-0.4244194,-0.42799073,0.19753419,-0.0361084,90.0
46577,-0.4580922,-1.1096191,-0.4244194,-0.015930176,-0.06796875,0.07115479,90.0
46578,-0.5114932,-1.0495758,-0.73908234,-0.015930176,-0.06796875,0.07115479,90.0
46579,-0.5114932,-1.0495758,-0.73908234,0.3090454,-0.10620117,0.053100586,90.0
46580,-0.20427513,-0.44465637,-0.38882446,0.3090454,-0.10620117,0.053100586,90.0
46581,-0.20427513,-0.44465637,-0.38882446,0.4885254,-0.06478272,0.14018555,90.0
46582,0.11742699,0.34571075,0.16514587,0.4885254,-0.06478272,0.14018555,90.0
46583,0.11742699,0.34571075,0.16514587,0.21983643,0.035046387,0.08920898,90.0
46584,0.19693232,0.8624191,0.4097786,0.21983643,0.035046387,0.08920898,90.0
46585,0.19693232,0.8624191,0.4097786,0.0063720704,0.060534667,0.004248047,90.0
46586,0.1440326,0.7236481,0.2192421,0.0063720704,0.060534667,0.004248047,90.0
46587,0.1440326,0.7236481,0.2192421,-0.059472658,0.09133301,-0.0998291,90.0
46588,0.09446192,0.31848145,-0.058685303,-0.059472658,0.09133301,-0.0998291,90.0
46589,0.09446192,0.31848145,-0.058685303,-0.06159668,0.15505372,-0.14337158,90.0
46590,0.05807686,-0.1399765,-0.13423157,-0.06159668,0.15505372,-0.14337158,90.0
46591,0.05807686,-0.1399765,-0.13423157,0.0541626,0.23151855,-0.08602295,90.0
46592,0.005299449,-0.5192337,-0.13541412,0.0541626,0.23151855,-0.08602295,90.0
46593,0.005299449,-0.5192337,-0.13541412,0.37807617,0.2814331,0.038232423,90.0
46594,-0.05082631,-0.42271423,-0.032001495,0.37807617,0.2814331,0.038232423,90.0
46595,-0.05082631,-0.42271423,-0.032001495,0.4428589,0.37382814,0.060534667,90.0
46596,-0.112401724,-0.011634827,0.18816757,0.4428589,0.37382814,0.060534667,90.0
46597,-0.112401724,-0.011634827,0.18816757,0.36851808,0.43117675,0.093457036,90.0
46598,-0.22045112,0.34065247,0.32756042,0.36851808,0.43117675,0.093457036,90.0
46599,-0.22045112,0.34065247,0.32756042,0.20390625,0.40462646,0.09451904,90.0
46600,-0.39056993,0.5501938,0.23812485,0.20390625,0.40462646,0.09451904,90.0
46601,-0.39056993,0.5501938,0.23812485,0.04141846,0.2782471,0.016992187,90.0
46602,-0.5773486,0.47083282,0.018920898,0.04141846,0.2782471,0.016992187,90.0
46603,-0.5773486,0.47083282,0.018920898,0.0,0.13168946,-0.019116212,90.0
46604,-0.591542,0.3045349,-0.041553497,0.0,0.13168946,-0.019116212,90.0
46605,-0.591542,0.3045349,-0.041553497,-0.05628662,-0.020178223,-0.098767094,90.0
46606,-0.3585974,0.21553802,0.116539,-0.05628662,-0.020178223,-0.098767094,90.0
46607,-0.3585974,0.21553802,0.116539,-0.13062744,-0.08283692,-0.13699952,90.0
46608,-0.015149355,-0.010040283,0.23722458,-0.13062744,-0.08283692,-0.13699952,90.0
46609,-0.015149355,-0.010040283,0.23722458,-0.095581055,-0.0021240234,-0.06584473,90.0
46610,0.14977026,-0.24676514,0.095249176,-0.095581055,-0.0021240234,-0.06584473,90.0
46611,0.14977026,-0.24676514,0.095249176,0.0063720704,0.0063720704,0.008496094,90.0
46612,0.07436943,-0.23674011,-0.12792587,0.0063720704,0.0063720704,0.008496094,90.0
46613,0.07436943,-0.23674011,-0.12792587,0.07540283,-0.03186035,0.0361084,90.0
46614,-0.023390293,-0.0756073,-0.20562744,0.07540283,-0.03186035,0.0361084,90.0
46615,-0.023390293,-0.0756073,-0.20562744,0.083898924,-0.053100586,-0.016992187,90.0
46616,-0.03347051,0.16212463,-0.1254425,0.083898924,-0.053100586,-0.016992187,90.0
46617,-0.03347051,0.16212463,-0.1254425,-0.011682129,-0.06903076,-0.057348635,90.0
46618,0.014226913,0.2161026,0.01606369,-0.011682129,-0.06903076,-0.057348635,90.0
46619,0.014226913,0.2161026,0.01606369,-0.045666505,-0.04885254,-0.0541626,90.0
46620,0.048808336,0.06279755,0.08333588,-0.045666505,-0.04885254,-0.0541626,90.0
46621,0.048808336,0.06279755,0.08333588,-0.033984374,-0.008496094,-0.020178223,90.0
46622,0.0199548,-0.0149002075,0.030281067,-0.033984374,-0.008496094,-0.020178223,90.0
46623,0.0199548,-0.0149002075,0.030281067,-0.0063720704,-0.029736329,-0.0021240234,90.0
46624,-0.024551392,0.043792725,-0.004840851,-0.0063720704,-0.029736329,-0.0021240234,90.0
46625,-0.024551392,0.043792725,-0.004840851,-0.02442627,-0.07115479,0.0063720704,90.0
46626,-0.074523926,0.27398682,0.11232376,-0.02442627,-0.07115479,0.0063720704,90.0
46627,-0.074523926,0.27398682,0.11232376,-0.25806886,-0.1731079,-0.04460449,90.0
46628,-0.110192895,0.34239197,0.3102455,-0.25806886,-0.1731079,-0.04460449,90.0
46629,-0.110192895,0.34239197,0.3102455,-0.4980835,-0.33028564,-0.014868164,90.0
46630,-0.079084516,0.033920288,0.32793045,-0.4980835,-0.33028564,-0.014868164,90.0
46631,-0.079084516,0.033920288,0.32793045,-0.54587406,-0.4704712,0.023364259,90.0
46632,0.004969716,-0.3299179,0.08685684,-0.54587406,-0.4704712,0.023364259,90.0
46633,0.004969716,-0.3299179,0.08685684,-0.4333008,-0.53737795,0.11469727,90.0
46634,0.102059245,-0.5565567,-0.27039337,-0.4333008,-0.53737795,0.11469727,90.0
46635,0.102059245,-0.5565567,-0.27039337,-0.39400634,-0.44923097,0.15823975,90.0
46636,0.20736766,-0.863884,-0.53824997,-0.39400634,-0.44923097,0.15823975,90.0
46637,0.20736766,-0.863884,-0.53824997,-0.16779785,-0.47578126,0.3090454,90.0
46638,0.3475225,-0.9797058,-0.43445587,-0.16779785,-0.47578126,0.3090454,90.0
46639,0.3475225,-0.9797058,-0.43445587,0.12319336,-0.36639404,0.34833986,90.0
46640,0.45635056,-0.1952362,-0.16828156,0.12319336,-0.36639404,0.34833986,90.0
46641,0.45635056,-0.1952362,-0.16828156,0.04991455,-0.15186767,0.047790527,90.0
46642,0.46484852,0.515831,-0.024578094,0.04991455,-0.15186767,0.047790527,90.0
46643,0.46484852,0.515831,-0.024578094,-0.124255374,-0.06159668,-0.09451904,90.0
46644,0.37667608,0.46011353,0.03958893,-0.124255374,-0.06159668,-0.09451904,90.0
46645,0.37667608,0.46011353,0.03958893,-0.14018555,0.08071289,-0.15930176,90.0
46646,0.32891655,0.3421631,0.052337646,-0.14018555,0.08071289,-0.15930176,90.0
46647,0.32891655,0.3421631,0.052337646,-0.3993164,0.13806152,-0.28568116,90.0
46648,0.4014268,-0.07611084,-0.08501053,-0.3993164,0.13806152,-0.28568116,90.0
46649,0.4014268,-0.07611084,-0.08501053,-0.39294434,0.115759276,-0.16354981,90.0
46650,0.4014268,-0.07611084,-0.08501053,-0.39294434,0.115759276,-0.16354981,89.0
46651,0.3626331,-0.7578125,-0.3473816,-0.39294434,0.115759276,-0.16354981,89.0
46652,0.3626331,-0.7578125,-0.3473816,-0.047790527,0.03717041,0.020178223,89.0
46653,0.16577792,-0.87353516,-0.42238998,-0.047790527,0.03717041,0.020178223,89.0
46654,0.16577792,-0.87353516,-0.42238998,0.18160401,-0.016992187,0.05522461,89.0
46655,-0.05813694,-0.27964783,-0.13942719,0.18160401,-0.016992187,0.05522461,89.0
46656,-0.05813694,-0.27964783,-0.13942719,0.12213135,0.0053100586,0.04991455,89.0
46657,-0.20092845,0.33327484,0.21321487,0.12213135,0.0053100586,0.04991455,89.0
46658,-0.20092845,0.33327484,0.21321487,-0.007434082,-0.029736329,-0.0361084,89.0
46659,-0.13564515,0.33692932,0.2847557,-0.007434082,-0.029736329,-0.0361084,89.0
46660,-0.13564515,0.33692932,0.2847557,0.016992187,-0.0180542,0.029736329,89.0
46661,-0.016450644,0.12321472,0.17798996,0.016992187,-0.0180542,0.029736329,89.0
46662,-0.016450644,0.12321472,0.17798996,0.14230958,0.020178223,0.016992187,89.0
46663,-5.261898E-4,0.23588562,0.15576935,0.14230958,0.020178223,0.016992187,89.0
46664,-5.261898E-4,0.23588562,0.15576935,-0.021240234,0.04885254,-0.0637207,89.0
46665,-0.069000006,0.18193054,0.074588776,-0.021240234,0.04885254,-0.0637207,89.0
46666,-0.069000006,0.18193054,0.074588776,-0.12000733,0.023364259,-0.07434082,89.0
46667,-0.13310528,-0.25506592,-0.148983,-0.12000733,0.023364259,-0.07434082,89.0
46668,-0.13310528,-0.25506592,-0.148983,0.06159668,-0.004248047,-0.0021240234,89.0
46669,-0.10763168,-0.4453125,-0.21252441,0.06159668,-0.004248047,-0.0021240234,89.0
46670,-0.10763168,-0.4453125,-0.21252441,0.16036378,-0.021240234,0.06796875,89.0
46671,-0.072006226,-0.21443176,-0.098838806,0.16036378,-0.021240234,0.06796875,89.0
46672,-0.072006226,-0.21443176,-0.098838806,0.07540283,-0.06584473,0.03717041,89.0
46673,-0.05469978,0.12768555,0.028728485,0.07540283,-0.06584473,0.03717041,89.0
46674,-0.05469978,0.12768555,0.028728485,0.043542482,-0.02442627,0.0,89.0
46675,-0.012485385,0.3013916,0.12097931,0.043542482,-0.02442627,0.0,89.0
46676,-0.012485385,0.3013916,0.12097931,-0.090270996,-0.026550293,-0.052038576,89.0
46677,0.02835393,0.2035141,0.122615814,-0.090270996,-0.026550293,-0.052038576,89.0
46678,0.02835393,0.2035141,0.122615814,-0.08602295,-0.016992187,-0.046728518,89.0
46679,0.05371344,0.021354675,0.09259033,-0.08602295,-0.016992187,-0.046728518,89.0
46680,0.05371344,0.021354675,0.09259033,-0.070092775,0.0021240234,-0.04248047,89.0
46681,0.04168904,-0.03895569,0.066394806,-0.070092775,0.0021240234,-0.04248047,89.0
46682,0.04168904,-0.03895569,0.066394806,-0.087084964,-0.0053100586,-0.02442627,89.0
46683,0.0050797462,-0.075416565,-0.020141602,-0.087084964,-0.0053100586,-0.02442627,89.0
46684,0.0050797462,-0.075416565,-0.020141602,-0.053100586,-0.023364259,-0.026550293,89.0
46685,-0.0010631084,-0.097076416,-0.057582855,-0.053100586,-0.023364259,-0.026550293,89.0
46686,-0.0010631084,-0.097076416,-0.057582855,-0.038232423,-0.021240234,-0.023364259,89.0
46687,0.0055826902,-0.03403473,-0.011325836,-0.038232423,-0.021240234,-0.023364259,89.0
46688,0.0055826902,-0.03403473,-0.011325836,-0.04460449,-0.029736329,-0.025488282,89.0
46689,0.0029768944,0.0090408325,0.030696869,-0.04460449,-0.029736329,-0.025488282,89.0
46690,0.0029768944,0.0090408325,0.030696869,-0.057348635,-0.028674318,-0.027612304,89.0
46691,0.013380051,-0.015151978,0.009212494,-0.057348635,-0.028674318,-0.027612304,89.0
46692,0.013380051,-0.015151978,0.009212494,-0.03079834,-0.025488282,-0.015930176,89.0
46693,0.03755951,-0.042785645,-0.033046722,-0.03079834,-0.025488282,-0.015930176,89.0
46694,0.03755951,-0.042785645,-0.033046722,-0.019116212,-0.026550293,-0.012744141,89.0
46695,0.037762403,-0.041885376,-0.041671753,-0.019116212,-0.026550293,-0.012744141,89.0
46696,0.037762403,-0.041885376,-0.041671753,-0.0031860352,-0.033984374,-0.010620117,89.0
46697,0.00726068,-0.0028305054,-0.025878906,-0.0031860352,-0.033984374,-0.010620117,89.0
