,accx,accy,accz,gyrox,gyroy,gyroz,heart rate
38617,type,type,type,type,type,type,type
38618,-0.0130774975,0.11401749,0.3876648,0.020178223,-0.3079834,0.007434082,99.0
38619,-0.0130774975,0.11401749,0.3876648,-0.28568116,-0.07646485,-0.17523193,99.0
38620,-0.0130774975,0.11401749,0.3876648,-0.20390625,-0.035046387,-0.12213135,99.0
38621,0.008825064,0.17330551,0.8022003,-0.20390625,-0.035046387,-0.12213135,99.0
38622,0.12654251,-0.045705795,0.5858307,-0.20390625,-0.035046387,-0.12213135,99.0
38623,0.12654251,-0.045705795,0.5858307,-0.13381349,0.029736329,-0.06796875,99.0
38624,0.11522329,-0.21631241,0.20117188,-0.13381349,0.029736329,-0.06796875,99.0
38625,0.11522329,-0.21631241,0.20117188,0.020178223,0.0722168,-0.026550293,99.0
38626,0.025979877,-0.24151993,0.031173706,0.020178223,0.0722168,-0.026550293,99.0
38627,0.025979877,-0.24151993,0.031173706,0.083898924,0.13062744,-0.0031860352,99.0
38628,0.025979877,-0.24151993,0.031173706,0.08283692,0.16885987,0.0031860352,99.0
38629,-0.059245408,-0.15013695,0.054275513,0.08283692,0.16885987,0.0031860352,99.0
38630,-0.099898815,-0.051322937,0.05432129,0.08283692,0.16885987,0.0031860352,99.0
38631,-0.099898815,-0.051322937,0.05432129,0.078588866,0.17841797,0.004248047,99.0
38632,-0.114135385,-0.027057648,-0.08821106,0.078588866,0.17841797,0.004248047,99.0
38633,-0.114135385,-0.027057648,-0.08821106,0.035046387,0.16992188,0.015930176,99.0
38634,-0.121947944,-0.062368393,-0.28833008,0.035046387,0.16992188,0.015930176,99.0
38635,-0.121947944,-0.062368393,-0.28833008,0.050976563,0.14230958,0.023364259,99.0
38636,-0.10676247,-0.061979294,-0.41105652,0.050976563,0.14230958,0.023364259,99.0
38637,-0.10676247,-0.061979294,-0.41105652,0.03186035,0.13062744,0.021240234,99.0
38638,-0.07768291,-0.044223785,-0.40679932,0.03186035,0.13062744,0.021240234,99.0
38639,-0.07768291,-0.044223785,-0.40679932,0.009558106,0.11469727,0.022302246,99.0
38640,-0.061157525,-0.052663803,-0.33390808,0.009558106,0.11469727,0.022302246,99.0
38641,-0.061157525,-0.052663803,-0.33390808,0.025488282,0.09239502,0.03079834,99.0
38642,-0.03914821,-0.0424366,-0.25404358,0.025488282,0.09239502,0.03079834,99.0
38643,-0.03914821,-0.0424366,-0.25404358,0.029736329,0.07646485,0.027612304,99.0
38644,-0.007478237,-7.457733E-4,-0.1958313,0.029736329,0.07646485,0.027612304,99.0
38645,-0.007478237,-7.457733E-4,-0.1958313,0.0053100586,0.06159668,0.03079834,99.0
38646,-0.007478237,-7.457733E-4,-0.1958313,-0.0053100586,0.03717041,0.027612304,99.0
38647,0.022618473,0.034376144,-0.15370178,-0.0053100586,0.03717041,0.027612304,99.0
38648,0.041691005,0.08747482,-0.098236084,-0.0053100586,0.03717041,0.027612304,99.0
38649,0.041691005,0.08747482,-0.098236084,-0.035046387,0.023364259,0.016992187,99.0
38650,0.04837966,0.09751892,-0.04371643,-0.035046387,0.023364259,0.016992187,99.0
38651,0.04837966,0.09751892,-0.04371643,-0.0361084,0.012744141,0.015930176,99.0
38652,0.036250114,0.059703827,0.01864624,-0.0361084,0.012744141,0.015930176,99.0
38653,0.036250114,0.059703827,0.01864624,-0.0053100586,-0.008496094,0.013806152,99.0
38654,0.014022052,0.04468727,0.11103821,-0.0053100586,-0.008496094,0.013806152,99.0
38655,0.014022052,0.04468727,0.11103821,-0.0010620117,-0.013806152,0.009558106,99.0
38656,0.024413466,0.0675869,0.1651001,-0.0010620117,-0.013806152,0.009558106,99.0
38657,0.024413466,0.0675869,0.1651001,-0.022302246,-0.011682129,0.0021240234,99.0
38658,0.036278844,0.080070496,0.1572113,-0.022302246,-0.011682129,0.0021240234,99.0
38659,0.036278844,0.080070496,0.1572113,-0.033984374,-0.014868164,-0.0010620117,99.0
38660,0.03130579,0.051921844,0.12754822,-0.033984374,-0.014868164,-0.0010620117,99.0
38661,0.03130579,0.051921844,0.12754822,-0.029736329,-0.0063720704,0.009558106,99.0
38662,0.022163749,-0.009134293,0.09965515,-0.029736329,-0.0063720704,0.009558106,99.0
38663,0.022163749,-0.009134293,0.09965515,0.020178223,0.0021240234,0.022302246,99.0
38664,0.0029482841,-0.049116135,0.086257935,0.020178223,0.0021240234,0.022302246,99.0
38665,0.0029482841,-0.049116135,0.086257935,0.06796875,0.0053100586,0.022302246,99.0
38666,-0.02227515,-0.008922577,0.09089661,0.06796875,0.0053100586,0.022302246,99.0
38667,-0.02227515,-0.008922577,0.09089661,0.053100586,0.007434082,0.007434082,99.0
38668,-0.035764456,0.052921295,0.08013916,0.053100586,0.007434082,0.007434082,99.0
38669,-0.035764456,0.052921295,0.08013916,0.029736329,0.0180542,0.0,99.0
38670,-0.04285717,0.060293198,0.021743774,0.029736329,0.0180542,0.0,99.0
38671,-0.04285717,0.060293198,0.021743774,0.043542482,0.014868164,0.008496094,99.0
38672,-0.04285717,0.060293198,0.021743774,0.0637207,0.0021240234,0.0021240234,99.0
38673,-0.047481537,0.032060623,-0.05215454,0.0637207,0.0021240234,0.0021240234,99.0
38674,-0.047481537,0.032060623,-0.05215454,0.0637207,0.0021240234,0.0021240234,99.0
38675,-0.022665381,0.021619797,-0.0662384,0.0637207,0.0021240234,0.0021240234,99.0
38676,-0.022665381,0.021619797,-0.0662384,0.04885254,-0.0021240234,-0.012744141,99.0
38677,0.0010205507,0.01590538,-0.03741455,0.04885254,-0.0021240234,-0.012744141,99.0
38678,0.0010205507,0.01590538,-0.03741455,0.029736329,0.0063720704,-0.0063720704,99.0
38679,-0.010670364,-0.003145218,-0.015029907,0.029736329,0.0063720704,-0.0063720704,99.0
38680,-0.010670364,-0.003145218,-0.015029907,0.022302246,-0.004248047,-0.021240234,99.0
38681,-0.02617544,-0.02425766,-0.037231445,0.022302246,-0.004248047,-0.021240234,99.0
38682,-0.02617544,-0.02425766,-0.037231445,0.0010620117,-0.012744141,-0.026550293,99.0
38683,-0.023198664,-0.049106598,-0.06904602,0.0010620117,-0.012744141,-0.026550293,99.0
38684,-0.023198664,-0.049106598,-0.06904602,0.020178223,-0.025488282,-0.004248047,99.0
38685,-0.017997384,-0.07021904,-0.08175659,0.020178223,-0.025488282,-0.004248047,99.0
38686,-0.017997384,-0.07021904,-0.08175659,0.021240234,-0.03186035,-0.009558106,99.0
38687,-0.017876923,-0.06397629,-0.05368042,0.021240234,-0.03186035,-0.009558106,99.0
38688,-0.017876923,-0.06397629,-0.05368042,0.020178223,-0.03717041,-0.022302246,99.0
38689,0.008720934,-0.066013336,-0.008636475,0.020178223,-0.03717041,-0.022302246,99.0
38690,0.008720934,-0.066013336,-0.008636475,0.014868164,-0.032922365,-0.013806152,99.0
38691,0.04948163,-0.07594299,0.02017212,0.014868164,-0.032922365,-0.013806152,99.0
38692,0.04948163,-0.07594299,0.02017212,0.02442627,-0.032922365,-0.009558106,99.0
38693,0.067283034,-0.054113388,0.03691101,0.02442627,-0.032922365,-0.009558106,99.0
38694,0.067283034,-0.054113388,0.03691101,-0.012744141,-0.025488282,-0.011682129,99.0
38695,0.059234142,-0.042642593,0.03730774,-0.012744141,-0.025488282,-0.011682129,99.0
38696,0.059234142,-0.042642593,0.03730774,-0.021240234,-0.019116212,-0.007434082,99.0
38697,0.060595334,-0.052534103,0.029846191,-0.021240234,-0.019116212,-0.007434082,99.0
38698,0.060595334,-0.052534103,0.029846191,-0.010620117,0.0021240234,0.014868164,99.0
38699,0.060595334,-0.052534103,0.029846191,-0.026550293,0.012744141,0.022302246,99.0
38700,0.05086887,-0.032346725,0.026489258,-0.026550293,0.012744141,0.022302246,99.0
38701,0.031820595,-0.014305115,0.01461792,-0.026550293,0.012744141,0.022302246,99.0
38702,0.031820595,-0.014305115,0.01461792,-0.03186035,0.020178223,0.028674318,99.0
38703,0.007963836,-0.02875328,-6.5612793E-4,-0.03186035,0.020178223,0.028674318,99.0
38704,0.007963836,-0.02875328,-6.5612793E-4,-0.008496094,0.023364259,0.04885254,99.0
38705,-0.008802295,-0.018669128,-0.0075531006,-0.008496094,0.023364259,0.04885254,99.0
38706,-0.008802295,-0.018669128,-0.0075531006,0.0063720704,0.019116212,0.06159668,99.0
38707,-0.0275985,0.008722305,-0.012802124,0.0063720704,0.019116212,0.06159668,99.0
38708,-0.0275985,0.008722305,-0.012802124,0.009558106,0.019116212,0.07540283,99.0
38709,-0.044307828,0.029706955,-0.0050811768,0.009558106,0.019116212,0.07540283,99.0
38710,-0.044307828,0.029706955,-0.0050811768,0.060534667,0.007434082,0.07540283,99.0
38711,-0.026803672,0.095775604,0.03591919,0.060534667,0.007434082,0.07540283,99.0
38712,-0.026803672,0.095775604,0.03591919,0.04141846,0.012744141,0.07540283,99.0
38713,0.004301667,0.16226578,0.052001953,0.04141846,0.012744141,0.07540283,99.0
38714,0.004301667,0.16226578,0.052001953,-0.009558106,0.023364259,0.06903076,99.0
38715,0.01810199,0.15177345,0.029159546,-0.009558106,0.023364259,0.06903076,99.0
38716,0.01810199,0.15177345,0.029159546,-0.0063720704,0.02442627,0.070092775,99.0
38717,0.02272135,0.085969925,-0.0018157959,-0.0063720704,0.02442627,0.070092775,99.0
38718,0.02272135,0.085969925,-0.0018157959,0.025488282,0.026550293,0.057348635,99.0
38719,0.031629205,0.05892372,-0.018341064,0.025488282,0.026550293,0.057348635,99.0
38720,0.031629205,0.05892372,-0.018341064,0.025488282,0.0361084,0.052038576,99.0
38721,0.031467915,0.03911972,-0.0415802,0.025488282,0.0361084,0.052038576,99.0
38722,0.031467915,0.03911972,-0.0415802,0.0541626,0.033984374,0.052038576,99.0
38723,0.01999855,0.023885727,-0.057647705,0.0541626,0.033984374,0.052038576,99.0
38724,0.01999855,0.023885727,-0.057647705,0.06796875,0.03079834,0.04460449,99.0
38725,0.018342614,0.004875183,-0.03742981,0.06796875,0.03079834,0.04460449,99.0
38726,0.018342614,0.004875183,-0.03742981,0.10301514,0.028674318,0.04248047,99.0
38727,0.051771283,-0.017938614,0.011260986,0.10301514,0.028674318,0.04248047,99.0
38728,0.051771283,-0.017938614,0.011260986,0.1274414,0.070092775,0.040356446,99.0
38729,0.072508335,-0.050655365,0.06752014,0.1274414,0.070092775,0.040356446,99.0
38730,0.072508335,-0.050655365,0.06752014,0.16142578,0.087084964,0.0541626,99.0
38731,0.06802863,-0.10169411,0.11286926,0.16142578,0.087084964,0.0541626,99.0
38732,0.06802863,-0.10169411,0.11286926,0.2081543,0.11151123,0.04885254,99.0
38733,0.11008692,-0.10716057,0.14961243,0.2081543,0.11151123,0.04885254,99.0
38734,0.11008692,-0.10716057,0.14961243,0.23682861,0.18479005,0.07327881,99.0
38735,0.16825747,-0.043125153,0.17814636,0.23682861,0.18479005,0.07327881,99.0
38736,0.16825747,-0.043125153,0.17814636,0.22727051,0.2527588,0.083898924,99.0
38737,0.19197905,0.030649185,0.18496704,0.22727051,0.2527588,0.083898924,99.0
38738,0.19197905,0.030649185,0.18496704,0.12213135,0.36427003,0.08496094,99.0
38739,0.13240409,0.043794632,0.16880798,0.12213135,0.36427003,0.08496094,99.0
38740,0.13240409,0.043794632,0.16880798,0.1529297,0.41418457,0.06265869,99.0
38741,0.045974553,0.030384064,0.119659424,0.1529297,0.41418457,0.06265869,99.0
38742,0.045974553,0.030384064,0.119659424,0.13912354,0.51082766,0.06159668,99.0
38743,-6.471276E-4,0.026016235,0.041793823,0.13912354,0.51082766,0.06159668,99.0
38744,-6.471276E-4,0.026016235,0.041793823,0.15717773,0.5533081,0.053100586,99.0
38745,-0.03362322,-0.006969452,-0.056365967,0.15717773,0.5533081,0.053100586,99.0
38746,-0.03362322,-0.006969452,-0.056365967,0.13062744,0.58304447,0.050976563,99.0
38747,-0.09658855,-0.07237244,-0.13659668,0.13062744,0.58304447,0.050976563,99.0
38748,-0.09658855,-0.07237244,-0.13659668,0.07115479,0.6000366,0.058410645,99.0
38749,-0.11014438,-0.06307411,-0.16894531,0.07115479,0.6000366,0.058410645,99.0
38750,-0.11014438,-0.06307411,-0.16894531,-0.021240234,0.6053467,0.027612304,99.0
38751,-0.06937772,0.030155182,-0.25465393,-0.021240234,0.6053467,0.027612304,99.0
38752,-0.06937772,0.030155182,-0.25465393,-0.26337892,0.6425171,-0.009558106,99.0
38753,-0.15079027,-0.0023765564,-0.4183197,-0.26337892,0.6425171,-0.009558106,99.0
38754,-0.15079027,-0.0023765564,-0.4183197,-0.2803711,0.58623046,0.039294433,99.0
38755,-0.28596425,-0.085458755,-0.52072144,-0.2803711,0.58623046,0.039294433,99.0
38756,-0.28596425,-0.085458755,-0.52072144,-0.21346436,0.49277344,0.04885254,99.0
38757,-0.30262393,-0.05823517,-0.5029907,-0.21346436,0.49277344,0.04885254,99.0
38758,-0.30262393,-0.05823517,-0.5029907,-0.20921631,0.4354248,0.05628662,99.0
38759,-0.29880083,-0.03338051,-0.41340637,-0.20921631,0.4354248,0.05628662,99.0
38760,-0.29880083,-0.03338051,-0.41340637,-0.1359375,0.34727785,0.107263185,99.0
38761,-0.27857924,0.023820877,-0.25338745,-0.1359375,0.34727785,0.107263185,99.0
38762,-0.27857924,0.023820877,-0.25338745,-0.047790527,0.27612305,0.087084964,99.0
38763,-0.13028526,0.130579,-0.04484558,-0.047790527,0.27612305,0.087084964,99.0
38764,-0.13028526,0.130579,-0.04484558,-0.0722168,0.3069214,0.07752686,99.0
38765,0.02445829,0.1539135,0.118927,-0.0722168,0.3069214,0.07752686,99.0
38766,0.02445829,0.1539135,0.118927,-0.095581055,0.32391357,0.058410645,99.0
38767,0.02445829,0.1539135,0.118927,-0.095581055,0.32391357,0.058410645,99.0
38768,0.034410387,0.049339294,0.16625977,-0.095581055,0.32391357,0.058410645,99.0
38769,0.034410387,0.049339294,0.16625977,-0.06690674,0.33878174,0.07327881,99.0
38770,0.029713392,-0.016046524,0.19065857,-0.06690674,0.33878174,0.07327881,99.0
38771,0.029713392,-0.016046524,0.19065857,0.038232423,0.34833986,0.040356446,99.0
38772,0.12090206,0.110393524,0.19554138,0.038232423,0.34833986,0.040356446,99.0
38773,0.12090206,0.110393524,0.19554138,-0.043542482,0.42374268,0.011682129,99.0
38774,0.17882615,0.22271538,0.15568542,-0.043542482,0.42374268,0.011682129,99.0
38775,0.17882615,0.22271538,0.15568542,-0.11044922,0.47896728,0.022302246,99.0
38776,0.14050967,0.22476578,0.15486145,-0.11044922,0.47896728,0.022302246,99.0
38777,0.14050967,0.22476578,0.15486145,-0.15505372,0.52250975,-0.016992187,99.0
38778,0.084917545,0.18934631,0.16252136,-0.15505372,0.52250975,-0.016992187,99.0
38779,0.084917545,0.18934631,0.16252136,-0.22196046,0.5915405,-0.0053100586,99.0
38780,0.08896673,0.11501503,0.13465881,-0.22196046,0.5915405,-0.0053100586,99.0
38781,0.08896673,0.11501503,0.13465881,-0.19541016,0.6552612,0.012744141,99.0
38782,0.14020413,0.089803696,0.0597229,-0.19541016,0.6552612,0.012744141,99.0
38783,0.14020413,0.089803696,0.0597229,-0.22089843,0.69349366,0.0,99.0
38784,0.10341084,0.02709198,-0.078445435,-0.22089843,0.69349366,0.0,99.0
38785,0.10341084,0.02709198,-0.078445435,-0.2166504,0.7508423,0.040356446,99.0
38786,-0.004356265,-0.16421509,-0.16186523,-0.2166504,0.7508423,0.040356446,99.0
38787,-0.004356265,-0.16421509,-0.16186523,-0.023364259,0.7338501,0.13912354,99.0
38788,-0.030145168,-0.17262077,-0.09480286,-0.023364259,0.7338501,0.13912354,99.0
38789,-0.030145168,-0.17262077,-0.09480286,0.13699952,0.727478,0.14230958,99.0
38790,0.016460061,-0.0010128021,-0.046783447,0.13699952,0.727478,0.14230958,99.0
38791,0.016460061,-0.0010128021,-0.046783447,0.1083252,0.7943848,0.057348635,99.0
38792,-8.3339214E-4,-0.0034103394,-0.09761047,0.1083252,0.7943848,0.057348635,99.0
38793,-8.3339214E-4,-0.0034103394,-0.09761047,0.14761963,0.7880127,-0.04248047,99.0
38794,-0.0769729,-0.17372513,-0.1328125,0.14761963,0.7880127,-0.04248047,99.0
38795,-0.0769729,-0.17372513,-0.1328125,0.11151123,0.77314454,-0.07540283,99.0
38796,-0.22393185,-0.17995834,-0.09498596,0.11151123,0.77314454,-0.07540283,99.0
38797,-0.22393185,-0.17995834,-0.09498596,0.023364259,0.72004396,-0.12319336,99.0
38798,-0.2823193,0.099308014,0.008178711,0.023364259,0.72004396,-0.12319336,99.0
38799,-0.2823193,0.099308014,0.008178711,-0.08602295,0.6616333,-0.23682861,99.0
38800,-0.11292821,0.37337875,0.07104492,-0.08602295,0.6616333,-0.23682861,99.0
38801,-0.11292821,0.37337875,0.07104492,-0.2814331,0.60959476,-0.36533204,99.0
38802,0.060316622,0.15943336,-0.07487488,-0.2814331,0.60959476,-0.36533204,99.0
38803,0.060316622,0.15943336,-0.07487488,-0.5501221,0.52038574,-0.32816163,99.0
38804,0.15610242,-0.3291664,-0.2672882,-0.5501221,0.52038574,-0.32816163,99.0
38805,0.15610242,-0.3291664,-0.2672882,-0.4800293,0.35895997,-0.28674316,99.0
38806,0.32306314,-0.2731228,-0.30096436,-0.4800293,0.35895997,-0.28674316,99.0
38807,0.32306314,-0.2731228,-0.30096436,-0.42055663,0.19328614,-0.3802002,99.0
38808,0.51664144,0.33205032,-0.33372498,-0.42055663,0.19328614,-0.3802002,99.0
38809,0.51664144,0.33205032,-0.33372498,-0.67437744,0.15186767,-0.57454836,99.0
38810,0.45585465,0.6697407,-0.634552,-0.67437744,0.15186767,-0.57454836,99.0
38811,0.45585465,0.6697407,-0.634552,-1.1862671,0.016992187,-0.83049315,99.0
38812,0.21419549,0.5157356,-1.1031799,-1.1862671,0.016992187,-0.83049315,99.0
38813,0.21419549,0.5157356,-1.1031799,-1.9041871,0.014868164,-1.0450195,99.0
38814,0.10684228,0.40275002,-1.4402618,-1.9041871,0.014868164,-1.0450195,99.0
38815,0.10684228,0.40275002,-1.4402618,-2.6688354,0.032922365,-1.4209718,99.0
38816,0.02229023,0.27177238,-1.7207642,-2.6688354,0.032922365,-1.4209718,99.0
38817,0.02229023,0.27177238,-1.7207642,-3.245508,0.22196046,-1.6524903,99.0
38818,-0.23894274,-0.23690414,-1.9638062,-3.245508,0.22196046,-1.6524903,99.0
38819,-0.23894274,-0.23690414,-1.9638062,-3.1393068,0.14124756,-1.808606,99.0
38820,-0.56446964,-0.33968163,-2.0191345,-3.1393068,0.14124756,-1.808606,99.0
38821,-0.56446964,-0.33968163,-2.0191345,-3.1594849,-0.013806152,-2.0029542,99.0
38822,-0.72580665,-0.026676178,-1.6685486,-3.1594849,-0.013806152,-2.0029542,99.0
38823,-0.72580665,-0.026676178,-1.6685486,-3.258252,-0.014868164,-2.0241945,99.0
38824,-0.8605892,0.06499863,-0.76908875,-3.258252,-0.014868164,-2.0241945,99.0
38825,-0.8605892,0.06499863,-0.76908875,-2.972571,-0.39188233,-1.9498535,99.0
38826,-0.8051218,0.15778542,0.4658966,-2.972571,-0.39188233,-1.9498535,99.0
38827,-0.8051218,0.15778542,0.4658966,-3.3283448,-0.40144044,-1.9604737,99.0
38828,-0.4440486,-0.2808895,1.6689758,-3.3283448,-0.40144044,-1.9604737,99.0
38829,-0.4440486,-0.2808895,1.6689758,-3.5651734,-0.27293703,-1.6482422,99.0
38830,-0.120497674,-1.4503212,2.425827,-3.5651734,-0.27293703,-1.6482422,99.0
38831,-0.120497674,-1.4503212,2.425827,-3.08833,-0.26337892,-1.4953126,99.0
38832,0.10848467,-1.8956947,2.5399323,-3.08833,-0.26337892,-1.4953126,99.0
38833,0.10848467,-1.8956947,2.5399323,-2.6433473,-0.18054199,-1.4645141,99.0
38834,0.20282778,-1.2829018,2.2355194,-2.6433473,-0.18054199,-1.4645141,99.0
38835,0.20282778,-1.2829018,2.2355194,-2.5913086,-0.04885254,-1.0715698,99.0
38836,-0.075762674,-0.734293,2.1396027,-2.5913086,-0.04885254,-1.0715698,99.0
38837,-0.075762674,-0.734293,2.1396027,-1.7395753,-0.4333008,-0.9218262,99.0
38838,-0.23065409,-0.39518547,2.6110687,-1.7395753,-0.4333008,-0.9218262,99.0
38839,-0.23065409,-0.39518547,2.6110687,-0.8687256,-0.7827026,-0.86766356,99.0
38840,0.16413395,0.091285706,2.7229767,-0.8687256,-0.7827026,-0.86766356,99.0
38841,0.16413395,0.091285706,2.7229767,-0.79969484,-0.5968506,-0.6669434,99.0
38842,0.40762553,0.5355396,1.4644318,-0.79969484,-0.5968506,-0.6669434,99.0
38843,0.40762553,0.5355396,1.4644318,-1.0174073,-0.24532472,-0.70092773,99.0
38844,0.1812518,0.54004097,-0.59710693,-1.0174073,-0.24532472,-0.70092773,99.0
38845,0.1812518,0.54004097,-0.59710693,-0.7858887,-0.1263794,-1.0078491,99.0
38846,0.15590233,0.20565414,-1.9924622,-0.7858887,-0.1263794,-1.0078491,99.0
38847,0.15590233,0.20565414,-1.9924622,-0.5522461,-0.03186035,-1.0694458,99.0
38848,0.5044948,-0.11562729,-2.0509796,-0.5522461,-0.03186035,-1.0694458,99.0
38849,0.5044948,-0.11562729,-2.0509796,-0.36745605,-0.083898924,-0.90270996,99.0
38850,0.96338594,-0.29681015,-1.3844147,-0.36745605,-0.083898924,-0.90270996,99.0
38851,0.96338594,-0.29681015,-1.3844147,-0.50445557,0.0010620117,-0.7126099,99.0
38852,1.209991,-0.27116394,-0.84194946,-0.50445557,0.0010620117,-0.7126099,99.0
38853,1.209991,-0.27116394,-0.84194946,-0.53950197,-0.046728518,-0.4694092,99.0
38854,1.1626828,-0.13454628,-0.5636749,-0.53950197,-0.046728518,-0.4694092,99.0
38855,1.1626828,-0.13454628,-0.5636749,-0.544812,0.040356446,-0.3345337,99.0
38856,0.9539256,-0.053901672,-0.25967407,-0.544812,0.040356446,-0.3345337,99.0
38857,0.9539256,-0.053901672,-0.25967407,-0.14230958,0.007434082,-0.33240968,99.0
38858,0.6692562,-0.015008926,0.21784973,-0.14230958,0.007434082,-0.33240968,99.0
38859,0.6692562,-0.015008926,0.21784973,0.46409914,-0.08071289,-0.33028564,99.0
38860,0.3191085,0.14855194,0.66656494,0.46409914,-0.08071289,-0.33028564,99.0
38861,0.3191085,0.14855194,0.66656494,0.46409914,-0.08071289,-0.33028564,99.0
38862,0.3191085,0.14855194,0.66656494,0.9494385,-0.18160401,-0.3058594,99.0
38863,-0.0014759302,0.43291664,0.7557373,0.9494385,-0.18160401,-0.3058594,99.0
38864,-0.0014759302,0.43291664,0.7557373,1.0545777,-0.2347046,-0.27612305,99.0
38865,-0.17716956,0.67554474,0.3479004,1.0545777,-0.2347046,-0.27612305,99.0
38866,-0.17716956,0.67554474,0.3479004,0.73597413,-0.17947999,-0.24851075,99.0
38867,-0.31605208,0.60107994,-0.28434753,0.73597413,-0.17947999,-0.24851075,99.0
38868,-0.31605208,0.60107994,-0.28434753,0.60109866,-0.16673584,-0.1720459,99.0
38869,-0.63453114,0.13700485,-0.6132202,0.60109866,-0.16673584,-0.1720459,99.0
38870,-0.63453114,0.13700485,-0.6132202,0.6425171,-0.18479005,-0.16248779,99.0
38871,-0.9817827,-0.34476662,-0.5294037,0.6425171,-0.18479005,-0.16248779,99.0
38872,-0.9817827,-0.34476662,-0.5294037,0.68712157,-0.22727051,-0.1359375,99.0
38873,-1.1026137,-0.410017,-0.3383789,0.68712157,-0.22727051,-0.1359375,99.0
38874,-1.1026137,-0.410017,-0.3383789,0.5692383,-0.23045655,-0.16779785,99.0
38875,-0.98550886,-0.13244438,-0.17433167,0.5692383,-0.23045655,-0.16779785,99.0
38876,-0.98550886,-0.13244438,-0.17433167,0.544812,-0.18160401,-0.18372802,99.0
38877,-0.59114146,0.1095829,0.13725281,0.544812,-0.18160401,-0.18372802,99.0
38878,-0.59114146,0.1095829,0.13725281,0.41737062,-0.1539917,-0.17841797,99.0
38879,0.0038080215,0.1921463,0.4445343,0.41737062,-0.1539917,-0.17841797,99.0
38880,0.0038080215,0.1921463,0.4445343,0.2177124,-0.07327881,-0.10513916,99.0
38881,0.4917549,0.09274292,0.39274597,0.2177124,-0.07327881,-0.10513916,99.0
38882,0.4917549,0.09274292,0.39274597,0.2548828,-0.02442627,-0.025488282,99.0
38883,0.6261798,-0.094861984,-0.01902771,0.2548828,-0.02442627,-0.025488282,99.0
38884,0.6261798,-0.094861984,-0.01902771,0.32816163,-0.095581055,0.107263185,99.0
38885,0.38489157,-0.25722504,-0.36747742,0.32816163,-0.095581055,0.107263185,99.0
38886,0.38489157,-0.25722504,-0.36747742,0.32072756,-0.1359375,0.14124756,99.0
38887,0.0022491813,-0.2178402,-0.3325348,0.32072756,-0.1359375,0.14124756,99.0
38888,0.0022491813,-0.2178402,-0.3325348,0.3164795,-0.2166504,0.08496094,99.0
38889,-0.24990964,0.2281456,-0.1337738,0.3164795,-0.2166504,0.08496094,99.0
38890,-0.24990964,0.2281456,-0.1337738,-0.07327881,-0.16248779,-0.014868164,99.0
38891,-0.27265722,0.5061493,0.0061187744,-0.07327881,-0.16248779,-0.014868164,99.0
38892,-0.27265722,0.5061493,0.0061187744,-0.16673584,-0.033984374,-0.057348635,99.0
38893,-0.2575301,0.36107254,0.10546875,-0.16673584,-0.033984374,-0.057348635,99.0
38894,-0.2575301,0.36107254,0.10546875,0.118945315,-0.1178833,-0.20709229,99.0
38895,-0.21605825,0.17723656,0.18986511,0.118945315,-0.1178833,-0.20709229,99.0
38896,-0.21605825,0.17723656,0.18986511,0.060534667,-0.12956543,-0.16673584,99.0
38897,-0.13026845,0.0370903,0.16156006,0.060534667,-0.12956543,-0.16673584,99.0
38898,-0.13026845,0.0370903,0.16156006,0.027612304,-0.06903076,-0.18797608,99.0
38899,-0.026736736,0.18346786,0.043640137,0.027612304,-0.06903076,-0.18797608,99.0
38900,-0.026736736,0.18346786,0.043640137,-0.14230958,-0.007434082,-0.24320069,99.0
38901,0.15794408,0.33886337,-0.017425537,-0.14230958,-0.007434082,-0.24320069,99.0
38902,0.15794408,0.33886337,-0.017425537,-0.3175415,0.090270996,-0.20284425,99.0
38903,0.4913211,-0.06090355,-0.027069092,-0.3175415,0.090270996,-0.20284425,99.0
38904,0.4913211,-0.06090355,-0.027069092,-0.1263794,0.20603028,-0.11044922,99.0
38905,0.84470487,-0.5025921,0.027877808,-0.1263794,0.20603028,-0.11044922,99.0
38906,0.84470487,-0.5025921,0.027877808,0.012744141,0.21877442,0.10089111,99.0
38907,0.8130686,-0.46329117,0.09577942,0.012744141,0.21877442,0.10089111,99.0
38908,0.8130686,-0.46329117,0.09577942,0.098767094,0.1539917,0.040356446,99.0
38909,0.385306,-0.27119446,0.10432434,0.098767094,0.1539917,0.040356446,99.0
38910,0.385306,-0.27119446,0.10432434,0.09664307,0.16885987,0.15611573,99.0
38911,-0.13153791,-0.16176796,-0.02708435,0.09664307,0.16885987,0.15611573,99.0
38912,-0.13153791,-0.16176796,-0.02708435,0.08496094,0.12850343,0.14549561,99.0
38913,-0.42595792,-0.14185333,-0.2350769,0.08496094,0.12850343,0.14549561,99.0
38914,-0.42595792,-0.14185333,-0.2350769,-0.06478272,0.16673584,0.0998291,99.0
38915,-0.41176242,-0.27422523,-0.34440613,-0.06478272,0.16673584,0.0998291,99.0
38916,-0.41176242,-0.27422523,-0.34440613,-0.17416993,0.08920898,0.06478272,99.0
38917,-0.14856279,-0.68538284,-0.20620728,-0.17416993,0.08920898,0.06478272,99.0
38918,-0.14856279,-0.68538284,-0.20620728,-0.38232422,0.17947999,0.2623169,99.0
38919,0.09323478,-1.1278591,0.052490234,-0.38232422,0.17947999,0.2623169,99.0
38920,0.09323478,-1.1278591,0.052490234,-0.08602295,0.16992188,0.21558838,99.0
38921,0.08968794,-1.0267143,0.101379395,-0.08602295,0.16992188,0.21558838,99.0
38922,0.08968794,-1.0267143,0.101379395,0.2888672,0.23364258,0.2166504,99.0
38923,-0.062734485,0.031497955,-0.13150024,0.2888672,0.23364258,0.2166504,99.0
38924,-0.062734485,0.031497955,-0.13150024,0.5894165,0.15717773,-0.078588866,99.0
38925,-0.17163533,1.7124062,-0.4152527,0.5894165,0.15717773,-0.078588866,99.0
38926,-0.17163533,1.7124062,-0.4152527,0.24001466,0.06584473,0.13381349,99.0
38927,-0.39960074,2.5602207,-0.3394928,0.24001466,0.06584473,0.13381349,99.0
38928,-0.39960074,2.5602207,-0.3394928,-0.7455322,-0.023364259,0.24320069,99.0
38929,-0.7551298,1.8220043,0.24693298,-0.7455322,-0.023364259,0.24320069,99.0
38930,-0.7551298,1.8220043,0.24693298,-1.0705079,-0.014868164,0.2824951,99.0
38931,-0.9428734,0.75577164,0.49949646,-1.0705079,-0.014868164,0.2824951,99.0
38932,-0.9428734,0.75577164,0.49949646,-0.3717041,-0.10620117,0.05522461,99.0
38933,-0.59411806,0.48498917,0.11442566,-0.3717041,-0.10620117,0.05522461,99.0
38934,-0.59411806,0.48498917,0.11442566,-0.1529297,-0.0180542,-0.07752686,99.0
38935,0.21485448,0.3286152,0.022094727,-0.1529297,-0.0180542,-0.07752686,99.0
38936,0.21485448,0.3286152,0.022094727,-0.07434082,0.05628662,-0.22939454,99.0
38937,0.8494593,0.009695053,0.3013916,-0.07434082,0.05628662,-0.22939454,99.0
38938,0.8494593,0.009695053,0.3013916,-0.26656494,0.13168946,-0.24638672,99.0
38939,0.8640523,-0.13521194,0.16065979,-0.26656494,0.13168946,-0.24638672,99.0
38940,0.8640523,-0.13521194,0.16065979,-0.5278198,0.16673584,-0.29417726,99.0
38941,0.38460124,-0.10497093,-0.3166809,-0.5278198,0.16673584,-0.29417726,99.0
38942,0.38460124,-0.10497093,-0.3166809,-0.62552494,0.13275146,-0.37489015,99.0
38943,-0.0998019,-0.057401657,-0.42364502,-0.62552494,0.13275146,-0.37489015,99.0
38944,-0.0998019,-0.057401657,-0.42364502,-0.44604492,0.043542482,-0.44710693,99.0
38945,-0.2750808,-0.048093796,-0.13461304,-0.44604492,0.043542482,-0.44710693,99.0
38946,-0.2750808,-0.048093796,-0.13461304,-0.4619751,0.11151123,-0.39082032,99.0
38947,-0.25362182,-0.4845314,0.18563843,-0.4619751,0.11151123,-0.39082032,99.0
38948,-0.25362182,-0.4845314,0.18563843,-0.1178833,0.09133301,-0.35789797,99.0
38949,-0.26345658,-1.3716221,0.2872467,-0.1178833,0.09133301,-0.35789797,99.0
38950,-0.26345658,-1.3716221,0.2872467,0.035046387,-0.1274414,-0.13168946,99.0
38951,-0.2389757,-1.545454,0.12484741,0.035046387,-0.1274414,-0.13168946,99.0
38952,-0.2389757,-1.545454,0.12484741,-0.5055176,-0.22727051,-0.10089111,99.0
38953,-0.2389757,-1.545454,0.12484741,-0.5055176,-0.22727051,-0.10089111,99.0
38954,0.096478105,-0.6344948,-0.41690063,-0.5055176,-0.22727051,-0.10089111,99.0
38955,0.096478105,-0.6344948,-0.41690063,-1.0513916,-0.121069334,-0.29948732,99.0
38956,0.682163,-0.34646225,-0.71325684,-1.0513916,-0.121069334,-0.29948732,99.0
38957,0.682163,-0.34646225,-0.71325684,0.1444336,-0.040356446,-0.1529297,99.0
38958,0.91297895,-0.5888405,0.038238525,0.1444336,-0.040356446,-0.1529297,99.0
38959,0.91297895,-0.5888405,0.038238525,0.5522461,-0.009558106,-0.035046387,99.0
38960,0.46387923,0.046260834,0.6181793,0.5522461,-0.009558106,-0.035046387,99.0
38961,0.46387923,0.046260834,0.6181793,-0.42374268,0.11257324,-0.04991455,99.0
38962,-0.08519542,0.72737694,0.26800537,-0.42374268,0.11257324,-0.04991455,99.0
38963,-0.08519542,0.72737694,0.26800537,-0.71579593,0.118945315,-0.12000733,99.0
38964,-0.24099565,0.49204636,0.024551392,-0.71579593,0.118945315,-0.12000733,99.0
38965,-0.24099565,0.49204636,0.024551392,-0.35152587,0.021240234,-0.04991455,99.0
38966,-0.25322133,-0.424551,-0.012557983,-0.35152587,0.021240234,-0.04991455,99.0
38967,-0.25322133,-0.424551,-0.012557983,0.44923097,-0.15930176,0.27612305,99.0
38968,-0.32640517,-0.841692,-0.26106262,0.44923097,-0.15930176,0.27612305,99.0
38969,-0.32640517,-0.841692,-0.26106262,0.37489015,-0.1274414,0.2516968,99.0
38970,-0.3132726,-0.3137226,-0.26132202,0.37489015,-0.1274414,0.2516968,99.0
38971,-0.3132726,-0.3137226,-0.26132202,0.4258667,-0.10301514,0.1178833,99.0
38972,-0.19866496,0.52293587,0.06463623,0.4258667,-0.10301514,0.1178833,99.0
38973,-0.19866496,0.52293587,0.06463623,-0.026550293,0.06265869,0.09664307,99.0
38974,-0.10555065,0.6918354,0.30680847,-0.026550293,0.06265869,0.09664307,99.0
38975,-0.10555065,0.6918354,0.30680847,0.4991455,0.15505372,0.1529297,99.0
38976,-0.25897664,0.65702057,0.5328827,0.4991455,0.15505372,0.1529297,99.0
38977,-0.25897664,0.65702057,0.5328827,0.25594482,0.16992188,0.08496094,99.0
38978,-0.7017614,1.1256523,0.3033142,0.25594482,0.16992188,0.08496094,99.0
38979,-0.7017614,1.1256523,0.3033142,-0.5511841,0.2081543,-0.1529297,99.0
38980,-1.121309,1.2608128,-0.7202301,-0.5511841,0.2081543,-0.1529297,99.0
38981,-1.121309,1.2608128,-0.7202301,-0.81668705,-0.029736329,-0.23682861,99.0
38982,-0.9624037,0.5457344,-1.3688812,-0.81668705,-0.029736329,-0.23682861,99.0
38983,-0.9624037,0.5457344,-1.3688812,-0.7954468,0.009558106,-0.4715332,99.0
38984,-0.29371446,-0.6147194,-0.98783875,-0.7954468,0.009558106,-0.4715332,99.0
38985,-0.29371446,-0.6147194,-0.98783875,-0.18054199,-0.15505372,-0.5161377,99.0
38986,0.5803605,-1.1570702,-0.047424316,-0.18054199,-0.15505372,-0.5161377,99.0
38987,0.5803605,-1.1570702,-0.047424316,-0.035046387,-0.21134034,-0.64782715,99.0
38988,1.9371033,-1.3358116,0.95562744,-0.035046387,-0.21134034,-0.64782715,99.0
38989,1.9371033,-1.3358116,0.95562744,-0.22727051,-0.24851075,-0.86766356,99.0
38990,2.8734741,-1.4046593,1.3122406,-0.22727051,-0.24851075,-0.86766356,99.0
38991,2.8734741,-1.4046593,1.3122406,0.15080567,-0.0010620117,0.3525879,99.0
38992,2.3353271,-0.64060974,0.8088074,0.15080567,-0.0010620117,0.3525879,99.0
38993,2.3353271,-0.64060974,0.8088074,-0.34833986,0.40037844,0.635083,99.0
38994,1.0535889,-0.023645401,-0.028930664,-0.34833986,0.40037844,0.635083,99.0
38995,1.0535889,-0.023645401,-0.028930664,0.5968506,0.23682861,0.1996582,99.0
38996,-0.10786128,0.24114227,-0.5909424,0.5968506,0.23682861,0.1996582,99.0
38997,-0.10786128,0.24114227,-0.5909424,0.33240968,0.14337158,0.42374268,99.0
38998,-0.8305762,0.38571167,-0.39076233,0.33240968,0.14337158,0.42374268,99.0
38999,-0.8305762,0.38571167,-0.39076233,0.0010620117,0.21877442,0.40144044,99.0
39000,-1.2254473,-0.047107697,0.011077881,0.0010620117,0.21877442,0.40144044,99.0
39001,-1.2254473,-0.047107697,0.011077881,0.10407715,0.011682129,0.56392825,99.0
39002,-1.4680654,-0.4868431,-0.34309387,0.10407715,0.011682129,0.56392825,99.0
39003,-1.4680654,-0.4868431,-0.34309387,0.5320679,-0.10938721,0.55543214,99.0
39004,-1.5221453,-0.027706146,-0.6161041,0.5320679,-0.10938721,0.55543214,99.0
39005,-1.5221453,-0.027706146,-0.6161041,1.0630738,-0.1731079,0.26868898,99.0
39006,-1.2051308,1.1378441,0.18014526,1.0630738,-0.1731079,0.26868898,99.0
39007,-1.2051308,1.1378441,0.18014526,0.6085327,0.032922365,0.1274414,99.0
39008,-0.5239923,1.7680397,0.8561554,0.6085327,0.032922365,0.1274414,99.0
39009,-0.5239923,1.7680397,0.8561554,0.06584473,0.0998291,-0.039294433,99.0
39010,0.13974172,1.256485,0.36453247,0.06584473,0.0998291,-0.039294433,99.0
39011,0.13974172,1.256485,0.36453247,-0.35152587,0.09770508,-0.050976563,99.0
39012,0.55549455,-0.21429443,-0.5345917,-0.35152587,0.09770508,-0.050976563,99.0
39013,0.55549455,-0.21429443,-0.5345917,-0.124255374,-0.021240234,0.047790527,99.0
39014,0.67433953,-1.6332397,-0.7675171,-0.124255374,-0.021240234,0.047790527,99.0
39015,0.67433953,-1.6332397,-0.7675171,0.087084964,-0.010620117,0.1985962,99.0
39016,0.4900576,-2.1860237,-0.014907837,0.087084964,-0.010620117,0.1985962,99.0
39017,0.4900576,-2.1860237,-0.014907837,0.6754395,0.08283692,0.27612305,99.0
39018,0.023491383,-1.7602558,0.71295166,0.6754395,0.08283692,0.27612305,99.0
39019,0.023491383,-1.7602558,0.71295166,1.2308716,0.093457036,0.44073486,99.0
39020,-0.4751156,-0.71032906,0.4686737,1.2308716,0.093457036,0.44073486,99.0
39021,-0.4751156,-0.71032906,0.4686737,1.263794,0.07327881,0.3079834,99.0
39022,-0.49392307,0.8380852,0.04475403,1.263794,0.07327881,0.3079834,99.0
39023,-0.49392307,0.8380852,0.04475403,0.41843262,0.14655761,-0.014868164,99.0
39024,-0.039669693,1.869833,-0.050491333,0.41843262,0.14655761,-0.014868164,99.0
39025,-0.039669693,1.869833,-0.050491333,0.03079834,0.24532472,0.10513916,99.0
39026,0.09404552,1.662529,-0.27000427,0.03079834,0.24532472,0.10513916,99.0
39027,0.09404552,1.662529,-0.27000427,-0.022302246,0.058410645,0.027612304,99.0
39028,-0.06396037,1.413641,-0.44987488,-0.022302246,0.058410645,0.027612304,99.0
39029,-0.06396037,1.413641,-0.44987488,-0.8326172,-0.1274414,-0.1539917,99.0
39030,-0.07511848,1.2478561,-0.38438416,-0.8326172,-0.1274414,-0.1539917,99.0
39031,-0.07511848,1.2478561,-0.38438416,-0.9430664,-0.081774905,-0.12956543,99.0
39032,0.18554729,0.03824997,-0.21292114,-0.9430664,-0.081774905,-0.12956543,99.0
39033,0.18554729,0.03824997,-0.21292114,0.20921631,-0.24744873,0.012744141,99.0
39034,0.27305943,-0.2991848,0.018615723,0.20921631,-0.24744873,0.012744141,99.0
39035,0.27305943,-0.2991848,0.018615723,0.29099122,-0.27293703,0.016992187,99.0
39036,0.7116971,-0.011636734,0.80900574,0.29099122,-0.27293703,0.016992187,99.0
39037,0.7116971,-0.011636734,0.80900574,-0.64782715,-0.14655761,-0.10301514,99.0
39038,0.66258276,0.16215134,0.7000427,-0.64782715,-0.14655761,-0.10301514,99.0
39039,0.66258276,0.16215134,0.7000427,-0.6786255,-0.021240234,-0.10407715,99.0
39040,0.5953982,0.16213036,0.61006165,-0.6786255,-0.021240234,-0.10407715,99.0
39041,0.5953982,0.16213036,0.61006165,-0.4088745,0.06903076,-0.14124756,99.0
39042,0.4258181,0.5383339,0.643631,-0.4088745,0.06903076,-0.14124756,99.0
39043,0.4258181,0.5383339,0.643631,-0.93138427,0.17735596,-0.13062744,99.0
39044,-0.0039987564,1.0970497,-0.09553528,-0.93138427,0.17735596,-0.13062744,99.0
39045,-0.0039987564,1.0970497,-0.09553528,-1.7735596,0.2516968,-0.090270996,99.0
39046,-0.09101641,0.79870987,-0.5093689,-1.7735596,0.2516968,-0.090270996,99.0
39047,-0.09101641,0.79870987,-0.5093689,-1.7438233,0.24001466,-0.11151123,99.0
39048,-0.3967756,-0.85385513,-1.4273834,-1.7438233,0.24001466,-0.11151123,99.0
39049,-0.3967756,-0.85385513,-1.4273834,-0.81243896,0.0637207,-0.30161133,99.0
39050,-0.57453716,-1.0418606,-1.0782776,-0.81243896,0.0637207,-0.30161133,99.0
39051,-0.57453716,-1.0418606,-1.0782776,-0.52250975,-0.04991455,-0.2984253,99.0
39052,-0.8619979,-1.0331707,0.03703308,-0.52250975,-0.04991455,-0.2984253,99.0
39053,-0.8619979,-1.0331707,0.03703308,-0.95581055,-0.011682129,-0.39613038,99.0
39054,-0.59542114,-0.24603081,1.142807,-0.95581055,-0.011682129,-0.39613038,99.0
39055,-0.59542114,-0.24603081,1.142807,-0.95581055,-0.011682129,-0.39613038,98.0
39056,-0.59542114,-0.24603081,1.142807,-1.5983276,0.03079834,-0.41206056,98.0
39057,0.13082862,-0.7825794,0.42892456,-1.5983276,0.03079834,-0.41206056,98.0
39058,0.13082862,-0.7825794,0.42892456,-1.8224121,0.16036378,0.0541626,98.0
39059,0.21939677,-1.4589252,-0.03479004,-1.8224121,0.16036378,0.0541626,98.0
39060,0.21939677,-1.4589252,-0.03479004,-0.2262085,0.087084964,0.07646485,98.0
39061,0.1687181,-1.9524918,-0.32341003,-0.2262085,0.087084964,0.07646485,98.0
39062,0.1687181,-1.9524918,-0.32341003,1.1427246,0.10195313,-0.04460449,98.0
39063,0.018714726,0.1520443,0.16949463,1.1427246,0.10195313,-0.04460449,98.0
39064,0.018714726,0.1520443,0.16949463,-0.45666504,0.19541016,-0.045666505,98.0
39065,-0.0622499,1.7180233,0.090545654,-0.45666504,0.19541016,-0.045666505,98.0
39066,-0.0622499,1.7180233,0.090545654,-0.8496094,0.13699952,-0.078588866,98.0
39067,0.025419831,0.98013115,-0.6899719,-0.8496094,0.13699952,-0.078588866,98.0
39068,0.025419831,0.98013115,-0.6899719,-0.06159668,0.004248047,-0.08283692,98.0
39069,0.25859272,-0.40898705,-0.8379059,-0.06159668,0.004248047,-0.08283692,98.0
39070,0.25859272,-0.40898705,-0.8379059,0.6552612,0.04248047,-0.015930176,98.0
39071,0.2579972,-0.6017494,0.18370056,0.6552612,0.04248047,-0.015930176,98.0
39072,0.2579972,-0.6017494,0.18370056,0.012744141,0.1178833,-0.06796875,98.0
39073,0.08112919,0.3213234,0.78500366,0.012744141,0.1178833,-0.06796875,98.0
39074,0.08112919,0.3213234,0.78500366,-0.5979126,0.17947999,-0.13699952,98.0
39075,0.1320908,1.0601711,0.08383179,-0.5979126,0.17947999,-0.13699952,98.0
39076,0.1320908,1.0601711,0.08383179,-0.6552612,0.13168946,-0.13168946,98.0
39077,0.20159543,0.8564987,-0.8513031,-0.6552612,0.13168946,-0.13168946,98.0
39078,0.20159543,0.8564987,-0.8513031,-0.24001466,0.047790527,-0.17416993,98.0
39079,0.034555197,0.044195175,-1.0709991,-0.24001466,0.047790527,-0.17416993,98.0
39080,0.034555197,0.044195175,-1.0709991,0.23151855,0.004248047,-0.11682129,98.0
39081,-0.32096422,-0.78355217,-0.5414734,0.23151855,0.004248047,-0.11682129,98.0
39082,-0.32096422,-0.78355217,-0.5414734,0.74659425,-0.081774905,-0.15505372,98.0
39083,-0.623556,-1.1386948,0.30441284,0.74659425,-0.081774905,-0.15505372,98.0
39084,-0.623556,-1.1386948,0.30441284,0.8092529,0.027612304,-0.057348635,98.0
39085,-0.62148887,-0.8239193,1.0362549,0.8092529,0.027612304,-0.057348635,98.0
39086,-0.62148887,-0.8239193,1.0362549,0.96218264,0.090270996,-0.13381349,98.0
39087,-0.2374621,-0.203825,1.2520294,0.96218264,0.090270996,-0.13381349,98.0
39088,-0.2374621,-0.203825,1.2520294,0.6881836,0.24001466,0.09133301,98.0
39089,0.16265482,0.2162857,0.75079346,0.6881836,0.24001466,0.09133301,98.0
39090,0.16265482,0.2162857,0.75079346,0.8326172,0.29523927,0.17735596,98.0
39091,0.28448176,0.37023354,-0.033569336,0.8326172,0.29523927,0.17735596,98.0
39092,0.28448176,0.37023354,-0.033569336,0.7625244,0.2527588,0.1901001,98.0
39093,0.21944332,0.2546959,-0.56378174,0.7625244,0.2527588,0.1901001,98.0
39094,0.21944332,0.2546959,-0.56378174,0.58410645,0.12531738,0.13699952,98.0
39095,0.07236862,0.031686783,-0.6934662,0.58410645,0.12531738,0.13699952,98.0
39096,0.07236862,0.031686783,-0.6934662,0.5787964,-0.045666505,0.033984374,98.0
39097,-0.119631946,-0.006669998,-0.45854187,0.5787964,-0.045666505,0.033984374,98.0
39098,-0.119631946,-0.006669998,-0.45854187,0.44073486,-0.15717773,-0.078588866,98.0
39099,-0.25095457,0.14744759,-0.09793091,0.44073486,-0.15717773,-0.078588866,98.0
39100,-0.25095457,0.14744759,-0.09793091,0.2793091,-0.24107666,-0.18372802,98.0
39101,-0.19984812,0.38481522,0.10423279,0.2793091,-0.24107666,-0.18372802,98.0
39102,-0.19984812,0.38481522,0.10423279,-0.007434082,-0.3090454,-0.2538208,98.0
39103,0.056112766,0.45310402,0.12657166,-0.007434082,-0.3090454,-0.2538208,98.0
39104,0.056112766,0.45310402,0.12657166,-0.06903076,-0.23682861,-0.3058594,98.0
39105,0.29147226,0.2050972,0.25564575,-0.06903076,-0.23682861,-0.3058594,98.0
39106,0.29147226,0.2050972,0.25564575,-0.004248047,-0.21134034,-0.29736328,98.0
39107,0.37669587,-0.11540222,0.46401978,-0.004248047,-0.21134034,-0.29736328,98.0
39108,0.37669587,-0.11540222,0.46401978,-0.13062744,-0.1529297,-0.30479738,98.0
39109,0.485219,-0.49846268,0.40571594,-0.13062744,-0.1529297,-0.30479738,98.0
39110,0.485219,-0.49846268,0.40571594,-0.078588866,-0.0063720704,-0.14655761,98.0
39111,0.5341346,-0.98591614,0.25048828,-0.078588866,-0.0063720704,-0.14655761,98.0
39112,0.5341346,-0.98591614,0.25048828,0.49277344,0.032922365,0.070092775,98.0
39113,0.26712704,-0.85956955,0.058410645,0.49277344,0.032922365,0.070092775,98.0
39114,0.26712704,-0.85956955,0.058410645,0.5065796,-0.026550293,0.22727051,98.0
39115,-0.14225543,0.0055217743,-0.22897339,0.5065796,-0.026550293,0.22727051,98.0
39116,-0.14225543,0.0055217743,-0.22897339,0.270813,0.0053100586,0.12000733,98.0
39117,-0.27842832,0.5325432,-0.2566986,0.270813,0.0053100586,0.12000733,98.0
39118,-0.27842832,0.5325432,-0.2566986,0.22833252,-0.019116212,0.09770508,98.0
39119,-0.18447363,0.4029274,-0.08720398,0.22833252,-0.019116212,0.09770508,98.0
39120,-0.18447363,0.4029274,-0.08720398,0.30373535,-0.015930176,0.07434082,98.0
39121,-0.1452474,0.25752258,0.048843384,0.30373535,-0.015930176,0.07434082,98.0
39122,-0.1452474,0.25752258,0.048843384,0.17523193,-0.011682129,0.060534667,98.0
39123,-0.15811688,0.17555046,0.08241272,0.17523193,-0.011682129,0.060534667,98.0
39124,-0.15811688,0.17555046,0.08241272,0.10301514,-0.021240234,0.027612304,98.0
39125,-0.10815859,0.088085175,0.03427124,0.10301514,-0.021240234,0.027612304,98.0
39126,-0.10815859,0.088085175,0.03427124,0.070092775,-0.014868164,0.016992187,98.0
39127,-0.01319927,0.002292633,-0.022109985,0.070092775,-0.014868164,0.016992187,98.0
39128,-0.01319927,0.002292633,-0.022109985,0.06159668,-0.012744141,0.025488282,98.0
39129,0.029858053,-0.071676254,-0.05769348,0.06159668,-0.012744141,0.025488282,98.0
39130,0.029858053,-0.071676254,-0.05769348,0.0998291,-0.03717041,0.033984374,98.0
39131,-0.03381622,-0.1205616,-0.072631836,0.0998291,-0.03717041,0.033984374,98.0
39132,-0.03381622,-0.1205616,-0.072631836,0.13699952,-0.06903076,0.07646485,98.0
39133,-0.10731423,-0.13526726,-0.060287476,0.13699952,-0.06903076,0.07646485,98.0
39134,-0.10731423,-0.13526726,-0.060287476,0.16567384,-0.11044922,0.052038576,98.0
39135,-0.0995599,-0.024242401,-0.014678955,0.16567384,-0.11044922,0.052038576,98.0
39136,-0.0995599,-0.024242401,-0.014678955,0.1263794,-0.11363526,0.03717041,98.0
39137,-0.04386908,0.09259415,0.020904541,0.1263794,-0.11363526,0.03717041,98.0
39138,-0.04386908,0.09259415,0.020904541,0.07434082,-0.11257324,0.043542482,98.0
39139,0.03012687,0.092544556,0.010803223,0.07434082,-0.11257324,0.043542482,98.0
39140,0.03012687,0.092544556,0.010803223,0.11044922,-0.083898924,0.045666505,98.0
39141,0.086223125,0.14690018,0.076309204,0.11044922,-0.083898924,0.045666505,98.0
39142,0.086223125,0.14690018,0.076309204,0.1720459,-0.03717041,-0.0541626,98.0
39143,0.08797264,0.29686546,0.15753174,0.1720459,-0.03717041,-0.0541626,98.0
39144,0.08797264,0.29686546,0.15753174,-0.087084964,-0.016992187,-0.03079834,98.0
39145,0.03689426,0.17554092,0.062927246,-0.087084964,-0.016992187,-0.03079834,98.0
39146,0.03689426,0.17554092,0.062927246,-0.021240234,-0.004248047,-0.070092775,98.0
39147,0.055699527,-0.075876236,0.029891968,-0.021240234,-0.004248047,-0.070092775,98.0
39148,0.055699527,-0.075876236,0.029891968,0.0361084,0.11044922,-0.1263794,98.0
39149,0.15710849,-0.1635685,0.11917114,0.0361084,0.11044922,-0.1263794,98.0
39150,0.15710849,-0.1635685,0.11917114,0.05522461,0.20603028,-0.098767094,98.0
39151,0.088907,-0.13751984,0.03753662,0.05522461,0.20603028,-0.098767094,98.0
39152,0.088907,-0.13751984,0.03753662,0.12319336,0.10513916,-0.0031860352,98.0
39153,-0.12903309,-0.18029213,-0.19445801,0.12319336,0.10513916,-0.0031860352,98.0
39154,-0.12903309,-0.18029213,-0.19445801,0.03079834,0.023364259,0.0063720704,98.0
39155,-0.14750141,-0.37462997,-0.19125366,0.03079834,0.023364259,0.0063720704,98.0
39156,-0.14750141,-0.37462997,-0.19125366,0.36108398,0.04885254,-0.021240234,98.0
39157,-0.14750141,-0.37462997,-0.19125366,0.36108398,0.04885254,-0.021240234,97.0
39158,0.012467623,-0.10492897,0.038742065,0.36108398,0.04885254,-0.021240234,97.0
39159,0.012467623,-0.10492897,0.038742065,0.31329346,0.124255374,-0.050976563,97.0
39160,0.011524379,0.47745895,0.19329834,0.31329346,0.124255374,-0.050976563,97.0
39161,0.011524379,0.47745895,0.19329834,0.10407715,0.10407715,-0.10195313,97.0
39162,-0.09903246,0.58686256,0.35861206,0.10407715,0.10407715,-0.10195313,97.0
39163,-0.09903246,0.58686256,0.35861206,0.08920898,-0.02442627,-0.15611573,97.0
39164,-0.32796866,1.0106163,0.1161499,0.08920898,-0.02442627,-0.15611573,97.0
39165,-0.32796866,1.0106163,0.1161499,-0.8092529,-0.33771974,-0.37489015,97.0
39166,-0.27681583,0.9535122,-0.70314026,-0.8092529,-0.33771974,-0.37489015,97.0
39167,-0.27681583,0.9535122,-0.70314026,-1.6046997,-0.032922365,-0.4609131,97.0
39168,0.20203364,-1.5870323,-0.93522644,-1.6046997,-0.032922365,-0.4609131,97.0
39169,0.20203364,-1.5870323,-0.93522644,0.74447024,-0.3727661,0.13912354,97.0
39170,0.80139744,-2.706625,0.30618286,0.74447024,-0.3727661,0.13912354,97.0
39171,0.80139744,-2.706625,0.30618286,0.79332274,-0.033984374,0.37595215,97.0
39172,1.1049974,-0.98563766,1.1226501,0.79332274,-0.033984374,0.37595215,97.0
39173,1.1049974,-0.98563766,1.1226501,0.027612304,0.33028564,0.69136965,97.0
39174,0.27785778,0.6562042,0.32615662,0.027612304,0.33028564,0.69136965,97.0
39175,0.27785778,0.6562042,0.32615662,0.35895997,0.4630371,0.3440918,97.0
39176,-0.7525917,1.2804451,-0.5075226,0.35895997,0.4630371,0.3440918,97.0
39177,-0.7525917,1.2804451,-0.5075226,0.95793456,0.3175415,0.24213867,97.0
39178,-0.78216374,0.9890652,-0.372818,0.95793456,0.3175415,0.24213867,97.0
39179,-0.78216374,0.9890652,-0.372818,0.4991455,0.35789797,0.25913087,97.0
39180,-0.3569566,0.2504444,-0.057250977,0.4991455,0.35789797,0.25913087,97.0
39181,-0.3569566,0.2504444,-0.057250977,0.36851808,0.2538208,0.25594482,97.0
39182,-0.068988144,-0.19277191,-0.20881653,0.36851808,0.2538208,0.25594482,97.0
39183,-0.068988144,-0.19277191,-0.20881653,0.15505372,0.12319336,0.15823975,97.0
39184,-0.02033943,-0.109760284,-0.34703064,0.15505372,0.12319336,0.15823975,97.0
39185,-0.02033943,-0.109760284,-0.34703064,-0.058410645,-0.029736329,0.029736329,97.0
39186,-0.07187456,0.099069595,-0.1986084,-0.058410645,-0.029736329,0.029736329,97.0
39187,-0.07187456,0.099069595,-0.1986084,-0.14655761,-0.1709839,-0.03717041,97.0
39188,-0.13599086,0.27178383,-0.020828247,-0.14655761,-0.1709839,-0.03717041,97.0
39189,-0.13599086,0.27178383,-0.020828247,-0.23045655,-0.270813,-0.121069334,97.0
39190,-0.22829956,0.40563583,0.012542725,-0.23045655,-0.270813,-0.121069334,97.0
39191,-0.22829956,0.40563583,0.012542725,-0.32922363,-0.38232422,-0.2548828,97.0
39192,-0.2282207,0.44508934,0.07572937,-0.32922363,-0.38232422,-0.2548828,97.0
39193,-0.2282207,0.44508934,0.07572937,-0.44498292,-0.3717041,-0.30054933,97.0
39194,-0.01620692,0.3086586,0.37268066,-0.44498292,-0.3717041,-0.30054933,97.0
39195,-0.01620692,0.3086586,0.37268066,-0.5479981,-0.29948732,-0.34940186,97.0
39196,0.40839678,-0.19987488,0.73643494,-0.5479981,-0.29948732,-0.34940186,97.0
39197,0.40839678,-0.19987488,0.73643494,-0.630835,-0.12319336,-0.30373535,97.0
39198,0.6218468,-0.7848873,0.55410767,-0.630835,-0.12319336,-0.30373535,97.0
39199,0.6218468,-0.7848873,0.55410767,-0.33240968,-0.0637207,-0.025488282,97.0
39200,0.34755063,-0.8144951,-0.06283569,-0.33240968,-0.0637207,-0.025488282,97.0
39201,0.34755063,-0.8144951,-0.06283569,-0.03079834,-0.038232423,-0.07115479,97.0
39202,0.050098598,-0.45672417,-0.26481628,-0.03079834,-0.038232423,-0.07115479,97.0
39203,0.050098598,-0.45672417,-0.26481628,0.087084964,-0.020178223,0.04248047,97.0
39204,-0.04737228,-0.0429554,-0.13827515,0.087084964,-0.020178223,0.04248047,97.0
39205,-0.04737228,-0.0429554,-0.13827515,0.038232423,0.012744141,0.070092775,97.0
39206,-0.05283922,0.13991547,-0.11502075,0.038232423,0.012744141,0.070092775,97.0
39207,-0.05283922,0.13991547,-0.11502075,-0.0031860352,-0.047790527,0.050976563,97.0
39208,-0.061412036,0.08657837,-0.16340637,-0.0031860352,-0.047790527,0.050976563,97.0
39209,-0.061412036,0.08657837,-0.16340637,0.019116212,-0.09451904,0.083898924,97.0
39210,-0.06772095,0.095703125,-0.14453125,0.019116212,-0.09451904,0.083898924,97.0
39211,-0.06772095,0.095703125,-0.14453125,-0.08071289,-0.08920898,0.046728518,97.0
39212,-0.01936233,0.015172958,-0.08782959,-0.08071289,-0.08920898,0.046728518,97.0
39213,-0.01936233,0.015172958,-0.08782959,0.11044922,-0.07327881,0.09133301,97.0
39214,0.030066788,-0.2569294,0.07319641,0.11044922,-0.07327881,0.09133301,97.0
39215,0.030066788,-0.2569294,0.07319641,0.45135498,0.0063720704,0.12319336,97.0
39216,0.063750684,-0.30566597,0.2755432,0.45135498,0.0063720704,0.12319336,97.0
39217,0.063750684,-0.30566597,0.2755432,0.29523927,-0.010620117,0.12000733,97.0
39218,0.11656451,-0.08148384,0.19113159,0.29523927,-0.010620117,0.12000733,97.0
39219,0.11656451,-0.08148384,0.19113159,-0.015930176,0.08283692,0.18903808,97.0
39220,0.15331018,-0.23770905,-0.12857056,-0.015930176,0.08283692,0.18903808,97.0
39221,0.15331018,-0.23770905,-0.12857056,0.0998291,0.025488282,0.3355957,97.0
39222,0.15331018,-0.23770905,-0.12857056,0.26868898,0.0010620117,0.3727661,97.0
39223,0.08735764,-0.7369442,-0.24752808,0.26868898,0.0010620117,0.3727661,97.0
39224,0.057166457,-0.8734665,0.0028381348,0.26868898,0.0010620117,0.3727661,97.0
39225,0.057166457,-0.8734665,0.0028381348,0.46622315,0.022302246,0.40356445,97.0
39226,0.12470043,-0.328619,0.20680237,0.46622315,0.022302246,0.40356445,97.0
39227,0.12470043,-0.328619,0.20680237,0.31435546,0.17629395,0.40462646,97.0
39228,0.009355068,0.55835724,0.01826477,0.31435546,0.17629395,0.40462646,97.0
39229,0.009355068,0.55835724,0.01826477,0.5957886,0.1539917,0.2623169,97.0
39230,-0.40944707,1.5724792,-0.4590149,0.5957886,0.1539917,0.2623169,97.0
39231,-0.40944707,1.5724792,-0.4590149,0.4333008,-0.0998291,0.0998291,97.0
39232,-0.83258694,2.5253906,-0.5981293,0.4333008,-0.0998291,0.0998291,97.0
39233,-0.83258694,2.5253906,-0.5981293,-0.5235718,-0.29736328,-0.13275146,97.0
39234,-0.8666189,1.8955078,-0.01600647,-0.5235718,-0.29736328,-0.13275146,97.0
39235,-0.8666189,1.8955078,-0.01600647,-0.44179687,-0.32072756,-0.019116212,97.0
39236,-0.4149504,-0.20601845,0.45040894,-0.44179687,-0.32072756,-0.019116212,97.0
39237,-0.4149504,-0.20601845,0.45040894,0.011682129,-0.33878174,0.021240234,97.0
39238,0.29266125,-1.3790112,0.4281311,0.011682129,-0.33878174,0.021240234,97.0
39239,0.29266125,-1.3790112,0.4281311,0.18691407,-0.18372802,0.09239502,97.0
39240,0.7407696,-0.8193226,0.34553528,0.18691407,-0.18372802,0.09239502,97.0
39241,0.7407696,-0.8193226,0.34553528,-0.093457036,0.040356446,0.059472658,97.0
39242,0.6451548,0.26231575,0.17800903,-0.093457036,0.040356446,0.059472658,97.0
39243,0.6451548,0.26231575,0.17800903,-0.1996582,0.1529297,-0.047790527,97.0
39244,0.24960774,0.9296894,-0.030700684,-0.1996582,0.1529297,-0.047790527,97.0
39245,0.24960774,0.9296894,-0.030700684,-0.39294434,0.21134034,-0.18054199,97.0
39246,-0.14467418,1.0707779,-0.07078552,-0.39294434,0.21134034,-0.18054199,97.0
39247,-0.14467418,1.0707779,-0.07078552,-0.53737795,0.21452637,-0.30267334,97.0
39248,-0.39098352,0.8841114,-0.06869507,-0.53737795,0.21452637,-0.30267334,97.0
39249,-0.39098352,0.8841114,-0.06869507,-0.721106,0.12319336,-0.3812622,97.0
39250,-0.37791133,0.34453392,-0.14546204,-0.721106,0.12319336,-0.3812622,97.0
39251,-0.37791133,0.34453392,-0.14546204,-1.0036011,0.20284425,-0.43011475,97.0
39252,-0.09336913,-0.98421097,-0.07678223,-1.0036011,0.20284425,-0.43011475,97.0
39253,-0.09336913,-0.98421097,-0.07678223,-0.6860596,0.13062744,-0.45560303,97.0
39254,0.23311722,-1.9829502,0.21096802,-0.6860596,0.13062744,-0.45560303,97.0
39255,0.23311722,-1.9829502,0.21096802,-0.35152587,0.020178223,-0.3345337,97.0
39256,0.32157677,-1.3182335,0.34140015,-0.35152587,0.020178223,-0.3345337,97.0
39257,0.32157677,-1.3182335,0.34140015,-0.97280276,-0.08602295,-0.21134034,97.0
39258,0.15468574,0.21827698,-0.10618591,-0.97280276,-0.08602295,-0.21134034,97.0
39259,0.15468574,0.21827698,-0.10618591,-2.0528686,-0.19647217,-0.28461915,97.0
39260,0.16419047,0.52738,-0.9948273,-2.0528686,-0.19647217,-0.28461915,97.0
39261,0.16419047,0.52738,-0.9948273,-1.7438233,-0.007434082,-0.1444336,97.0
39262,0.16419047,0.52738,-0.9948273,-1.7438233,-0.007434082,-0.1444336,96.0
39263,0.25735337,-1.2936726,-0.92845154,-1.7438233,-0.007434082,-0.1444336,96.0
39264,0.25735337,-1.2936726,-0.92845154,1.0354614,-0.17947999,-0.07540283,96.0
39265,0.14443254,-1.5765514,0.3866272,1.0354614,-0.17947999,-0.07540283,96.0
39266,0.14443254,-1.5765514,0.3866272,0.79969484,0.0063720704,0.029736329,96.0
39267,-0.051787972,0.37924957,0.91967773,0.79969484,0.0063720704,0.029736329,96.0
39268,-0.051787972,0.37924957,0.91967773,-0.4428589,0.18903808,0.059472658,96.0
39269,-0.15307593,1.2079048,0.3478546,-0.4428589,0.18903808,0.059472658,96.0
39270,-0.15307593,1.2079048,0.3478546,-0.32391357,0.12213135,-0.09664307,96.0
39271,0.009021163,0.45515442,-0.18019104,-0.32391357,0.12213135,-0.09664307,96.0
39272,0.009021163,0.45515442,-0.18019104,0.06584473,0.0053100586,0.16142578,96.0
39273,-0.0015355349,-0.39681435,-0.43110657,0.06584473,0.0053100586,0.16142578,96.0
39274,-0.0015355349,-0.39681435,-0.43110657,0.28568116,-0.14974366,0.2177124,96.0
39275,-0.2395097,-0.36103058,-0.2954712,0.28568116,-0.14974366,0.2177124,96.0
39276,-0.2395097,-0.36103058,-0.2954712,0.22408448,-0.16461182,0.14655761,96.0
39277,-0.30958867,0.069293976,0.21072388,0.22408448,-0.16461182,0.14655761,96.0
39278,-0.30958867,0.069293976,0.21072388,-0.035046387,-0.13487549,0.0637207,96.0
39279,-0.0746851,0.1768837,0.2448883,-0.035046387,-0.13487549,0.0637207,96.0
39280,-0.0746851,0.1768837,0.2448883,0.3069214,0.023364259,0.08071289,96.0
39281,0.08574748,0.3255291,0.27980042,0.3069214,0.023364259,0.08071289,96.0
39282,0.08574748,0.3255291,0.27980042,0.36427003,0.21877442,-0.11469727,96.0
39283,-0.095379055,0.7936878,0.30020142,0.36427003,0.21877442,-0.11469727,96.0
39284,-0.095379055,0.7936878,0.30020142,-0.18372802,0.22833252,-0.059472658,96.0
39285,-0.6097139,0.99404335,-0.5987396,-0.18372802,0.22833252,-0.059472658,96.0
39286,-0.6097139,0.99404335,-0.5987396,-0.37382814,-0.06159668,-0.16885987,96.0
39287,-1.2200344,0.962471,-1.4092712,-0.37382814,-0.06159668,-0.16885987,96.0
39288,-1.2200344,0.962471,-1.4092712,-0.49171144,-0.24957275,-0.5341919,96.0
39289,-0.9780661,0.28260994,-0.40037537,-0.49171144,-0.24957275,-0.5341919,96.0
39290,-0.9780661,0.28260994,-0.40037537,-0.6711914,-0.057348635,-1.1055542,96.0
39291,0.34567216,-0.5681133,1.4746552,-0.6711914,-0.057348635,-1.1055542,96.0
39292,0.34567216,-0.5681133,1.4746552,-1.1490967,0.1539917,-0.8878418,96.0
39293,0.69876677,-0.93979263,1.3057709,-1.1490967,0.1539917,-0.8878418,96.0
39294,0.69876677,-0.93979263,1.3057709,-0.5883545,-0.05628662,-0.48321533,96.0
39295,0.5837449,-1.0676537,-0.31900024,-0.5883545,-0.05628662,-0.48321533,96.0
39296,0.5837449,-1.0676537,-0.31900024,0.050976563,-0.09770508,-0.6637573,96.0
39297,2.0542152,-1.1466274,-0.8790436,0.050976563,-0.09770508,-0.6637573,96.0
39298,2.0542152,-1.1466274,-0.8790436,0.07965088,0.033984374,-0.2527588,96.0
39299,2.7290533,-1.0770798,-0.32762146,0.07965088,0.033984374,-0.2527588,96.0
39300,2.7290533,-1.0770798,-0.32762146,0.62127686,0.07115479,0.72004396,96.0
39301,1.2916777,-0.26060104,-0.10569763,0.62127686,0.07115479,0.72004396,96.0
39302,1.2916777,-0.26060104,-0.10569763,0.7041138,0.29630128,0.74659425,96.0
39303,-0.48333263,0.39847755,-0.16304016,0.7041138,0.29630128,0.74659425,96.0
39304,-0.48333263,0.39847755,-0.16304016,0.8336792,0.09133301,1.1310425,96.0
39305,-0.74501574,-0.5626011,0.7142792,0.8336792,0.09133301,1.1310425,96.0
39306,-0.74501574,-0.5626011,0.7142792,0.95581055,0.07327881,0.59897465,96.0
39307,-0.075199604,-0.77578926,0.9898987,0.95581055,0.07327881,0.59897465,96.0
39308,-0.075199604,-0.77578926,0.9898987,0.40356445,0.18372802,0.009558106,96.0
39309,-1.1906407,0.6496315,-0.74716187,0.40356445,0.18372802,0.009558106,96.0
39310,-1.1906407,0.6496315,-0.74716187,0.27506104,-0.27506104,0.7072998,96.0
39311,-2.6016946,1.473135,-1.5940094,0.27506104,-0.27506104,0.7072998,96.0
39312,-2.6016946,1.473135,-1.5940094,0.80181885,-0.30373535,-0.17947999,96.0
39313,-1.4813192,1.654522,0.17475891,0.80181885,-0.30373535,-0.17947999,96.0
39314,-1.4813192,1.654522,0.17475891,0.21240234,0.02442627,-0.3355957,96.0
39315,0.27464926,1.2615452,1.5173798,0.21240234,0.02442627,-0.3355957,96.0
39316,0.27464926,1.2615452,1.5173798,-0.6680054,0.2623169,0.17629395,96.0
39317,0.659258,0.08269882,0.31025696,-0.6680054,0.2623169,0.17629395,96.0
39318,0.659258,0.08269882,0.31025696,0.016992187,-0.0361084,-0.040356446,96.0
39319,0.23687911,-0.8570957,-1.1860657,0.016992187,-0.0361084,-0.040356446,96.0
39320,0.23687911,-0.8570957,-1.1860657,0.13699952,-0.21558838,-0.0541626,96.0
39321,0.18692762,-1.3671227,-0.79885864,0.13699952,-0.21558838,-0.0541626,96.0
39322,0.18692762,-1.3671227,-0.79885864,0.18160401,-0.09451904,0.07327881,96.0
39323,0.399652,-1.7796726,0.5860138,0.18160401,-0.09451904,0.07327881,96.0
39324,0.399652,-1.7796726,0.5860138,0.99510497,0.050976563,0.2166504,96.0
39325,0.25943106,-1.6535225,0.9983673,0.99510497,0.050976563,0.2166504,96.0
39326,0.25943106,-1.6535225,0.9983673,1.7608155,0.019116212,0.38869628,96.0
39327,-0.16735744,-0.7462559,0.32839966,1.7608155,0.019116212,0.38869628,96.0
39328,-0.16735744,-0.7462559,0.32839966,1.6408081,0.04460449,0.29630128,96.0
39329,-0.27481616,0.80823135,-0.026046753,1.6408081,0.04460449,0.29630128,96.0
39330,-0.27481616,0.80823135,-0.026046753,1.0949341,0.06584473,0.0031860352,96.0
39331,0.08250302,2.1350613,0.21084595,1.0949341,0.06584473,0.0031860352,96.0
39332,0.08250302,2.1350613,0.21084595,-0.27718505,0.1720459,0.02442627,96.0
39333,0.20408833,2.3842812,-0.09335327,-0.27718505,0.1720459,0.02442627,96.0
39334,0.20408833,2.3842812,-0.09335327,-0.89421386,0.05522461,-0.087084964,96.0
39335,-0.028806984,1.337223,-0.5209961,-0.89421386,0.05522461,-0.087084964,96.0
39336,-0.028806984,1.337223,-0.5209961,0.090270996,-0.11469727,0.23151855,96.0
39337,-0.08487421,-0.012105942,-0.24980164,0.090270996,-0.11469727,0.23151855,96.0
39338,-0.08487421,-0.012105942,-0.24980164,0.5246338,-0.1274414,0.032922365,96.0
39339,0.19346535,-0.35791397,0.3170166,0.5246338,-0.1274414,0.032922365,96.0
39340,0.19346535,-0.35791397,0.3170166,0.09664307,0.0,-0.032922365,96.0
39341,0.39645934,-0.23144913,0.33842468,0.09664307,0.0,-0.032922365,96.0
39342,0.39645934,-0.23144913,0.33842468,-0.24213867,-0.087084964,-0.083898924,96.0
39343,0.2935835,-0.009048462,-0.22557068,-0.24213867,-0.087084964,-0.083898924,96.0
39344,0.2935835,-0.009048462,-0.22557068,-0.57561034,-0.18903808,-0.09770508,96.0
39345,0.22561383,0.10008621,-0.5420227,-0.57561034,-0.18903808,-0.09770508,96.0
39346,0.22561383,0.10008621,-0.5420227,-0.47684327,-0.10513916,0.0361084,96.0
39347,0.20169473,0.507864,0.32492065,-0.47684327,-0.10513916,0.0361084,96.0
39348,0.20169473,0.507864,0.32492065,-1.0216553,0.19328614,-0.15611573,96.0
39349,-0.07399583,1.0263596,1.0261688,-1.0216553,0.19328614,-0.15611573,96.0
39350,-0.07399583,1.0263596,1.0261688,-1.5154908,0.28674316,-0.18903808,96.0
39351,-0.2993456,0.78860474,0.11300659,-1.5154908,0.28674316,-0.18903808,96.0
39352,-0.2993456,0.78860474,0.11300659,-1.5526612,0.15505372,-0.21983643,96.0
39353,-0.16921282,-0.3725586,-0.97561646,-1.5526612,0.15505372,-0.21983643,96.0
39354,-0.16921282,-0.3725586,-0.97561646,-1.4740723,0.16885987,-0.1083252,96.0
39355,-0.17717934,-1.9518929,-0.8428192,-1.4740723,0.16885987,-0.1083252,96.0
39356,-0.17717934,-1.9518929,-0.8428192,-0.2984253,-0.020178223,-0.22196046,96.0
39357,-0.33756864,-1.6172638,0.12321472,-0.2984253,-0.020178223,-0.22196046,96.0
39358,-0.33756864,-1.6172638,0.12321472,-0.35895997,-0.0053100586,-0.2782471,96.0
39359,-0.22097039,-0.018299103,0.68473816,-0.35895997,-0.0053100586,-0.2782471,96.0
39360,-0.22097039,-0.018299103,0.68473816,-1.3052124,0.09451904,-0.107263185,96.0
39361,-0.062811494,-0.078372955,0.34028625,-1.3052124,0.09451904,-0.107263185,96.0
39362,-0.062811494,-0.078372955,0.34028625,-1.1682129,-0.03717041,0.08602295,96.0
39363,0.008796215,-0.7051296,-0.2166748,-1.1682129,-0.03717041,0.08602295,96.0
39364,0.008796215,-0.7051296,-0.2166748,-0.5734863,-0.11682129,-0.040356446,96.0
39365,0.12644613,-0.1557293,-0.18991089,-0.5734863,-0.11682129,-0.040356446,96.0
39366,0.12644613,-0.1557293,-0.18991089,-0.4609131,0.043542482,-0.058410645,96.0
39367,0.15153533,0.31464958,0.09803772,-0.4609131,0.043542482,-0.058410645,96.0
39368,0.15153533,0.31464958,0.09803772,0.45560303,0.09770508,0.10089111,96.0
39369,0.059009075,0.10827446,0.37213135,0.45560303,0.09770508,0.10089111,96.0
39370,0.059009075,0.10827446,0.37213135,0.5055176,0.19647217,0.050976563,96.0
39371,0.095351815,0.12846565,0.49719238,0.5055176,0.19647217,0.050976563,96.0
39372,0.095351815,0.12846565,0.49719238,0.033984374,0.3430298,-0.0031860352,96.0
39373,0.25119603,0.092811584,0.21853638,0.033984374,0.3430298,-0.0031860352,96.0
39374,0.25119603,0.092811584,0.21853638,0.1731079,0.3791382,0.04460449,96.0
39375,0.2894578,0.042388916,-0.27539062,0.1731079,0.3791382,0.04460449,96.0
39376,0.2894578,0.042388916,-0.27539062,0.06903076,0.34090576,0.012744141,96.0
39377,0.07226443,0.301466,-0.8989563,0.06903076,0.34090576,0.012744141,96.0
39378,0.07226443,0.301466,-0.8989563,-0.3419678,0.20072022,0.03717041,96.0
39379,-0.32865083,0.62615776,-1.4901276,-0.3419678,0.20072022,0.03717041,96.0
39380,-0.32865083,0.62615776,-1.4901276,-0.14230958,0.039294433,-0.16142578,96.0
39381,-0.6214046,0.8641224,-1.4582825,-0.14230958,0.039294433,-0.16142578,96.0
39382,-0.6214046,0.8641224,-1.4582825,-0.038232423,-0.087084964,-0.3717041,96.0
39383,-0.63119346,0.40642166,-0.5183563,-0.038232423,-0.087084964,-0.3717041,96.0
39384,-0.63119346,0.40642166,-0.5183563,0.04885254,-0.070092775,-0.4056885,96.0
39385,-0.3143664,-0.8678551,1.0060577,0.04885254,-0.070092775,-0.4056885,96.0
39386,-0.3143664,-0.8678551,1.0060577,0.72004396,0.015930176,-0.4354248,96.0
39387,0.21422952,-1.1555138,1.7924957,0.72004396,0.015930176,-0.4354248,96.0
39388,0.21422952,-1.1555138,1.7924957,0.89208984,0.0722168,-0.23895264,96.0
39389,0.48234552,-0.117111206,1.0989075,0.89208984,0.0722168,-0.23895264,96.0
39390,0.48234552,-0.117111206,1.0989075,0.1274414,0.07540283,-0.19647217,96.0
39391,0.31685787,0.47828484,-0.0043029785,0.1274414,0.07540283,-0.19647217,96.0
39392,0.31685787,0.47828484,-0.0043029785,-0.4630371,-0.06903076,-0.33028564,96.0
39393,0.16718262,-0.19804764,-0.39227295,-0.4630371,-0.06903076,-0.33028564,96.0
39394,0.16718262,-0.19804764,-0.39227295,0.013806152,-0.032922365,-0.13062744,96.0
39395,0.07496923,-0.983511,-0.37091064,0.013806152,-0.032922365,-0.13062744,96.0
39396,0.07496923,-0.983511,-0.37091064,0.70305175,-0.1539917,0.025488282,96.0
39397,0.016493917,-0.58906746,-0.26646423,0.70305175,-0.1539917,0.025488282,96.0
39398,0.016493917,-0.58906746,-0.26646423,0.30054933,-0.087084964,-0.057348635,96.0
39399,0.06491631,-0.009340286,-0.0761261,0.30054933,-0.087084964,-0.057348635,96.0
39400,0.06491631,-0.009340286,-0.0761261,0.19116211,-0.03717041,0.087084964,96.0
39401,0.06854677,-0.022584915,-0.05973816,0.19116211,-0.03717041,0.087084964,96.0
39402,0.06854677,-0.022584915,-0.05973816,0.47790527,-0.038232423,0.08496094,96.0
39403,0.1639561,-0.41324615,-0.06185913,0.47790527,-0.038232423,0.08496094,96.0
39404,0.1639561,-0.41324615,-0.06185913,0.6531372,0.0031860352,0.18585205,96.0
39405,0.26181674,-0.51239586,-0.051437378,0.6531372,0.0031860352,0.18585205,96.0
39406,0.26181674,-0.51239586,-0.051437378,0.97280276,0.012744141,0.2516968,96.0
39407,0.111028075,-0.11898613,0.18623352,0.97280276,0.012744141,0.2516968,96.0
39408,0.111028075,-0.11898613,0.18623352,0.9781128,0.05628662,0.2548828,96.0
39409,-0.06477857,0.11128044,0.5363922,0.9781128,0.05628662,0.2548828,96.0
39410,-0.06477857,0.11128044,0.5363922,0.7306641,0.14549561,0.38763428,96.0
39411,-0.067899585,-0.2040062,0.443161,0.7306641,0.14549561,0.38763428,96.0
39412,-0.067899585,-0.2040062,0.443161,1.0545777,0.16461182,0.45772704,96.0
39413,-0.035704017,-0.044137955,0.054229736,1.0545777,0.16461182,0.45772704,96.0
39414,-0.035704017,-0.044137955,0.054229736,1.1236085,0.17416993,0.33878174,96.0
39415,-0.08738887,0.89852715,-0.3302002,1.1236085,0.17416993,0.33878174,96.0
39416,-0.08738887,0.89852715,-0.3302002,0.47684327,0.16885987,0.28674316,96.0
39417,-0.19279927,1.1857891,-0.4213562,0.47684327,0.16885987,0.28674316,96.0
39418,-0.19279927,1.1857891,-0.4213562,0.06903076,0.093457036,0.27612305,96.0
39419,-0.19442499,0.5492058,-0.1928711,0.06903076,0.093457036,0.27612305,96.0
39420,-0.19442499,0.5492058,-0.1928711,0.053100586,0.02442627,0.25806886,96.0
39421,-0.15815228,0.11228943,0.063964844,0.053100586,0.02442627,0.25806886,96.0
39422,-0.15815228,0.11228943,0.063964844,0.050976563,-0.04991455,0.21027832,96.0
39423,-0.24814045,0.35887527,0.22744751,0.050976563,-0.04991455,0.21027832,96.0
39424,-0.24814045,0.35887527,0.22744751,-0.38657227,-0.09664307,0.14549561,96.0
39425,-0.26860517,0.52534485,0.26979065,-0.38657227,-0.09664307,0.14549561,96.0
39426,-0.26860517,0.52534485,0.26979065,-0.45878908,-0.1709839,0.093457036,96.0
39427,-0.13607556,0.26098633,0.06401062,-0.45878908,-0.1709839,0.093457036,96.0
39428,-0.13607556,0.26098633,0.06401062,-0.46834716,-0.18160401,0.090270996,96.0
39429,-0.045103133,0.117565155,-0.25387573,-0.46834716,-0.18160401,0.090270996,96.0
39430,-0.045103133,0.117565155,-0.25387573,-0.29736328,-0.2177124,0.021240234,96.0
39431,0.062171936,-0.036087036,-0.26278687,-0.29736328,-0.2177124,0.021240234,96.0
39432,0.062171936,-0.036087036,-0.26278687,-0.1263794,-0.14974366,0.019116212,96.0
39433,0.23442996,-0.32767296,0.10694885,-0.1263794,-0.14974366,0.019116212,96.0
39434,0.23442996,-0.32767296,0.10694885,0.095581055,-0.06690674,0.0053100586,96.0
39435,0.2679639,-0.26479912,0.3433075,0.095581055,-0.06690674,0.0053100586,96.0
39436,0.2679639,-0.26479912,0.3433075,-0.11151123,-0.016992187,-0.03079834,96.0
39437,0.067837894,-0.035886765,0.11480713,-0.11151123,-0.016992187,-0.03079834,96.0
39438,0.067837894,-0.035886765,0.11480713,-0.22302246,-0.028674318,-0.04460449,96.0
39439,-0.13484102,0.01679802,-0.17497253,-0.22302246,-0.028674318,-0.04460449,96.0
39440,-0.13484102,0.01679802,-0.17497253,-0.07434082,-0.013806152,-0.078588866,96.0
39441,-0.1175164,0.02435112,-0.16687012,-0.07434082,-0.013806152,-0.078588866,96.0
39442,-0.1175164,0.02435112,-0.16687012,0.11044922,0.021240234,-0.095581055,96.0
39443,-0.0150946975,0.19654465,0.079940796,0.11044922,0.021240234,-0.095581055,96.0
39444,-0.0150946975,0.19654465,0.079940796,-0.039294433,0.033984374,-0.16142578,96.0
39445,0.031161547,0.5150356,0.22590637,-0.039294433,0.033984374,-0.16142578,96.0
39446,0.031161547,0.5150356,0.22590637,-0.43117675,0.10301514,-0.21452637,96.0
39447,-0.07631588,0.744133,0.03253174,-0.43117675,0.10301514,-0.21452637,96.0
39448,-0.07631588,0.744133,0.03253174,-0.5703003,0.090270996,-0.29311523,96.0
39449,-0.22080612,0.64318275,-0.19795227,-0.5703003,0.090270996,-0.29311523,96.0
39450,-0.22080612,0.64318275,-0.19795227,-0.6117188,0.039294433,-0.37807617,96.0
39451,-0.12769473,-0.025663376,-0.2585907,-0.6117188,0.039294433,-0.37807617,96.0
39452,-0.12769473,-0.025663376,-0.2585907,-0.6510132,-0.023364259,-0.45772704,96.0
39453,0.044682562,-0.9638405,-0.18470764,-0.6510132,-0.023364259,-0.45772704,96.0
39454,0.044682562,-0.9638405,-0.18470764,-0.54587406,-0.28355715,-0.47578126,96.0
39455,0.20348287,-1.2318993,0.3008728,-0.54587406,-0.28355715,-0.47578126,96.0
39456,0.20348287,-1.2318993,0.3008728,-0.8963379,-0.28461915,-0.29205322,96.0
39457,0.57728827,-0.8807583,0.5697937,-0.8963379,-0.28461915,-0.29205322,96.0
39458,0.57728827,-0.8807583,0.5697937,-1.0269654,-0.070092775,-0.15717773,96.0
39459,0.57728827,-0.8807583,0.5697937,-1.0269654,-0.070092775,-0.15717773,94.0
39460,0.7117696,-0.85920906,0.13697815,-1.0269654,-0.070092775,-0.15717773,94.0
39461,0.7117696,-0.85920906,0.13697815,-0.038232423,0.083898924,0.052038576,94.0
39462,0.17626381,-0.56466293,-0.19172668,-0.038232423,0.083898924,0.052038576,94.0
39463,0.17626381,-0.56466293,-0.19172668,0.30479738,0.07434082,0.04141846,94.0
39464,-0.38921356,0.2060337,-0.25709534,0.30479738,0.07434082,0.04141846,94.0
39465,-0.38921356,0.2060337,-0.25709534,-0.13806152,0.07752686,-0.093457036,94.0
39466,-0.30634153,0.48213768,-0.14779663,-0.13806152,0.07752686,-0.093457036,94.0
39467,-0.30634153,0.48213768,-0.14779663,-0.12850343,0.022302246,-0.035046387,94.0
39468,-0.01672846,0.39393806,-0.024291992,-0.12850343,0.022302246,-0.035046387,94.0
39469,-0.01672846,0.39393806,-0.024291992,-0.34090576,-0.07434082,0.010620117,94.0
39470,-0.107621014,-0.052354813,-0.066833496,-0.34090576,-0.07434082,0.010620117,94.0
39471,-0.107621014,-0.052354813,-0.066833496,0.08814698,-0.24001466,0.16885987,94.0
39472,-0.16400212,-0.41192818,0.0035247803,0.08814698,-0.24001466,0.16885987,94.0
39473,-0.16400212,-0.41192818,0.0035247803,0.23364258,-0.22089843,0.13275146,94.0
39474,-0.04985404,-0.110486984,0.18536377,0.23364258,-0.22089843,0.13275146,94.0
39475,-0.04985404,-0.110486984,0.18536377,0.19222413,-0.14337158,0.1359375,94.0
39476,-0.071157634,0.47371864,0.23782349,0.19222413,-0.14337158,0.1359375,94.0
39477,-0.071157634,0.47371864,0.23782349,-0.09133301,0.012744141,0.06159668,94.0
39478,-0.107158005,0.74677277,-0.19734192,-0.09133301,0.012744141,0.06159668,94.0
39479,-0.107158005,0.74677277,-0.19734192,-0.027612304,0.004248047,-0.06265869,94.0
39480,-0.06227672,0.48850822,-0.5227356,-0.027612304,0.004248047,-0.06265869,94.0
39481,-0.06227672,0.48850822,-0.5227356,-0.033984374,0.019116212,-0.098767094,94.0
39482,-0.18966514,0.16132736,-0.19992065,-0.033984374,0.019116212,-0.098767094,94.0
39483,-0.18966514,0.16132736,-0.19992065,-0.08602295,0.070092775,-0.06159668,94.0
39484,-0.51765007,0.30064392,0.09742737,-0.08602295,0.070092775,-0.06159668,94.0
39485,-0.51765007,0.30064392,0.09742737,-0.23364258,0.011682129,-0.16992188,94.0
39486,-0.808041,0.71224403,-0.19541931,-0.23364258,0.011682129,-0.16992188,94.0
39487,-0.808041,0.71224403,-0.19541931,-0.2782471,-0.1359375,-0.31010744,94.0
39488,-0.81808805,0.6778393,-0.37365723,-0.2782471,-0.1359375,-0.31010744,94.0
39489,-0.81808805,0.6778393,-0.37365723,-0.3154175,-0.124255374,-0.51932377,94.0
39490,-0.17612575,-0.077869415,0.50987244,-0.3154175,-0.124255374,-0.51932377,94.0
39491,-0.17612575,-0.077869415,0.50987244,-0.45135498,-0.0722168,-0.64995116,94.0
39492,0.51127225,-0.7695713,1.0427551,-0.45135498,-0.0722168,-0.64995116,94.0
39493,0.51127225,-0.7695713,1.0427551,-0.72216797,-0.1359375,-0.63614506,94.0
39494,0.44640794,-0.7881794,0.16822815,-0.72216797,-0.1359375,-0.63614506,94.0
39495,0.44640794,-0.7881794,0.16822815,-0.5511841,-0.3334717,-0.75721437,94.0
39496,0.8767064,-0.6956444,-0.33569336,-0.5511841,-0.3334717,-0.75721437,94.0
39497,0.8767064,-0.6956444,-0.33569336,-0.58623046,-0.18054199,-0.7147339,94.0
39498,1.8474834,-1.0867043,-0.091918945,-0.58623046,-0.18054199,-0.7147339,94.0
39499,1.8474834,-1.0867043,-0.091918945,-0.06159668,0.033984374,0.08283692,94.0
39500,1.8690145,-1.0453777,-0.37150574,-0.06159668,0.033984374,0.08283692,94.0
39501,1.8690145,-1.0453777,-0.37150574,0.65632325,0.14974366,0.5012695,94.0
39502,0.9741788,-0.47037125,-0.7570038,0.65632325,0.14974366,0.5012695,94.0
39503,0.9741788,-0.47037125,-0.7570038,1.0524536,0.10513916,0.6149048,94.0
39504,0.012424111,0.07825661,-0.2651062,1.0524536,0.10513916,0.6149048,94.0
39505,0.012424111,0.07825661,-0.2651062,0.9791748,0.06690674,0.905896,94.0
39506,-0.10695529,0.0949173,0.78230286,0.9791748,0.06690674,0.905896,94.0
39507,-0.10695529,0.0949173,0.78230286,0.7423462,0.22089843,0.9802368,94.0
39508,0.59679675,-0.17830276,0.9356384,0.7423462,0.22089843,0.9802368,94.0
39509,0.59679675,-0.17830276,0.9356384,0.02442627,0.081774905,-0.4428589,94.0
39510,-0.47693276,0.004343033,-0.09585571,0.02442627,0.081774905,-0.4428589,94.0
39511,-0.47693276,0.004343033,-0.09585571,0.37807617,-0.20496826,1.1342286,94.0
39512,-2.4522371,0.5584793,-1.1832123,0.37807617,-0.20496826,1.1342286,94.0
39513,-2.4522371,0.5584793,-1.1832123,0.8241211,-0.3058594,0.05628662,94.0
39514,-2.2630591,1.1202698,-0.73861694,0.8241211,-0.3058594,0.05628662,94.0
39515,-2.2630591,1.1202698,-0.73861694,0.60322267,-0.15930176,0.08071289,94.0
39516,-0.8185407,1.2818604,0.93666077,0.60322267,-0.15930176,0.08071289,94.0
39517,-0.8185407,1.2818604,0.93666077,0.021240234,0.13168946,-0.059472658,94.0
39518,0.4378432,0.5695076,1.1632233,0.021240234,0.13168946,-0.059472658,94.0
39519,0.4378432,0.5695076,1.1632233,0.02442627,0.16673584,0.21240234,94.0
39520,0.6719054,-0.58764267,-0.13923645,0.02442627,0.16673584,0.21240234,94.0
39521,0.6719054,-0.58764267,-0.13923645,0.32603762,0.059472658,0.1709839,94.0
39522,0.5524413,-1.0244846,-0.6283417,0.32603762,0.059472658,0.1709839,94.0
39523,0.5524413,-1.0244846,-0.6283417,0.5076416,0.016992187,0.21877442,94.0
39524,0.41893065,-1.5326729,-0.3918152,0.5076416,0.016992187,0.21877442,94.0
39525,0.41893065,-1.5326729,-0.3918152,1.0482056,0.10301514,0.40462646,94.0
39526,0.25888717,-1.2473545,-0.033050537,1.0482056,0.10301514,0.40462646,94.0
39527,0.25888717,-1.2473545,-0.033050537,1.2457398,0.098767094,0.41206056,94.0
39528,-0.5791818,0.3931923,0.20777893,1.2457398,0.098767094,0.41206056,94.0
39529,-0.5791818,0.3931923,0.20777893,0.8464233,0.016992187,0.23789063,94.0
39530,-0.6519441,0.9509678,0.13404846,0.8464233,0.016992187,0.23789063,94.0
39531,-0.6519441,0.9509678,0.13404846,0.51188964,0.026550293,0.04460449,94.0
39532,-0.24588394,1.9433174,0.22653198,0.51188964,0.026550293,0.04460449,94.0
39533,-0.24588394,1.9433174,0.22653198,-0.15505372,-0.0031860352,0.098767094,94.0
39534,-0.04535216,1.3767242,0.12289429,-0.15505372,-0.0031860352,0.098767094,94.0
39535,-0.04535216,1.3767242,0.12289429,-0.1901001,-0.032922365,0.14974366,94.0
39536,-0.0135400295,0.0051517487,-0.10876465,-0.1901001,-0.032922365,0.14974366,94.0
39537,-0.0135400295,0.0051517487,-0.10876465,-0.08920898,-0.11469727,0.095581055,94.0
39538,-0.05216503,-0.22258759,-0.1559906,-0.08920898,-0.11469727,0.095581055,94.0
39539,-0.05216503,-0.22258759,-0.1559906,0.20921631,-0.21346436,0.13381349,94.0
39540,0.055411518,0.05098343,-0.1686554,0.20921631,-0.21346436,0.13381349,94.0
39541,0.055411518,0.05098343,-0.1686554,0.078588866,-0.20921631,0.0053100586,94.0
39542,0.05020082,0.15531349,-0.154953,0.078588866,-0.20921631,0.0053100586,94.0
39543,0.05020082,0.15531349,-0.154953,0.14974366,-0.19434814,-0.09770508,94.0
39544,0.031334937,0.2355671,-0.096069336,0.14974366,-0.19434814,-0.09770508,94.0
39545,0.031334937,0.2355671,-0.096069336,0.27718505,-0.29311523,-0.18797608,94.0
39546,0.1135689,0.57569695,0.1516571,0.27718505,-0.29311523,-0.18797608,94.0
39547,0.1135689,0.57569695,0.1516571,-0.44816896,-0.33028564,-0.29630128,94.0
39548,0.33809638,0.7495823,0.38026428,-0.44816896,-0.33028564,-0.29630128,94.0
39549,0.33809638,0.7495823,0.38026428,-0.93563235,-0.16567384,-0.38551027,94.0
39550,0.6720518,-0.034404755,0.3540802,-0.93563235,-0.16567384,-0.38551027,94.0
39551,0.6720518,-0.034404755,0.3540802,-0.540564,-0.0031860352,-0.29099122,94.0
39552,0.8577342,-1.1177711,0.14385986,-0.540564,-0.0031860352,-0.29099122,94.0
39553,0.8577342,-1.1177711,0.14385986,0.03717041,0.07540283,-0.1444336,94.0
39554,0.6418636,-1.3889923,0.0736084,0.03717041,0.07540283,-0.1444336,94.0
39555,0.6418636,-1.3889923,0.0736084,0.271875,0.18160401,0.0010620117,94.0
39556,0.21375942,-0.78847694,0.14491272,0.271875,0.18160401,0.0010620117,94.0
39557,0.21375942,-0.78847694,0.14491272,0.26019287,0.21027832,0.0180542,94.0
39558,-0.1586678,-0.14258575,0.2027893,0.26019287,0.21027832,0.0180542,94.0
39559,-0.1586678,-0.14258575,0.2027893,0.0,0.3090454,0.043542482,94.0
39560,-0.41204166,0.07328415,0.19862366,0.0,0.3090454,0.043542482,94.0
39561,-0.41204166,0.07328415,0.19862366,-0.06159668,0.36745605,-0.027612304,94.0
39562,-0.5438789,0.2159996,0.15551758,-0.06159668,0.36745605,-0.027612304,94.0
39563,-0.5438789,0.2159996,0.15551758,0.06796875,0.31966552,-0.07115479,94.0
39564,-0.4855548,0.60871315,0.06236267,0.06796875,0.31966552,-0.07115479,94.0
39565,-0.4855548,0.60871315,0.06236267,-0.45666504,0.41418457,-0.16354981,94.0
39566,-0.31090474,0.7538414,-0.13401794,-0.45666504,0.41418457,-0.16354981,94.0
39567,-0.31090474,0.7538414,-0.13401794,-0.41418457,0.37489015,-0.23895264,94.0
39568,-0.14956605,0.48258972,-0.3074646,-0.41418457,0.37489015,-0.23895264,94.0
39569,-0.14956605,0.48258972,-0.3074646,-0.1985962,0.28780517,-0.28568116,94.0
39570,0.025940418,0.21024132,-0.21162415,-0.1985962,0.28780517,-0.28568116,94.0
39571,0.025940418,0.21024132,-0.21162415,-0.38763428,0.35789797,-0.3536499,94.0
39572,0.14096719,-0.099226,-0.029663086,-0.38763428,0.35789797,-0.3536499,94.0
39573,0.14096719,-0.099226,-0.029663086,-0.39400634,0.36002198,-0.43011475,94.0
39574,0.13174349,-0.42170334,-0.14974976,-0.39400634,0.36002198,-0.43011475,94.0
39575,0.13174349,-0.42170334,-0.14974976,-0.32178956,0.26656494,-0.3695801,94.0
39576,0.13174349,-0.42170334,-0.14974976,-0.32178956,0.26656494,-0.3695801,94.0
39577,0.12625659,-0.64637184,-0.4473114,-0.32178956,0.26656494,-0.3695801,94.0
39578,0.12625659,-0.64637184,-0.4473114,-0.32178956,0.15505372,-0.24213867,94.0
39579,0.124967694,-0.86120224,-0.49243164,-0.32178956,0.15505372,-0.24213867,94.0
39580,0.124967694,-0.86120224,-0.49243164,-0.33878174,0.1178833,-0.12000733,94.0
39581,-0.01361227,-0.9894142,-0.30871582,-0.33878174,0.1178833,-0.12000733,94.0
39582,-0.01361227,-0.9894142,-0.30871582,-0.18266602,0.05628662,-0.007434082,94.0
39583,-0.20720333,-0.8932648,-0.18899536,-0.18266602,0.05628662,-0.007434082,94.0
39584,-0.20720333,-0.8932648,-0.18899536,0.05628662,0.0063720704,0.16992188,94.0
39585,-0.21051365,-0.71850586,-0.1383667,0.05628662,0.0063720704,0.16992188,94.0
39586,-0.21051365,-0.71850586,-0.1383667,0.2824951,-0.07115479,0.24638672,94.0
39587,0.03346896,-0.56414795,0.038909912,0.2824951,-0.07115479,0.24638672,94.0
39588,0.03346896,-0.56414795,0.038909912,0.37807617,-0.04885254,0.3154175,94.0
39589,0.23165798,-0.34998894,0.32868958,0.37807617,-0.04885254,0.3154175,94.0
39590,0.23165798,-0.34998894,0.32868958,0.4715332,-0.04885254,0.42799073,94.0
39591,0.18088305,0.08458328,0.41860962,0.4715332,-0.04885254,0.42799073,94.0
39592,0.18088305,0.08458328,0.41860962,0.18797608,0.011682129,0.42799073,94.0
39593,-0.13886291,0.66262436,0.12168884,0.18797608,0.011682129,0.42799073,94.0
39594,-0.13886291,0.66262436,0.12168884,0.004248047,-0.0637207,0.40037844,94.0
39595,-0.48485744,1.3299408,-0.35098267,0.004248047,-0.0637207,0.40037844,94.0
39596,-0.48485744,1.3299408,-0.35098267,-0.4991455,-0.21983643,0.2516968,94.0
39597,-0.4792922,1.4747925,-0.53318787,-0.4991455,-0.21983643,0.2516968,94.0
39598,-0.4792922,1.4747925,-0.53318787,-0.30267334,-0.21346436,0.23364258,94.0
39599,-0.3315783,0.8938484,-0.1988678,-0.30267334,-0.21346436,0.23364258,94.0
39600,-0.3315783,0.8938484,-0.1988678,0.16885987,-0.35789797,0.09770508,94.0
39601,-0.080887675,0.41371155,0.3199768,0.16885987,-0.35789797,0.09770508,94.0
39602,-0.080887675,0.41371155,0.3199768,-0.20072022,-0.41206056,0.083898924,94.0
39603,0.15122008,0.17176437,0.4411621,-0.20072022,-0.41206056,0.083898924,94.0
39604,0.15122008,0.17176437,0.4411621,-0.35577393,-0.44604492,0.014868164,94.0
39605,0.2085005,-0.042165756,0.14892578,-0.35577393,-0.44604492,0.014868164,94.0
39606,0.2085005,-0.042165756,0.14892578,-0.32709962,-0.41737062,-0.08071289,94.0
39607,0.27552843,-0.4152031,-0.1060791,-0.32709962,-0.41737062,-0.08071289,94.0
39608,0.27552843,-0.4152031,-0.1060791,-0.03079834,-0.3791382,0.04885254,94.0
39609,0.33193398,-0.73742294,0.1574707,-0.03079834,-0.3791382,0.04885254,94.0
39610,0.33193398,-0.73742294,0.1574707,0.44923097,-0.20603028,0.12956543,94.0
39611,0.35064244,-0.23335838,0.9510956,0.44923097,-0.20603028,0.12956543,94.0
39612,0.35064244,-0.23335838,0.9510956,0.052038576,0.0541626,0.043542482,94.0
39613,0.31407106,0.6343937,1.1483917,0.052038576,0.0541626,0.043542482,94.0
39614,0.31407106,0.6343937,1.1483917,-0.34090576,0.27718505,-0.12531738,94.0
39615,0.18958688,0.8213577,0.23509216,-0.34090576,0.27718505,-0.12531738,94.0
39616,0.18958688,0.8213577,0.23509216,-0.45666504,0.25913087,-0.13062744,94.0
39617,0.20218217,0.32837486,-0.6997833,-0.45666504,0.25913087,-0.13062744,94.0
39618,0.20218217,0.32837486,-0.6997833,-0.48427734,0.26550293,-0.04460449,94.0
39619,0.15786386,-0.3202114,-0.7657013,-0.48427734,0.26550293,-0.04460449,94.0
39620,0.15786386,-0.3202114,-0.7657013,-0.4078125,0.32816163,-0.09451904,94.0
39621,-0.20735145,-0.51288414,-0.27809143,-0.4078125,0.32816163,-0.09451904,94.0
39622,-0.20735145,-0.51288414,-0.27809143,-0.29736328,0.3695801,-0.11257324,94.0
39623,-0.63168925,-0.29086113,0.038406372,-0.29736328,0.3695801,-0.11257324,94.0
39624,-0.63168925,-0.29086113,0.038406372,-0.21983643,0.3090454,-0.12956543,94.0
39625,-0.71057606,0.14375114,0.024612427,-0.21983643,0.3090454,-0.12956543,94.0
39626,-0.71057606,0.14375114,0.024612427,-0.21134034,0.15611573,-0.16992188,94.0
39627,-0.38391495,0.7602768,-0.2952423,-0.21134034,0.15611573,-0.16992188,94.0
39628,-0.38391495,0.7602768,-0.2952423,-0.68712157,0.0541626,-0.22939454,94.0
39629,0.051095605,0.61748695,-0.6604004,-0.68712157,0.0541626,-0.22939454,94.0
39630,0.051095605,0.61748695,-0.6604004,-0.7858887,-0.043542482,-0.29948732,94.0
39631,0.35395026,-0.11948776,-0.48368835,-0.7858887,-0.043542482,-0.29948732,94.0
39632,0.35395026,-0.11948776,-0.48368835,-0.45347902,-0.12850343,-0.39400634,94.0
39633,0.39503765,-0.27779198,0.15048218,-0.45347902,-0.12850343,-0.39400634,94.0
39634,0.39503765,-0.27779198,0.15048218,-0.8336792,-0.17735596,-0.34940186,94.0
39635,0.1883446,-0.4411049,0.5412445,-0.8336792,-0.17735596,-0.34940186,94.0
39636,0.1883446,-0.4411049,0.5412445,-1.6949707,-0.22939454,-0.010620117,94.0
39637,0.005961299,-0.8622837,0.41687012,-1.6949707,-0.22939454,-0.010620117,94.0
39638,0.005961299,-0.8622837,0.41687012,-1.722583,-0.2357666,-0.118945315,94.0
39639,0.03852153,-0.7754955,0.08097839,-1.722583,-0.2357666,-0.118945315,94.0
39640,0.03852153,-0.7754955,0.08097839,-0.9505005,-0.019116212,0.015930176,94.0
39641,-0.040154457,-0.7066879,0.02243042,-0.9505005,-0.019116212,0.015930176,94.0
39642,-0.040154457,-0.7066879,0.02243042,0.59047854,0.022302246,0.09664307,94.0
39643,-0.2461983,-0.17644691,0.14385986,0.59047854,0.022302246,0.09664307,94.0
39644,-0.2461983,-0.17644691,0.14385986,0.26762697,0.04885254,0.0,94.0
39645,-0.12562072,0.70295906,-0.10682678,0.26762697,0.04885254,0.0,94.0
39646,-0.12562072,0.70295906,-0.10682678,-0.19647217,0.07434082,-0.04248047,94.0
39647,0.31700826,0.2414074,-0.22169495,-0.19647217,0.07434082,-0.04248047,94.0
39648,0.31700826,0.2414074,-0.22169495,0.44179687,0.15611573,0.107263185,94.0
39649,0.47013497,-0.5238781,0.014480591,0.44179687,0.15611573,0.107263185,94.0
39650,0.47013497,-0.5238781,0.014480591,0.5150757,0.14974366,0.093457036,94.0
39651,0.1604464,0.027662277,-0.054656982,0.5150757,0.14974366,0.093457036,94.0
39652,0.1604464,0.027662277,-0.054656982,-0.22196046,0.15186767,0.04141846,94.0
39653,-0.1695677,0.68414116,-0.58540344,-0.22196046,0.15186767,0.04141846,94.0
39654,-0.1695677,0.68414116,-0.58540344,-0.13487549,0.09770508,-0.004248047,94.0
39655,-0.3481176,0.75118256,-0.9639435,-0.13487549,0.09770508,-0.004248047,94.0
39656,-0.3481176,0.75118256,-0.9639435,0.27718505,-0.02442627,-0.18372802,94.0
39657,-0.45431197,0.5724907,-0.7238312,0.27718505,-0.02442627,-0.18372802,94.0
39658,-0.45431197,0.5724907,-0.7238312,0.51188964,-0.07115479,-0.25063476,94.0
39659,-0.41853994,0.13160133,0.008514404,0.51188964,-0.07115479,-0.25063476,94.0
39660,-0.41853994,0.13160133,0.008514404,0.5501221,-0.03079834,-0.3727661,94.0
39661,-0.11370158,-0.33203506,0.9981384,0.5501221,-0.03079834,-0.3727661,94.0
39662,-0.11370158,-0.33203506,0.9981384,0.6595093,0.15611573,-0.43754885,94.0
39663,0.3656428,-0.4187889,1.5866852,0.6595093,0.15611573,-0.43754885,94.0
39664,0.3656428,-0.4187889,1.5866852,0.45029297,0.21346436,-0.22408448,94.0
39665,0.49640828,-0.12898827,0.94065857,0.45029297,0.21346436,-0.22408448,94.0
39666,0.49640828,-0.12898827,0.94065857,0.23258057,0.15611573,-0.15080567,94.0
39667,0.16391128,0.089437485,-0.2250824,0.23258057,0.15611573,-0.15080567,94.0
39668,0.16391128,0.089437485,-0.2250824,-0.21877442,0.02442627,-0.31116945,94.0
39669,0.16391128,0.089437485,-0.2250824,-0.21877442,0.02442627,-0.31116945,93.0
39670,-0.17372936,0.22527313,-0.71943665,-0.21877442,0.02442627,-0.31116945,93.0
39671,-0.17372936,0.22527313,-0.71943665,-0.9303223,-0.1731079,-0.4248047,93.0
39672,-0.10380286,-0.22997475,-0.7132721,-0.9303223,-0.1731079,-0.4248047,93.0
39673,-0.10380286,-0.22997475,-0.7132721,-0.44604492,-0.09770508,-0.24213867,93.0
39674,0.072853684,-1.1054516,-0.79525757,-0.44604492,-0.09770508,-0.24213867,93.0
39675,0.072853684,-1.1054516,-0.79525757,0.81881106,-0.22514649,-0.059472658,93.0
39676,0.15086102,-1.1772823,-0.25305176,0.81881106,-0.22514649,-0.059472658,93.0
39677,0.15086102,-1.1772823,-0.25305176,0.8028809,-0.08814698,0.0180542,93.0
39678,0.3335184,-0.77576065,0.66049194,0.8028809,-0.08814698,0.0180542,93.0
39679,0.3335184,-0.77576065,0.66049194,0.631897,0.06796875,0.32072756,93.0
39680,0.37763023,-0.5844879,0.6267853,0.631897,0.06796875,0.32072756,93.0
39681,0.37763023,-0.5844879,0.6267853,0.7954468,0.17841797,0.47578126,93.0
39682,0.21796107,-0.518116,0.15777588,0.7954468,0.17841797,0.47578126,93.0
39683,0.21796107,-0.518116,0.15777588,1.3423828,0.19222413,0.42799073,93.0
39684,0.082034945,-0.024723053,0.007659912,1.3423828,0.19222413,0.42799073,93.0
39685,0.082034945,-0.024723053,0.007659912,1.4592041,0.17629395,0.452417,93.0
39686,-0.022360325,0.538229,0.099243164,1.4592041,0.17629395,0.452417,93.0
39687,-0.022360325,0.538229,0.099243164,0.9165161,0.2357666,0.45666504,93.0
39688,-0.20031011,0.61637497,0.17721558,0.9165161,0.2357666,0.45666504,93.0
39689,-0.20031011,0.61637497,0.17721558,0.67331547,0.18054199,0.4619751,93.0
39690,-0.41464257,0.75865173,0.022521973,0.67331547,0.18054199,0.4619751,93.0
39691,-0.41464257,0.75865173,0.022521973,0.06690674,0.0361084,0.33028564,93.0
39692,-0.46134055,1.627758,-0.29623413,0.06690674,0.0361084,0.33028564,93.0
39693,-0.46134055,1.627758,-0.29623413,-1.4124756,-0.16248779,-0.014868164,93.0
39694,-0.36293226,1.7628021,-0.6119995,-1.4124756,-0.16248779,-0.014868164,93.0
39695,-0.36293226,1.7628021,-0.6119995,-1.5569092,-0.13912354,0.10407715,93.0
39696,-0.39332432,0.15383339,-0.9180145,-1.5569092,-0.13912354,0.10407715,93.0
39697,-0.39332432,0.15383339,-0.9180145,0.50870365,-0.4704712,0.2527588,93.0
39698,-0.3289051,-0.7284107,-0.4559784,0.50870365,-0.4704712,0.2527588,93.0
39699,-0.3289051,-0.7284107,-0.4559784,0.6403931,-0.3695801,0.095581055,93.0
39700,3.6466122E-4,-0.26390457,0.79200745,0.6403931,-0.3695801,0.095581055,93.0
39701,3.6466122E-4,-0.26390457,0.79200745,-0.0722168,-0.16354981,0.13062744,93.0
39702,0.29466426,0.08492088,1.2417908,-0.0722168,-0.16354981,0.13062744,93.0
39703,0.29466426,0.08492088,1.2417908,-0.17523193,-0.05522461,0.090270996,93.0
39704,0.43885636,0.07113457,0.46421814,-0.17523193,-0.05522461,0.090270996,93.0
39705,0.43885636,0.07113457,0.46421814,-0.121069334,0.008496094,0.095581055,93.0
39706,0.45655382,-0.08695221,-0.32839966,-0.121069334,0.008496094,0.095581055,93.0
39707,0.45655382,-0.08695221,-0.32839966,-0.007434082,0.0053100586,0.025488282,93.0
39708,0.30638075,-0.078546524,-0.38996887,-0.007434082,0.0053100586,0.025488282,93.0
39709,0.30638075,-0.078546524,-0.38996887,-0.07540283,0.060534667,-0.03186035,93.0
39710,0.012462974,0.139225,-0.11425781,-0.07540283,0.060534667,-0.03186035,93.0
39711,0.012462974,0.139225,-0.11425781,-0.10620117,0.078588866,-0.06796875,93.0
39712,-0.28091097,0.23118019,0.05822754,-0.10620117,0.078588866,-0.06796875,93.0
39713,-0.28091097,0.23118019,0.05822754,-0.032922365,0.06265869,-0.08602295,93.0
39714,-0.37851292,0.29383087,0.16592407,-0.032922365,0.06265869,-0.08602295,93.0
39715,-0.37851292,0.29383087,0.16592407,0.10620117,0.07540283,-0.1709839,93.0
39716,-0.2647488,0.29335403,0.37728882,0.10620117,0.07540283,-0.1709839,93.0
39717,-0.2647488,0.29335403,0.37728882,0.046728518,0.1263794,-0.17629395,93.0
39718,-0.010468483,-0.23882675,0.37916565,0.046728518,0.1263794,-0.17629395,93.0
39719,-0.010468483,-0.23882675,0.37916565,-0.15080567,-0.007434082,-0.13275146,93.0
39720,0.22171557,-0.551363,0.07722473,-0.15080567,-0.007434082,-0.13275146,93.0
39721,0.22171557,-0.551363,0.07722473,-0.77314454,-0.10301514,-0.1731079,93.0
39722,0.4078778,-0.2442398,-0.4532776,-0.77314454,-0.10301514,-0.1731079,93.0
39723,0.4078778,-0.2442398,-0.4532776,-1.0269654,-0.07115479,-0.20284425,93.0
39724,0.43335795,-0.5159855,-0.64346313,-1.0269654,-0.07115479,-0.20284425,93.0
39725,0.43335795,-0.5159855,-0.64346313,-0.07965088,-0.0361084,-0.12213135,93.0
39726,0.049701452,-0.8354931,-0.024368286,-0.07965088,-0.0361084,-0.12213135,93.0
39727,0.049701452,-0.8354931,-0.024368286,0.21558838,-0.008496094,0.0,93.0
39728,-0.34513873,-0.2910633,0.4261322,0.21558838,-0.008496094,0.0,93.0
39729,-0.34513873,-0.2910633,0.4261322,-0.31329346,0.10089111,-0.05522461,93.0
39730,-0.31470966,0.16356087,0.3504181,-0.31329346,0.10089111,-0.05522461,93.0
39731,-0.31470966,0.16356087,0.3504181,-0.31223145,0.057348635,-0.029736329,93.0
39732,-0.05977553,0.046094894,0.036392212,-0.31223145,0.057348635,-0.029736329,93.0
39733,-0.05977553,0.046094894,0.036392212,-0.16885987,-0.052038576,0.118945315,93.0
39734,0.06513119,-0.42430687,-0.27294922,-0.16885987,-0.052038576,0.118945315,93.0
39735,0.06513119,-0.42430687,-0.27294922,0.20709229,-0.2262085,0.33134767,93.0
39736,0.029949188,-0.44794083,-0.3235016,0.20709229,-0.2262085,0.33134767,93.0
39737,0.029949188,-0.44794083,-0.3235016,0.38869628,-0.24851075,0.24957275,93.0
39738,-0.16560364,0.56333923,-0.049118042,0.38869628,-0.24851075,0.24957275,93.0
39739,-0.16560364,0.56333923,-0.049118042,-0.0722168,-0.098767094,-0.008496094,93.0
39740,-0.28577882,1.1877689,0.3347931,-0.0722168,-0.098767094,-0.008496094,93.0
39741,-0.28577882,1.1877689,0.3347931,-0.16779785,0.115759276,-0.093457036,93.0
39742,-0.10945803,0.596529,0.2766571,-0.16779785,0.115759276,-0.093457036,93.0
39743,-0.10945803,0.596529,0.2766571,0.028674318,0.115759276,-0.023364259,93.0
39744,0.02803415,0.050441742,-0.20622253,0.028674318,0.115759276,-0.023364259,93.0
39745,0.02803415,0.050441742,-0.20622253,-0.029736329,0.12319336,-0.03079834,93.0
39746,-0.13582462,0.19839859,-0.61946106,-0.029736329,0.12319336,-0.03079834,93.0
39747,-0.13582462,0.19839859,-0.61946106,-0.16036378,0.06690674,-0.13912354,93.0
39748,-0.5862842,0.5175438,-0.79447937,-0.16036378,0.06690674,-0.13912354,93.0
39749,-0.5862842,0.5175438,-0.79447937,0.025488282,-0.18054199,-0.20178223,93.0
39750,-1.0168911,0.7901459,-0.731308,0.025488282,-0.18054199,-0.20178223,93.0
39751,-1.0168911,0.7901459,-0.731308,0.028674318,-0.2814331,-0.4248047,93.0
39752,-0.94511694,0.76153564,0.03694153,0.028674318,-0.2814331,-0.4248047,93.0
39753,-0.94511694,0.76153564,0.03694153,-0.11044922,-0.18479005,-0.68712157,93.0
39754,-0.32125467,0.06435585,1.1587677,-0.11044922,-0.18479005,-0.68712157,93.0
39755,-0.32125467,0.06435585,1.1587677,-0.1529297,-0.2081543,-0.63614506,93.0
39756,0.35939032,-0.68081474,1.149643,-0.1529297,-0.2081543,-0.63614506,93.0
39757,0.35939032,-0.68081474,1.149643,-0.30267334,-0.33665773,-0.71579593,93.0
39758,1.2434205,-0.9842758,0.3028717,-0.30267334,-0.33665773,-0.71579593,93.0
39759,1.2434205,-0.9842758,0.3028717,-0.8092529,-0.21134034,-1.0513916,93.0
39760,2.6772926,-1.810772,0.024810791,-0.8092529,-0.21134034,-1.0513916,93.0
39761,2.6772926,-1.810772,0.024810791,-0.59047854,-0.013806152,-0.38763428,93.0
39762,2.6772926,-1.810772,0.024810791,-0.59047854,-0.013806152,-0.38763428,93.0
39763,3.0419807,-2.4226532,-0.20819092,-0.59047854,-0.013806152,-0.38763428,93.0
39764,3.0419807,-2.4226532,-0.20819092,0.54693604,0.11363526,0.634021,93.0
39765,1.7747588,-1.4693108,-0.7069397,0.54693604,0.11363526,0.634021,93.0
39766,1.7747588,-1.4693108,-0.7069397,0.8612915,0.06690674,0.6244629,93.0
39767,0.2688427,0.014469147,-0.6138611,0.8612915,0.06690674,0.6244629,93.0
39768,0.2688427,0.014469147,-0.6138611,0.61278075,0.04885254,0.43861085,93.0
39769,-0.95410323,0.921072,0.20729065,0.61278075,0.04885254,0.43861085,93.0
39770,-0.95410323,0.921072,0.20729065,-0.047790527,0.16248779,0.6467652,93.0
39771,-1.7160902,0.6425209,0.65756226,-0.047790527,0.16248779,0.6467652,93.0
39772,-1.7160902,0.6425209,0.65756226,0.009558106,0.0053100586,0.6860596,93.0
39773,-2.057296,0.33384132,-0.044418335,0.009558106,0.0053100586,0.6860596,93.0
39774,-2.057296,0.33384132,-0.044418335,0.24957275,-0.19116211,0.4354248,93.0
39775,-2.0869622,0.80498695,-0.86880493,0.24957275,-0.19116211,0.4354248,93.0
39776,-2.0869622,0.80498695,-0.86880493,0.72323,-0.33134767,0.24213867,93.0
39777,-1.4969991,1.3584423,-0.37696838,0.72323,-0.33134767,0.24213867,93.0
39778,-1.4969991,1.3584423,-0.37696838,0.77526855,-0.271875,-0.21134034,93.0
39779,-0.19697675,1.6909904,0.7911072,0.77526855,-0.271875,-0.21134034,93.0
39780,-0.19697675,1.6909904,0.7911072,-0.362146,0.007434082,-0.13168946,93.0
39781,0.90042645,1.0361423,0.8720856,-0.362146,0.007434082,-0.13168946,93.0
39782,0.90042645,1.0361423,0.8720856,-0.6064087,0.047790527,-0.06796875,93.0
39783,0.9699017,-0.3518486,-0.1615448,-0.6064087,0.047790527,-0.06796875,93.0
39784,0.9699017,-0.3518486,-0.1615448,-0.081774905,-0.124255374,-0.13062744,93.0
39785,0.5721006,-1.1900234,-0.75,-0.081774905,-0.124255374,-0.13062744,93.0
39786,0.5721006,-1.1900234,-0.75,0.15505372,-0.115759276,-0.10089111,93.0
39787,0.40625226,-1.601738,-0.14996338,0.15505372,-0.115759276,-0.10089111,93.0
39788,0.40625226,-1.601738,-0.14996338,0.6690674,0.038232423,0.019116212,93.0
39789,0.27505064,-1.4223576,0.5342865,0.6690674,0.038232423,0.019116212,93.0
39790,0.27505064,-1.4223576,0.5342865,1.2372437,0.052038576,0.11682129,93.0
39791,-0.0768345,-0.71308136,0.5290222,1.2372437,0.052038576,0.11682129,93.0
39792,-0.0768345,-0.71308136,0.5290222,1.179895,0.1274414,0.22302246,93.0
39793,-0.3287772,-0.33849525,0.11001587,1.179895,0.1274414,0.22302246,93.0
39794,-0.3287772,-0.33849525,0.11001587,1.4655762,0.052038576,0.26337892,93.0
39795,-0.22539967,0.041837692,-0.33805847,1.4655762,0.052038576,0.26337892,93.0
39796,-0.22539967,0.041837692,-0.33805847,1.1374146,0.0010620117,0.11044922,93.0
39797,0.040041566,0.6225815,-0.269104,1.1374146,0.0010620117,0.11044922,93.0
39798,0.040041566,0.6225815,-0.269104,0.5649902,0.11257324,0.16673584,93.0
39799,-0.019468248,0.81729126,-0.004043579,0.5649902,0.11257324,0.16673584,93.0
39800,-0.019468248,0.81729126,-0.004043579,0.5957886,-0.007434082,0.13699952,93.0
39801,-0.22883147,0.863245,0.0060577393,0.5957886,-0.007434082,0.13699952,93.0
39802,-0.22883147,0.863245,0.0060577393,0.271875,-0.040356446,0.1720459,93.0
39803,-0.07390988,0.8738365,0.05558777,0.271875,-0.040356446,0.1720459,93.0
39804,-0.07390988,0.8738365,0.05558777,0.21558838,-0.011682129,0.20603028,93.0
39805,0.22505176,0.7875576,0.16772461,0.21558838,-0.011682129,0.20603028,93.0
39806,0.22505176,0.7875576,0.16772461,0.30373535,-0.14868164,0.0998291,93.0
39807,0.40400386,0.62091446,0.124938965,0.30373535,-0.14868164,0.0998291,93.0
39808,0.40400386,0.62091446,0.124938965,-0.0180542,-0.04248047,0.0063720704,93.0
39809,0.26983392,-0.0051727295,0.110565186,-0.0180542,-0.04248047,0.0063720704,93.0
39810,0.26983392,-0.0051727295,0.110565186,0.18372802,-0.0722168,-0.016992187,93.0
39811,0.026182055,-0.39583778,0.14720154,0.18372802,-0.0722168,-0.016992187,93.0
39812,0.026182055,-0.39583778,0.14720154,-0.19434814,-0.070092775,-0.052038576,93.0
39813,0.097984195,-0.4912796,0.124816895,-0.19434814,-0.070092775,-0.052038576,93.0
39814,0.097984195,-0.4912796,0.124816895,-0.11257324,0.078588866,0.13275146,93.0
39815,0.20660996,-0.18528557,0.374588,-0.11257324,0.078588866,0.13275146,93.0
39816,0.20660996,-0.18528557,0.374588,-0.29311523,0.19541016,-0.04991455,93.0
39817,0.13987291,0.61969185,0.44900513,-0.29311523,0.19541016,-0.04991455,93.0
39818,0.13987291,0.61969185,0.44900513,-1.0439576,0.32922363,0.0063720704,93.0
39819,0.065743566,0.9564228,-0.19337463,-1.0439576,0.32922363,0.0063720704,93.0
39820,0.065743566,0.9564228,-0.19337463,-1.3041505,0.26444092,-0.04141846,93.0
39821,0.087934256,0.844862,-0.9438019,-1.3041505,0.26444092,-0.04141846,93.0
39822,0.087934256,0.844862,-0.9438019,-1.3137085,0.18372802,-0.09239502,93.0
39823,-0.1383928,0.35640717,-1.0261536,-1.3137085,0.18372802,-0.09239502,93.0
39824,-0.1383928,0.35640717,-1.0261536,-1.8818848,0.06690674,-0.14761963,93.0
39825,-0.6287929,-0.78108597,-0.23298645,-1.8818848,0.06690674,-0.14761963,93.0
39826,-0.6287929,-0.78108597,-0.23298645,-1.4751343,0.115759276,-0.26868898,93.0
39827,-0.66261685,-1.3605499,0.5544739,-1.4751343,0.115759276,-0.26868898,93.0
39828,-0.66261685,-1.3605499,0.5544739,0.021240234,0.040356446,-0.37382814,93.0
39829,-0.26256418,-0.29287148,0.55374146,0.021240234,0.040356446,-0.37382814,93.0
39830,-0.26256418,-0.29287148,0.55374146,-0.5628662,0.05628662,-0.2527588,93.0
39831,-0.13959241,0.07096481,0.18392944,-0.5628662,0.05628662,-0.2527588,93.0
39832,-0.13959241,0.07096481,0.18392944,-1.2181275,-0.021240234,-0.035046387,93.0
39833,-0.12989902,-1.0083027,0.03767395,-1.2181275,-0.021240234,-0.035046387,93.0
39834,-0.12989902,-1.0083027,0.03767395,-0.90908206,-0.1529297,-0.045666505,93.0
39835,0.2102654,-0.56027985,-0.035125732,-0.90908206,-0.1529297,-0.045666505,93.0
39836,0.2102654,-0.56027985,-0.035125732,-1.5144287,0.04991455,-0.1985962,93.0
39837,0.40659124,0.20333862,-0.37913513,-1.5144287,0.04991455,-0.1985962,93.0
39838,0.40659124,0.20333862,-0.37913513,-0.14018555,0.035046387,0.23789063,93.0
39839,0.040153325,-0.34687424,-0.34403992,-0.14018555,0.035046387,0.23789063,93.0
39840,0.040153325,-0.34687424,-0.34403992,0.96430665,-0.007434082,-0.012744141,93.0
39841,-0.12626362,-0.11613464,0.18266296,0.96430665,-0.007434082,-0.012744141,93.0
39842,-0.12626362,-0.11613464,0.18266296,0.28355715,0.14868164,-0.14655761,93.0
39843,0.2130394,0.47114182,0.57962036,0.28355715,0.14868164,-0.14655761,93.0
39844,0.2130394,0.47114182,0.57962036,-0.2177124,0.26550293,-0.07752686,93.0
39845,0.4172455,0.28925514,0.5314026,-0.2177124,0.26550293,-0.07752686,93.0
39846,0.4172455,0.28925514,0.5314026,0.06796875,0.2793091,-0.045666505,93.0
39847,0.2694776,0.36663437,-0.096832275,0.06796875,0.2793091,-0.045666505,93.0
39848,0.2694776,0.36663437,-0.096832275,-0.21877442,0.22302246,-0.13806152,93.0
39849,0.026836991,0.8923435,-0.8564606,-0.21877442,0.22302246,-0.13806152,93.0
39850,0.026836991,0.8923435,-0.8564606,-0.630835,0.13699952,-0.2824951,93.0
39851,-0.114638805,0.9263878,-1.1635284,-0.630835,0.13699952,-0.2824951,93.0
39852,-0.114638805,0.9263878,-1.1635284,-0.724292,0.12850343,-0.33028564,93.0
39853,-0.33493614,0.18996239,-0.9481659,-0.724292,0.12850343,-0.33028564,93.0
39854,-0.33493614,0.18996239,-0.9481659,-0.26762697,-0.025488282,-0.32072756,93.0
39855,-0.6016647,-0.6537056,-0.37409973,-0.26762697,-0.025488282,-0.32072756,93.0
39856,-0.6016647,-0.6537056,-0.37409973,0.1444336,-0.050976563,-0.3982544,93.0
39857,-0.47735226,-1.222538,0.45384216,0.1444336,-0.050976563,-0.3982544,93.0
39858,-0.47735226,-1.222538,0.45384216,0.6085327,-0.0053100586,-0.33771974,93.0
39859,0.04574275,-1.250454,0.9701843,0.6085327,-0.0053100586,-0.33771974,93.0
39860,0.04574275,-1.250454,0.9701843,0.75296634,0.14230958,-0.22833252,93.0
39861,0.4378271,-0.6676369,0.87667847,0.75296634,0.14230958,-0.22833252,93.0
39862,0.4378271,-0.6676369,0.87667847,0.5957886,0.12000733,-0.081774905,93.0
39863,0.43861616,0.011789322,0.530365,0.5957886,0.12000733,-0.081774905,93.0
39864,0.43861616,0.011789322,0.530365,0.33028564,0.08602295,-0.027612304,93.0
39865,0.25210142,0.3167324,0.17527771,0.33028564,0.08602295,-0.027612304,93.0
39866,0.25210142,0.3167324,0.17527771,-0.010620117,0.08071289,-0.038232423,93.0
39867,0.045736313,-0.04059601,-0.23316956,-0.010620117,0.08071289,-0.038232423,93.0
39868,0.045736313,-0.04059601,-0.23316956,0.31966552,-0.13912354,0.1083252,93.0
39869,-0.07511747,-0.2124939,-0.62638855,0.31966552,-0.13912354,0.1083252,93.0
39870,-0.07511747,-0.2124939,-0.62638855,0.2347046,-0.19328614,0.04460449,93.0
39871,0.045936286,-0.24407959,-0.51197815,0.2347046,-0.19328614,0.04460449,93.0
39872,0.045936286,-0.24407959,-0.51197815,0.50233155,-0.13806152,0.16461182,93.0
39873,0.18484473,-0.5810547,0.026672363,0.50233155,-0.13806152,0.16461182,93.0
39874,0.18484473,-0.5810547,0.026672363,0.7858887,-0.058410645,0.26868898,93.0
39875,0.18484473,-0.5810547,0.026672363,0.7858887,-0.058410645,0.26868898,92.0
39876,0.21745586,-0.99318886,0.2537079,0.7858887,-0.058410645,0.26868898,92.0
39877,0.21745586,-0.99318886,0.2537079,1.0673218,0.050976563,0.48533937,92.0
39878,0.2771263,-1.3664017,0.12289429,1.0673218,0.050976563,0.48533937,92.0
39879,0.2771263,-1.3664017,0.12289429,1.6556762,0.07646485,0.6265869,92.0
39880,0.24639583,-0.68187904,0.07847595,1.6556762,0.07646485,0.6265869,92.0
39881,0.24639583,-0.68187904,0.07847595,1.629126,0.115759276,0.5533081,92.0
39882,-0.077614784,0.8568764,0.18661499,1.629126,0.115759276,0.5533081,92.0
39883,-0.077614784,0.8568764,0.18661499,0.7688965,0.14868164,0.63933104,92.0
39884,-0.5761055,1.9545193,0.2233429,0.7688965,0.14868164,0.63933104,92.0
39885,-0.5761055,1.9545193,0.2233429,0.21452637,-0.011682129,0.4630371,92.0
39886,-0.7565509,2.7873573,0.033950806,0.21452637,-0.011682129,0.4630371,92.0
39887,-0.7565509,2.7873573,0.033950806,-1.1937011,-0.081774905,0.05628662,92.0
39888,-0.46273583,2.4338646,-0.46580505,-1.1937011,-0.081774905,0.05628662,92.0
39889,-0.46273583,2.4338646,-0.46580505,-1.2043213,-0.26550293,0.15080567,92.0
39890,-0.0999006,0.5228977,-0.73365784,-1.2043213,-0.26550293,0.15080567,92.0
39891,-0.0999006,0.5228977,-0.73365784,-0.18266602,-0.3717041,0.08814698,92.0
39892,0.09123427,-0.80996513,-0.1101532,-0.18266602,-0.3717041,0.08814698,92.0
39893,0.09123427,-0.80996513,-0.1101532,0.010620117,-0.23045655,0.06903076,92.0
39894,0.1657486,-0.8502922,0.7358246,0.010620117,-0.23045655,0.06903076,92.0
39895,0.1657486,-0.8502922,0.7358246,-0.046728518,-0.05522461,0.0637207,92.0
39896,0.17373657,-0.34173203,0.73960876,-0.046728518,-0.05522461,0.0637207,92.0
39897,0.17373657,-0.34173203,0.73960876,-0.004248047,0.081774905,-0.0180542,92.0
39898,0.15809321,0.059768677,0.10949707,-0.004248047,0.081774905,-0.0180542,92.0
39899,0.15809321,0.059768677,0.10949707,0.13275146,0.118945315,-0.07434082,92.0
39900,0.11974847,0.21043587,-0.28079224,0.13275146,0.118945315,-0.07434082,92.0
39901,0.11974847,0.21043587,-0.28079224,0.21027832,0.09451904,-0.1901001,92.0
39902,0.12076211,0.16753197,-0.098846436,0.21027832,0.09451904,-0.1901001,92.0
39903,0.12076211,0.16753197,-0.098846436,0.08283692,0.12319336,-0.25806886,92.0
39904,0.1419344,-0.28700638,0.2592163,0.08283692,0.12319336,-0.25806886,92.0
39905,0.1419344,-0.28700638,0.2592163,0.16142578,0.19753419,-0.18054199,92.0
39906,0.058457136,-0.7970123,0.31037903,0.16142578,0.19753419,-0.18054199,92.0
39907,0.058457136,-0.7970123,0.31037903,0.33665773,0.17947999,-0.14761963,92.0
39908,0.0025274754,-0.7603512,0.17288208,0.33665773,0.17947999,-0.14761963,92.0
39909,0.0025274754,-0.7603512,0.17288208,0.16779785,0.18585205,-0.07965088,92.0
39910,-0.011051774,-0.38160896,-0.056610107,0.16779785,0.18585205,-0.07965088,92.0
39911,-0.011051774,-0.38160896,-0.056610107,-0.033984374,0.1263794,0.0063720704,92.0
39912,-0.097940564,-0.072999954,-0.3150177,-0.033984374,0.1263794,0.0063720704,92.0
39913,-0.097940564,-0.072999954,-0.3150177,-0.18266602,0.09664307,0.015930176,92.0
39914,-0.14734656,0.09510422,-0.29945374,-0.18266602,0.09664307,0.015930176,92.0
39915,-0.14734656,0.09510422,-0.29945374,-0.11257324,0.07752686,-0.02442627,92.0
39916,-0.08279425,0.26387596,-0.08102417,-0.11257324,0.07752686,-0.02442627,92.0
39917,-0.08279425,0.26387596,-0.08102417,-0.17416993,0.11044922,-0.020178223,92.0
39918,-0.067614794,0.34420586,0.046569824,-0.17416993,0.11044922,-0.020178223,92.0
39919,-0.067614794,0.34420586,0.046569824,-0.11363526,0.13912354,-0.06690674,92.0
39920,-0.18226564,0.6882801,0.019897461,-0.11363526,0.13912354,-0.06690674,92.0
39921,-0.18226564,0.6882801,0.019897461,-0.21877442,0.1083252,-0.22939454,92.0
39922,-0.24028277,1.0382347,0.024871826,-0.21877442,0.1083252,-0.22939454,92.0
39923,-0.24028277,1.0382347,0.024871826,-0.46728516,0.16036378,-0.22833252,92.0
39924,-0.13591516,0.7774868,0.08161926,-0.46728516,0.16036378,-0.22833252,92.0
39925,-0.13591516,0.7774868,0.08161926,-0.33028564,0.10513916,-0.38657227,92.0
39926,0.027632594,0.16230965,-0.09794617,-0.33028564,0.10513916,-0.38657227,92.0
39927,0.027632594,0.16230965,-0.09794617,-0.5692383,0.009558106,-0.38869628,92.0
39928,0.08864659,-0.5758896,-0.39216614,-0.5692383,0.009558106,-0.38869628,92.0
39929,0.08864659,-0.5758896,-0.39216614,-0.8251831,-0.14018555,-0.4354248,92.0
39930,0.110895276,-1.121563,-0.21850586,-0.8251831,-0.14018555,-0.4354248,92.0
39931,0.110895276,-1.121563,-0.21850586,-0.7327881,-0.2166504,-0.3355957,92.0
39932,0.51304483,-1.2800503,0.26091003,-0.7327881,-0.2166504,-0.3355957,92.0
39933,0.51304483,-1.2800503,0.26091003,-0.6149048,-0.013806152,-0.32816163,92.0
39934,0.8796253,-1.2261162,0.2680359,-0.6149048,-0.013806152,-0.32816163,92.0
39935,0.8796253,-1.2261162,0.2680359,0.21134034,-0.0722168,0.059472658,92.0
39936,0.4986465,-0.6431732,0.16801453,0.21134034,-0.0722168,0.059472658,92.0
39937,0.4986465,-0.6431732,0.16801453,0.029736329,0.087084964,0.045666505,92.0
39938,-0.26641488,0.13704872,0.049942017,0.029736329,0.087084964,0.045666505,92.0
39939,-0.26641488,0.13704872,0.049942017,-0.25063476,0.07752686,0.060534667,92.0
39940,-0.59269726,0.56196976,-0.2511139,-0.25063476,0.07752686,0.060534667,92.0
39941,-0.59269726,0.56196976,-0.2511139,-0.21983643,0.07115479,-0.06690674,92.0
39942,-0.40948498,0.6524086,-0.24349976,-0.21983643,0.07115479,-0.06690674,92.0
39943,-0.40948498,0.6524086,-0.24349976,-0.087084964,-0.0361084,-0.09451904,92.0
39944,-0.1468507,0.13414574,-0.075531006,-0.087084964,-0.0361084,-0.09451904,92.0
39945,-0.1468507,0.13414574,-0.075531006,-0.11257324,-0.21027832,0.16142578,92.0
39946,0.1422118,-0.7993107,-0.10821533,-0.11257324,-0.21027832,0.16142578,92.0
39947,0.1422118,-0.7993107,-0.10821533,0.17629395,-0.22196046,0.36639404,92.0
39948,0.28947747,-0.8919506,-0.011444092,0.17629395,-0.22196046,0.36639404,92.0
39949,0.28947747,-0.8919506,-0.011444092,0.7051758,-0.107263185,0.2623169,92.0
39950,0.036892056,0.24019814,0.38606262,0.7051758,-0.107263185,0.2623169,92.0
39951,0.036892056,0.24019814,0.38606262,0.22727051,0.020178223,0.23789063,92.0
39952,-0.24049371,1.0495319,0.37649536,0.22727051,0.020178223,0.23789063,92.0
39953,-0.24049371,1.0495319,0.37649536,-0.3069214,-0.015930176,0.18054199,92.0
39954,-0.18343496,0.8270645,-0.32644653,-0.3069214,-0.015930176,0.18054199,92.0
39955,-0.18343496,0.8270645,-0.32644653,-0.35683593,-0.10301514,0.095581055,92.0
39956,0.024834037,0.281147,-0.9217377,-0.35683593,-0.10301514,0.095581055,92.0
39957,0.024834037,0.281147,-0.9217377,0.24213867,-0.2081543,-0.013806152,92.0
39958,-0.07097751,0.30864525,-0.5145569,0.24213867,-0.2081543,-0.013806152,92.0
39959,-0.07097751,0.30864525,-0.5145569,0.20390625,-0.16248779,-0.12213135,92.0
39960,-0.456721,0.95759773,0.40507507,0.20390625,-0.16248779,-0.12213135,92.0
39961,-0.456721,0.95759773,0.40507507,-0.3430298,-0.0180542,-0.32072756,92.0
39962,-0.69634604,1.2197762,0.5491028,-0.3430298,-0.0180542,-0.32072756,92.0
39963,-0.69634604,1.2197762,0.5491028,-0.81243896,-0.070092775,-0.23258057,92.0
39964,-0.7587736,0.6163368,-0.28611755,-0.81243896,-0.070092775,-0.23258057,92.0
39965,-0.7587736,0.6163368,-0.28611755,-0.5649902,-0.24107666,-0.3536499,92.0
39966,-0.7098998,-0.24035454,-0.7127838,-0.5649902,-0.24107666,-0.3536499,92.0
39967,-0.7098998,-0.24035454,-0.7127838,-0.44923097,-0.32497558,-0.46728516,92.0
39968,-0.4703246,-0.6402931,0.37068176,-0.44923097,-0.32497558,-0.46728516,92.0
39969,-0.4703246,-0.6402931,0.37068176,-0.36427003,-0.24107666,-0.815625,92.0
39970,-0.015554108,-0.57217026,1.2978973,-0.36427003,-0.24107666,-0.815625,92.0
39971,-0.015554108,-0.57217026,1.2978973,-0.2538208,-0.4343628,-0.48321533,92.0
39972,0.6867267,-0.3971653,0.8639374,-0.2538208,-0.4343628,-0.48321533,92.0
39973,0.6867267,-0.3971653,0.8639374,-1.3190186,-0.34833986,-1.176709,92.0
39974,1.7271402,-1.0001907,-0.027053833,-1.3190186,-0.34833986,-1.176709,92.0
39975,1.7271402,-1.0001907,-0.027053833,-0.6042847,-0.21134034,-0.55543214,92.0
39976,2.666075,-1.8782768,-0.32537842,-0.6042847,-0.21134034,-0.55543214,92.0
39977,2.666075,-1.8782768,-0.32537842,0.025488282,0.08602295,0.11363526,92.0
39978,2.1876452,-1.5141201,-0.44007874,0.025488282,0.08602295,0.11363526,92.0
39979,2.1876452,-1.5141201,-0.44007874,0.025488282,0.08602295,0.11363526,92.0
39980,2.1876452,-1.5141201,-0.44007874,0.6637573,0.27399904,0.7147339,92.0
39981,0.46810937,-0.34433937,-0.766037,0.6637573,0.27399904,0.7147339,92.0
39982,0.46810937,-0.34433937,-0.766037,1.0673218,0.1996582,0.8772217,92.0
39983,-0.5260619,0.20019913,-0.31996155,1.0673218,0.1996582,0.8772217,92.0
39984,-0.5260619,0.20019913,-0.31996155,0.77314454,0.05628662,0.7083618,92.0
39985,-0.4581542,0.13381577,0.5934601,0.77314454,0.05628662,0.7083618,92.0
39986,-0.4581542,0.13381577,0.5934601,0.20178223,0.23682861,0.36533204,92.0
39987,-0.7378491,-0.11522484,0.8189087,0.20178223,0.23682861,0.36533204,92.0
39988,-0.7378491,-0.11522484,0.8189087,0.05628662,0.12319336,0.76464844,92.0
39989,-1.4834312,-0.020000458,-0.18707275,0.05628662,0.12319336,0.76464844,92.0
39990,-1.4834312,-0.020000458,-0.18707275,0.6074707,-0.22833252,0.6605713,92.0
39991,-1.6627825,0.7213783,-1.4868774,0.6074707,-0.22833252,0.6605713,92.0
39992,-1.6627825,0.7213783,-1.4868774,0.79013675,-0.32922363,0.32922363,92.0
39993,-1.1380752,1.5107212,-0.88009644,0.79013675,-0.32922363,0.32922363,92.0
39994,-1.1380752,1.5107212,-0.88009644,0.59472656,-0.14549561,-0.11363526,92.0
39995,-0.097056866,1.9189892,1.1348877,0.59472656,-0.14549561,-0.11363526,92.0
39996,-0.097056866,1.9189892,1.1348877,-0.16248779,0.11469727,-0.060534667,92.0
39997,0.6593784,1.2981911,1.592865,-0.16248779,0.11469727,-0.060534667,92.0
39998,0.6593784,1.2981911,1.592865,-0.4895874,0.21240234,0.09239502,92.0
39999,0.6293094,-0.19870377,0.20817566,-0.4895874,0.21240234,0.09239502,92.0
40000,0.6293094,-0.19870377,0.20817566,0.1539917,0.13062744,0.11363526,92.0
40001,0.34425563,-1.3653965,-0.861145,0.1539917,0.13062744,0.11363526,92.0
40002,0.34425563,-1.3653965,-0.861145,0.61702883,0.07540283,0.06265869,92.0
40003,0.14810956,-1.656929,-0.55189514,0.61702883,0.07540283,0.06265869,92.0
40004,0.14810956,-1.656929,-0.55189514,1.0524536,0.08920898,0.15505372,92.0
40005,-0.07509148,-1.109808,0.14805603,1.0524536,0.08920898,0.15505372,92.0
40006,-0.07509148,-1.109808,0.14805603,0.89846194,0.09239502,0.29205322,92.0
40007,-0.2168237,-0.40903664,0.37882996,0.89846194,0.09239502,0.29205322,92.0
40008,-0.2168237,-0.40903664,0.37882996,0.86553955,0.16354981,0.28461915,92.0
40009,-0.2009126,0.03276825,0.044662476,0.86553955,0.16354981,0.28461915,92.0
40010,-0.2009126,0.03276825,0.044662476,1.0195312,0.06159668,0.21983643,92.0
40011,-0.16252452,0.7482109,-0.4033966,1.0195312,0.06159668,0.21983643,92.0
40012,-0.16252452,0.7482109,-0.4033966,0.5872925,-0.033984374,0.04991455,92.0
40013,-0.08573252,1.3124352,-0.29353333,0.5872925,-0.033984374,0.04991455,92.0
40014,-0.08573252,1.3124352,-0.29353333,0.016992187,0.008496094,0.1359375,92.0
40015,-0.08902061,1.0317478,-0.082717896,0.016992187,0.008496094,0.1359375,92.0
40016,-0.08902061,1.0317478,-0.082717896,0.016992187,-0.012744141,0.14337158,92.0
40017,-0.2259162,-0.1236248,0.3038025,0.016992187,-0.012744141,0.14337158,92.0
40018,-0.2259162,-0.1236248,0.3038025,0.2899292,-0.124255374,0.15186767,92.0
40019,-0.14803034,-0.15453911,0.26992798,0.2899292,-0.124255374,0.15186767,92.0
40020,-0.14803034,-0.15453911,0.26992798,0.21983643,-0.14230958,0.08814698,92.0
40021,0.28885114,1.0054588,0.18026733,0.21983643,-0.14230958,0.08814698,92.0
40022,0.28885114,1.0054588,0.18026733,-0.72323,-0.020178223,-0.14230958,92.0
40023,0.38982117,0.94612694,0.14053345,-0.72323,-0.020178223,-0.14230958,92.0
40024,0.38982117,0.94612694,0.14053345,-0.63720703,0.03079834,-0.093457036,92.0
40025,0.5900918,-0.4243965,0.0309906,-0.63720703,0.03079834,-0.093457036,92.0
40026,0.5900918,-0.4243965,0.0309906,0.29205322,-0.007434082,-0.04141846,92.0
40027,0.410843,-0.49204445,0.002243042,0.29205322,-0.007434082,-0.04141846,92.0
40028,0.410843,-0.49204445,0.002243042,0.070092775,-0.0021240234,-0.10089111,92.0
40029,-0.21251214,0.055534363,-0.13117981,0.070092775,-0.0021240234,-0.10089111,92.0
40030,-0.21251214,0.055534363,-0.13117981,-0.23045655,0.038232423,-0.13699952,92.0
40031,-0.3712182,0.08496666,-0.16635132,-0.23045655,0.038232423,-0.13699952,92.0
40032,-0.3712182,0.08496666,-0.16635132,-0.08814698,0.021240234,-0.1444336,92.0
40033,-0.510561,-0.1750927,-0.232193,-0.08814698,0.021240234,-0.1444336,92.0
40034,-0.510561,-0.1750927,-0.232193,0.1985962,-0.09133301,-0.16036378,92.0
40035,-0.3511368,-0.15041351,-0.13861084,0.1985962,-0.09133301,-0.16036378,92.0
40036,-0.3511368,-0.15041351,-0.13861084,0.023364259,-0.08496094,-0.17629395,92.0
40037,-0.13331425,-0.1364193,0.081954956,0.023364259,-0.08496094,-0.17629395,92.0
40038,-0.13331425,-0.1364193,0.081954956,-0.23789063,-0.053100586,-0.23682861,92.0
40039,-0.08017439,-0.3767624,0.13560486,-0.23789063,-0.053100586,-0.23682861,92.0
40040,-0.08017439,-0.3767624,0.13560486,0.009558106,-0.1359375,-0.26656494,92.0
40041,-0.058560908,-0.55316734,-0.07810974,0.009558106,-0.1359375,-0.26656494,92.0
40042,-0.058560908,-0.55316734,-0.07810974,0.4364868,-0.22302246,-0.271875,92.0
40043,-0.021128535,-0.26418877,-0.12232971,0.4364868,-0.22302246,-0.271875,92.0
40044,-0.021128535,-0.26418877,-0.12232971,0.4333008,-0.270813,-0.35683593,92.0
40045,0.11703271,0.023622513,0.29162598,0.4333008,-0.270813,-0.35683593,92.0
40046,0.11703271,0.023622513,0.29162598,0.16248779,-0.17416993,-0.41737062,92.0
40047,0.70292795,-0.4114113,0.8246918,0.16248779,-0.17416993,-0.41737062,92.0
40048,0.70292795,-0.4114113,0.8246918,-0.04141846,0.014868164,-0.16992188,92.0
40049,1.404005,-1.2972069,0.765213,-0.04141846,0.014868164,-0.16992188,92.0
40050,1.404005,-1.2972069,0.765213,0.3993164,0.10089111,0.16248779,92.0
40051,1.3633286,-1.577877,0.20960999,0.3993164,0.10089111,0.16248779,92.0
40052,1.3633286,-1.577877,0.20960999,0.8623535,0.18479005,0.41312256,92.0
40053,0.54034543,-0.82792664,-0.010299683,0.8623535,0.18479005,0.41312256,92.0
40054,0.54034543,-0.82792664,-0.010299683,0.8241211,0.26868898,0.5161377,92.0
40055,-0.4730215,0.35538292,-0.02015686,0.8241211,0.26868898,0.5161377,92.0
40056,-0.4730215,0.35538292,-0.02015686,0.35683593,0.29099122,0.44073486,92.0
40057,-1.1662468,1.3802166,-0.38345337,0.35683593,0.29099122,0.44073486,92.0
40058,-1.1662468,1.3802166,-0.38345337,-0.1529297,0.19328614,0.1985962,92.0
40059,-1.3069966,1.8282337,-0.94363403,-0.1529297,0.19328614,0.1985962,92.0
40060,-1.3069966,1.8282337,-0.94363403,-0.23258057,-0.040356446,0.20496826,92.0
40061,-0.9334879,1.5654678,-0.7492523,-0.23258057,-0.040356446,0.20496826,92.0
40062,-0.9334879,1.5654678,-0.7492523,-0.56817627,-0.10089111,-0.014868164,92.0
40063,-0.36471027,0.5809269,0.23568726,-0.56817627,-0.10089111,-0.014868164,92.0
40064,-0.36471027,0.5809269,0.23568726,-0.49277344,-0.11469727,0.1178833,92.0
40065,0.06490904,-0.3041172,0.5904236,-0.49277344,-0.11469727,0.1178833,92.0
40066,0.06490904,-0.3041172,0.5904236,-0.6637573,-0.13912354,0.087084964,92.0
40067,0.3437119,-0.53871536,0.01687622,-0.6637573,-0.13912354,0.087084964,92.0
40068,0.3437119,-0.53871536,0.01687622,-0.5501221,-0.08496094,0.12956543,92.0
40069,0.44479376,-0.5336704,-0.20516968,-0.5501221,-0.08496094,0.12956543,92.0
40070,0.44479376,-0.5336704,-0.20516968,0.14761963,0.040356446,0.1083252,92.0
40071,0.3438111,0.23994637,0.44621277,0.14761963,0.040356446,0.1083252,92.0
40072,0.3438111,0.23994637,0.44621277,-0.15611573,0.2177124,-0.09770508,92.0
40073,0.1358155,1.231739,0.894989,-0.15611573,0.2177124,-0.09770508,92.0
40074,0.1358155,1.231739,0.894989,-0.7391602,0.33240968,-0.17735596,92.0
40075,0.105222225,1.3381271,0.22227478,-0.7391602,0.33240968,-0.17735596,92.0
40076,0.105222225,1.3381271,0.22227478,-1.2414917,0.33028564,-0.13912354,92.0
40077,0.105222225,1.3381271,0.22227478,-1.2414917,0.33028564,-0.13912354,92.0
40078,0.19737363,0.5775204,-0.9686279,-1.2414917,0.33028564,-0.13912354,92.0
40079,0.19737363,0.5775204,-0.9686279,-0.8867798,0.24638672,-0.09770508,92.0
40080,-0.14837551,-0.46486473,-1.4236908,-0.8867798,0.24638672,-0.09770508,92.0
40081,-0.14837551,-0.46486473,-1.4236908,-0.7880127,0.14124756,-0.21027832,92.0
40082,-0.79206467,-1.3311939,-0.83143616,-0.7880127,0.14124756,-0.21027832,92.0
40083,-0.79206467,-1.3311939,-0.83143616,-0.1996582,0.045666505,-0.2782471,92.0
40084,-0.8507294,-1.3415661,0.17977905,-0.1996582,0.045666505,-0.2782471,92.0
40085,-0.8507294,-1.3415661,0.17977905,0.118945315,0.078588866,-0.362146,92.0
40086,-0.101091325,-0.736742,0.7658539,0.118945315,0.078588866,-0.362146,92.0
40087,-0.101091325,-0.736742,0.7658539,-0.058410645,0.1731079,-0.21558838,92.0
40088,0.67828226,-0.5038109,0.5590668,-0.058410645,0.1731079,-0.21558838,92.0
40089,0.67828226,-0.5038109,0.5590668,0.16992188,0.15080567,-0.052038576,92.0
40090,0.80248904,-0.47973442,-0.0040893555,0.16992188,0.15080567,-0.052038576,92.0
40091,0.80248904,-0.47973442,-0.0040893555,0.1444336,0.08283692,0.095581055,92.0
40092,0.35237944,-0.3254261,-0.3177185,0.1444336,0.08283692,0.095581055,92.0
40093,0.35237944,-0.3254261,-0.3177185,0.19116211,0.06478272,0.11257324,92.0
40094,-0.11307937,-0.003162384,-0.022628784,0.19116211,0.06478272,0.11257324,92.0
40095,-0.11307937,-0.003162384,-0.022628784,0.13062744,0.13806152,0.093457036,92.0
40096,-0.27485073,0.3033409,0.34524536,0.13062744,0.13806152,0.093457036,92.0
40097,-0.27485073,0.3033409,0.34524536,0.046728518,0.12000733,0.09239502,92.0
40098,-0.20586693,0.4913063,0.119628906,0.046728518,0.12000733,0.09239502,92.0
40099,-0.20586693,0.4913063,0.119628906,-0.022302246,0.050976563,0.06903076,92.0
40100,-0.0774377,0.48685646,-0.25953674,-0.022302246,0.050976563,0.06903076,92.0
40101,-0.0774377,0.48685646,-0.25953674,-0.0031860352,-0.010620117,-0.0063720704,92.0
40102,0.021997571,0.3117752,-0.2162323,-0.0031860352,-0.010620117,-0.0063720704,92.0
40103,0.021997571,0.3117752,-0.2162323,-0.0180542,-0.023364259,-0.04141846,92.0
40104,0.057661533,0.12376022,0.058639526,-0.0180542,-0.023364259,-0.04141846,92.0
40105,0.057661533,0.12376022,0.058639526,-0.029736329,0.047790527,-0.060534667,92.0
40106,0.03487432,-0.07580757,0.16978455,-0.029736329,0.047790527,-0.060534667,92.0
40107,0.03487432,-0.07580757,0.16978455,0.13699952,0.058410645,-0.043542482,92.0
40108,9.7072124E-4,-0.13261795,0.043518066,0.13699952,0.058410645,-0.043542482,92.0
40109,9.7072124E-4,-0.13261795,0.043518066,0.16673584,0.027612304,-0.04141846,92.0
40110,-0.054008603,0.22802544,0.03552246,0.16673584,0.027612304,-0.04141846,92.0
40111,-0.054008603,0.22802544,0.03552246,0.007434082,0.04141846,-0.10620117,92.0
40112,-0.16587532,0.85518646,0.32250977,0.007434082,0.04141846,-0.10620117,92.0
40113,-0.16587532,0.85518646,0.32250977,-0.21027832,0.18266602,-0.36639404,92.0
40114,-0.18057626,1.1443539,0.5144501,-0.21027832,0.18266602,-0.36639404,92.0
40115,-0.18057626,1.1443539,0.5144501,-0.08920898,0.41099855,-0.6510132,92.0
40116,-0.07698053,0.9772873,0.3996277,-0.08920898,0.41099855,-0.6510132,92.0
40117,-0.07698053,0.9772873,0.3996277,0.65419924,0.37701416,-0.8527954,92.0
40118,0.13161623,0.95072556,0.17810059,0.65419924,0.37701416,-0.8527954,92.0
40119,0.13161623,0.95072556,0.17810059,0.32285157,0.40356445,-1.1565307,92.0
40120,0.4140576,0.7237396,0.03112793,0.32285157,0.40356445,-1.1565307,92.0
40121,0.4140576,0.7237396,0.03112793,-0.10195313,0.42692873,-1.273352,92.0
40122,0.47535014,-0.13862419,-0.047332764,-0.10195313,0.42692873,-1.273352,92.0
40123,0.47535014,-0.13862419,-0.047332764,-0.10407715,0.37595215,-1.4167236,92.0
40124,0.47195494,-1.20615,-0.14007568,-0.10407715,0.37595215,-1.4167236,92.0
40125,0.47195494,-1.20615,-0.14007568,-0.2623169,0.2262085,-1.178833,92.0
40126,0.7068852,-2.1288242,-0.41334534,-0.2623169,0.2262085,-1.178833,92.0
40127,0.7068852,-2.1288242,-0.41334534,-0.67225343,0.1901001,-0.815625,92.0
