,accx,accy,accz,gyrox,gyroy,gyroz,heart rate
31554,type,type,type,type,type,type,type
31555,0.08223558,0.09028416,0.123047635,-0.2793091,0.0361084,-0.028674318,102.0
31556,0.08223558,0.09028416,0.123047635,-0.016992187,-0.029736329,-0.008496094,102.0
31557,-0.016462512,0.0035261572,0.16268371,-0.016992187,-0.029736329,-0.008496094,102.0
31558,-0.016462512,0.0035261572,0.16268371,-0.06265869,0.019116212,-0.028674318,102.0
31559,-0.07115341,0.025159793,0.16476612,-0.06265869,0.019116212,-0.028674318,102.0
31560,-0.07115341,0.025159793,0.16476612,0.013806152,0.016992187,-0.025488282,102.0
31561,-0.084193245,0.066246,0.11947158,0.013806152,0.016992187,-0.025488282,102.0
31562,-0.084193245,0.066246,0.11947158,-0.06265869,0.04141846,-0.038232423,102.0
31563,-0.07804796,0.07631223,0.08240588,-0.06265869,0.04141846,-0.038232423,102.0
31564,-0.07804796,0.07631223,0.08240588,-0.0541626,0.029736329,-0.046728518,102.0
31565,-0.05978945,0.012209449,0.023602925,-0.0541626,0.029736329,-0.046728518,102.0
31566,-0.05978945,0.012209449,0.023602925,-0.0063720704,0.016992187,-0.050976563,102.0
31567,-0.011588886,-0.040183615,-0.015541486,-0.0063720704,0.016992187,-0.050976563,102.0
31568,-0.011588886,-0.040183615,-0.015541486,-0.0021240234,0.020178223,-0.04141846,102.0
31569,-0.011588886,-0.040183615,-0.015541486,-0.0021240234,0.020178223,-0.04141846,101.0
31570,-0.011588886,-0.040183615,-0.015541486,-0.0031860352,0.016992187,-0.023364259,101.0
31571,0.025616586,-0.05880705,-0.016290613,-0.0031860352,0.016992187,-0.023364259,101.0
31572,0.038840443,-0.062072493,-0.032234155,-0.0031860352,0.016992187,-0.023364259,101.0
31573,0.038840443,-0.062072493,-0.032234155,-0.0053100586,0.014868164,-0.009558106,101.0
31574,0.012664154,-0.055712685,-0.05593869,-0.0053100586,0.014868164,-0.009558106,101.0
31575,0.012664154,-0.055712685,-0.05593869,0.010620117,0.0,-0.009558106,101.0
31576,-0.019531757,-0.020729816,-0.05944822,0.010620117,0.0,-0.009558106,101.0
31577,-0.019531757,-0.020729816,-0.05944822,0.011682129,-0.007434082,-0.004248047,101.0
31578,-0.019531757,-0.020729816,-0.05944822,-0.0053100586,-0.0063720704,-0.0010620117,101.0
31579,-0.014795318,0.020525523,-0.06645506,-0.0053100586,-0.0063720704,-0.0010620117,101.0
31580,0.004521176,0.027785165,-0.07611327,-0.0053100586,-0.0063720704,-0.0010620117,101.0
31581,0.004521176,0.027785165,-0.07611327,-0.0180542,-0.009558106,-0.011682129,101.0
31582,0.017764881,-0.012366595,-0.053212393,-0.0180542,-0.009558106,-0.011682129,101.0
31583,0.017764881,-0.012366595,-0.053212393,-0.0031860352,-0.014868164,-0.009558106,101.0
31584,0.0348662,-0.05199533,-0.019596282,-0.0031860352,-0.014868164,-0.009558106,101.0
31585,0.0348662,-0.05199533,-0.019596282,-0.0063720704,-0.0180542,-0.0063720704,101.0
31586,0.052258193,-0.04802937,-0.008291772,-0.0063720704,-0.0180542,-0.0063720704,101.0
31587,0.052258193,-0.04802937,-0.008291772,-0.025488282,-0.013806152,-0.0063720704,101.0
31588,0.03501945,-0.027669102,-0.0034717955,-0.025488282,-0.013806152,-0.0063720704,101.0
31589,0.03501945,-0.027669102,-0.0034717955,-0.025488282,-0.019116212,-0.0010620117,101.0
31590,0.0017582327,-0.014469266,0.027850006,-0.025488282,-0.019116212,-0.0010620117,101.0
31591,0.0017582327,-0.014469266,0.027850006,0.0,-0.021240234,-0.008496094,101.0
31592,-9.6157193E-4,-0.0027741417,0.045009498,0.0,-0.021240234,-0.008496094,101.0
31593,-9.6157193E-4,-0.0027741417,0.045009498,-0.02442627,-0.013806152,-0.0031860352,101.0
31594,0.008996367,-0.0023657978,0.05437918,-0.02442627,-0.013806152,-0.0031860352,101.0
31595,0.008996367,-0.0023657978,0.05437918,-0.03717041,-0.010620117,-0.0053100586,101.0
31596,0.008996367,-0.0023657978,0.05437918,-0.012744141,-0.013806152,-0.004248047,101.0
31597,0.012897775,-3.42343E-4,0.054660574,-0.012744141,-0.013806152,-0.004248047,101.0
31598,0.008438341,0.030377984,0.051394477,-0.012744141,-0.013806152,-0.004248047,101.0
31599,0.008438341,0.030377984,0.051394477,-0.019116212,-0.012744141,-0.0063720704,101.0
31600,-0.006542787,0.06211977,0.02890855,-0.019116212,-0.012744141,-0.0063720704,101.0
31601,-0.006542787,0.06211977,0.02890855,-0.032922365,-0.010620117,-0.007434082,101.0
31602,-0.022592634,0.05525002,0.0112738125,-0.032922365,-0.010620117,-0.007434082,101.0
31603,-0.022592634,0.05525002,0.0112738125,-0.019116212,-0.015930176,-0.011682129,101.0
31604,-0.022592634,0.05525002,0.0112738125,-0.020178223,-0.015930176,-0.014868164,101.0
31605,-0.024287485,0.04118488,0.008835945,-0.020178223,-0.015930176,-0.014868164,101.0
31606,-0.029867,0.030750636,0.006726958,-0.020178223,-0.015930176,-0.014868164,101.0
31607,-0.029867,0.030750636,0.006726958,-0.0180542,-0.020178223,-0.0180542,101.0
31608,-0.026273973,0.021585373,0.020530492,-0.0180542,-0.020178223,-0.0180542,101.0
31609,-0.026273973,0.021585373,0.020530492,-0.020178223,-0.015930176,-0.02442627,101.0
31610,0.0025648028,0.025276111,0.05003035,-0.020178223,-0.015930176,-0.02442627,101.0
31611,0.0025648028,0.025276111,0.05003035,-0.04248047,-0.0010620117,-0.03186035,101.0
31612,0.03338729,0.001678409,0.053622916,-0.04248047,-0.0010620117,-0.03186035,101.0
31613,0.03338729,0.001678409,0.053622916,-0.06903076,0.008496094,-0.035046387,101.0
31614,0.043824084,-0.03806157,0.0185453,-0.06903076,0.008496094,-0.035046387,101.0
31615,0.043824084,-0.03806157,0.0185453,-0.040356446,0.007434082,-0.038232423,101.0
31616,0.021692567,-0.051384315,-0.020051457,-0.040356446,0.007434082,-0.038232423,101.0
31617,0.021692567,-0.051384315,-0.020051457,-0.023364259,0.013806152,-0.04141846,101.0
31618,0.0017656684,-0.036029328,-0.036243804,-0.023364259,0.013806152,-0.04141846,101.0
31619,0.0017656684,-0.036029328,-0.036243804,-0.046728518,0.0180542,-0.0361084,101.0
31620,-0.0023838505,-0.032522194,-0.030581959,-0.046728518,0.0180542,-0.0361084,101.0
31621,-0.0023838505,-0.032522194,-0.030581959,-0.0637207,0.021240234,-0.035046387,101.0
31622,-0.0023838505,-0.032522194,-0.030581959,-0.009558106,0.0010620117,-0.029736329,101.0
31623,-0.004311867,-0.038883965,-0.028799064,-0.009558106,0.0010620117,-0.029736329,101.0
31624,-0.018354274,-0.023441156,-0.026872262,-0.009558106,0.0010620117,-0.029736329,101.0
31625,-0.018354274,-0.023441156,-0.026872262,-0.0180542,-0.0021240234,-0.022302246,101.0
31626,-0.022349432,0.008090336,-0.018458262,-0.0180542,-0.0021240234,-0.022302246,101.0
31627,-0.022349432,0.008090336,-0.018458262,-0.0361084,-0.0031860352,-0.013806152,101.0
31628,-0.017879546,0.009328714,0.011466302,-0.0361084,-0.0031860352,-0.013806152,101.0
31629,-0.017879546,0.009328714,0.011466302,-0.022302246,-0.007434082,-0.0021240234,101.0
31630,-0.016854905,-0.0055863447,0.024810247,-0.022302246,-0.007434082,-0.0021240234,101.0
31631,-0.016854905,-0.0055863447,0.024810247,0.010620117,-0.0180542,0.0,101.0
31632,-0.016047403,3.2828748E-4,0.020434134,0.010620117,-0.0180542,0.0,101.0
31633,-0.016047403,3.2828748E-4,0.020434134,0.0031860352,-0.010620117,0.0010620117,101.0
31634,-0.0053428113,0.038324155,0.023268692,0.0031860352,-0.010620117,0.0010620117,101.0
31635,-0.0053428113,0.038324155,0.023268692,-0.043542482,0.0010620117,-0.010620117,101.0
31636,0.011045575,0.06704848,0.04042892,-0.043542482,0.0010620117,-0.010620117,101.0
31637,0.011045575,0.06704848,0.04042892,-0.04460449,0.008496094,-0.020178223,101.0
31638,0.012669466,0.05128283,0.05503601,-0.04460449,0.008496094,-0.020178223,101.0
31639,0.012669466,0.05128283,0.05503601,-0.012744141,0.0063720704,-0.020178223,101.0
31640,0.012669466,0.05128283,0.05503601,-0.035046387,0.020178223,-0.025488282,101.0
31641,0.005606763,0.042991597,0.051291995,-0.035046387,0.020178223,-0.025488282,101.0
31642,0.0014946908,0.0707214,0.016143456,-0.035046387,0.020178223,-0.025488282,101.0
31643,0.0014946908,0.0707214,0.016143456,-0.083898924,0.028674318,-0.032922365,101.0
31644,0.0072992668,0.07618162,-0.025464147,-0.083898924,0.028674318,-0.032922365,101.0
31645,0.0072992668,0.07618162,-0.025464147,-0.15080567,0.035046387,-0.04141846,101.0
31646,0.021012753,0.03574998,-0.035935283,-0.15080567,0.035046387,-0.04141846,101.0
31647,0.021012753,0.03574998,-0.035935283,-0.1359375,0.043542482,-0.05522461,101.0
31648,0.03714712,0.015709355,-0.035986997,-0.1359375,0.043542482,-0.05522461,101.0
31649,0.03714712,0.015709355,-0.035986997,-0.124255374,0.046728518,-0.06584473,101.0
31650,0.1071591,-0.022869527,-0.05664605,-0.124255374,0.046728518,-0.06584473,101.0
31651,0.1071591,-0.022869527,-0.05664605,-0.20178223,0.070092775,-0.09451904,101.0
31652,0.12825657,0.018752716,-0.06432319,-0.20178223,0.070092775,-0.09451904,101.0
31653,0.12825657,0.018752716,-0.06432319,-0.27293703,0.083898924,-0.10620117,101.0
31654,0.18433134,2.4147332E-5,-0.09299908,-0.27293703,0.083898924,-0.10620117,101.0
31655,0.18433134,2.4147332E-5,-0.09299908,-0.4067505,0.11151123,-0.13806152,101.0
31656,0.17352709,-0.022197478,-0.09822739,-0.4067505,0.11151123,-0.13806152,101.0
31657,0.17352709,-0.022197478,-0.09822739,-0.34090576,0.10938721,-0.14974366,101.0
31658,0.13898036,-0.14320965,-0.14222938,-0.34090576,0.10938721,-0.14974366,101.0
31659,0.13898036,-0.14320965,-0.14222938,-0.271875,0.1359375,-0.18160401,101.0
31660,0.13059346,-0.063688815,-0.13676935,-0.271875,0.1359375,-0.18160401,101.0
31661,0.13059346,-0.063688815,-0.13676935,-0.3334717,0.1444336,-0.19647217,101.0
31662,0.08590788,0.047889285,-0.17943501,-0.3334717,0.1444336,-0.19647217,101.0
31663,0.08590788,0.047889285,-0.17943501,-0.62127686,0.19328614,-0.26444092,101.0
31664,0.08590788,0.047889285,-0.17943501,-0.62127686,0.19328614,-0.26444092,101.0
31665,0.076551005,0.10513272,-0.1610773,-0.62127686,0.19328614,-0.26444092,101.0
31666,0.076551005,0.10513272,-0.1610773,-0.6945557,0.20709229,-0.2888672,101.0
31667,0.0039532185,0.03531467,-0.097782746,-0.6945557,0.20709229,-0.2888672,101.0
31668,0.0039532185,0.03531467,-0.097782746,-0.91014403,0.25913087,-0.36320803,101.0
31669,0.03935641,0.14005594,-0.066751584,-0.91014403,0.25913087,-0.36320803,101.0
31670,0.03935641,0.14005594,-0.066751584,-1.0620117,0.29736328,-0.39082032,101.0
31671,0.14280105,0.2331141,0.04034874,-1.0620117,0.29736328,-0.39082032,101.0
31672,0.14280105,0.2331141,0.04034874,-1.9137452,0.49383545,-0.49064943,101.0
31673,0.20659924,0.46925494,0.07450311,-1.9137452,0.49383545,-0.49064943,101.0
31674,0.20659924,0.46925494,0.07450311,-2.2939453,0.5703003,-0.51826173,101.0
31675,0.22859725,0.37395132,0.15279096,-2.2939453,0.5703003,-0.51826173,101.0
31676,0.22859725,0.37395132,0.15279096,-2.527588,0.6786255,-0.5161377,101.0
31677,0.11188173,-0.16104403,0.14864878,-2.527588,0.6786255,-0.5161377,101.0
31678,0.11188173,-0.16104403,0.14864878,-1.6248779,0.6531372,-0.5522461,101.0
31679,-0.03705713,-0.5036155,0.12159237,-1.6248779,0.6531372,-0.5522461,101.0
31680,-0.03705713,-0.5036155,0.12159237,-0.94412845,0.65632325,-0.54375,101.0
31681,-0.122968465,-0.30170834,0.19999607,-0.94412845,0.65632325,-0.54375,101.0
31682,-0.122968465,-0.30170834,0.19999607,-0.72854006,0.65632325,-0.51082766,101.0
31683,-0.1711531,0.08211966,0.36176687,-0.72854006,0.65632325,-0.51082766,101.0
31684,-0.1711531,0.08211966,0.36176687,-0.7317261,0.6690674,-0.45878908,101.0
31685,-0.22686389,0.24050042,0.4215058,-0.7317261,0.6690674,-0.45878908,101.0
31686,-0.22686389,0.24050042,0.4215058,-0.5872925,0.63826907,-0.43967286,101.0
31687,-0.403476,0.007073179,0.32112798,-0.5872925,0.63826907,-0.43967286,101.0
31688,-0.403476,0.007073179,0.32112798,-0.06690674,0.50020754,-0.3802002,101.0
31689,-0.32754153,-0.013298988,0.24869925,-0.06690674,0.50020754,-0.3802002,101.0
31690,-0.32754153,-0.013298988,0.24869925,-0.019116212,0.46409914,-0.3451538,101.0
31691,-0.2312715,0.094243616,0.19707954,-0.019116212,0.46409914,-0.3451538,101.0
31692,-0.2312715,0.094243616,0.19707954,-0.17523193,0.43754885,-0.27293703,101.0
31693,-0.09516126,0.1852948,0.15384284,-0.17523193,0.43754885,-0.27293703,101.0
31694,-0.09516126,0.1852948,0.15384284,-0.34090576,0.44179687,-0.21877442,101.0
31695,-0.014361426,0.11821878,0.07502738,-0.34090576,0.44179687,-0.21877442,101.0
31696,-0.014361426,0.11821878,0.07502738,-0.4630371,0.4619751,-0.1985962,101.0
31697,0.024155393,0.186201,-0.032287657,-0.4630371,0.4619751,-0.1985962,101.0
31698,0.024155393,0.186201,-0.032287657,-0.8315552,0.52038574,-0.19434814,101.0
31699,0.102344334,0.6103378,-0.08111578,-0.8315552,0.52038574,-0.19434814,101.0
31700,0.102344334,0.6103378,-0.08111578,-2.0528686,0.6977417,-0.16354981,101.0
31701,0.33647752,1.4159436,0.12550044,-2.0528686,0.6977417,-0.16354981,101.0
31702,0.33647752,1.4159436,0.12550044,-4.585767,1.0545777,-0.060534667,101.0
31703,0.5766039,1.859647,0.36802733,-4.585767,1.0545777,-0.060534667,101.0
31704,0.5766039,1.859647,0.36802733,-7.515857,1.448584,0.0031860352,101.0
31705,0.6171547,2.007957,0.39338428,-7.515857,1.448584,0.0031860352,101.0
31706,0.6171547,2.007957,0.39338428,-10.356738,1.7523193,0.060534667,101.0
31707,0.4158429,1.2905941,-0.9091817,-10.356738,1.7523193,0.060534667,101.0
31708,0.4158429,1.2905941,-0.9091817,-13.972888,2.0475585,0.3536499,101.0
31709,0.41117775,1.4169114,0.06858969,-13.972888,2.0475585,0.3536499,101.0
31710,0.41117775,1.4169114,0.06858969,-14.509204,2.0040162,0.42692873,101.0
31711,0.15786064,0.28150272,-0.23535043,-14.509204,2.0040162,0.42692873,101.0
31712,0.15786064,0.28150272,-0.23535043,-14.155555,1.7416992,0.6244629,101.0
31713,-0.21845025,-1.048101,-0.28301913,-14.155555,1.7416992,0.6244629,101.0
31714,-0.21845025,-1.048101,-0.28301913,-12.4988165,1.363623,0.7519043,101.0
31715,-0.55256784,-1.9633954,0.07613599,-12.4988165,1.363623,0.7519043,101.0
31716,-0.55256784,-1.9633954,0.07613599,-10.550025,0.998291,0.75615233,101.0
31717,-0.6922496,-2.3801646,0.6187091,-10.550025,0.998291,0.75615233,101.0
31718,-0.6922496,-2.3801646,0.6187091,-8.377149,0.77739257,0.7189819,101.0
31719,-0.7007235,-2.473907,0.8250454,-8.377149,0.77739257,0.7189819,101.0
31720,-0.7007235,-2.473907,0.8250454,-6.058777,0.6860596,0.6446411,101.0
31721,-0.6839675,-2.3375118,0.45139372,-6.058777,0.6860596,0.6446411,101.0
31722,-0.6839675,-2.3375118,0.45139372,-4.0908694,0.6117188,0.48640138,101.0
31723,-0.6921447,-2.0861716,-0.17313796,-4.0908694,0.6117188,0.48640138,101.0
31724,-0.6921447,-2.0861716,-0.17313796,-2.451123,0.50020754,0.29948732,101.0
31725,-0.66836417,-1.7214763,-0.53881556,-2.451123,0.50020754,0.29948732,101.0
31726,-0.66836417,-1.7214763,-0.53881556,-1.2085694,0.40462646,0.16354981,101.0
31727,-0.56138813,-1.1700522,-0.425425,-1.2085694,0.40462646,0.16354981,101.0
31728,-0.56138813,-1.1700522,-0.425425,-0.50020754,0.33028564,0.07434082,101.0
31729,-0.39951336,-0.56143236,-0.045881987,-0.50020754,0.33028564,0.07434082,101.0
31730,-0.39951336,-0.56143236,-0.045881987,-0.23364258,0.29099122,0.0541626,101.0
31731,-0.24708867,-0.1229862,0.1944468,-0.23364258,0.29099122,0.0541626,101.0
31732,-0.24708867,-0.1229862,0.1944468,-0.32178956,0.2623169,0.07965088,101.0
31733,-0.14590096,0.084765434,0.13495195,-0.32178956,0.2623169,0.07965088,101.0
31734,-0.14590096,0.084765434,0.13495195,-0.5766724,0.22196046,0.095581055,101.0
31735,-0.082467854,0.08575678,-0.039365113,-0.5766724,0.22196046,0.095581055,101.0
31736,-0.082467854,0.08575678,-0.039365113,-0.5872925,0.18160401,0.10195313,101.0
31737,-0.033430338,-0.08063781,-0.21187538,-0.5872925,0.18160401,0.10195313,101.0
31738,-0.033430338,-0.08063781,-0.21187538,-0.08814698,0.124255374,0.098767094,101.0
31739,0.0118787885,-0.22358,-0.38987386,-0.08814698,0.124255374,0.098767094,101.0
31740,0.0118787885,-0.22358,-0.38987386,1.0280274,0.06478272,0.0637207,101.0
31741,0.04928577,-0.08048749,-0.44485807,1.0280274,0.06478272,0.0637207,101.0
31742,0.04928577,-0.08048749,-0.44485807,1.803296,0.013806152,0.046728518,101.0
31743,0.08883047,0.3110739,-0.24333765,1.803296,0.013806152,0.046728518,101.0
31744,0.08883047,0.3110739,-0.24333765,1.901001,-0.023364259,0.0021240234,101.0
31745,0.13443106,0.59198654,0.11607206,1.901001,-0.023364259,0.0021240234,101.0
31746,0.13443106,0.59198654,0.11607206,1.716211,-0.015930176,-0.022302246,101.0
31747,0.15627527,0.5971,0.3965808,1.716211,-0.015930176,-0.022302246,101.0
31748,0.15627527,0.5971,0.3965808,1.539917,0.004248047,-0.023364259,101.0
31749,0.19472241,0.4736151,0.51062405,1.539917,0.004248047,-0.023364259,101.0
31750,0.19472241,0.4736151,0.51062405,1.5558472,0.029736329,0.016992187,101.0
31751,0.26327306,0.37538868,0.56023264,1.5558472,0.029736329,0.016992187,101.0
31752,0.26327306,0.37538868,0.56023264,1.4645141,0.06903076,-0.020178223,101.0
31753,0.26575762,0.33744478,0.47478527,1.4645141,0.06903076,-0.020178223,101.0
31754,0.26575762,0.33744478,0.47478527,1.4868164,0.12319336,0.010620117,101.0
31755,0.19883657,0.35976297,0.2525943,1.4868164,0.12319336,0.010620117,101.0
31756,0.19883657,0.35976297,0.2525943,1.6131958,0.13062744,0.0180542,101.0
31757,0.20778751,0.41671664,0.06162131,1.6131958,0.13062744,0.0180542,101.0
31758,0.20778751,0.41671664,0.06162131,1.7565674,0.118945315,-0.06903076,101.0
31759,0.22237015,0.4574822,-0.051496387,1.7565674,0.118945315,-0.06903076,101.0
31760,0.22237015,0.4574822,-0.051496387,1.8659546,0.019116212,-0.13275146,101.0
31761,0.1542511,0.38371035,3.1900406E-4,1.8659546,0.019116212,-0.13275146,101.0
31762,0.1542511,0.38371035,3.1900406E-4,2.1473877,-0.0031860352,-0.07327881,101.0
31763,0.17924806,0.29506642,0.19080698,2.1473877,-0.0031860352,-0.07327881,101.0
31764,0.17924806,0.29506642,0.19080698,1.8309082,-0.04141846,-0.12531738,101.0
31765,0.12357423,0.11798671,0.18077058,1.8309082,-0.04141846,-0.12531738,101.0
31766,0.12357423,0.11798671,0.18077058,1.1214844,-0.06903076,-0.29948732,101.0
31767,-0.16586229,-0.38877714,-0.19205344,1.1214844,-0.06903076,-0.29948732,101.0
31768,-0.16586229,-0.38877714,-0.19205344,1.4655762,0.053100586,-0.29523927,101.0
31769,-0.23093203,-0.8982043,-0.7677663,1.4655762,0.053100586,-0.29523927,101.0
31770,-0.23093203,-0.8982043,-0.7677663,2.430945,-0.019116212,-0.38975832,101.0
31771,0.04481983,-0.7623745,-1.0681925,2.430945,-0.019116212,-0.38975832,101.0
31772,0.04481983,-0.7623745,-1.0681925,3.2529418,-0.052038576,-0.4959595,101.0
31773,0.16865617,-0.12623262,-0.76254964,3.2529418,-0.052038576,-0.4959595,101.0
31774,0.16865617,-0.12623262,-0.76254964,3.3973756,-0.02442627,-0.46728516,101.0
31775,0.16865617,-0.12623262,-0.76254964,3.3973756,-0.02442627,-0.46728516,101.0
31776,0.007166147,0.48340112,-0.17905827,3.3973756,-0.02442627,-0.46728516,101.0
31777,0.007166147,0.48340112,-0.17905827,3.3283448,-0.03079834,-0.3058594,101.0
31778,-0.15759715,0.88069063,0.15322556,3.3283448,-0.03079834,-0.3058594,101.0
31779,-0.15759715,0.88069063,0.15322556,2.7516725,-0.07540283,-0.26868898,101.0
31780,-0.32860458,0.97059256,0.0037816167,2.7516725,-0.07540283,-0.26868898,101.0
31781,-0.32860458,0.97059256,0.0037816167,1.8001099,-0.22833252,-0.45560303,101.0
31782,-0.45271522,0.7975922,-0.13719687,1.8001099,-0.22833252,-0.45560303,101.0
31783,-0.45271522,0.7975922,-0.13719687,0.91757816,-0.270813,-0.46728516,101.0
31784,-0.33498716,0.50709236,0.05983478,0.91757816,-0.270813,-0.46728516,101.0
31785,-0.33498716,0.50709236,0.05983478,0.04991455,-0.29630128,-0.34727785,101.0
31786,-0.16844136,0.3130347,0.33713785,0.04991455,-0.29630128,-0.34727785,101.0
31787,-0.16844136,0.3130347,0.33713785,-0.7391602,-0.28674316,-0.050976563,101.0
31788,-0.10187954,0.34478813,0.6723592,-0.7391602,-0.28674316,-0.050976563,101.0
31789,-0.10187954,0.34478813,0.6723592,-1.6716064,-0.20603028,0.25806886,101.0
31790,0.13550079,0.42298627,1.2116667,-1.6716064,-0.20603028,0.25806886,101.0
31791,0.13550079,0.42298627,1.2116667,-3.0235474,-0.1709839,0.58410645,101.0
31792,0.72766334,0.10770056,1.6020482,-3.0235474,-0.1709839,0.58410645,101.0
31793,0.72766334,0.10770056,1.6020482,-4.0197144,0.045666505,0.6552612,101.0
31794,1.0043108,-0.21161789,1.4259868,-4.0197144,0.045666505,0.6552612,101.0
31795,1.0043108,-0.21161789,1.4259868,-5.2027955,0.28780517,0.542688,101.0
31796,0.44763815,0.09625745,0.7336849,-5.2027955,0.28780517,0.542688,101.0
31797,0.44763815,0.09625745,0.7336849,-6.975293,0.5278198,0.33134767,101.0
31798,-0.13156232,0.092984945,0.053427458,-6.975293,0.5278198,0.33134767,101.0
31799,-0.13156232,0.092984945,0.053427458,-8.567248,0.5214478,0.13168946,101.0
31800,-0.022449568,-0.82225513,-0.43584692,-8.567248,0.5214478,0.13168946,101.0
31801,-0.022449568,-0.82225513,-0.43584692,-9.205518,0.30054933,0.18585205,101.0
31802,0.06656183,-1.9720131,-1.1299641,-9.205518,0.30054933,0.18585205,101.0
31803,0.06656183,-1.9720131,-1.1299641,-6.914758,0.24957275,0.40144044,101.0
31804,-0.08530034,-2.4869611,-1.7109171,-6.914758,0.24957275,0.40144044,101.0
31805,-0.08530034,-2.4869611,-1.7109171,-4.972339,-0.04141846,0.41524658,101.0
31806,-0.12040092,-2.052191,-1.7316732,-4.972339,-0.04141846,0.41524658,101.0
31807,-0.12040092,-2.052191,-1.7316732,-2.4681153,-0.13275146,0.47684327,101.0
31808,-0.17847407,-1.1500049,-1.0885979,-2.4681153,-0.13275146,0.47684327,101.0
31809,-0.17847407,-1.1500049,-1.0885979,-0.97067875,-0.1263794,0.7062378,101.0
31810,-0.17066011,-0.18584871,-0.046232298,-0.97067875,-0.1263794,0.7062378,101.0
31811,-0.17066011,-0.18584871,-0.046232298,-0.8421753,-0.16673584,0.7975708,101.0
31812,-0.049687266,0.45104027,0.6976211,-0.8421753,-0.16673584,0.7975708,101.0
31813,-0.049687266,0.45104027,0.6976211,-1.0290893,-0.16142578,0.7880127,101.0
31814,-0.02339238,0.5716598,0.64708614,-1.0290893,-0.16142578,0.7880127,101.0
31815,-0.02339238,0.5716598,0.64708614,-1.1331666,-0.1709839,0.75721437,101.0
31816,-0.12922415,0.3073889,0.072344184,-1.1331666,-0.1709839,0.75721437,101.0
31817,-0.12922415,0.3073889,0.072344184,-0.9388184,-0.19116211,0.68924564,101.0
31818,-0.16279095,-0.094311,-0.31974918,-0.9388184,-0.19116211,0.68924564,101.0
31819,-0.16279095,-0.094311,-0.31974918,-0.54906005,-0.1985962,0.5235718,101.0
31820,-0.15868735,-0.3823824,-0.16395363,-0.54906005,-0.1985962,0.5235718,101.0
31821,-0.15868735,-0.3823824,-0.16395363,-0.31329346,-0.12213135,0.4715332,101.0
31822,-0.16540202,-0.2536354,0.23547527,-0.31329346,-0.12213135,0.4715332,101.0
31823,-0.16540202,-0.2536354,0.23547527,-0.34833986,-0.070092775,0.45772704,101.0
31824,-0.1221776,0.11593938,0.3956312,-0.34833986,-0.070092775,0.45772704,101.0
31825,-0.1221776,0.11593938,0.3956312,-0.33771974,-0.04991455,0.26656494,101.0
31826,-0.1456303,0.24347174,0.2919078,-0.33771974,-0.04991455,0.26656494,101.0
31827,-0.1456303,0.24347174,0.2919078,-0.08496094,0.008496094,0.16885987,101.0
31828,-0.19715607,0.15558052,0.108953476,-0.08496094,0.008496094,0.16885987,101.0
31829,-0.19715607,0.15558052,0.108953476,0.4322388,0.08283692,0.07115479,101.0
31830,-0.12665796,0.16836095,-0.12763214,0.4322388,0.08283692,0.07115479,101.0
31831,-0.12665796,0.16836095,-0.12763214,0.92926025,0.09664307,-0.05628662,101.0
31832,0.005863607,0.37552118,-0.45559692,0.92926025,0.09664307,-0.05628662,101.0
31833,0.005863607,0.37552118,-0.45559692,1.1214844,0.026550293,-0.22408448,101.0
31834,-0.009188533,0.54312944,-0.71988523,1.1214844,0.026550293,-0.22408448,101.0
31835,-0.009188533,0.54312944,-0.71988523,1.2138795,-0.04248047,-0.007434082,101.0
31836,-0.10167456,0.52648354,-0.61339605,1.2138795,-0.04248047,-0.007434082,101.0
31837,-0.10167456,0.52648354,-0.61339605,1.6556762,-0.08283692,0.06159668,101.0
31838,-0.15836602,0.40855253,-0.15606105,1.6556762,-0.08283692,0.06159668,101.0
31839,-0.15836602,0.40855253,-0.15606105,2.171814,-0.16036378,-0.083898924,101.0
31840,-0.08282077,0.16041136,0.37395486,2.171814,-0.16036378,-0.083898924,101.0
31841,-0.08282077,0.16041136,0.37395486,1.7969239,-0.14761963,-0.3440918,101.0
31842,0.1570344,-0.16427344,0.54201055,1.7969239,-0.14761963,-0.3440918,101.0
31843,0.1570344,-0.16427344,0.54201055,1.7374512,-0.16354981,-0.14655761,101.0
31844,0.16534919,-0.21260774,0.15765631,1.7374512,-0.16354981,-0.14655761,101.0
31845,0.16534919,-0.21260774,0.15765631,1.8521484,-0.14655761,-0.070092775,101.0
31846,-0.073836386,0.16978192,-0.23322552,1.8521484,-0.14655761,-0.070092775,101.0
31847,-0.073836386,0.16978192,-0.23322552,2.0125122,-0.17947999,0.026550293,101.0
31848,-0.13166434,0.55790806,-0.23055017,2.0125122,-0.17947999,0.026550293,101.0
31849,-0.13166434,0.55790806,-0.23055017,1.9551636,-0.18797608,-0.10089111,101.0
31850,0.17268366,0.5373543,6.184578E-4,1.9551636,-0.18797608,-0.10089111,101.0
31851,0.17268366,0.5373543,6.184578E-4,1.8744507,-0.1996582,-0.18903808,101.0
31852,0.49970698,0.43630433,0.24917641,1.8744507,-0.1996582,-0.18903808,101.0
31853,0.49970698,0.43630433,0.24917641,1.3784913,-0.19116211,-0.4354248,101.0
31854,0.46348628,0.44547904,0.3294437,1.3784913,-0.19116211,-0.4354248,101.0
31855,0.46348628,0.44547904,0.3294437,0.8782837,-0.19434814,-0.36427003,101.0
31856,0.16315964,0.27816057,0.19434106,0.8782837,-0.19434814,-0.36427003,101.0
31857,0.16315964,0.27816057,0.19434106,0.9834229,-0.18372802,-0.18479005,101.0
31858,-0.01129356,0.067303866,0.11920577,0.9834229,-0.18372802,-0.18479005,101.0
31859,-0.01129356,0.067303866,0.11920577,1.2117554,-0.20921631,-0.1720459,101.0
31860,0.07846516,0.06168002,0.31701994,1.2117554,-0.20921631,-0.1720459,101.0
31861,0.07846516,0.06168002,0.31701994,1.0290893,-0.19541016,-0.3334717,101.0
31862,0.15390983,0.12691969,0.5680202,1.0290893,-0.19541016,-0.3334717,101.0
31863,0.15390983,0.12691969,0.5680202,0.49277344,-0.14337158,-0.24744873,101.0
31864,0.05594036,0.055612892,0.5669284,0.49277344,-0.14337158,-0.24744873,101.0
31865,0.05594036,0.055612892,0.5669284,0.08071289,-0.09239502,-0.10301514,101.0
31866,-0.06170523,-0.1579633,0.33321804,0.08071289,-0.09239502,-0.10301514,101.0
31867,-0.06170523,-0.1579633,0.33321804,-0.16248779,-0.0541626,-0.03186035,101.0
31868,-0.101720154,-0.32947123,0.04103732,-0.16248779,-0.0541626,-0.03186035,101.0
31869,-0.101720154,-0.32947123,0.04103732,-0.007434082,-0.012744141,-0.078588866,101.0
31870,-0.0862101,-0.32127964,-0.15591526,-0.007434082,-0.012744141,-0.078588866,101.0
31871,-0.0862101,-0.32127964,-0.15591526,0.28674316,0.0010620117,-0.16992188,101.0
31872,-0.0862101,-0.32127964,-0.15591526,0.28674316,0.0010620117,-0.16992188,100.0
31873,-0.078843564,-0.2078172,-0.15404129,0.28674316,0.0010620117,-0.16992188,100.0
31874,-0.078843564,-0.2078172,-0.15404129,0.48640138,0.013806152,-0.14018555,100.0
31875,-0.116163254,-0.09426892,-0.0448761,0.48640138,0.013806152,-0.14018555,100.0
31876,-0.116163254,-0.09426892,-0.0448761,0.54906005,0.03717041,-0.015930176,100.0
31877,0.2780411,0.53951406,-0.6410401,0.54906005,0.03717041,-0.015930176,100.0
31878,0.2780411,0.53951406,-0.6410401,0.33771974,0.010620117,-0.07646485,100.0
31879,0.36071414,0.3563305,-0.49154305,0.33771974,0.010620117,-0.07646485,100.0
31880,0.36071414,0.3563305,-0.49154305,0.043542482,-0.039294433,-0.2527588,100.0
31881,0.38089308,0.068621546,-0.44550493,0.043542482,-0.039294433,-0.2527588,100.0
31882,0.38089308,0.068621546,-0.44550493,-0.3345337,-0.087084964,-0.27612305,100.0
31883,0.20803478,-0.12256858,-0.5010328,-0.3345337,-0.087084964,-0.27612305,100.0
31884,0.20803478,-0.12256858,-0.5010328,-0.39188233,-0.07115479,0.0,100.0
31885,0.043734957,-0.14660221,-0.56661,-0.39188233,-0.07115479,0.0,100.0
31886,0.043734957,-0.14660221,-0.56661,-0.31010744,-0.07752686,0.13062744,100.0
31887,0.08707537,-0.09893459,-0.46088076,-0.31010744,-0.07752686,0.13062744,100.0
31888,0.08707537,-0.09893459,-0.46088076,-0.4694092,-0.12956543,-0.026550293,100.0
31889,0.13976528,-0.1509006,-0.30141947,-0.4694092,-0.12956543,-0.026550293,100.0
31890,0.13976528,-0.1509006,-0.30141947,-0.40250245,-0.1274414,-0.025488282,100.0
31891,0.11625558,-0.11525172,-0.15905549,-0.40250245,-0.1274414,-0.025488282,100.0
31892,0.11625558,-0.11525172,-0.15905549,-0.16992188,-0.14868164,-0.08920898,100.0
31893,0.1666617,0.04146564,1.84807E-4,-0.16992188,-0.14868164,-0.08920898,100.0
31894,0.1666617,0.04146564,1.84807E-4,-0.12213135,-0.1709839,-0.20496826,100.0
31895,0.20776783,0.15836781,0.061268453,-0.12213135,-0.1709839,-0.20496826,100.0
31896,0.20776783,0.15836781,0.061268453,-0.19434814,-0.16567384,-0.18054199,100.0
31897,0.15032071,0.23678946,0.084830195,-0.19434814,-0.16567384,-0.18054199,100.0
31898,0.15032071,0.23678946,0.084830195,-0.07752686,-0.13912354,-0.14974366,100.0
31899,0.069060266,0.26039106,0.30940467,-0.07752686,-0.13912354,-0.14974366,100.0
31900,0.069060266,0.26039106,0.30940467,-0.13381349,-0.050976563,-0.033984374,100.0
31901,0.22822183,1.1027709,0.5409808,-0.13381349,-0.050976563,-0.033984374,100.0
31902,0.22822183,1.1027709,0.5409808,-1.4018555,-0.06690674,-0.31116945,100.0
31903,0.107797205,0.70744866,0.067147434,-1.4018555,-0.06690674,-0.31116945,100.0
31904,0.107797205,0.70744866,0.067147434,-0.63614506,0.078588866,0.008496094,100.0
31905,-0.17770267,-0.63011044,-0.5398856,-0.63614506,0.078588866,0.008496094,100.0
31906,-0.17770267,-0.63011044,-0.5398856,0.37382814,-0.046728518,-0.026550293,100.0
31907,-0.11671047,-0.7524526,-0.35389334,0.37382814,-0.046728518,-0.026550293,100.0
31908,-0.11671047,-0.7524526,-0.35389334,1.0460815,0.04460449,-0.30373535,100.0
31909,-0.10733321,-0.36642742,-0.18309025,1.0460815,0.04460449,-0.30373535,100.0
31910,-0.10733321,-0.36642742,-0.18309025,1.7268311,0.028674318,-0.3175415,100.0
31911,-0.14552234,-0.026723474,-0.15191653,1.7268311,0.028674318,-0.3175415,100.0
31912,-0.14552234,-0.026723474,-0.15191653,2.1888063,0.009558106,-0.1709839,100.0
31913,-0.17825869,0.05856505,-0.13748783,2.1888063,0.009558106,-0.1709839,100.0
31914,-0.17825869,0.05856505,-0.13748783,2.4606812,-0.03079834,-0.14655761,100.0
31915,-0.24698928,0.18945459,-0.12666507,2.4606812,-0.03079834,-0.14655761,100.0
31916,-0.24698928,0.18945459,-0.12666507,3.0118654,-0.06584473,0.0010620117,100.0
31917,-0.2794762,0.27796745,-0.14788967,3.0118654,-0.06584473,0.0010620117,100.0
31918,-0.2794762,0.27796745,-0.14788967,3.3283448,-0.04141846,0.13062744,100.0
31919,-0.139267,0.12802583,-0.20599484,3.3283448,-0.04141846,0.13062744,100.0
31920,-0.139267,0.12802583,-0.20599484,3.5025146,0.08602295,0.16673584,100.0
31921,0.086413555,-0.034798577,-0.28200778,3.5025146,0.08602295,0.16673584,100.0
31922,0.086413555,-0.034798577,-0.28200778,3.258252,0.05628662,0.15080567,100.0
31923,0.30853516,-0.0045234263,-0.29695633,3.258252,0.05628662,0.15080567,100.0
31924,0.30853516,-0.0045234263,-0.29695633,2.3757203,-0.035046387,-0.12213135,100.0
31925,0.33790478,0.102973044,-0.19938147,2.3757203,-0.035046387,-0.12213135,100.0
31926,0.33790478,0.102973044,-0.19938147,1.7438233,-0.052038576,-0.093457036,100.0
31927,0.14017245,0.030596212,-0.1673299,1.7438233,-0.052038576,-0.093457036,100.0
31928,0.14017245,0.030596212,-0.1673299,1.7990478,-0.045666505,0.070092775,100.0
31929,0.028995872,-0.009116769,-0.27280438,1.7990478,-0.045666505,0.070092775,100.0
31930,0.028995872,-0.009116769,-0.27280438,1.5685914,-0.05522461,0.16567384,100.0
31931,-0.046114832,0.23441802,-0.29660046,1.5685914,-0.05522461,0.16567384,100.0
31932,-0.046114832,0.23441802,-0.29660046,0.81668705,-0.023364259,0.37489015,100.0
31933,-0.044399187,0.38689965,-0.1347413,0.81668705,-0.023364259,0.37489015,100.0
31934,-0.044399187,0.38689965,-0.1347413,0.3430298,-0.08814698,0.37595215,100.0
31935,0.11612861,0.35718817,0.15828359,0.3430298,-0.08814698,0.37595215,100.0
31936,0.11612861,0.35718817,0.15828359,-0.271875,-0.09664307,0.3079834,100.0
31937,0.3120191,0.12952496,0.44606048,-0.271875,-0.09664307,0.3079834,100.0
31938,0.3120191,0.12952496,0.44606048,-0.3345337,-0.13381349,0.10195313,100.0
31939,0.4256773,-0.25840396,0.64637476,-0.3345337,-0.13381349,0.10195313,100.0
31940,0.4256773,-0.25840396,0.64637476,-0.060534667,-0.12213135,0.23895264,100.0
31941,0.63860095,-0.64593214,0.8011208,-0.060534667,-0.12213135,0.23895264,100.0
31942,0.63860095,-0.64593214,0.8011208,0.025488282,-0.1263794,-0.10513916,100.0
31943,0.45200622,-1.044236,0.88103336,0.025488282,-0.1263794,-0.10513916,100.0
31944,0.45200622,-1.044236,0.88103336,1.2903442,0.1359375,0.6595093,100.0
31945,-0.24493802,-0.81817687,0.81367683,1.2903442,0.1359375,0.6595093,100.0
31946,-0.24493802,-0.81817687,0.81367683,2.4861696,-0.0722168,0.70942384,100.0
31947,-0.34973457,0.19144237,0.5589249,2.4861696,-0.0722168,0.70942384,100.0
31948,-0.34973457,0.19144237,0.5589249,2.5966187,-0.050976563,0.13487549,100.0
31949,-0.25737557,1.2402022,0.47592413,2.5966187,-0.050976563,0.13487549,100.0
31950,-0.25737557,1.2402022,0.47592413,0.5171997,-0.023364259,0.1996582,100.0
31951,-0.77268517,1.6522937,0.2996114,0.5171997,-0.023364259,0.1996582,100.0
31952,-0.77268517,1.6522937,0.2996114,-0.9239502,-0.053100586,1.3083985,100.0
31953,-0.67785275,0.7336758,-0.40584314,-0.9239502,-0.053100586,1.3083985,100.0
31954,-0.67785275,0.7336758,-0.40584314,-0.45772704,-0.14018555,0.12850343,100.0
31955,0.26700738,-0.40934843,-0.94967455,-0.45772704,-0.14018555,0.12850343,100.0
31956,0.26700738,-0.40934843,-0.94967455,0.5915405,-0.25806886,-0.5915405,100.0
31957,0.5576977,-0.5850349,-0.60945886,0.5915405,-0.25806886,-0.5915405,100.0
31958,0.5576977,-0.5850349,-0.60945886,0.15186767,-0.18054199,-0.18054199,100.0
31959,-0.062496617,-0.45016906,0.47852176,0.15186767,-0.18054199,-0.18054199,100.0
31960,-0.062496617,-0.45016906,0.47852176,0.07115479,0.24107666,0.88040775,100.0
31961,-0.3487522,-1.5198154,1.5000172,0.07115479,0.24107666,0.88040775,100.0
31962,-0.3487522,-1.5198154,1.5000172,-0.85491943,0.4333008,1.0991821,100.0
31963,0.3615744,-2.8668778,0.6336929,-0.85491943,0.4333008,1.0991821,100.0
31964,0.3615744,-2.8668778,0.6336929,0.74659425,0.23895264,0.5299439,100.0
31965,1.2398334,-2.7779016,-0.9500159,0.74659425,0.23895264,0.5299439,100.0
31966,1.2398334,-2.7779016,-0.9500159,1.5600952,-0.118945315,0.2623169,100.0
31967,0.9308559,-2.008454,-1.0916045,1.5600952,-0.118945315,0.2623169,100.0
31968,0.9308559,-2.008454,-1.0916045,2.608301,-0.11682129,0.5586182,100.0
31969,0.28401577,-0.81478333,-0.38236564,2.608301,-0.11682129,0.5586182,100.0
31970,0.28401577,-0.81478333,-0.38236564,2.436255,-0.28674316,0.29630128,100.0
31971,0.23850417,0.66516566,0.21919292,2.436255,-0.28674316,0.29630128,100.0
31972,0.23850417,0.66516566,0.21919292,0.95368654,0.095581055,0.20603028,100.0
31973,0.1806593,1.6311071,0.8631351,0.95368654,0.095581055,0.20603028,100.0
31974,0.1806593,1.6311071,0.8631351,-0.721106,0.67225343,0.0031860352,100.0
31975,0.12345809,1.2267362,2.3908377,-0.721106,0.67225343,0.0031860352,100.0
31976,0.12345809,1.2267362,2.3908377,-5.3153687,0.813501,0.34727785,100.0
31977,-0.21798158,-2.487764,3.0223503,-5.3153687,0.813501,0.34727785,100.0
31978,-0.21798158,-2.487764,3.0223503,1.4687623,0.29630128,0.090270996,100.0
31979,-0.22502005,-5.324257,1.503427,1.4687623,0.29630128,0.090270996,100.0
31980,-0.22502005,-5.324257,1.503427,7.5721436,0.6680054,0.67331547,100.0
31981,0.20028186,-2.678131,-0.3650074,7.5721436,0.6680054,0.67331547,100.0
31982,0.20028186,-2.678131,-0.3650074,7.881189,0.66269535,0.4088745,100.0
31983,0.30327964,1.0030642,-1.7458512,7.881189,0.66269535,0.4088745,100.0
31984,0.30327964,1.0030642,-1.7458512,7.881189,0.66269535,0.4088745,99.0
31985,0.30327964,1.0030642,-1.7458512,9.208704,0.7147339,-0.14868164,99.0
31986,-0.28821123,3.0442605,-3.0286634,9.208704,0.7147339,-0.14868164,99.0
31987,-0.28821123,3.0442605,-3.0286634,10.539405,0.44710693,-0.8581055,99.0
31988,-1.3026271,4.7168903,-3.871588,10.539405,0.44710693,-0.8581055,99.0
31989,-1.3026271,4.7168903,-3.871588,9.829981,0.17841797,-1.6769165,99.0
31990,-2.168298,5.611928,-3.9191942,9.829981,0.17841797,-1.6769165,99.0
31991,-2.168298,5.611928,-3.9191942,8.377149,-0.29205322,-2.4298828,99.0
31992,-2.6153147,4.771769,-3.4308755,8.377149,-0.29205322,-2.4298828,99.0
31993,-2.6153147,4.771769,-3.4308755,6.8319216,-0.8931519,-2.800525,99.0
31994,-2.4835238,2.288045,-2.9372542,6.8319216,-0.8931519,-2.800525,99.0
31995,-2.4835238,2.288045,-2.9372542,6.0715213,-1.5250489,-2.8684938,99.0
31996,-1.8519313,-0.59722507,-2.3768177,6.0715213,-1.5250489,-2.8684938,99.0
31997,-1.8519313,-0.59722507,-2.3768177,5.584058,-2.1325195,-2.8249512,99.0
31998,-0.78454804,-2.6361663,-1.3732193,5.584058,-2.1325195,-2.8249512,99.0
31999,-0.78454804,-2.6361663,-1.3732193,4.059009,-2.3916504,-2.5190918,99.0
32000,0.42549872,-3.7720556,-0.24365592,4.059009,-2.3916504,-2.5190918,99.0
32001,0.42549872,-3.7720556,-0.24365592,2.7601686,-2.5127199,-2.173938,99.0
32002,1.4739927,-4.268243,0.7570894,2.7601686,-2.5127199,-2.173938,99.0
32003,1.4739927,-4.268243,0.7570894,1.5282348,-2.355542,-1.7013428,99.0
32004,2.0167797,-4.120942,1.5014968,1.5282348,-2.355542,-1.7013428,99.0
32005,2.0167797,-4.120942,1.5014968,0.8421753,-2.069861,-1.1310425,99.0
32006,1.7729208,-3.1679816,1.6848888,0.8421753,-2.069861,-1.1310425,99.0
32007,1.7729208,-3.1679816,1.6848888,0.6881836,-1.7809937,-0.6159668,99.0
32008,1.1121477,-1.60991,1.5093002,0.6881836,-1.7809937,-0.6159668,99.0
32009,1.1121477,-1.60991,1.5093002,0.77314454,-1.450708,-0.27718505,99.0
32010,0.39218402,0.11878586,1.3755432,0.77314454,-1.450708,-0.27718505,99.0
32011,0.39218402,0.11878586,1.3755432,0.86553955,-1.177771,-0.06265869,99.0
32012,-0.16960241,1.4685028,1.2774854,0.86553955,-1.177771,-0.06265869,99.0
32013,-0.16960241,1.4685028,1.2774854,0.7742066,-0.9653687,-0.03717041,99.0
32014,-0.31574786,2.0327246,0.99133646,0.7742066,-0.9653687,-0.03717041,99.0
32015,-0.31574786,2.0327246,0.99133646,0.7508423,-0.88996583,-0.05628662,99.0
32016,-0.035862446,1.9433794,0.6418973,0.7508423,-0.88996583,-0.05628662,99.0
32017,-0.035862446,1.9433794,0.6418973,0.6223389,-0.85491943,-0.09451904,99.0
32018,0.4692959,1.6239662,0.39799047,0.6223389,-0.85491943,-0.09451904,99.0
32019,0.4692959,1.6239662,0.39799047,0.14549561,-0.8464233,-0.045666505,99.0
32020,0.8471652,1.2113678,0.21109259,0.14549561,-0.8464233,-0.045666505,99.0
32021,0.8471652,1.2113678,0.21109259,-0.1996582,-0.817749,-0.009558106,99.0
32022,0.9569192,0.56563973,0.05741167,-0.1996582,-0.817749,-0.009558106,99.0
32023,0.9569192,0.56563973,0.05741167,-0.22196046,-0.7412842,0.0541626,99.0
32024,0.978011,-0.34917283,0.017609,-0.22196046,-0.7412842,0.0541626,99.0
32025,0.978011,-0.34917283,0.017609,0.32285157,-0.63933104,0.08283692,99.0
32026,0.8644645,-0.62242913,0.20164824,0.32285157,-0.63933104,0.08283692,99.0
32027,0.8644645,-0.62242913,0.20164824,0.6956177,-0.5363159,0.14124756,99.0
32028,0.47412777,0.49307227,0.46313745,0.6956177,-0.5363159,0.14124756,99.0
32029,0.47412777,0.49307227,0.46313745,0.29205322,-0.40356445,0.15930176,99.0
32030,-0.011139691,1.8664916,0.6656882,0.29205322,-0.40356445,0.15930176,99.0
32031,-0.011139691,1.8664916,0.6656882,-0.15186767,-0.24320069,0.083898924,99.0
32032,-0.2987311,2.1571703,0.646723,-0.15186767,-0.24320069,0.083898924,99.0
32033,-0.2987311,2.1571703,0.646723,-0.4715332,-0.1444336,-0.0180542,99.0
32034,-0.33839893,1.4201577,0.3668779,-0.4715332,-0.1444336,-0.0180542,99.0
32035,-0.33839893,1.4201577,0.3668779,-0.29523927,-0.14761963,-0.090270996,99.0
32036,-0.1566689,0.27686095,0.2626918,-0.29523927,-0.14761963,-0.090270996,99.0
32037,-0.1566689,0.27686095,0.2626918,-0.095581055,-0.14761963,0.0053100586,99.0
32038,0.18357599,-0.58943653,0.8832003,-0.095581055,-0.14761963,0.0053100586,99.0
32039,0.18357599,-0.58943653,0.8832003,-0.14337158,-0.03079834,0.19434814,99.0
32040,0.13775432,-0.5267738,1.7422171,-0.14337158,-0.03079834,0.19434814,99.0
32041,0.13775432,-0.5267738,1.7422171,-0.21240234,0.18479005,0.26444092,99.0
32042,-0.5047013,0.1984052,1.402587,-0.21240234,0.18479005,0.26444092,99.0
32043,-0.5047013,0.1984052,1.402587,0.025488282,0.19753419,0.1720459,99.0
32044,-1.1047865,0.9171348,0.083788395,0.025488282,0.19753419,0.1720459,99.0
32045,-1.1047865,0.9171348,0.083788395,-0.0998291,0.021240234,-0.016992187,99.0
32046,-1.1869909,1.0979534,-0.7785381,-0.0998291,0.021240234,-0.016992187,99.0
32047,-1.1869909,1.0979534,-0.7785381,-0.28674316,-0.118945315,-0.16036378,99.0
32048,-0.7551957,0.40209323,-0.81594574,-0.28674316,-0.118945315,-0.16036378,99.0
32049,-0.7551957,0.40209323,-0.81594574,-0.1720459,-0.23682861,-0.18585205,99.0
32050,-0.12330939,-0.44351095,-0.308262,-0.1720459,-0.23682861,-0.18585205,99.0
32051,-0.12330939,-0.44351095,-0.308262,-0.25063476,-0.26337892,-0.1720459,99.0
32052,0.3006445,-0.74417645,0.35549003,-0.25063476,-0.26337892,-0.1720459,99.0
32053,0.3006445,-0.74417645,0.35549003,-0.009558106,-0.20390625,-0.15611573,99.0
32054,0.4085576,-0.3483929,0.46982902,-0.009558106,-0.20390625,-0.15611573,99.0
32055,0.4085576,-0.3483929,0.46982902,0.027612304,-0.14655761,-0.1985962,99.0
32056,0.3651151,0.4035611,-0.007437587,0.027612304,-0.14655761,-0.1985962,99.0
32057,0.3651151,0.4035611,-0.007437587,-0.06903076,-0.17735596,-0.2814331,99.0
32058,0.41998518,1.0097996,-0.4339042,-0.06903076,-0.17735596,-0.2814331,99.0
32059,0.41998518,1.0097996,-0.4339042,-0.14974366,-0.21346436,-0.3536499,99.0
32060,0.6134173,1.2796292,-0.6001019,-0.14974366,-0.21346436,-0.3536499,99.0
32061,0.6134173,1.2796292,-0.6001019,-0.44498292,-0.28568116,-0.34090576,99.0
32062,0.79771626,0.8429905,-0.4248325,-0.44498292,-0.28568116,-0.34090576,99.0
32063,0.79771626,0.8429905,-0.4248325,-0.6488892,-0.270813,-0.29736328,99.0
32064,0.822487,-0.19615203,0.14811008,-0.6488892,-0.270813,-0.29736328,99.0
32065,0.822487,-0.19615203,0.14811008,-0.5511841,-0.19116211,-0.22514649,99.0
32066,0.47077036,-0.7464114,0.67570245,-0.5511841,-0.19116211,-0.22514649,99.0
32067,0.47077036,-0.7464114,0.67570245,-0.50445557,-0.087084964,-0.23151855,99.0
32068,-0.18725091,-0.31536642,0.738853,-0.50445557,-0.087084964,-0.23151855,99.0
32069,-0.18725091,-0.31536642,0.738853,-0.87403566,0.06265869,-0.35046387,99.0
32070,-0.6672934,-0.012302905,0.46304286,-0.87403566,0.06265869,-0.35046387,99.0
32071,-0.6672934,-0.012302905,0.46304286,-0.9165161,0.27612305,-0.48427734,99.0
32072,-1.0136809,-0.5560703,0.13054168,-0.9165161,0.27612305,-0.48427734,99.0
32073,-1.0136809,-0.5560703,0.13054168,-0.7614624,0.36002198,-0.37595215,99.0
32074,-1.7286327,-1.3143754,-0.15772486,-0.7614624,0.36002198,-0.37595215,99.0
32075,-1.7286327,-1.3143754,-0.15772486,-0.44179687,0.34090576,-0.2984253,99.0
32076,-1.7286327,-1.3143754,-0.15772486,-0.44179687,0.34090576,-0.2984253,99.0
32077,-2.4911582,-1.4876087,-0.4822468,-0.44179687,0.34090576,-0.2984253,99.0
32078,-2.4911582,-1.4876087,-0.4822468,-0.4364868,0.31010744,-0.23151855,99.0
32079,-2.5107367,-1.5528677,-0.9926822,-0.4364868,0.31010744,-0.23151855,99.0
32080,-2.5107367,-1.5528677,-0.9926822,-0.35789797,0.21877442,0.04248047,99.0
32081,-1.9102618,-1.8147062,-1.5210257,-0.35789797,0.21877442,0.04248047,99.0
32082,-1.9102618,-1.8147062,-1.5210257,-0.16461182,0.0053100586,0.32178956,99.0
32083,-1.1481557,-1.7390087,-1.5456902,-0.16461182,0.0053100586,0.32178956,99.0
32084,-1.1481557,-1.7390087,-1.5456902,-0.29736328,-0.20072022,0.6053467,99.0
32085,-0.44231606,-1.1867638,-1.1528729,-0.29736328,-0.20072022,0.6053467,99.0
32086,-0.44231606,-1.1867638,-1.1528729,-0.5607422,-0.36533204,0.80394286,99.0
32087,0.14425492,-0.22984314,-0.91747665,-0.5607422,-0.36533204,0.80394286,99.0
32088,0.14425492,-0.22984314,-0.91747665,-0.721106,-0.4970215,0.9388184,99.0
32089,0.707921,0.5333741,-0.8686981,-0.721106,-0.4970215,0.9388184,99.0
32090,0.707921,0.5333741,-0.8686981,-0.53100586,-0.58623046,1.0152832,99.0
32091,1.4393837,0.71473634,-0.54785156,-0.53100586,-0.58623046,1.0152832,99.0
32092,1.4393837,0.71473634,-0.54785156,-0.090270996,-0.6403931,1.0322754,99.0
32093,2.4889338,0.19642282,0.12584221,-0.090270996,-0.6403931,1.0322754,99.0
32094,2.4889338,0.19642282,0.12584221,0.7497803,-0.5320679,1.1544068,99.0
32095,3.616208,-0.19983196,0.8810693,0.7497803,-0.5320679,1.1544068,99.0
32096,3.616208,-0.19983196,0.8810693,2.822827,-0.40356445,1.1182984,99.0
32097,4.1409645,1.48303,1.396872,2.822827,-0.40356445,1.1182984,99.0
32098,4.1409645,1.48303,1.396872,1.635498,0.014868164,1.0237793,99.0
32099,3.6263337,3.3626447,1.456316,1.635498,0.014868164,1.0237793,99.0
32100,3.6263337,3.3626447,1.456316,0.13062744,0.39400634,0.85704345,99.0
32101,2.3533742,2.8467321,0.9564103,0.13062744,0.39400634,0.85704345,99.0
32102,2.3533742,2.8467321,0.9564103,0.039294433,0.5246338,0.5564942,99.0
32103,0.89214754,1.0781304,-0.075350285,0.039294433,0.5246338,0.5564942,99.0
32104,0.89214754,1.0781304,-0.075350285,0.4163086,0.47471926,0.39506838,99.0
32105,-0.35558128,-0.3693195,-1.1719501,0.4163086,0.47471926,0.39506838,99.0
32106,-0.35558128,-0.3693195,-1.1719501,0.7848267,0.24638672,0.24957275,99.0
32107,-1.1622972,-0.4504605,-1.3568594,0.7848267,0.24638672,0.24957275,99.0
32108,-1.1622972,-0.4504605,-1.3568594,0.7497803,-0.004248047,0.13806152,99.0
32109,-1.5219643,-0.13710178,-0.59421563,0.7497803,-0.004248047,0.13806152,99.0
32110,-1.5219643,-0.13710178,-0.59421563,0.7104859,-0.07752686,0.124255374,99.0
32111,-1.6671076,-0.93315554,-0.18578506,0.7104859,-0.07752686,0.124255374,99.0
32112,-1.6671076,-0.93315554,-0.18578506,1.6174439,-0.17629395,0.10620117,99.0
32113,-1.684919,-1.7758336,-0.12890148,1.6174439,-0.17629395,0.10620117,99.0
32114,-1.684919,-1.7758336,-0.12890148,3.0299194,-0.3812622,-0.009558106,99.0
32115,-1.510008,-0.9022099,0.57089007,3.0299194,-0.3812622,-0.009558106,99.0
32116,-1.510008,-0.9022099,0.57089007,3.0808961,-0.27612305,0.0722168,99.0
32117,-1.2008897,0.83252895,1.5302106,3.0808961,-0.27612305,0.0722168,99.0
32118,-1.2008897,0.83252895,1.5302106,1.9466676,-0.058410645,-0.07115479,99.0
32119,-0.80607307,1.1850295,1.908214,1.9466676,-0.058410645,-0.07115479,99.0
32120,-0.80607307,1.1850295,1.908214,1.6248779,0.05522461,-0.06265869,99.0
32121,-0.38877937,0.36527216,1.496847,1.6248779,0.05522461,-0.06265869,99.0
32122,-0.38877937,0.36527216,1.496847,2.0326905,0.06159668,-0.14230958,99.0
32123,0.2083979,0.05457127,0.73379356,2.0326905,0.06159668,-0.14230958,99.0
32124,0.2083979,0.05457127,0.73379356,1.6206299,0.09133301,-0.16036378,99.0
32125,0.699543,0.25894022,-0.038172662,1.6206299,0.09133301,-0.16036378,99.0
32126,0.699543,0.25894022,-0.038172662,0.96643066,0.0053100586,-0.10513916,99.0
32127,0.70102847,0.077269375,-0.699105,0.96643066,0.0053100586,-0.10513916,99.0
32128,0.70102847,0.077269375,-0.699105,1.0609497,-0.22514649,-0.08283692,99.0
32129,0.61383796,-0.16613862,-0.67995054,1.0609497,-0.22514649,-0.08283692,99.0
32130,0.61383796,-0.16613862,-0.67995054,1.1331666,-0.33665773,-0.08071289,99.0
32131,0.71973246,0.102330804,0.13164993,1.1331666,-0.33665773,-0.08071289,99.0
32132,0.71973246,0.102330804,0.13164993,0.8241211,-0.2824951,-0.10513916,99.0
32133,0.7031908,0.5380902,0.9013405,0.8241211,-0.2824951,-0.10513916,99.0
32134,0.7031908,0.5380902,0.9013405,0.3717041,-0.15186767,-0.18797608,99.0
32135,0.503849,0.48434183,0.9818634,0.3717041,-0.15186767,-0.18797608,99.0
32136,0.503849,0.48434183,0.9818634,-0.060534667,-0.040356446,-0.26125488,99.0
32137,0.25127256,-0.2402243,0.57291746,-0.060534667,-0.040356446,-0.26125488,99.0
32138,0.25127256,-0.2402243,0.57291746,-0.10089111,0.025488282,-0.30054933,99.0
32139,-0.092573285,-0.89175224,0.06571919,-0.10089111,0.025488282,-0.30054933,99.0
32140,-0.092573285,-0.89175224,0.06571919,0.19434814,0.02442627,-0.3419678,99.0
32141,-0.4817369,-0.778392,-0.20803255,0.19434814,0.02442627,-0.3419678,99.0
32142,-0.4817369,-0.778392,-0.20803255,0.057348635,0.06265869,-0.33134767,99.0
32143,-0.82522106,-0.32630253,-0.14955592,0.057348635,0.06265869,-0.33134767,99.0
32144,-0.82522106,-0.32630253,-0.14955592,-0.21134034,0.08071289,-0.31435546,99.0
32145,-1.0324669,-0.34263384,-0.03371942,-0.21134034,0.08071289,-0.31435546,99.0
32146,-1.0324669,-0.34263384,-0.03371942,-0.24107666,0.09664307,-0.25700685,99.0
32147,-1.102536,-0.752879,-0.002292931,-0.24107666,0.09664307,-0.25700685,99.0
32148,-1.102536,-0.752879,-0.002292931,0.22408448,0.040356446,-0.18585205,99.0
32149,-0.98017335,-0.7553427,0.019601226,0.22408448,0.040356446,-0.18585205,99.0
32150,-0.98017335,-0.7553427,0.019601226,0.2516968,0.043542482,-0.16779785,99.0
32151,-1.033272,-0.14424002,0.293159,0.2516968,0.043542482,-0.16779785,99.0
32152,-1.033272,-0.14424002,0.293159,0.3164795,0.08920898,-0.09770508,99.0
32153,-0.864081,0.05925393,0.3304379,0.3164795,0.08920898,-0.09770508,99.0
32154,-0.864081,0.05925393,0.3304379,0.22089843,0.13381349,-0.09770508,99.0
32155,-0.74895525,-0.006075859,0.19407445,0.22089843,0.13381349,-0.09770508,99.0
32156,-0.74895525,-0.006075859,0.19407445,0.39400634,0.17947999,-0.025488282,99.0
32157,-0.5899357,-0.06872785,0.070518374,0.39400634,0.17947999,-0.025488282,99.0
32158,-0.5899357,-0.06872785,0.070518374,0.38763428,0.20709229,-0.0361084,99.0
32159,-0.46295202,0.4728009,-0.14497691,0.38763428,0.20709229,-0.0361084,99.0
32160,-0.46295202,0.4728009,-0.14497691,0.11151123,0.31966552,-0.0637207,99.0
32161,-0.3588382,0.6568052,-0.17586923,0.11151123,0.31966552,-0.0637207,99.0
32162,-0.3588382,0.6568052,-0.17586923,-0.1359375,0.36002198,-0.087084964,99.0
32163,-0.52120143,1.03958,-0.52570516,-0.1359375,0.36002198,-0.087084964,99.0
32164,-0.52120143,1.03958,-0.52570516,-0.8326172,0.4959595,-0.26762697,99.0
32165,-0.43950748,1.0397084,-0.60877216,-0.8326172,0.4959595,-0.26762697,99.0
32166,-0.43950748,1.0397084,-0.60877216,-1.0991821,0.541626,-0.35046387,99.0
32167,-0.46038282,1.0480266,-0.97269887,-1.0991821,0.541626,-0.35046387,99.0
32168,-0.46038282,1.0480266,-0.97269887,-2.1420777,0.6903076,-0.6605713,99.0
32169,-0.23467588,1.0283382,-1.0145483,-2.1420777,0.6903076,-0.6605713,99.0
32170,-0.23467588,1.0283382,-1.0145483,-2.6486573,0.7943848,-0.7540283,99.0
32171,0.013492227,0.55626434,-1.2909355,-2.6486573,0.7943848,-0.7540283,99.0
32172,0.013492227,0.55626434,-1.2909355,-3.4887085,0.97492677,-0.901648,99.0
32173,0.20653355,-0.08988845,-1.6021454,-3.4887085,0.97492677,-0.901648,99.0
32174,0.20653355,-0.08988845,-1.6021454,-4.1259155,1.2000732,-0.8315552,99.0
32175,0.1724168,-0.7415763,-1.6631373,-4.1259155,1.2000732,-0.8315552,99.0
32176,0.1724168,-0.7415763,-1.6631373,-4.370178,1.2627319,-0.7742066,99.0
32177,-0.07672715,-1.0941888,-1.3700973,-4.370178,1.2627319,-0.7742066,99.0
32178,-0.07672715,-1.0941888,-1.3700973,-4.2926517,1.1873292,-0.71579593,99.0
32179,-0.32783675,-0.9413789,-0.9523889,-4.2926517,1.1873292,-0.71579593,99.0
32180,-0.32783675,-0.9413789,-0.9523889,-3.906079,1.0768799,-0.71791995,99.0
32181,-0.32783675,-0.9413789,-0.9523889,-3.906079,1.0768799,-0.71791995,99.0
32182,-0.3624158,-0.43596447,-0.5598726,-3.906079,1.0768799,-0.71791995,99.0
32183,-0.3624158,-0.43596447,-0.5598726,-3.5609252,0.97492677,-0.7699585,99.0
32184,-0.17798197,0.25829628,0.10866928,-3.5609252,0.97492677,-0.7699585,99.0
32185,-0.17798197,0.25829628,0.10866928,-3.2093995,0.8326172,-0.7858887,99.0
32186,0.14812946,0.5585047,1.2682098,-3.2093995,0.8326172,-0.7858887,99.0
32187,0.14812946,0.5585047,1.2682098,-2.4936035,0.66588134,-0.76358646,99.0
32188,0.565989,0.29696247,2.4098926,-2.4936035,0.66588134,-0.76358646,99.0
32189,0.565989,0.29696247,2.4098926,-1.6588624,0.5734863,-0.64570314,99.0
32190,1.0055013,0.09645669,2.7722256,-1.6588624,0.5734863,-0.64570314,99.0
32191,1.0055013,0.09645669,2.7722256,-1.0216553,0.62127686,-0.6605713,99.0
32192,1.2302921,0.21454328,2.0211008,-1.0216553,0.62127686,-0.6605713,99.0
32193,1.2302921,0.21454328,2.0211008,-0.19541016,0.542688,-0.75296634,99.0
32194,1.1163626,0.29183728,0.6094832,-0.19541016,0.542688,-0.75296634,99.0
32195,1.1163626,0.29183728,0.6094832,0.5586182,0.33771974,-0.6690674,99.0
32196,0.9043572,-0.14541203,-0.46052137,0.5586182,0.33771974,-0.6690674,99.0
32197,0.9043572,-0.14541203,-0.46052137,1.1299804,0.13381349,-0.5957886,99.0
32198,0.5219843,-1.0523404,-0.85174227,1.1299804,0.13381349,-0.5957886,99.0
32199,0.5219843,-1.0523404,-0.85174227,2.437317,-0.2984253,-0.3345337,99.0
32200,0.090902865,-1.2247703,-0.64533424,2.437317,-0.2984253,-0.3345337,99.0
32201,0.090902865,-1.2247703,-0.64533424,2.7569826,-0.55755615,-0.09239502,99.0
32202,-0.09564929,-0.29007018,-0.11383822,2.7569826,-0.55755615,-0.09239502,99.0
32203,-0.09564929,-0.29007018,-0.11383822,2.345984,-0.6881836,0.029736329,99.0
32204,-0.1091,0.64985305,0.22946166,2.345984,-0.6881836,0.029736329,99.0
32205,-0.1091,0.64985305,0.22946166,1.7884277,-0.73597413,0.09664307,99.0
32206,-0.1504636,0.6293063,0.26386717,1.7884277,-0.73597413,0.09664307,99.0
32207,-0.1504636,0.6293063,0.26386717,1.4305298,-0.8092529,0.13062744,99.0
32208,-0.22813454,-0.19465065,0.15428221,1.4305298,-0.8092529,0.13062744,99.0
32209,-0.22813454,-0.19465065,0.15428221,0.97492677,-0.811377,0.13168946,99.0
32210,-0.13533968,-0.8324173,0.03969775,0.97492677,-0.811377,0.13168946,99.0
32211,-0.13533968,-0.8324173,0.03969775,0.7720825,-0.78164065,0.08602295,99.0
32212,0.17361303,-0.655741,0.0029374063,0.7720825,-0.78164065,0.08602295,99.0
32213,0.17361303,-0.655741,0.0029374063,0.75509036,-0.72960204,0.038232423,99.0
32214,0.43227422,0.15941596,0.07367561,0.75509036,-0.72960204,0.038232423,99.0
32215,0.43227422,0.15941596,0.07367561,0.75296634,-0.68074954,0.03079834,99.0
32216,0.4840762,1.0527403,0.1424366,0.75296634,-0.68074954,0.03079834,99.0
32217,0.4840762,1.0527403,0.1424366,0.65419924,-0.60959476,-0.021240234,99.0
32218,0.5147024,1.3727586,0.05901763,0.65419924,-0.60959476,-0.021240234,99.0
32219,0.5147024,1.3727586,0.05901763,0.6988037,-0.49064943,-0.004248047,99.0
32220,0.6001286,1.1004653,0.023996323,0.6988037,-0.49064943,-0.004248047,99.0
32221,0.6001286,1.1004653,0.023996323,0.68924564,-0.37489015,-0.07540283,99.0
32222,0.7596195,0.91744494,0.16723174,0.68924564,-0.37489015,-0.07540283,99.0
32223,0.7596195,0.91744494,0.16723174,0.3536499,-0.2177124,-0.13168946,99.0
32224,0.9370779,0.90314543,0.14286743,0.3536499,-0.2177124,-0.13168946,99.0
32225,0.9370779,0.90314543,0.14286743,-0.18797608,-0.07327881,-0.14761963,99.0
32226,1.0788004,0.7442449,-0.09321338,-0.18797608,-0.07327881,-0.14761963,99.0
32227,1.0788004,0.7442449,-0.09321338,-0.3791382,-0.013806152,-0.20284425,99.0
32228,1.1967928,0.5026347,-0.20358682,-0.3791382,-0.013806152,-0.20284425,99.0
32229,1.1967928,0.5026347,-0.20358682,-0.44604492,0.05522461,-0.27293703,99.0
32230,1.2177858,0.36192226,-0.2334383,-0.44604492,0.05522461,-0.27293703,99.0
32231,1.2177858,0.36192226,-0.2334383,-0.70198977,0.13381349,-0.28674316,99.0
32232,1.0630715,0.12656176,-0.3099196,-0.70198977,0.13381349,-0.28674316,99.0
32233,1.0630715,0.12656176,-0.3099196,-0.9526245,0.24107666,-0.26444092,99.0
32234,0.764483,-0.44740784,-0.32287464,-0.9526245,0.24107666,-0.26444092,99.0
32235,0.764483,-0.44740784,-0.32287464,-0.6818115,0.28780517,-0.24320069,99.0
32236,0.4096942,-0.91619045,-0.18233536,-0.6818115,0.28780517,-0.24320069,99.0
32237,0.4096942,-0.91619045,-0.18233536,-0.48321533,0.3334717,-0.20496826,99.0
32238,-0.015897036,-0.90879464,-0.022381961,-0.48321533,0.3334717,-0.20496826,99.0
32239,-0.015897036,-0.90879464,-0.022381961,-0.38551027,0.33771974,-0.15186767,99.0
32240,-0.48482442,-0.77061486,0.11336885,-0.38551027,0.33771974,-0.15186767,99.0
32241,-0.48482442,-0.77061486,0.11336885,-0.24320069,0.3345337,-0.10301514,99.0
32242,-0.8410212,-0.7020998,0.22853687,-0.24320069,0.3345337,-0.10301514,99.0
32243,-0.8410212,-0.7020998,0.22853687,-0.21983643,0.34090576,-0.1274414,99.0
32244,-1.0245504,-0.6094948,0.2588305,-0.21983643,0.34090576,-0.1274414,99.0
32245,-1.0245504,-0.6094948,0.2588305,-0.19541016,0.3430298,-0.18266602,99.0
32246,-1.0820305,-0.5710065,0.26704973,-0.19541016,0.3430298,-0.18266602,99.0
32247,-1.0820305,-0.5710065,0.26704973,-0.12850343,0.34727785,-0.16036378,99.0
32248,-1.0077264,-0.47914404,0.3952072,-0.12850343,0.34727785,-0.16036378,99.0
32249,-1.0077264,-0.47914404,0.3952072,0.0063720704,0.362146,-0.14761963,99.0
32250,-0.7865278,-0.21790996,0.50222534,0.0063720704,0.362146,-0.14761963,99.0
32251,-0.7865278,-0.21790996,0.50222534,-0.0063720704,0.41524658,-0.1359375,99.0
32252,-0.597606,-0.047899753,0.3238262,-0.0063720704,0.41524658,-0.1359375,99.0
32253,-0.597606,-0.047899753,0.3238262,-0.008496094,0.41418457,-0.17523193,99.0
32254,-0.5714686,-0.026784152,0.025027752,-0.008496094,0.41418457,-0.17523193,99.0
32255,-0.5714686,-0.026784152,0.025027752,-0.026550293,0.36002198,-0.17523193,99.0
32256,-0.5279757,-0.1496622,-0.09245336,-0.026550293,0.36002198,-0.17523193,99.0
32257,-0.5279757,-0.1496622,-0.09245336,0.19222413,0.30479738,-0.13806152,99.0
32258,-0.40280047,-0.17228103,-0.05958283,0.19222413,0.30479738,-0.13806152,99.0
32259,-0.40280047,-0.17228103,-0.05958283,0.30267334,0.2527588,-0.15080567,99.0
32260,-0.40240398,0.38257313,0.090236545,0.30267334,0.2527588,-0.15080567,99.0
32261,-0.40240398,0.38257313,0.090236545,0.17947999,0.25806886,-0.21027832,99.0
32262,-0.5244622,0.39780656,0.10678396,0.17947999,0.25806886,-0.21027832,99.0
32263,-0.5244622,0.39780656,0.10678396,0.15080567,0.26868898,-0.2442627,99.0
32264,-0.41880077,0.23011048,0.04013908,0.15080567,0.26868898,-0.2442627,99.0
32265,-0.41880077,0.23011048,0.04013908,0.16142578,0.32178956,-0.3079834,99.0
32266,-0.03469882,0.19950587,-0.12394345,0.16142578,0.32178956,-0.3079834,99.0
32267,-0.03469882,0.19950587,-0.12394345,0.06584473,0.41524658,-0.36533204,99.0
32268,0.31197482,0.32527852,-0.3646821,0.06584473,0.41524658,-0.36533204,99.0
32269,0.31197482,0.32527852,-0.3646821,-0.06159668,0.4088745,-0.39400634,99.0
32270,0.4213328,0.313299,-0.57756114,-0.06159668,0.4088745,-0.39400634,99.0
32271,0.4213328,0.313299,-0.57756114,0.0180542,0.32816163,-0.44923097,99.0
32272,0.3551815,0.222502,-0.6034918,0.0180542,0.32816163,-0.44923097,99.0
32273,0.3551815,0.222502,-0.6034918,-0.0361084,0.30267334,-0.56605226,99.0
32274,0.19294646,-0.007447619,-0.49395066,-0.0361084,0.30267334,-0.56605226,99.0
32275,0.19294646,-0.007447619,-0.49395066,-0.2262085,0.31435546,-0.631897,99.0
32276,0.024669647,-0.41837266,-0.26154235,-0.2262085,0.31435546,-0.631897,99.0
32277,0.024669647,-0.41837266,-0.26154235,-0.2262085,0.31435546,-0.631897,99.0
32278,0.024669647,-0.41837266,-0.26154235,-0.27506104,0.31435546,-0.5734863,99.0
32279,-0.006399542,-0.5557308,0.08092727,-0.27506104,0.31435546,-0.5734863,99.0
32280,-0.006399542,-0.5557308,0.08092727,-0.32709962,0.362146,-0.5331299,99.0
32281,0.045344234,-0.4536423,0.23138,-0.32709962,0.362146,-0.5331299,99.0
32282,0.045344234,-0.4536423,0.23138,-0.3525879,0.3971924,-0.4885254,99.0
32283,-0.036319822,-0.3220203,0.13796045,-0.3525879,0.3971924,-0.4885254,99.0
32284,-0.036319822,-0.3220203,0.13796045,-0.35046387,0.39506838,-0.4959595,99.0
32285,-0.30006418,-0.19200343,-0.07877959,-0.35046387,0.39506838,-0.4959595,99.0
32286,-0.30006418,-0.19200343,-0.07877959,-0.3430298,0.3419678,-0.38232422,99.0
32287,-0.6402589,-0.16900802,-0.2754016,-0.3430298,0.3419678,-0.38232422,99.0
32288,-0.6402589,-0.16900802,-0.2754016,-0.15080567,0.20496826,-0.22939454,99.0
32289,-0.7187257,-0.09127331,-0.16440088,-0.15080567,0.20496826,-0.22939454,99.0
32290,-0.7187257,-0.09127331,-0.16440088,-0.060534667,0.1539917,-0.18160401,99.0
32291,-0.37573737,0.22734755,0.2785379,-0.060534667,0.1539917,-0.18160401,99.0
32292,-0.37573737,0.22734755,0.2785379,0.07646485,0.13168946,-0.08496094,99.0
32293,-0.07057281,0.7088678,0.56887525,0.07646485,0.13168946,-0.08496094,99.0
32294,-0.07057281,0.7088678,0.56887525,0.11044922,0.13062744,-0.019116212,99.0
32295,-0.06536938,1.0880659,0.43992686,0.11044922,0.13062744,-0.019116212,99.0
32296,-0.06536938,1.0880659,0.43992686,0.007434082,0.10195313,0.040356446,99.0
32297,-0.056079686,0.91194445,0.19436093,0.007434082,0.10195313,0.040356446,99.0
32298,-0.056079686,0.91194445,0.19436093,0.17523193,0.011682129,0.13806152,99.0
32299,0.18901077,0.4535302,0.12974411,0.17523193,0.011682129,0.13806152,99.0
32300,0.18901077,0.4535302,0.12974411,0.30054933,-0.033984374,0.19541016,99.0
32301,0.4992677,0.2495063,0.22110486,0.30054933,-0.033984374,0.19541016,99.0
32302,0.4992677,0.2495063,0.22110486,0.18585205,0.016992187,0.21877442,99.0
32303,0.5500001,0.20177788,0.1897623,0.18585205,0.016992187,0.21877442,99.0
32304,0.5500001,0.20177788,0.1897623,0.2347046,-0.0031860352,0.18266602,99.0
32305,0.35678476,0.12702289,0.054702878,0.2347046,-0.0031860352,0.18266602,99.0
32306,0.35678476,0.12702289,0.054702878,0.047790527,0.004248047,0.19753419,99.0
32307,0.011819407,-0.22709262,-0.07065418,0.047790527,0.004248047,0.19753419,99.0
32308,0.011819407,-0.22709262,-0.07065418,-0.115759276,0.038232423,0.19647217,99.0
32309,-0.4430347,-0.7437103,-0.1656298,-0.115759276,0.038232423,0.19647217,99.0
32310,-0.4430347,-0.7437103,-0.1656298,0.11151123,-0.027612304,0.1720459,99.0
32311,-0.7079678,-0.64642084,-0.17417865,0.11151123,-0.027612304,0.1720459,99.0
32312,-0.7079678,-0.64642084,-0.17417865,0.34727785,-0.09451904,0.1709839,99.0
32313,-0.6456101,-0.13442183,-0.20653042,0.34727785,-0.09451904,0.1709839,99.0
32314,-0.6456101,-0.13442183,-0.20653042,0.12956543,-0.090270996,0.24532472,99.0
32315,-0.42895147,0.17738685,-0.25184542,0.12956543,-0.090270996,0.24532472,99.0
32316,-0.42895147,0.17738685,-0.25184542,0.16461182,-0.16461182,0.19116211,99.0
32317,-0.09071976,0.45605743,-0.21878591,0.16461182,-0.16461182,0.19116211,99.0
32318,-0.09071976,0.45605743,-0.21878591,0.17841797,-0.095581055,0.0722168,99.0
32319,0.33583483,0.47409886,-0.19086125,0.17841797,-0.095581055,0.0722168,99.0
32320,0.33583483,0.47409886,-0.19086125,0.14655761,-0.10513916,0.04141846,99.0
32321,0.77076745,0.21964774,-0.043314006,0.14655761,-0.10513916,0.04141846,99.0
32322,0.77076745,0.21964774,-0.043314006,0.06690674,-0.027612304,0.0010620117,99.0
32323,1.0436893,-0.07758993,0.18628386,0.06690674,-0.027612304,0.0010620117,99.0
32324,1.0436893,-0.07758993,0.18628386,-0.08920898,0.046728518,0.023364259,99.0
32325,1.0258815,-0.3357902,0.2838171,-0.08920898,0.046728518,0.023364259,99.0
32326,1.0258815,-0.3357902,0.2838171,-0.08071289,0.08920898,0.06584473,99.0
32327,0.78792936,-0.31587338,0.1388335,-0.08071289,0.08920898,0.06584473,99.0
32328,0.78792936,-0.31587338,0.1388335,-0.16779785,0.11257324,0.10301514,99.0
32329,0.42035812,-0.12332858,-0.21798594,-0.16779785,0.11257324,0.10301514,99.0
32330,0.42035812,-0.12332858,-0.21798594,-0.18160401,0.060534667,0.12213135,99.0
32331,-2.9253101,1.4821599,0.3062753,-0.18160401,0.060534667,0.12213135,99.0
32332,-2.9253101,1.4821599,0.3062753,-0.16885987,-0.028674318,0.1263794,99.0
32333,-2.6869645,1.1426859,0.3048225,-0.16885987,-0.028674318,0.1263794,99.0
32334,-2.6869645,1.1426859,0.3048225,-0.08283692,-0.08283692,0.098767094,99.0
32335,-2.4478748,1.0654916,0.5036358,-0.08283692,-0.08283692,0.098767094,99.0
32336,-2.4478748,1.0654916,0.5036358,-0.06796875,-0.09451904,0.050976563,99.0
32337,-2.1592765,1.0994025,0.6586826,-0.06796875,-0.09451904,0.050976563,99.0
32338,-2.1592765,1.0994025,0.6586826,-0.11151123,-0.12000733,0.011682129,99.0
32339,-1.7332072,0.9062921,0.63265896,-0.11151123,-0.12000733,0.011682129,99.0
32340,-1.7332072,0.9062921,0.63265896,-0.16248779,-0.09664307,-0.0063720704,99.0
32341,-1.2124934,0.5271089,0.6185051,-0.16248779,-0.09664307,-0.0063720704,99.0
32342,-1.2124934,0.5271089,0.6185051,-0.21983643,-0.0010620117,-0.046728518,99.0
32343,-0.7550287,0.09501469,0.7449384,-0.21983643,-0.0010620117,-0.046728518,99.0
32344,-0.7550287,0.09501469,0.7449384,-0.26550293,0.1359375,-0.020178223,99.0
32345,-0.5177803,-0.2111342,0.6580967,-0.26550293,0.1359375,-0.020178223,99.0
32346,-0.5177803,-0.2111342,0.6580967,-0.13487549,0.20178223,0.047790527,99.0
32347,-0.37372136,-0.07005489,0.13103056,-0.13487549,0.20178223,0.047790527,99.0
32348,-0.37372136,-0.07005489,0.13103056,-0.10407715,0.21134034,0.040356446,99.0
32349,-0.07832289,0.50793314,-0.60301244,-0.10407715,0.21134034,0.040356446,99.0
32350,-0.07832289,0.50793314,-0.60301244,-0.25594482,0.16354981,-0.016992187,99.0
32351,0.2631719,0.9522083,-1.2000003,-0.25594482,0.16354981,-0.016992187,99.0
32352,0.2631719,0.9522083,-1.2000003,-0.42268068,0.035046387,-0.10089111,99.0
32353,0.3819487,0.8646841,-1.062393,-0.42268068,0.035046387,-0.10089111,99.0
32354,0.3819487,0.8646841,-1.062393,-0.3090454,-0.06478272,-0.16461182,99.0
32355,0.16710687,0.37355876,-0.15809304,-0.3090454,-0.06478272,-0.16461182,99.0
32356,0.16710687,0.37355876,-0.15809304,-0.08602295,-0.121069334,-0.18160401,99.0
32357,-0.2551694,0.06361747,0.6482936,-0.08602295,-0.121069334,-0.18160401,99.0
32358,-0.2551694,0.06361747,0.6482936,-0.14761963,-0.1539917,-0.17947999,99.0
32359,-0.6971288,0.11332083,0.9157052,-0.14761963,-0.1539917,-0.17947999,99.0
32360,-0.6971288,0.11332083,0.9157052,-0.29311523,-0.15717773,-0.17947999,99.0
32361,-0.998682,0.05674553,0.70829654,-0.29311523,-0.15717773,-0.17947999,99.0
32362,-0.998682,0.05674553,0.70829654,-0.29099122,-0.19647217,-0.1996582,99.0
32363,0.96715546,-0.1938858,0.17210603,-0.29099122,-0.19647217,-0.1996582,99.0
32364,0.96715546,-0.1938858,0.17210603,-0.08283692,-0.2357666,-0.20390625,99.0
32365,1.0493836,-0.32730103,0.027308822,-0.08283692,-0.2357666,-0.20390625,99.0
32366,1.0493836,-0.32730103,0.027308822,-0.40993652,-0.13381349,-0.21240234,99.0
32367,1.2199147,-0.5465455,0.27483773,-0.40993652,-0.13381349,-0.21240234,99.0
32368,1.2199147,-0.5465455,0.27483773,-0.48321533,-0.09770508,-0.1985962,99.0
32369,1.1239176,-0.80533946,0.33985317,-0.48321533,-0.09770508,-0.1985962,99.0
32370,1.1239176,-0.80533946,0.33985317,-0.3090454,-0.10938721,-0.029736329,99.0
32371,0.9242439,-0.8462491,0.1657058,-0.3090454,-0.10938721,-0.029736329,99.0
32372,0.9242439,-0.8462491,0.1657058,-0.10195313,-0.07752686,0.03717041,99.0
32373,0.7363434,-0.5835179,-0.27130497,-0.10195313,-0.07752686,0.03717041,99.0
32374,0.7363434,-0.5835179,-0.27130497,0.23045655,-0.09770508,0.12000733,99.0
32375,0.7238159,-0.018389106,-0.48990774,0.23045655,-0.09770508,0.12000733,99.0
32376,0.7238159,-0.018389106,-0.48990774,0.28780517,-0.09451904,0.059472658,99.0
32377,0.8771484,0.51553774,-0.20111811,0.28780517,-0.09451904,0.059472658,99.0
32378,0.8771484,0.51553774,-0.20111811,0.058410645,0.052038576,0.032922365,99.0
32379,0.90281737,0.62244,0.04296291,0.058410645,0.052038576,0.032922365,99.0
32380,0.90281737,0.62244,0.04296291,-0.1539917,0.18691407,-0.046728518,99.0
32381,0.90281737,0.62244,0.04296291,-0.1539917,0.18691407,-0.046728518,99.0
32382,0.7646978,0.24544954,-0.06531227,-0.1539917,0.18691407,-0.046728518,99.0
32383,0.7646978,0.24544954,-0.06531227,0.08071289,0.21027832,-0.08496094,99.0
32384,0.9133818,0.12341046,-0.42557746,0.08071289,0.21027832,-0.08496094,99.0
32385,0.9133818,0.12341046,-0.42557746,0.17841797,0.1529297,-0.18691407,99.0
32386,1.2473925,0.41347456,-0.5785113,0.17841797,0.1529297,-0.18691407,99.0
32387,1.2473925,0.41347456,-0.5785113,-0.25700685,0.24213867,-0.07327881,99.0
32388,0.8770644,0.1335752,-0.30541158,-0.25700685,0.24213867,-0.07327881,99.0
32389,0.8770644,0.1335752,-0.30541158,0.0998291,0.14018555,-0.06903076,99.0
32390,-0.059798673,-0.34469008,0.3588934,0.0998291,0.14018555,-0.06903076,99.0
32391,-0.059798673,-0.34469008,0.3588934,0.11469727,0.07646485,-0.026550293,99.0
32392,-0.9890743,-0.28338146,0.7337822,0.11469727,0.07646485,-0.026550293,99.0
32393,-0.9890743,-0.28338146,0.7337822,-0.09239502,0.059472658,0.022302246,99.0
32394,-1.5639036,0.15638804,0.10747254,-0.09239502,0.059472658,0.022302246,99.0
32395,-1.5639036,0.15638804,0.10747254,-0.24957275,0.029736329,-0.013806152,99.0
32396,-1.5601072,0.3284185,-0.5994224,-0.24957275,0.029736329,-0.013806152,99.0
32397,-1.5601072,0.3284185,-0.5994224,-0.11363526,-0.043542482,-0.046728518,99.0
32398,-1.1795678,0.25411654,-0.27007747,-0.11363526,-0.043542482,-0.046728518,99.0
32399,-1.1795678,0.25411654,-0.27007747,-0.121069334,0.033984374,-0.19222413,99.0
32400,-0.63198423,0.30042458,0.41831303,-0.121069334,0.033984374,-0.19222413,99.0
32401,-0.63198423,0.30042458,0.41831303,-0.43861085,0.16567384,-0.2177124,99.0
32402,-0.18136859,0.1521926,0.4639473,-0.43861085,0.16567384,-0.2177124,99.0
32403,-0.18136859,0.1521926,0.4639473,-0.34833986,0.1529297,-0.20921631,99.0
32404,0.18520296,-0.057237625,-0.081588745,-0.34833986,0.1529297,-0.20921631,99.0
32405,0.18520296,-0.057237625,-0.081588745,0.03079834,0.052038576,-0.270813,99.0
32406,0.63346505,0.10014486,-0.45144045,0.03079834,0.052038576,-0.270813,99.0
32407,0.63346505,0.10014486,-0.45144045,0.05522461,0.027612304,-0.3069214,99.0
32408,0.82245815,0.09028435,0.01307857,0.05522461,0.027612304,-0.3069214,99.0
32409,0.82245815,0.09028435,0.01307857,-0.11469727,0.08814698,-0.25063476,99.0
32410,0.55428004,-0.23358297,0.52664936,-0.11469727,0.08814698,-0.25063476,99.0
32411,0.55428004,-0.23358297,0.52664936,-0.010620117,0.121069334,-0.24001466,99.0
32412,0.20776737,-0.35108757,0.22628772,-0.010620117,0.121069334,-0.24001466,99.0
32413,0.20776737,-0.35108757,0.22628772,-0.03079834,0.10089111,-0.19222413,99.0
32414,0.028311014,-0.2249496,-0.36000985,-0.03079834,0.10089111,-0.19222413,99.0
32415,0.028311014,-0.2249496,-0.36000985,0.010620117,0.035046387,-0.18691407,99.0
32416,-0.08545673,-0.12778687,-0.5287305,0.010620117,0.035046387,-0.18691407,99.0
32417,-0.08545673,-0.12778687,-0.5287305,0.04460449,-0.015930176,-0.14018555,99.0
32418,-0.27355337,-0.15287638,-0.33860946,0.04460449,-0.015930176,-0.14018555,99.0
32419,-0.27355337,-0.15287638,-0.33860946,0.08496094,-0.07752686,-0.11363526,99.0
32420,-0.53092766,-0.13625371,-0.10400528,0.08496094,-0.07752686,-0.11363526,99.0
32421,-0.53092766,-0.13625371,-0.10400528,0.17416993,-0.12531738,-0.13487549,99.0
32422,-0.532164,-0.019806147,0.28871965,0.17416993,-0.12531738,-0.13487549,99.0
32423,-0.532164,-0.019806147,0.28871965,-0.059472658,-0.06690674,-0.28780517,99.0
32424,-0.22825813,0.064208746,0.8989322,-0.059472658,-0.06690674,-0.28780517,99.0
32425,-0.22825813,0.064208746,0.8989322,-0.3717041,0.09770508,-0.40144044,99.0
32426,0.013035536,0.19604468,1.0552175,-0.3717041,0.09770508,-0.40144044,99.0
32427,0.013035536,0.19604468,1.0552175,-0.50020754,0.30479738,-0.4991455,99.0
32428,0.058597445,0.15583491,0.31087315,-0.50020754,0.30479738,-0.4991455,99.0
32429,0.058597445,0.15583491,0.31087315,0.029736329,0.35152587,-0.57454836,99.0
32430,0.222,-0.12680912,-0.5031936,0.029736329,0.35152587,-0.57454836,99.0
32431,0.222,-0.12680912,-0.5031936,0.20178223,0.3069214,-0.5033936,99.0
32432,0.46149898,-0.13812935,-0.46117306,0.20178223,0.3069214,-0.5033936,99.0
32433,0.46149898,-0.13812935,-0.46117306,0.45029297,0.35046387,-0.4725952,99.0
32434,0.49693358,0.16032171,0.029022932,0.45029297,0.35046387,-0.4725952,99.0
32435,0.49693358,0.16032171,0.029022932,0.7890747,0.3430298,-0.56180423,99.0
32436,0.47021532,0.2736919,-0.001134634,0.7890747,0.3430298,-0.56180423,99.0
32437,0.47021532,0.2736919,-0.001134634,0.7720825,0.19434814,-0.4630371,99.0
32438,0.42010534,-0.03860259,-0.6409223,0.7720825,0.19434814,-0.4630371,99.0
32439,0.42010534,-0.03860259,-0.6409223,0.07540283,0.115759276,-0.28674316,99.0
32440,0.06678492,-0.7791976,-0.9151915,0.07540283,0.115759276,-0.28674316,99.0
32441,0.06678492,-0.7791976,-0.9151915,-0.0541626,0.045666505,0.0010620117,99.0
32442,-0.4493431,-1.1934386,-0.25988758,-0.0541626,0.045666505,0.0010620117,99.0
32443,-0.4493431,-1.1934386,-0.25988758,-0.1709839,0.16567384,0.0361084,99.0
32444,-0.8125018,-0.4896996,0.23396003,-0.1709839,0.16567384,0.0361084,99.0
32445,-0.8125018,-0.4896996,0.23396003,-0.3355957,0.2516968,-0.07434082,99.0
32446,-0.88192284,0.6654669,-0.02942133,-0.3355957,0.2516968,-0.07434082,99.0
32447,-0.88192284,0.6654669,-0.02942133,-0.4800293,0.22302246,-0.23258057,99.0
32448,-0.5349939,1.0362921,-0.29309273,-0.4800293,0.22302246,-0.23258057,99.0
32449,-0.5349939,1.0362921,-0.29309273,-0.32285157,0.10513916,-0.25594482,99.0
32450,0.047151446,0.4838066,-0.2053116,-0.32285157,0.10513916,-0.25594482,99.0
32451,0.047151446,0.4838066,-0.2053116,0.04460449,-0.046728518,-0.14655761,99.0
32452,0.61646867,-0.3310578,0.02398312,0.04460449,-0.046728518,-0.14655761,99.0
32453,0.61646867,-0.3310578,0.02398312,0.20072022,-0.12531738,0.033984374,99.0
32454,0.87761104,-0.78792965,0.20180368,0.20072022,-0.12531738,0.033984374,99.0
32455,0.87761104,-0.78792965,0.20180368,0.124255374,-0.08071289,0.08814698,99.0
32456,0.5914078,-0.669394,0.2879566,0.124255374,-0.08071289,0.08814698,99.0
32457,0.5914078,-0.669394,0.2879566,0.09239502,0.029736329,0.060534667,99.0
32458,-0.054400682,0.009406686,0.16709626,0.09239502,0.029736329,0.060534667,99.0
32459,-0.054400682,0.009406686,0.16709626,-0.052038576,0.11044922,-0.038232423,99.0
32460,-0.55666757,0.6871884,-0.0706687,-0.052038576,0.11044922,-0.038232423,99.0
32461,-0.55666757,0.6871884,-0.0706687,-0.33028564,0.10513916,-0.12000733,99.0
32462,-0.71667194,0.59979963,-0.17017019,-0.33028564,0.10513916,-0.12000733,99.0
32463,-0.71667194,0.59979963,-0.17017019,-0.15611573,0.015930176,-0.09451904,99.0
32464,-0.54064715,0.122051716,-0.24398524,-0.15611573,0.015930176,-0.09451904,99.0
32465,-0.54064715,0.122051716,-0.24398524,0.04248047,-0.121069334,-0.04991455,99.0
32466,-0.0782696,-0.2634914,-0.21376729,0.04248047,-0.121069334,-0.04991455,99.0
32467,-0.0782696,-0.2634914,-0.21376729,0.10620117,-0.1720459,-0.059472658,99.0
32468,0.39043617,-0.486843,0.19597834,0.10620117,-0.1720459,-0.059472658,99.0
32469,0.39043617,-0.486843,0.19597834,0.22302246,-0.093457036,0.029736329,99.0
32470,0.46337426,-0.33802176,0.65019083,0.22302246,-0.093457036,0.029736329,99.0
32471,0.46337426,-0.33802176,0.65019083,0.21877442,0.06159668,0.0,99.0
32472,0.19992304,0.17240477,0.5807606,0.21877442,0.06159668,0.0,99.0
32473,0.19992304,0.17240477,0.5807606,-0.14549561,0.18797608,-0.03717041,99.0
32474,-0.07226372,0.42038226,0.0698086,-0.14549561,0.18797608,-0.03717041,99.0
32475,-0.07226372,0.42038226,0.0698086,-0.19222413,0.16567384,-0.046728518,99.0
32476,-0.23980558,0.27680874,-0.4044559,-0.19222413,0.16567384,-0.046728518,99.0
32477,-0.23980558,0.27680874,-0.4044559,-0.013806152,0.04460449,-0.013806152,99.0
32478,-0.2454089,0.1884147,-0.6465628,-0.013806152,0.04460449,-0.013806152,99.0
32479,-0.2454089,0.1884147,-0.6465628,0.02442627,-0.10195313,-0.04885254,99.0
32480,-0.11300194,0.10473561,-0.5250994,0.02442627,-0.10195313,-0.04885254,99.0
32481,-0.11300194,0.10473561,-0.5250994,0.05628662,-0.20603028,-0.0541626,99.0
32482,0.12934947,-0.14404345,0.059083104,0.05628662,-0.20603028,-0.0541626,99.0
32483,0.12934947,-0.14404345,0.059083104,0.1263794,-0.12850343,-0.07752686,99.0
32484,0.24827945,-0.23094523,0.70593345,0.1263794,-0.12850343,-0.07752686,99.0
32485,0.24827945,-0.23094523,0.70593345,0.06796875,0.029736329,-0.093457036,99.0
32486,0.1028595,0.009067059,0.78719556,0.06796875,0.029736329,-0.093457036,99.0
32487,0.1028595,0.009067059,0.78719556,-0.15080567,0.17416993,-0.10938721,99.0
32488,-0.0094970465,0.23977315,0.41568172,-0.15080567,0.17416993,-0.10938721,99.0
32489,-0.0094970465,0.23977315,0.41568172,-0.31329346,0.2347046,-0.15080567,99.0
32490,-0.03540528,0.43634987,-0.014671445,-0.31329346,0.2347046,-0.15080567,99.0
32491,-0.03540528,0.43634987,-0.014671445,-0.42055663,0.21452637,-0.1731079,99.0
32492,-0.090335965,0.63247824,-0.31107795,-0.42055663,0.21452637,-0.1731079,99.0
32493,-0.090335965,0.63247824,-0.31107795,-0.61065674,0.14124756,-0.24744873,99.0
32494,-0.090335965,0.63247824,-0.31107795,-0.61065674,0.14124756,-0.24744873,100.0
32495,-0.14857483,0.6507335,-0.23378664,-0.61065674,0.14124756,-0.24744873,100.0
32496,-0.14857483,0.6507335,-0.23378664,-0.8973999,0.107263185,-0.2347046,100.0
32497,-0.059887648,0.44882154,0.28837347,-0.8973999,0.107263185,-0.2347046,100.0
32498,-0.059887648,0.44882154,0.28837347,-1.2871583,0.26975098,-0.35152587,100.0
32499,0.17019296,0.41191363,0.9960797,-1.2871583,0.26975098,-0.35152587,100.0
32500,0.17019296,0.41191363,0.9960797,-1.8733886,0.50445557,-0.39188233,100.0
32501,0.26198447,0.7970114,1.2377452,-1.8733886,0.50445557,-0.39188233,100.0
32502,0.26198447,0.7970114,1.2377452,-2.7516725,0.74871826,-0.47365722,100.0
32503,0.18726087,1.2750726,0.8156843,-2.7516725,0.74871826,-0.47365722,100.0
32504,0.18726087,1.2750726,0.8156843,-3.987854,0.9197022,-0.5734863,100.0
32505,0.09001863,1.0037007,0.22680283,-3.987854,0.9197022,-0.5734863,100.0
32506,0.09001863,1.0037007,0.22680283,-4.873572,1.0535157,-0.4980835,100.0
32507,-0.04685712,-0.31777906,-0.06297922,-4.873572,1.0535157,-0.4980835,100.0
32508,-0.04685712,-0.31777906,-0.06297922,-4.9829593,1.1629028,-0.37595215,100.0
32509,-0.23731482,-1.6991694,0.024262667,-4.9829593,1.1629028,-0.37595215,100.0
32510,-0.23731482,-1.6991694,0.024262667,-4.14928,1.1692749,-0.35789797,100.0
32511,-0.30065513,-2.1655977,-0.052196264,-4.14928,1.1692749,-0.35789797,100.0
32512,-0.30065513,-2.1655977,-0.052196264,-3.0299194,1.0545777,-0.29948732,100.0
32513,-0.19782388,-1.7249221,-0.5691862,-3.0299194,1.0545777,-0.29948732,100.0
32514,-0.19782388,-1.7249221,-0.5691862,-1.897815,0.8814697,-0.2803711,100.0
32515,-0.10459697,-1.0714049,-1.1111839,-1.897815,0.8814697,-0.2803711,100.0
32516,-0.10459697,-1.0714049,-1.1111839,-0.9866089,0.6669434,-0.26656494,100.0
32517,-0.11733234,-0.7359203,-1.2406927,-0.9866089,0.6669434,-0.26656494,100.0
32518,-0.11733234,-0.7359203,-1.2406927,-0.43754885,0.4725952,-0.2347046,100.0
32519,-0.20127559,-0.75400734,-0.96178025,-0.43754885,0.4725952,-0.2347046,100.0
32520,-0.20127559,-0.75400734,-0.96178025,-0.11469727,0.31223145,-0.19328614,100.0
32521,-0.29070807,-0.82653356,-0.59680456,-0.11469727,0.31223145,-0.19328614,100.0
32522,-0.29070807,-0.82653356,-0.59680456,0.03717041,0.15080567,-0.14655761,100.0
32523,-0.3123027,-0.69047487,-0.3424583,0.03717041,0.15080567,-0.14655761,100.0
32524,-0.3123027,-0.69047487,-0.3424583,0.045666505,0.04248047,-0.10301514,100.0
32525,-0.2884531,-0.40522414,-0.15382504,0.045666505,0.04248047,-0.10301514,100.0
32526,-0.2884531,-0.40522414,-0.15382504,0.21346436,-0.070092775,-0.06584473,100.0
32527,-0.23248374,-0.2177096,0.03802395,0.21346436,-0.070092775,-0.06584473,100.0
32528,-0.23248374,-0.2177096,0.03802395,0.36002198,-0.12850343,-0.012744141,100.0
32529,-0.11336732,-0.16117942,0.2726189,0.36002198,-0.12850343,-0.012744141,100.0
32530,-0.11336732,-0.16117942,0.2726189,0.5968506,-0.16248779,0.008496094,100.0
32531,0.046940446,-0.036939144,0.5531415,0.5968506,-0.16248779,0.008496094,100.0
32532,0.046940446,-0.036939144,0.5531415,0.6690674,-0.16248779,0.038232423,100.0
32533,0.1663487,0.16554147,0.75451267,0.6690674,-0.16248779,0.038232423,100.0
32534,0.1663487,0.16554147,0.75451267,0.5479981,-0.13806152,0.07965088,100.0
32535,0.18312776,0.30956936,0.6885588,0.5479981,-0.13806152,0.07965088,100.0
32536,0.18312776,0.30956936,0.6885588,0.40462646,-0.118945315,0.10620117,100.0
32537,0.13439274,0.2748283,0.35317862,0.40462646,-0.118945315,0.10620117,100.0
32538,0.13439274,0.2748283,0.35317862,0.3982544,-0.11363526,0.1178833,100.0
32539,0.07619095,0.08889341,-0.02008164,0.3982544,-0.11363526,0.1178833,100.0
32540,0.07619095,0.08889341,-0.02008164,0.53737795,-0.16036378,0.14549561,100.0
32541,0.012271166,-0.111673355,-0.24007654,0.53737795,-0.16036378,0.14549561,100.0
32542,0.012271166,-0.111673355,-0.24007654,0.89102787,-0.24107666,0.20072022,100.0
32543,-0.07301998,-0.16367948,-0.310506,0.89102787,-0.24107666,0.20072022,100.0
32544,-0.07301998,-0.16367948,-0.310506,1.1522827,-0.29630128,0.24001466,100.0
32545,1.3480415,-0.60413694,-0.8049722,1.1522827,-0.29630128,0.24001466,100.0
32546,1.3480415,-0.60413694,-0.8049722,1.3381348,-0.33771974,0.24638672,100.0
32547,1.0225983,-0.40990865,-0.7101765,1.3381348,-0.33771974,0.24638672,100.0
32548,1.0225983,-0.40990865,-0.7101765,1.4390259,-0.40462646,0.25063476,100.0
32549,0.8546631,-0.2485202,-0.5709855,1.4390259,-0.40462646,0.25063476,100.0
32550,0.8546631,-0.2485202,-0.5709855,1.6609863,-0.46834716,0.25594482,100.0
32551,0.71911865,-0.16579613,-0.4409925,1.6609863,-0.46834716,0.25594482,100.0
32552,0.71911865,-0.16579613,-0.4409925,1.905249,-0.57561034,0.25700685,100.0
32553,0.51842237,-0.14037615,-0.4503526,1.905249,-0.57561034,0.25700685,100.0
32554,0.51842237,-0.14037615,-0.4503526,2.0964112,-0.6775635,0.24320069,100.0
32555,0.3352335,-0.31881946,-0.42952037,2.0964112,-0.6775635,0.24320069,100.0
32556,0.3352335,-0.31881946,-0.42952037,2.360852,-0.7423462,0.1709839,100.0
32557,0.318492,-0.46093935,-0.15177059,2.360852,-0.7423462,0.1709839,100.0
32558,0.318492,-0.46093935,-0.15177059,2.5530763,-0.75721437,0.14974366,100.0
32559,0.5195519,0.0968491,0.2365303,2.5530763,-0.75721437,0.14974366,100.0
32560,0.5195519,0.0968491,0.2365303,2.0316284,-0.62977296,0.09133301,100.0
32561,0.9287275,0.86598027,1.0130646,2.0316284,-0.62977296,0.09133301,100.0
32562,0.9287275,0.86598027,1.0130646,0.8878418,-0.17947999,0.19647217,100.0
32563,0.9358775,0.702855,1.6634791,0.8878418,-0.17947999,0.19647217,100.0
32564,0.9358775,0.702855,1.6634791,0.90802,0.016992187,0.19222413,100.0
32565,0.39073083,0.5153968,0.850937,0.90802,0.016992187,0.19222413,100.0
32566,0.39073083,0.5153968,0.850937,0.7104859,0.08071289,0.19647217,100.0
32567,-0.10971759,0.81413627,-0.6265502,0.7104859,0.08071289,0.19647217,100.0
32568,-0.10971759,0.81413627,-0.6265502,0.5065796,-0.025488282,0.118945315,100.0
32569,-0.31762028,0.692166,-1.0332104,0.5065796,-0.025488282,0.118945315,100.0
32570,-0.31762028,0.692166,-1.0332104,0.37489015,-0.083898924,0.03079834,100.0
32571,-0.31503373,0.070859194,-0.82108736,0.37489015,-0.083898924,0.03079834,100.0
32572,-0.31503373,0.070859194,-0.82108736,0.5012695,-0.26337892,0.052038576,100.0
32573,-0.08968567,-0.26446736,-0.8464085,0.5012695,-0.26337892,0.052038576,100.0
32574,-0.08968567,-0.26446736,-0.8464085,0.36639404,-0.35683593,-0.03079834,100.0
32575,0.37042677,-0.44519204,-0.28207064,0.36639404,-0.35683593,-0.03079834,100.0
32576,0.37042677,-0.44519204,-0.28207064,0.4078125,-0.2347046,0.023364259,100.0
32577,0.5996007,-0.8857923,0.7998196,0.4078125,-0.2347046,0.023364259,100.0
32578,0.5996007,-0.8857923,0.7998196,0.5734863,-0.04885254,0.053100586,100.0
32579,0.3118339,-0.7052525,0.85941136,0.5734863,-0.04885254,0.053100586,100.0
32580,0.3118339,-0.7052525,0.85941136,0.4322388,0.0541626,0.058410645,100.0
32581,-0.1790241,0.140046,-0.0065016747,0.4322388,0.0541626,0.058410645,100.0
32582,-0.1790241,0.140046,-0.0065016747,0.25063476,0.009558106,0.06265869,100.0
32583,-0.45062897,0.6059211,-0.5506969,0.25063476,0.009558106,0.06265869,100.0
32584,-0.45062897,0.6059211,-0.5506969,0.19116211,-0.09133301,0.0361084,100.0
32585,-0.371636,0.41372854,-0.52225924,0.19116211,-0.09133301,0.0361084,100.0
32586,-0.371636,0.41372854,-0.52225924,0.25700685,-0.18585205,0.07646485,100.0
32587,-0.371636,0.41372854,-0.52225924,0.25700685,-0.18585205,0.07646485,100.0
32588,-0.082111046,0.04537487,-0.32740209,0.25700685,-0.18585205,0.07646485,100.0
32589,-0.082111046,0.04537487,-0.32740209,0.29311523,-0.23045655,0.028674318,100.0
32590,0.25912806,-0.19352186,0.15648654,0.29311523,-0.23045655,0.028674318,100.0
32591,0.25912806,-0.19352186,0.15648654,0.35046387,-0.124255374,-0.0010620117,100.0
32592,0.42340353,-0.21393609,0.75457156,0.35046387,-0.124255374,-0.0010620117,100.0
32593,0.42340353,-0.21393609,0.75457156,0.22727051,0.032922365,0.0031860352,100.0
32594,0.31345427,0.0042051077,0.6154859,0.22727051,0.032922365,0.0031860352,100.0
32595,0.31345427,0.0042051077,0.6154859,0.04885254,0.11363526,0.022302246,100.0
32596,0.07533616,0.1987254,-0.1372621,0.04885254,0.11363526,0.022302246,100.0
32597,0.07533616,0.1987254,-0.1372621,-0.03186035,0.081774905,-0.011682129,100.0
32598,-0.16668418,0.14713949,-0.5005323,-0.03186035,0.081774905,-0.011682129,100.0
32599,-0.16668418,0.14713949,-0.5005323,0.1083252,-0.004248047,-0.021240234,100.0
32600,-0.32686543,0.07740396,-0.37480333,0.1083252,-0.004248047,-0.021240234,100.0
32601,-0.32686543,0.07740396,-0.37480333,0.12319336,-0.06584473,-0.0010620117,100.0
32602,-0.34308413,0.10976255,-0.3406752,0.12319336,-0.06584473,-0.0010620117,100.0
32603,-0.34308413,0.10976255,-0.3406752,0.007434082,-0.15186767,0.010620117,100.0
32604,-0.1407637,-0.032502413,-0.35759875,0.007434082,-0.15186767,0.010620117,100.0
32605,-0.1407637,-0.032502413,-0.35759875,0.14974366,-0.20284425,-0.039294433,100.0
32606,0.23200575,-0.46001077,0.1200245,0.14974366,-0.20284425,-0.039294433,100.0
32607,0.23200575,-0.46001077,0.1200245,0.3462158,-0.10407715,-0.007434082,100.0
32608,0.39467442,-0.6427889,0.6922476,0.3462158,-0.10407715,-0.007434082,100.0
32609,0.39467442,-0.6427889,0.6922476,0.24957275,0.046728518,0.050976563,100.0
32610,0.14282694,-0.24050063,0.4226702,0.24957275,0.046728518,0.050976563,100.0
32611,0.14282694,-0.24050063,0.4226702,0.24107666,0.043542482,0.07965088,100.0
32612,-0.14214714,0.31367862,-0.35455185,0.24107666,0.043542482,0.07965088,100.0
32613,-0.14214714,0.31367862,-0.35455185,0.10195313,-0.004248047,0.027612304,100.0
32614,-0.21060492,0.42596734,-0.6071156,0.10195313,-0.004248047,0.027612304,100.0
32615,-0.21060492,0.42596734,-0.6071156,0.12319336,-0.06478272,0.02442627,100.0
32616,-0.15099126,0.18355948,-0.24326086,0.12319336,-0.06478272,0.02442627,100.0
32617,-0.15099126,0.18355948,-0.24326086,0.22196046,-0.11151123,0.0021240234,100.0
32618,-0.025419474,-0.005764723,0.113069534,0.22196046,-0.11151123,0.0021240234,100.0
32619,-0.025419474,-0.005764723,0.113069534,0.118945315,-0.14124756,0.04460449,100.0
32620,0.16418591,-0.11025143,0.14799958,0.118945315,-0.14124756,0.04460449,100.0
32621,0.16418591,-0.11025143,0.14799958,0.032922365,-0.13699952,0.0541626,100.0
32622,0.2627452,-0.22711718,0.093118906,0.032922365,-0.13699952,0.0541626,100.0
32623,0.2627452,-0.22711718,0.093118906,0.118945315,-0.11151123,0.11257324,100.0
32624,0.15797451,-0.39344913,0.08344287,0.118945315,-0.11151123,0.11257324,100.0
32625,0.15797451,-0.39344913,0.08344287,0.26762697,-0.07646485,0.12850343,100.0
32626,0.0012941658,-0.58053076,-0.1432921,0.26762697,-0.07646485,0.12850343,100.0
32627,0.0012941658,-0.58053076,-0.1432921,0.44710693,-0.118945315,0.24001466,100.0
32628,-0.05237043,-0.704183,-0.4372411,0.44710693,-0.118945315,0.24001466,100.0
32629,-0.05237043,-0.704183,-0.4372411,0.6064087,-0.1985962,0.3440918,100.0
32630,0.040818512,-0.6799479,-0.28408244,0.6064087,-0.1985962,0.3440918,100.0
32631,0.040818512,-0.6799479,-0.28408244,0.6149048,-0.19222413,0.52250975,100.0
32632,0.097132355,-0.62606287,-0.03507845,0.6149048,-0.19222413,0.52250975,100.0
32633,0.097132355,-0.62606287,-0.03507845,0.5564942,-0.2177124,0.74871826,100.0
32634,-0.03937176,-0.4656574,-0.2709949,0.5564942,-0.2177124,0.74871826,100.0
32635,-0.03937176,-0.4656574,-0.2709949,0.3993164,-0.32072756,0.903772,100.0
32636,-0.17721273,-0.060306698,-0.4871084,0.3993164,-0.32072756,0.903772,100.0
32637,-0.17721273,-0.060306698,-0.4871084,0.42268068,-0.44816896,1.0184692,100.0
32638,-0.17438738,0.56197196,-0.21141526,0.42268068,-0.44816896,1.0184692,100.0
32639,-0.17438738,0.56197196,-0.21141526,0.32816163,-0.43754885,1.0078491,100.0
32640,-0.23273501,0.99260736,0.20905383,0.32816163,-0.43754885,1.0078491,100.0
32641,-0.23273501,0.99260736,0.20905383,0.20072022,-0.40993652,0.8602295,100.0
32642,-0.27083158,0.8788027,0.25899112,0.20072022,-0.40993652,0.8602295,100.0
32643,-0.27083158,0.8788027,0.25899112,0.090270996,-0.4067505,0.77951664,100.0
32644,-0.17887229,0.7085964,0.20798635,0.090270996,-0.4067505,0.77951664,100.0
32645,-0.17887229,0.7085964,0.20798635,0.093457036,-0.45135498,0.55968016,100.0
32646,-0.0069650207,0.73375946,0.24340326,0.093457036,-0.45135498,0.55968016,100.0
32647,-0.0069650207,0.73375946,0.24340326,0.08814698,-0.41099855,0.43011475,100.0
32648,0.5910344,1.4420247,0.76975924,0.08814698,-0.41099855,0.43011475,100.0
32649,0.5910344,1.4420247,0.76975924,0.10407715,-0.25700685,0.21134034,100.0
32650,0.5686772,1.288178,0.74207693,0.10407715,-0.25700685,0.21134034,100.0
32651,0.5686772,1.288178,0.74207693,0.11682129,-0.22089843,0.16673584,100.0
32652,0.5037821,0.5934696,0.5407685,0.11682129,-0.22089843,0.16673584,100.0
32653,0.5037821,0.5934696,0.5407685,0.11151123,-0.13487549,0.17841797,100.0
32654,0.32126296,0.16137242,0.26247323,0.11151123,-0.13487549,0.17841797,100.0
32655,0.32126296,0.16137242,0.26247323,0.1178833,-0.118945315,0.15080567,100.0
32656,-0.07265273,-0.35220087,-0.44809026,0.1178833,-0.118945315,0.15080567,100.0
32657,-0.07265273,-0.35220087,-0.44809026,0.15930176,-0.124255374,0.07752686,100.0
32658,-0.16237023,-0.39983928,-0.5116338,0.15930176,-0.124255374,0.07752686,100.0
32659,-0.16237023,-0.39983928,-0.5116338,0.15611573,-0.13806152,0.070092775,100.0
32660,-0.33359495,-0.6010238,-0.26296917,0.15611573,-0.13806152,0.070092775,100.0
32661,-0.33359495,-0.6010238,-0.26296917,0.1444336,-0.098767094,-0.02442627,100.0
32662,-0.28346533,-0.5373498,-0.069664896,0.1444336,-0.098767094,-0.02442627,100.0
32663,-0.28346533,-0.5373498,-0.069664896,0.06584473,-0.050976563,-0.039294433,100.0
32664,0.057590544,-0.63261425,0.056438506,0.06584473,-0.050976563,-0.039294433,100.0
32665,0.057590544,-0.63261425,0.056438506,-0.16461182,-0.0010620117,-0.035046387,100.0
32666,0.1418488,-0.579297,-0.0045318305,-0.16461182,-0.0010620117,-0.035046387,100.0
32667,0.1418488,-0.579297,-0.0045318305,-0.16248779,-0.0053100586,-0.021240234,100.0
32668,0.16157475,-0.54157484,-0.09234619,-0.16248779,-0.0053100586,-0.021240234,100.0
32669,0.16157475,-0.54157484,-0.09234619,-0.08283692,-0.025488282,0.028674318,100.0
32670,0.0014888048,-0.14779842,-0.05092776,-0.08283692,-0.025488282,0.028674318,100.0
32671,0.0014888048,-0.14779842,-0.05092776,-0.021240234,-0.03079834,-0.02442627,100.0
32672,-0.13507605,0.2590562,0.023564428,-0.021240234,-0.03079834,-0.02442627,100.0
32673,-0.13507605,0.2590562,0.023564428,-0.07434082,-0.014868164,-0.010620117,100.0
32674,-0.22999689,0.19959116,-0.01658547,-0.07434082,-0.014868164,-0.010620117,100.0
32675,-0.22999689,0.19959116,-0.01658547,-0.020178223,-0.07434082,0.06478272,100.0
32676,-0.23735446,0.06948739,-0.054467082,-0.020178223,-0.07434082,0.06478272,100.0
32677,-0.23735446,0.06948739,-0.054467082,-0.052038576,-0.06159668,0.021240234,100.0
32678,-0.09006667,0.08250642,0.059710026,-0.052038576,-0.06159668,0.021240234,100.0
32679,-0.09006667,0.08250642,0.059710026,-0.09664307,-0.025488282,0.004248047,100.0
32680,-0.09006667,0.08250642,0.059710026,-0.09664307,-0.025488282,0.004248047,100.0
32681,0.044291884,0.10321212,0.08914986,-0.09664307,-0.025488282,0.004248047,100.0
32682,0.044291884,0.10321212,0.08914986,-0.11151123,-0.007434082,-0.04885254,100.0
32683,0.026229396,-0.05757928,-0.11825532,-0.11151123,-0.007434082,-0.04885254,100.0
32684,0.026229396,-0.05757928,-0.11825532,-0.06690674,-0.032922365,-0.022302246,100.0
32685,-0.015747443,-0.3760317,-0.21403784,-0.06690674,-0.032922365,-0.022302246,100.0
32686,-0.015747443,-0.3760317,-0.21403784,0.14124756,-0.08496094,0.052038576,100.0
32687,0.04311493,-0.4325881,-0.021193653,0.14124756,-0.08496094,0.052038576,100.0
32688,0.04311493,-0.4325881,-0.021193653,0.11682129,-0.04460449,0.08814698,100.0
32689,0.095002204,-0.22851682,0.044141263,0.11682129,-0.04460449,0.08814698,100.0
32690,0.095002204,-0.22851682,0.044141263,0.23789063,-0.047790527,0.11682129,100.0
32691,0.060511053,-0.23514503,-0.15822947,0.23789063,-0.047790527,0.11682129,100.0
32692,0.060511053,-0.23514503,-0.15822947,0.12000733,-0.07752686,0.08602295,100.0
32693,0.0038043559,-0.48119465,-0.20519687,0.12000733,-0.07752686,0.08602295,100.0
32694,0.0038043559,-0.48119465,-0.20519687,0.12850343,-0.07327881,0.13699952,100.0
32695,0.0619058,-0.27479947,-0.06587869,0.12850343,-0.07327881,0.13699952,100.0
32696,0.0619058,-0.27479947,-0.06587869,-0.004248047,0.0063720704,0.1529297,100.0
32697,0.24637523,0.20910329,-0.07792267,-0.004248047,0.0063720704,0.1529297,100.0
32698,0.24637523,0.20910329,-0.07792267,0.027612304,-0.0031860352,0.098767094,100.0
32699,0.3802423,0.36060536,-0.11477955,0.027612304,-0.0031860352,0.098767094,100.0
32700,0.3802423,0.36060536,-0.11477955,0.04248047,-0.011682129,0.09239502,100.0
32701,0.30022657,0.27447063,-0.022219136,0.04248047,-0.011682129,0.09239502,100.0
32702,0.30022657,0.27447063,-0.022219136,0.04248047,-0.019116212,0.05522461,100.0
32703,0.022761822,0.15680796,0.07382625,0.04248047,-0.019116212,0.05522461,100.0
32704,0.022761822,0.15680796,0.07382625,-0.019116212,-0.0180542,0.06690674,100.0
32705,-0.22517434,0.09378135,0.095816374,-0.019116212,-0.0180542,0.06690674,100.0
32706,-0.22517434,0.09378135,0.095816374,-0.0722168,0.0021240234,0.0361084,100.0
32707,-0.349805,0.006018758,0.048723415,-0.0722168,0.0021240234,0.0361084,100.0
32708,-0.349805,0.006018758,0.048723415,-0.06265869,-0.0063720704,0.050976563,100.0
32709,-0.39477322,-0.12171084,-0.039109647,-0.06265869,-0.0063720704,0.050976563,100.0
32710,-0.39477322,-0.12171084,-0.039109647,-0.07327881,-0.022302246,0.04248047,100.0
32711,-0.43194407,-0.121599615,-0.051221803,-0.07327881,-0.022302246,0.04248047,100.0
32712,-0.43194407,-0.121599615,-0.051221803,-0.08496094,-0.025488282,0.046728518,100.0
32713,-0.42193466,-0.019105852,0.028016686,-0.08496094,-0.025488282,0.046728518,100.0
32714,-0.42193466,-0.019105852,0.028016686,-0.008496094,-0.045666505,0.047790527,100.0
32715,-0.27363172,0.061778307,0.16413698,-0.008496094,-0.045666505,0.047790527,100.0
32716,-0.27363172,0.061778307,0.16413698,-0.03079834,-0.022302246,0.04991455,100.0
32717,-0.09948399,0.082772255,0.15258643,-0.03079834,-0.022302246,0.04991455,100.0
32718,-0.09948399,0.082772255,0.15258643,-0.16779785,-0.0063720704,0.050976563,100.0
32719,0.026870327,-0.01946336,0.0018054545,-0.16779785,-0.0063720704,0.050976563,100.0
32720,0.026870327,-0.01946336,0.0018054545,-0.09770508,-0.11469727,-0.11363526,100.0
32721,0.15241668,-0.057819247,-0.09510106,-0.09770508,-0.11469727,-0.11363526,100.0
32722,0.15241668,-0.057819247,-0.09510106,-0.1731079,-0.21134034,-0.33134767,100.0
32723,0.1944309,0.061923325,-0.1162786,-0.1731079,-0.21134034,-0.33134767,100.0
32724,0.1944309,0.061923325,-0.1162786,-0.23258057,-0.25806886,-0.46516114,100.0
32725,0.21250273,0.08961433,0.039093822,-0.23258057,-0.25806886,-0.46516114,100.0
32726,0.21250273,0.08961433,0.039093822,-0.41206056,-0.18160401,-0.4885254,100.0
32727,0.2427805,0.052807212,0.28631657,-0.41206056,-0.18160401,-0.4885254,100.0
32728,0.2427805,0.052807212,0.28631657,-0.57561034,-0.06584473,-0.29736328,100.0
32729,0.20527177,0.03477508,0.29310358,-0.57561034,-0.06584473,-0.29736328,100.0
32730,0.20527177,0.03477508,0.29310358,-0.5883545,-0.007434082,-0.17416993,100.0
32731,0.031758904,-0.009142816,0.16703904,-0.5883545,-0.007434082,-0.17416993,100.0
32732,0.031758904,-0.009142816,0.16703904,-0.62340087,0.012744141,-0.027612304,100.0
32733,-0.18824035,-0.049880207,0.09189537,-0.62340087,0.012744141,-0.027612304,100.0
32734,-0.18824035,-0.049880207,0.09189537,-0.64570314,-0.011682129,0.13699952,100.0
32735,-0.30319238,-0.032494485,-0.086334795,-0.64570314,-0.011682129,0.13699952,100.0
32736,-0.30319238,-0.032494485,-0.086334795,-0.6053467,0.0,0.21134034,100.0
32737,-0.25529805,-0.09292674,-0.1268315,-0.6053467,0.0,0.21134034,100.0
32738,-0.25529805,-0.09292674,-0.1268315,-0.34833986,0.047790527,0.27293703,100.0
32739,-0.21931413,-0.14755917,-0.06578404,-0.34833986,0.047790527,0.27293703,100.0
32740,-0.21931413,-0.14755917,-0.06578404,-0.1996582,0.118945315,0.40037844,100.0
32741,-0.2869137,-0.24384078,-0.40422636,-0.1996582,0.118945315,0.40037844,100.0
32742,-0.2869137,-0.24384078,-0.40422636,0.12319336,0.0010620117,0.33771974,100.0
32743,0.0040994063,-0.2587201,-0.6853806,0.12319336,0.0010620117,0.33771974,100.0
32744,0.0040994063,-0.2587201,-0.6853806,0.18479005,-0.08814698,0.13275146,100.0
32745,0.76591384,-0.18838477,-0.36438116,0.18479005,-0.08814698,0.13275146,100.0
32746,0.76591384,-0.18838477,-0.36438116,0.4991455,-0.17523193,0.014868164,100.0
32747,1.3906852,0.14086935,0.42737937,0.4991455,-0.17523193,0.014868164,100.0
32748,1.3906852,0.14086935,0.42737937,-0.08071289,0.14337158,0.30161133,100.0
32749,1.2375604,0.62249774,0.5672331,-0.08071289,0.14337158,0.30161133,100.0
32750,1.2375604,0.62249774,0.5672331,-0.4885254,0.29311523,0.26125488,100.0
32751,0.562497,0.67756367,-0.30610123,-0.4885254,0.29311523,0.26125488,100.0
32752,0.562497,0.67756367,-0.30610123,-0.19116211,0.10195313,0.09664307,100.0
32753,0.014853597,0.39125746,-0.9268512,-0.19116211,0.10195313,0.09664307,100.0
32754,0.014853597,0.39125746,-0.9268512,0.008496094,0.03079834,0.0637207,100.0
32755,-0.20130074,-0.20850283,-0.40304103,0.008496094,0.03079834,0.0637207,100.0
32756,-0.20130074,-0.20850283,-0.40304103,0.13806152,0.12000733,0.2166504,100.0
32757,-0.16611874,-0.89778376,0.6775672,0.13806152,0.12000733,0.2166504,100.0
32758,-0.16611874,-0.89778376,0.6775672,0.21134034,0.21877442,0.270813,100.0
32759,-0.06813669,-0.9539448,1.0078863,0.21134034,0.21877442,0.270813,100.0
32760,-0.06813669,-0.9539448,1.0078863,0.29205322,0.17947999,0.19541016,100.0
32761,0.075812936,-0.32426423,0.40965378,0.29205322,0.17947999,0.19541016,100.0
32762,0.075812936,-0.32426423,0.40965378,0.270813,0.095581055,0.05522461,100.0
32763,0.15448582,0.35255152,-0.2999015,0.270813,0.095581055,0.05522461,100.0
32764,0.15448582,0.35255152,-0.2999015,0.13381349,-0.026550293,-0.03717041,100.0
32765,0.0042649508,0.62676775,-0.5873699,0.13381349,-0.026550293,-0.03717041,100.0
32766,0.0042649508,0.62676775,-0.5873699,-0.11257324,-0.10620117,-0.016992187,100.0
32767,-0.42969352,0.5931501,-0.72315526,-0.11257324,-0.10620117,-0.016992187,100.0
32768,-0.42969352,0.5931501,-0.72315526,-0.23045655,-0.2166504,-0.09451904,100.0
32769,-1.0041919,0.43566507,-0.69370973,-0.23045655,-0.2166504,-0.09451904,100.0
32770,-1.0041919,0.43566507,-0.69370973,-0.14549561,-0.37382814,-0.21558838,100.0
32771,-1.34548,-0.11601877,0.5162114,-0.14549561,-0.37382814,-0.21558838,100.0
32772,-1.34548,-0.11601877,0.5162114,0.07434082,-0.21346436,-0.22833252,100.0
32773,-1.311821,-0.5825367,1.7112724,0.07434082,-0.21346436,-0.22833252,100.0
32774,-1.311821,-0.5825367,1.7112724,-0.32603762,0.078588866,-0.13381349,100.0
32775,-0.7128235,-0.47496492,0.97802675,-0.32603762,0.078588866,-0.13381349,100.0
32776,-0.7128235,-0.47496492,0.97802675,-0.17629395,0.1444336,-0.10301514,100.0
32777,0.19956544,-0.25238404,-0.26674855,-0.17629395,0.1444336,-0.10301514,100.0
32778,0.19956544,-0.25238404,-0.26674855,0.045666505,-0.016992187,-0.07965088,100.0
32779,0.5902676,-0.12107226,-0.58835,0.045666505,-0.016992187,-0.07965088,100.0
32780,0.5902676,-0.12107226,-0.58835,0.07965088,-0.07434082,-0.007434082,100.0
32781,0.46004367,-5.0771236E-4,-0.30216193,0.07965088,-0.07434082,-0.007434082,100.0
32782,0.46004367,-5.0771236E-4,-0.30216193,0.05522461,-0.05522461,0.0053100586,100.0
32783,0.2529837,0.13020906,0.013067812,0.05522461,-0.05522461,0.0053100586,100.0
32784,0.2529837,0.13020906,0.013067812,-0.015930176,0.0,-0.039294433,100.0
32785,0.20742846,0.3122117,0.09807634,-0.015930176,0.0,-0.039294433,100.0
32786,0.20742846,0.3122117,0.09807634,-0.15930176,0.057348635,-0.035046387,100.0
32787,0.18391152,0.2772596,-0.04425621,-0.15930176,0.057348635,-0.035046387,100.0
32788,0.18391152,0.2772596,-0.04425621,-0.19116211,0.035046387,-0.10620117,100.0
32789,0.18391152,0.2772596,-0.04425621,-0.19116211,0.035046387,-0.10620117,100.0
32790,0.1476419,0.13286728,-0.16821745,-0.19116211,0.035046387,-0.10620117,100.0
32791,0.1476419,0.13286728,-0.16821745,-0.23895264,0.0010620117,-0.15930176,100.0
32792,0.17096996,0.07195544,-0.1343176,-0.23895264,0.0010620117,-0.15930176,100.0
32793,0.17096996,0.07195544,-0.1343176,-0.24638672,0.008496094,-0.15505372,100.0
32794,0.19201279,-0.080240846,-0.064009264,-0.24638672,0.008496094,-0.15505372,100.0
32795,0.19201279,-0.080240846,-0.064009264,-0.13062744,0.023364259,-0.12850343,100.0
32796,0.13031921,-0.34066975,-0.12789199,-0.13062744,0.023364259,-0.12850343,100.0
32797,0.13031921,-0.34066975,-0.12789199,0.14124756,-0.004248047,-0.08814698,100.0
32798,-0.0222705,-0.38576823,-0.16096838,0.14124756,-0.004248047,-0.08814698,100.0
32799,-0.0222705,-0.38576823,-0.16096838,0.39506838,-0.052038576,-0.06159668,100.0
32800,-0.13471094,-0.05638069,0.102975786,0.39506838,-0.052038576,-0.06159668,100.0
32801,-0.13471094,-0.05638069,0.102975786,0.24532472,-0.0010620117,-0.1274414,100.0
32802,-0.18207295,0.27395064,0.27775416,0.24532472,-0.0010620117,-0.1274414,100.0
32803,-0.18207295,0.27395064,0.27775416,0.121069334,0.007434082,-0.1359375,100.0
32804,-0.2007487,0.23734897,0.097569525,0.121069334,0.007434082,-0.1359375,100.0
32805,-0.2007487,0.23734897,0.097569525,0.07965088,-0.026550293,-0.13381349,100.0
32806,-0.15397054,0.004368931,-0.12183452,0.07965088,-0.026550293,-0.13381349,100.0
32807,-0.15397054,0.004368931,-0.12183452,0.1274414,-0.06584473,-0.13487549,100.0
32808,-0.16455826,-0.3056479,-0.047809422,0.1274414,-0.06584473,-0.13487549,100.0
32809,-0.16455826,-0.3056479,-0.047809422,-0.18372802,-0.0361084,-0.08602295,100.0
32810,-0.08013295,-0.44260183,0.14816606,-0.18372802,-0.0361084,-0.08602295,100.0
32811,-0.08013295,-0.44260183,0.14816606,-0.14018555,0.03717041,-0.16036378,100.0
32812,0.15101816,-0.15123722,0.13686782,-0.14018555,0.03717041,-0.16036378,100.0
32813,0.15101816,-0.15123722,0.13686782,-0.10301514,0.07752686,-0.011682129,100.0
32814,0.24102937,0.35596335,-0.13514686,-0.10301514,0.07752686,-0.011682129,100.0
32815,0.24102937,0.35596335,-0.13514686,-0.09133301,0.023364259,-0.06159668,100.0
32816,0.23266724,0.7083303,-0.3996092,-0.09133301,0.023364259,-0.06159668,100.0
32817,0.23266724,0.7083303,-0.3996092,-0.26444092,-0.093457036,-0.17416993,100.0
32818,0.19220069,0.3377946,-0.103366554,-0.26444092,-0.093457036,-0.17416993,100.0
32819,0.19220069,0.3377946,-0.103366554,-0.33665773,-0.07540283,-0.0063720704,100.0
32820,0.084180474,-0.27563834,0.3156466,-0.33665773,-0.07540283,-0.0063720704,100.0
32821,0.084180474,-0.27563834,0.3156466,-0.2623169,-0.0180542,0.15505372,100.0
32822,0.044566065,-0.29411906,0.308926,-0.2623169,-0.0180542,0.15505372,100.0
32823,0.044566065,-0.29411906,0.308926,-0.47471926,0.10195313,0.13062744,100.0
32824,0.008553237,-0.1149095,0.03237027,-0.47471926,0.10195313,0.13062744,100.0
32825,0.008553237,-0.1149095,0.03237027,-0.39613038,0.081774905,0.19647217,100.0
32826,-0.14828438,0.06450552,-0.19246316,-0.39613038,0.081774905,0.19647217,100.0
32827,-0.14828438,0.06450552,-0.19246316,-0.35789797,0.028674318,0.07752686,100.0
32828,-0.27333942,0.20095742,-0.13025227,-0.35789797,0.028674318,0.07752686,100.0
32829,-0.27333942,0.20095742,-0.13025227,-0.47684327,0.011682129,-0.029736329,100.0
32830,-0.28212368,0.1251458,-0.023293614,-0.47684327,0.011682129,-0.029736329,100.0
32831,-0.28212368,0.1251458,-0.023293614,-0.4885254,-0.040356446,-0.19541016,100.0
32832,-0.094790764,-0.026824296,0.036943734,-0.4885254,-0.040356446,-0.19541016,100.0
32833,-0.094790764,-0.026824296,0.036943734,-0.38657227,0.008496094,-0.2166504,100.0
32834,0.19567618,-0.022069812,0.14809746,-0.38657227,0.008496094,-0.2166504,100.0
32835,0.19567618,-0.022069812,0.14809746,-0.64782715,0.093457036,-0.14230958,100.0
32836,0.29509073,0.021382213,0.025509208,-0.64782715,0.093457036,-0.14230958,100.0
32837,0.29509073,0.021382213,0.025509208,-0.540564,0.08496094,-0.07434082,100.0
32838,0.14917076,-0.09401482,-0.20902379,-0.540564,0.08496094,-0.07434082,100.0
32839,0.14917076,-0.09401482,-0.20902379,-0.27399904,0.02442627,-0.06903076,100.0
32840,-0.054442704,-0.22364938,-0.1822581,-0.27399904,0.02442627,-0.06903076,100.0
32841,-0.054442704,-0.22364938,-0.1822581,-0.2166504,-0.026550293,-0.06478272,100.0
32842,-0.121190876,-0.17609969,-0.06307943,-0.2166504,-0.026550293,-0.06478272,100.0
32843,-0.121190876,-0.17609969,-0.06307943,-0.14655761,-0.06903076,-0.0722168,100.0
32844,-0.046317935,-0.07575524,-0.06359832,-0.14655761,-0.06903076,-0.0722168,100.0
32845,-0.046317935,-0.07575524,-0.06359832,0.06584473,-0.078588866,-0.053100586,100.0
32846,0.034967124,-0.103817075,-0.04576391,0.06584473,-0.078588866,-0.053100586,100.0
32847,0.034967124,-0.103817075,-0.04576391,0.25913087,-0.050976563,0.008496094,100.0
32848,0.055573806,-0.11443794,0.08067402,0.25913087,-0.050976563,0.008496094,100.0
32849,0.055573806,-0.11443794,0.08067402,0.22302246,-0.0053100586,0.011682129,100.0
32850,0.027112842,-0.07785407,0.16195133,0.22302246,-0.0053100586,0.011682129,100.0
32851,0.027112842,-0.07785407,0.16195133,0.15611573,0.023364259,0.09664307,100.0
32852,-0.015297025,-0.016067445,0.10581839,0.15611573,0.023364259,0.09664307,100.0
32853,-0.015297025,-0.016067445,0.10581839,0.17416993,0.021240234,0.0637207,100.0
32854,-0.058783025,0.054980516,0.015733808,0.17416993,0.021240234,0.0637207,100.0
32855,-0.058783025,0.054980516,0.015733808,0.17416993,-0.008496094,0.07434082,100.0
32856,-0.10782963,-9.863079E-4,-0.040293813,0.17416993,-0.008496094,0.07434082,100.0
32857,-0.10782963,-9.863079E-4,-0.040293813,0.27718505,-0.028674318,0.033984374,100.0
32858,-0.12917143,-0.1460039,-0.09104854,0.27718505,-0.028674318,0.033984374,100.0
32859,-0.12917143,-0.1460039,-0.09104854,0.3993164,-0.0637207,-0.008496094,100.0
32860,-0.079325914,-0.20438859,-0.09053904,0.3993164,-0.0637207,-0.008496094,100.0
32861,-0.079325914,-0.20438859,-0.09053904,0.47578126,-0.070092775,-0.016992187,100.0
32862,0.021707714,-0.09239271,-0.023456618,0.47578126,-0.070092775,-0.016992187,100.0
32863,0.021707714,-0.09239271,-0.023456618,0.4428589,-0.07115479,0.0010620117,100.0
32864,0.07840133,0.062450588,0.042330906,0.4428589,-0.07115479,0.0010620117,100.0
32865,0.07840133,0.062450588,0.042330906,0.3706421,-0.06265869,0.032922365,100.0
32866,0.05370006,0.20812696,0.078933075,0.3706421,-0.06265869,0.032922365,100.0
32867,0.05370006,0.20812696,0.078933075,0.27293703,-0.04991455,0.025488282,100.0
32868,-0.015780196,0.23658213,0.08664501,0.27293703,-0.04991455,0.025488282,100.0
32869,-0.015780196,0.23658213,0.08664501,0.2081543,-0.050976563,0.022302246,100.0
32870,-0.04795131,0.11178768,0.05167684,0.2081543,-0.050976563,0.022302246,100.0
32871,-0.04795131,0.11178768,0.05167684,0.20603028,-0.046728518,0.021240234,100.0
32872,-0.011249244,0.029676706,0.0054405928,0.20603028,-0.046728518,0.021240234,100.0
32873,-0.011249244,0.029676706,0.0054405928,0.11682129,-0.039294433,-0.0021240234,100.0
32874,0.021005481,-0.04312873,-0.024651423,0.11682129,-0.039294433,-0.0021240234,100.0
32875,0.021005481,-0.04312873,-0.024651423,0.06265869,-0.04248047,-0.028674318,100.0
32876,6.1786175E-4,-0.046795487,-0.023334414,0.06265869,-0.04248047,-0.028674318,100.0
32877,6.1786175E-4,-0.046795487,-0.023334414,0.032922365,-0.011682129,-0.029736329,100.0
32878,-0.063751325,0.09278822,0.017782673,0.032922365,-0.011682129,-0.029736329,100.0
32879,-0.063751325,0.09278822,0.017782673,-0.070092775,0.0180542,-0.03717041,100.0
32880,-0.12756357,0.18037072,0.07363775,-0.070092775,0.0180542,-0.03717041,100.0
32881,-0.12756357,0.18037072,0.07363775,-0.17735596,0.0010620117,-0.13168946,100.0
32882,-0.11153571,0.13473845,0.16304839,-0.17735596,0.0010620117,-0.13168946,100.0
32883,-0.11153571,0.13473845,0.16304839,-0.3982544,-0.010620117,-0.23682861,100.0
32884,-0.04658941,0.08298606,0.19657642,-0.3982544,-0.010620117,-0.23682861,100.0
32885,-0.04658941,0.08298606,0.19657642,-0.6637573,-0.023364259,-0.3355957,100.0
32886,-0.019131884,0.13562715,0.16487831,-0.6637573,-0.023364259,-0.3355957,100.0
32887,-0.019131884,0.13562715,0.16487831,-0.81243896,0.013806152,-0.2984253,100.0
32888,0.02119352,0.222906,0.12877762,-0.81243896,0.013806152,-0.2984253,100.0
32889,0.02119352,0.222906,0.12877762,-1.0195312,0.057348635,-0.27612305,100.0
32890,0.12845384,-0.01297158,-0.08282995,-1.0195312,0.057348635,-0.27612305,100.0
32891,0.12845384,-0.01297158,-0.08282995,-0.9494385,0.07540283,-0.17947999,100.0
32892,0.21555604,-0.47976202,-0.3380413,-0.9494385,0.07540283,-0.17947999,100.0
32893,0.21555604,-0.47976202,-0.3380413,-0.36745605,0.070092775,-0.095581055,100.0
32894,0.21555604,-0.47976202,-0.3380413,-0.36745605,0.070092775,-0.095581055,100.0
32895,0.1810508,-0.31565776,-0.14024505,-0.36745605,0.070092775,-0.095581055,100.0
32896,0.1810508,-0.31565776,-0.14024505,-1.1257324,0.15186767,0.023364259,100.0
32897,0.13265803,0.047144204,-0.03177613,-1.1257324,0.15186767,0.023364259,100.0
32898,0.13265803,0.047144204,-0.03177613,-0.80181885,0.20390625,0.13699952,100.0
32899,0.045909137,-0.07775092,-0.35967383,-0.80181885,0.20390625,0.13699952,100.0
32900,0.045909137,-0.07775092,-0.35967383,-0.24851075,0.08071289,0.12956543,100.0
32901,-0.08678344,-0.24345073,-0.5332713,-0.24851075,0.08071289,0.12956543,100.0
32902,-0.08678344,-0.24345073,-0.5332713,0.050976563,-0.032922365,0.014868164,100.0
32903,-0.12006152,-0.23307845,-0.38301355,0.050976563,-0.032922365,0.014868164,100.0
32904,-0.12006152,-0.23307845,-0.38301355,0.1996582,-0.10407715,-0.03079834,100.0
32905,-0.04149598,-0.31363562,-0.17496552,0.1996582,-0.10407715,-0.03079834,100.0
32906,-0.04149598,-0.31363562,-0.17496552,0.4885254,-0.14761963,0.03186035,100.0
32907,0.018646479,-0.5856497,-0.12716724,0.4885254,-0.14761963,0.03186035,100.0
32908,0.018646479,-0.5856497,-0.12716724,0.92501223,-0.14868164,0.20390625,100.0
32909,-0.06291485,-0.6699358,4.0243566E-4,0.92501223,-0.14868164,0.20390625,100.0
32910,-0.06291485,-0.6699358,4.0243566E-4,1.0736939,-0.13699952,0.25806886,100.0
32911,-0.141848,-0.15327042,0.3080612,1.0736939,-0.13699952,0.25806886,100.0
32912,-0.141848,-0.15327042,0.3080612,0.8251831,-0.10513916,0.21452637,100.0
32913,-0.12162049,0.4749789,0.48377806,0.8251831,-0.10513916,0.21452637,100.0
32914,-0.12162049,0.4749789,0.48377806,0.48215333,-0.10301514,0.1901001,100.0
32915,-0.09406153,0.6377712,0.355272,0.48215333,-0.10301514,0.1901001,100.0
32916,-0.09406153,0.6377712,0.355272,0.32285157,-0.10938721,0.07965088,100.0
32917,-0.041423544,0.38347137,0.12102179,0.32285157,-0.10938721,0.07965088,100.0
32918,-0.041423544,0.38347137,0.12102179,0.2262085,-0.0541626,0.008496094,100.0
32919,-0.014645182,0.13327856,0.06415141,0.2262085,-0.0541626,0.008496094,100.0
32920,-0.014645182,0.13327856,0.06415141,0.04248047,0.0053100586,-0.059472658,100.0
32921,0.09145768,0.16200617,0.07868929,0.04248047,0.0053100586,-0.059472658,100.0
32922,0.09145768,0.16200617,0.07868929,-0.16461182,0.08283692,-0.07115479,100.0
32923,0.19952112,0.2894194,0.0073484033,-0.16461182,0.08283692,-0.07115479,100.0
32924,0.19952112,0.2894194,0.0073484033,-0.32391357,0.0541626,-0.023364259,100.0
32925,0.12829366,0.24166739,-0.11256611,-0.32391357,0.0541626,-0.023364259,100.0
32926,0.12829366,0.24166739,-0.11256611,-0.36108398,0.014868164,-0.059472658,100.0
32927,0.051389813,0.015404224,-0.07904215,-0.36108398,0.014868164,-0.059472658,100.0
32928,0.051389813,0.015404224,-0.07904215,-0.32709962,0.07540283,0.035046387,100.0
32929,-0.001344204,-0.16065025,0.080028,-0.32709962,0.07540283,0.035046387,100.0
32930,-0.001344204,-0.16065025,0.080028,-0.3727661,0.13912354,0.11682129,100.0
32931,-0.10474968,-0.20510712,0.15203509,-0.3727661,0.13912354,0.11682129,100.0
32932,-0.10474968,-0.20510712,0.15203509,-0.3971924,0.1263794,0.020178223,100.0
32933,-0.21379241,-0.18220094,0.06573209,-0.3971924,0.1263794,0.020178223,100.0
32934,-0.21379241,-0.18220094,0.06573209,-0.34727785,0.039294433,-0.057348635,100.0
32935,-0.277406,-0.393063,-0.20870583,-0.34727785,0.039294433,-0.057348635,100.0
32936,-0.277406,-0.393063,-0.20870583,-0.08496094,-0.057348635,-0.09664307,100.0
32937,-0.19726661,-0.5627903,-0.30215752,-0.08496094,-0.057348635,-0.09664307,100.0
32938,-0.19726661,-0.5627903,-0.30215752,0.04460449,-0.06690674,-0.0998291,100.0
32939,0.022570014,-0.29975614,-0.08575679,0.04460449,-0.06690674,-0.0998291,100.0
32940,0.022570014,-0.29975614,-0.08575679,0.09239502,0.016992187,0.025488282,100.0
32941,0.20567808,0.13437721,0.038938507,0.09239502,0.016992187,0.025488282,100.0
32942,0.20567808,0.13437721,0.038938507,-0.13062744,0.06159668,0.06478272,100.0
32943,0.16648339,0.3743841,-0.06942293,-0.13062744,0.06159668,0.06478272,100.0
32944,0.16648339,0.3743841,-0.06942293,-0.010620117,0.06796875,0.081774905,100.0
32945,-0.0010173917,0.28211227,-0.24895877,-0.010620117,0.06796875,0.081774905,100.0
32946,-0.0010173917,0.28211227,-0.24895877,0.007434082,0.047790527,0.026550293,100.0
32947,-0.07774263,-0.045464963,-0.110324234,0.007434082,0.047790527,0.026550293,100.0
32948,-0.07774263,-0.045464963,-0.110324234,-0.11044922,0.052038576,-0.06478272,100.0
32949,0.0079475045,0.079716906,0.12836659,-0.11044922,0.052038576,-0.06478272,100.0
32950,0.0079475045,0.079716906,0.12836659,-0.4248047,0.083898924,-0.12213135,100.0
32951,0.0964581,0.13285312,-0.17479697,-0.4248047,0.083898924,-0.12213135,100.0
32952,0.0964581,0.13285312,-0.17479697,-0.05522461,-0.05522461,-0.15930176,100.0
32953,4.246086E-5,-0.8490276,-0.67068475,-0.05522461,-0.05522461,-0.15930176,100.0
32954,4.246086E-5,-0.8490276,-0.67068475,0.88253176,-0.23895264,-0.10620117,100.0
32955,-0.18419455,-1.5884994,-0.75645745,0.88253176,-0.23895264,-0.10620117,100.0
32956,-0.18419455,-1.5884994,-0.75645745,1.5144287,-0.33665773,-0.06478272,100.0
32957,-0.23486784,-0.6356433,-0.19496089,1.5144287,-0.33665773,-0.06478272,100.0
32958,-0.23486784,-0.6356433,-0.19496089,1.4666382,-0.24320069,-0.118945315,100.0
32959,-0.025003653,1.3435484,0.90078175,1.4666382,-0.24320069,-0.118945315,100.0
32960,-0.025003653,1.3435484,0.90078175,0.63720703,0.040356446,-0.3175415,100.0
32961,0.3931074,2.683176,1.7171953,0.63720703,0.040356446,-0.3175415,100.0
32962,0.3931074,2.683176,1.7171953,-0.64782715,0.4333008,-0.35046387,100.0
32963,0.55251086,2.0228715,1.2742201,-0.64782715,0.4333008,-0.35046387,100.0
32964,0.55251086,2.0228715,1.2742201,-0.69986576,0.4428589,-0.3345337,100.0
32965,0.21600771,0.031676054,-0.257455,-0.69986576,0.4428589,-0.3345337,100.0
32966,0.21600771,0.031676054,-0.257455,0.51932377,0.04141846,-0.5065796,100.0
32967,-0.21318015,-1.2021372,-1.2127999,0.51932377,0.04141846,-0.5065796,100.0
32968,-0.21318015,-1.2021372,-1.2127999,0.47365722,-0.21346436,-0.48321533,100.0
32969,-0.4541989,-1.7089021,-0.72373116,0.47365722,-0.21346436,-0.48321533,100.0
32970,-0.4541989,-1.7089021,-0.72373116,0.020178223,-0.038232423,-0.011682129,100.0
32971,-0.33688208,-1.7930862,-0.13225642,0.020178223,-0.038232423,-0.011682129,100.0
32972,-0.33688208,-1.7930862,-0.13225642,0.725354,0.010620117,0.37595215,100.0
32973,-0.10092657,-0.93595815,-0.051935513,0.725354,0.010620117,0.37595215,100.0
32974,-0.10092657,-0.93595815,-0.051935513,0.8050049,-0.06478272,0.32816163,100.0
32975,-0.067728564,0.26815242,-0.07559382,0.8050049,-0.06478272,0.32816163,100.0
32976,-0.067728564,0.26815242,-0.07559382,0.6425171,-0.1178833,0.2803711,100.0
32977,-0.06088451,0.89019334,-0.22746725,0.6425171,-0.1178833,0.2803711,100.0
32978,-0.06088451,0.89019334,-0.22746725,0.5915405,-0.1985962,0.10301514,100.0
32979,0.07151944,0.86662245,-0.024185717,0.5915405,-0.1985962,0.10301514,100.0
32980,0.07151944,0.86662245,-0.024185717,0.41737062,-0.17629395,0.08920898,100.0
32981,0.19781615,0.4948849,0.4550899,0.41737062,-0.17629395,0.08920898,100.0
32982,0.19781615,0.4948849,0.4550899,-0.023364259,0.0053100586,0.18585205,100.0
32983,0.12352391,0.16783175,0.5046115,-0.023364259,0.0053100586,0.18585205,100.0
32984,0.12352391,0.16783175,0.5046115,-0.14974366,0.053100586,0.13912354,100.0
32985,-0.03623946,-0.08875707,0.24325217,-0.14974366,0.053100586,0.13912354,100.0
32986,-0.03623946,-0.08875707,0.24325217,-0.17416993,0.04885254,0.13275146,100.0
32987,-0.13926989,-0.3124119,0.012424007,-0.17416993,0.04885254,0.13275146,100.0
32988,-0.13926989,-0.3124119,0.012424007,-0.08814698,-0.0031860352,0.11044922,100.0
32989,-0.19132315,-0.33003208,-0.1166233,-0.08814698,-0.0031860352,0.11044922,100.0
32990,-0.19132315,-0.33003208,-0.1166233,0.0,-0.0541626,0.053100586,100.0
32991,-0.19132315,-0.33003208,-0.1166233,0.0,-0.0541626,0.053100586,99.0
32992,-0.22634953,-0.03763406,0.021716014,0.0,-0.0541626,0.053100586,99.0
32993,-0.22634953,-0.03763406,0.021716014,-0.02442627,-0.011682129,0.0637207,99.0
32994,-0.25173393,0.37779072,0.2678855,-0.02442627,-0.011682129,0.0637207,99.0
32995,-0.25173393,0.37779072,0.2678855,-0.30054933,-0.033984374,0.0063720704,99.0
32996,-0.32730266,0.44778922,0.28587824,-0.30054933,-0.033984374,0.0063720704,99.0
32997,-0.32730266,0.44778922,0.28587824,-0.50233155,-0.10301514,-0.09451904,99.0
32998,-0.5530531,-0.0036094487,0.0787026,-0.50233155,-0.10301514,-0.09451904,99.0
32999,-0.5530531,-0.0036094487,0.0787026,-0.43117675,-0.15186767,-0.087084964,99.0
33000,-0.54379743,-0.6260077,-0.11316097,-0.43117675,-0.15186767,-0.087084964,99.0
33001,-0.54379743,-0.6260077,-0.11316097,0.060534667,-0.17735596,-0.013806152,99.0
33002,-0.12726206,-0.80662894,-0.100257784,0.060534667,-0.17735596,-0.013806152,99.0
33003,-0.12726206,-0.80662894,-0.100257784,0.19328614,-0.07752686,0.21134034,99.0
33004,0.31341255,-0.47114542,-0.108441085,0.19328614,-0.07752686,0.21134034,99.0
33005,0.31341255,-0.47114542,-0.108441085,0.25594482,0.093457036,0.5734863,99.0
33006,0.58577645,-0.07738021,-0.3947729,0.25594482,0.093457036,0.5734863,99.0
33007,0.58577645,-0.07738021,-0.3947729,0.12319336,0.19328614,0.7412842,99.0
33008,0.80651176,0.21895522,-0.684727,0.12319336,0.19328614,0.7412842,99.0
33009,0.80651176,0.21895522,-0.684727,0.13275146,0.20072022,0.52038574,99.0
33010,0.92200387,0.68397766,-0.24436365,0.13275146,0.20072022,0.52038574,99.0
33011,0.92200387,0.68397766,-0.24436365,-0.28780517,0.29205322,0.2782471,99.0
33012,0.5506524,0.9545064,0.40292215,-0.28780517,0.29205322,0.2782471,99.0
33013,0.5506524,0.9545064,0.40292215,-0.7062378,0.45666504,0.27293703,99.0
33014,0.089972615,0.65845376,0.0070789456,-0.7062378,0.45666504,0.27293703,99.0
33015,0.089972615,0.65845376,0.0070789456,-0.56392825,0.15611573,-0.010620117,99.0
33016,-0.10175237,0.40386263,-1.0177255,-0.56392825,0.15611573,-0.010620117,99.0
33017,-0.10175237,0.40386263,-1.0177255,-0.54587406,-0.10513916,-0.026550293,99.0
33018,-0.034258336,0.11373952,-0.8480427,-0.54587406,-0.10513916,-0.026550293,99.0
33019,-0.034258336,0.11373952,-0.8480427,0.3971924,-0.4163086,-0.30054933,99.0
33020,0.23044246,-0.10836142,0.5976279,0.3971924,-0.4163086,-0.30054933,99.0
33021,0.23044246,-0.10836142,0.5976279,-0.18691407,-0.19434814,-0.19328614,99.0
33022,0.20387301,-0.18747038,1.1807268,-0.18691407,-0.19434814,-0.19328614,99.0
33023,0.20387301,-0.18747038,1.1807268,-0.26656494,-0.0998291,-0.087084964,99.0
33024,0.081323504,-0.33127514,0.7960829,-0.26656494,-0.0998291,-0.087084964,99.0
33025,0.081323504,-0.33127514,0.7960829,-0.24532472,0.029736329,0.008496094,99.0
33026,0.025385946,-0.3620538,0.45393178,-0.24532472,0.029736329,0.008496094,99.0
33027,0.025385946,-0.3620538,0.45393178,-0.4715332,0.16673584,0.11682129,99.0
33028,-0.11224741,-0.34434277,-0.14825594,-0.4715332,0.16673584,0.11682129,99.0
33029,-0.11224741,-0.34434277,-0.14825594,-0.32603762,0.124255374,0.10513916,99.0
33030,-0.24503475,-0.33268857,-0.81805545,-0.32603762,0.124255374,0.10513916,99.0
33031,-0.24503475,-0.33268857,-0.81805545,0.33028564,-0.03079834,0.04141846,99.0
33032,-0.053400874,-0.24145603,-0.39550883,0.33028564,-0.03079834,0.04141846,99.0
33033,-0.053400874,-0.24145603,-0.39550883,0.12213135,0.13806152,0.0053100586,99.0
33034,0.27995998,-0.09637528,0.27415693,0.12213135,0.13806152,0.0053100586,99.0
33035,0.27995998,-0.09637528,0.27415693,-0.045666505,0.24107666,0.09451904,99.0
33036,0.437945,0.09636169,-0.18249333,-0.045666505,0.24107666,0.09451904,99.0
33037,0.437945,0.09636169,-0.18249333,0.28674316,0.19541016,0.12956543,99.0
33038,0.49852496,0.023720212,-0.6186021,0.28674316,0.19541016,0.12956543,99.0
33039,0.49852496,0.023720212,-0.6186021,0.8262451,0.17947999,0.19541016,99.0
33040,0.7768961,-0.4766659,0.16782585,0.8262451,0.17947999,0.19541016,99.0
33041,0.7768961,-0.4766659,0.16782585,0.82730716,0.20072022,0.19328614,99.0
33042,0.9794514,-0.58449435,0.66109174,0.82730716,0.20072022,0.19328614,99.0
33043,0.9794514,-0.58449435,0.66109174,0.56392825,-0.19222413,-0.026550293,99.0
33044,0.21445715,0.07222383,-0.1152062,0.56392825,-0.19222413,-0.026550293,99.0
33045,0.21445715,0.07222383,-0.1152062,-0.35046387,-0.14761963,0.07752686,99.0
33046,-1.27028,0.48359692,-0.7709491,-0.35046387,-0.14761963,0.07752686,99.0
33047,-1.27028,0.48359692,-0.7709491,-0.20390625,-0.24851075,0.06584473,99.0
33048,-2.119007,0.6691896,-0.64216214,-0.20390625,-0.24851075,0.06584473,99.0
33049,-2.119007,0.6691896,-0.64216214,0.2516968,-0.35152587,-0.15930176,99.0
33050,-1.9569734,1.0543824,0.51424885,0.2516968,-0.35152587,-0.15930176,99.0
33051,-1.9569734,1.0543824,0.51424885,-0.21983643,-0.15505372,-0.22408448,99.0
33052,-1.135989,0.87875986,2.1100929,-0.21983643,-0.15505372,-0.22408448,99.0
